timestamp,acc_x,acc_y,acc_z,gyro_x,gyro_y,gyro_z,ori_azimuth,ori_pitch,ori_roll
2988025465000.0,-2.4242142155526016,9.548504382263577,1.0083035176604631,-1.1768318,0.74097955,0.032986723,39.441658,22.919771,-41.221195
2988030468000.0,-2.423495914980411,9.54826494290583,1.0121344723799148,-1.1768318,0.7498371,0.038789943,39.447502,22.924456,-41.21706
2988035517000.0,-2.422771010005597,9.548023302026904,1.0160006507485957,-1.1765264,0.7632761,0.032986723,39.00965,22.611973,-41.55068
2988040479000.0,-2.4220585959661785,9.547785824894556,1.0198002104763426,-1.1951579,0.7501425,0.02687807,38.551292,22.288082,-41.884678
2988045500000.0,-2.4213377110625265,9.547545524072,1.023644948362884,-1.1936307,0.7333437,0.022296581,38.09364,21.948317,-42.235767
2988050625000.0,-2.4206018944659884,9.547300245897215,1.027569322325944,-1.1643091,0.73761976,0.029932396,37.619156,21.59168,-42.59321
2988055495000.0,-2.4199026892318147,9.547067171807225,1.031298434755232,-1.1722504,0.7470882,0.03390302,37.12878,21.23035,-42.94978
2988060499000.0,-2.419184245085654,9.54682768459032,1.035130155206189,-1.1765264,0.7611381,0.03634648,36.621235,20.84808,-43.312218
2988065503000.0,-2.418465800939493,9.546588197373415,1.038961875657145,-1.1911873,0.784351,0.040927973,36.098064,20.455208,-43.682594
2988070455000.0,-2.4177548226397745,9.54635119883263,1.0427537780698422,-1.2257011,0.79779,0.04153884,35.558773,20.054686,-44.055893
2988075488000.0,-2.417032214848482,9.5461103237002,1.046607704734443,-1.2373075,0.7464773,0.04642576,34.990677,19.638344,-44.421524
2988080479000.0,-2.4163156371639314,9.545871458652329,1.050429470675835,-1.1954633,0.7672467,0.059864793,34.417156,19.204296,-44.811287
2988085418000.0,-2.415606525325824,9.545635082280567,1.0542114185789673,-1.2452488,0.7632761,0.06291912,33.81328,18.7795,-45.181896
2988090409000.0,-2.414889947641274,9.545396217232694,1.058033184520359,-1.2501358,0.7489208,0.06872234,33.186802,18.323292,-45.55759
2988095404000.0,-2.414172795660843,9.545157160748197,1.0618580133877706,-1.239751,0.73945236,0.070554934,32.54205,17.862766,-45.933334
2988100477000.0,-2.4134444449107484,9.544914371249526,1.065742569312571,-1.2434162,0.72692966,0.083383106,31.868937,17.39146,-46.306183
2988105500000.0,-2.412723272859156,9.544673974708656,1.0695888386621224,-1.2409728,0.70616025,0.10873401,31.16806,16.90357,-46.67511
2988110428000.0,-2.412015740334719,9.544438124787614,1.0733623635186995,-1.2507466,0.65301496,0.10629055,30.445768,16.411911,-47.028954
2988115422000.0,-2.411298731928259,9.544199116162272,1.0771864266546065,-1.180497,0.58246,0.106901415,29.68686,15.889204,-47.37397
2988120432000.0,-2.4105794263382774,9.543959341790432,1.0810227414945928,-1.0855075,0.5109888,0.106901415,28.901207,15.35538,-47.701675
2988125486000.0,-2.409853803493613,9.543717461615728,1.0848927485207986,-0.95417154,0.43951756,0.093767814,28.090654,14.796242,-48.005966
2988130460000.0,-2.409139666566554,9.543479410173507,1.0887014970266056,-0.8246681,0.40622538,0.086437434,27.255056,14.210873,-48.297947
2988135427000.0,-2.408426534657285,9.543241693745378,1.0925048854118775,-0.70249504,0.35063666,0.07513642,26.395039,13.599337,-48.558216
2988140446000.0,-2.407705936901573,9.543001488641131,1.096348091835409,-0.6404922,0.1863139,0.039095376,25.511549,12.975505,-48.77134
2988145444000.0,-2.4069883541992323,9.542762288579167,1.1001752178973354,-0.3313944,-0.023518313,-0.010995574,24.610907,12.283789,-48.948124
2988150523000.0,-2.406259142005317,9.54251921192556,1.104064368211166,0.03176499,-0.015271631,-0.0143553335,23.702145,11.562947,-49.133545
2988155424000.0,-2.405555485978072,9.542284654201731,1.1078172183171089,0.011911872,0.004581489,-0.008552114,22.77466,10.85968,-49.25354
2988160448000.0,-2.4048341703525096,9.542044209801707,1.1116642533981649,-0.032070424,0.0027488936,-0.007941248,21.84233,10.092111,-49.359913
2988165410000.0,-2.4041217563130908,9.54180673266936,1.115463813125912,-0.035430185,-0.007330383,-0.015882496,20.906431,9.317218,-49.45977
2988170411000.0,-2.40340374288884,9.541567389029924,1.1192932363823536,-0.042760566,-0.0125227375,-0.014660766,19.961094,8.545118,-49.551456
2988175487000.0,-2.402674961416835,9.541324455953786,1.123180089501669,-0.03756821,-0.009773844,-0.02565634,19.019323,7.7723308,-49.631287
2988180446000.0,-2.401962978099326,9.541087122398904,1.1269773520349011,-0.04917465,-0.011911872,-0.026572637,18.067728,6.998366,-49.698868
2988185420000.0,-2.401248841172267,9.540849070956684,1.130786100540708,-0.05589417,-0.014660766,-0.03359759,17.120558,6.2235503,-49.75574
2988190410000.0,-2.4005324070616867,9.540610253767966,1.134607100750595,-0.064751714,-0.016798794,-0.040927973,16.17143,5.449095,-49.801678
2988195420000.0,-2.399813101471705,9.540370479396127,1.1384434155905812,-0.0693332,-0.013744468,-0.04642576,15.223146,4.674131,-49.837513
2988200439000.0,-2.3990925037159934,9.540130274291885,1.1422866220141124,-0.06841691,-0.02321288,-0.05009095,14.2758,3.899217,-49.858334
2988205457000.0,-2.3983720495342515,9.539890117046795,1.146129062706139,-0.07269296,-0.021991149,-0.05222898,13.33099,3.1255207,-49.87221
2988210406000.0,-2.397661501956444,9.539653262083476,1.1499186679243207,-0.087659165,-0.020158553,-0.064751714,12.39303,2.3555872,-49.872517
2988215422000.0,-2.3969413349226416,9.5394132005567,1.153759577153337,-0.0870483,-0.02443461,-0.058643065,11.449498,1.5791479,-49.86094
2988220414000.0,-2.396224613664121,9.53917428764967,1.157582108826234,-0.10354166,-0.03176499,-0.06536258,10.519919,0.8136718,-49.837925
2988225481000.0,-2.3954971243578465,9.538931785305936,1.1614620703620044,-0.10262536,-0.033292156,-0.058948494,9.585365,0.040464178,-49.804768
2988230472000.0,-2.3947805466732963,9.53869292025806,1.1652838363033962,-0.09896017,-0.03481932,-0.06047566,8.661695,-0.7268996,-49.758835
2988235429000.0,-2.3942018,9.53783510400672,1.1691683756547904,-0.11148291,-0.041233405,-0.06627888,7.742417,-1.4914981,-49.7005
2988240418000.0,-2.3942018,9.53425285118762,1.17346708153141,-0.118202426,-0.04153884,-0.065973446,6.8271184,-2.258143,-49.632923
2988245411000.0,-2.3942018,9.530667726247602,1.1777692339551344,-0.12217305,-0.046731193,-0.063224554,5.912172,-3.0314617,-49.526253
2988250449000.0,-2.3942018,9.527050289947216,1.182110160033789,-0.11911872,-0.04062254,-0.06352998,5.0070662,-3.803026,-49.412823
2988255457000.0,-2.3942018,9.523454394553744,1.186425237009157,-0.124311075,-0.0421497,-0.06536258,4.1116853,-4.5710864,-49.285934
2988260463000.0,-2.3942018,9.51985993522073,1.1907385907109724,-0.13591751,-0.04184427,-0.06352998,3.2247682,-5.337468,-49.15156
2988265431000.0,-2.3942018,9.51629276103647,1.195019202215291,-0.13164146,-0.04734206,-0.06505715,2.3514645,-6.102665,-49.005936
2988270409000.0,-2.3942018,9.512718406549904,1.199308430087372,-0.12614368,-0.041233405,-0.062002823,1.4859335,-6.865032,-48.854225
2988275464000.0,-2.3942018,9.509088763735605,1.2036640039912228,-0.12675454,-0.04337143,-0.06658431,0.6373102,-7.6225076,-48.690235
2988280430000.0,-2.3942018,9.505523025611804,1.207942892221989,-0.12797627,-0.047647487,-0.064751714,359.79678,-8.380136,-48.518166
2988285453000.0,-2.3942018,9.501916359764875,1.2122708937490003,-0.12980886,-0.04428773,-0.06261369,358.9703,-9.133556,-48.339474
2988290413000.0,-2.3942018,9.498354929822458,1.216544612159109,-0.13255776,-0.043676864,-0.06811147,358.1602,-9.882027,-48.151154
2988295396000.0,-2.3942018,9.49477698518474,1.2208381482150712,-0.1282817,-0.049785517,-0.06627888,357.3601,-10.630008,-47.953415
2988300486000.0,-2.3942018,9.49112221131238,1.22522387940609,-0.124311075,-0.04153884,-0.06536258,356.5747,-11.372308,-47.75277
2988305466000.0,-2.3942018,9.487546420765357,1.2295148305517234,-0.13591751,-0.052534413,-0.06719518,355.807,-12.1083355,-47.538094
2988310447000.0,-2.3942018,9.4839699121881,1.233806643334133,-0.129198,-0.051923547,-0.07391469,355.05264,-12.843543,-47.32234
2988315431000.0,-2.3942018,9.480391249520157,1.2381010410268714,-0.129198,-0.048258353,-0.07452556,354.31213,-13.5719,-47.09753
2988320418000.0,-2.3942018,9.476810432761516,1.2423980236299383,-0.13133603,-0.05131268,-0.073303826,353.58914,-14.295546,-46.865368
2988325499000.0,-2.3942018,9.473162121161227,1.2467760000899712,-0.124005646,-0.047647487,-0.0729984,352.87967,-15.016224,-46.63031
2988330517000.0,-2.3942018,9.469559045465452,1.2510996934331011,-0.11575896,-0.054367006,-0.0720821,352.1865,-15.732196,-46.385952
2988335452000.0,-2.3942018,9.466015566278791,1.2553518709238043,-0.115453534,-0.05100725,-0.07544186,351.50745,-16.44217,-46.140434
2988340424000.0,-2.3942018,9.462445519973608,1.259635928975228,-0.11759156,-0.05100725,-0.080634214,350.84515,-17.14808,-45.887524
2988345418000.0,-2.3942018,9.45885967700336,1.2639389430357286,-0.10903945,-0.05497787,-0.07880162,350.19653,-17.851503,-45.629417
2988350488000.0,-2.3942018,9.455219263735604,1.2683074414912228,-0.10567969,-0.05375614,-0.08002335,349.5649,-18.546282,-45.369415
2988355456000.0,-2.3942018,9.451652089551343,1.2725880529955416,-0.10140363,-0.04642576,-0.089491755,348.94992,-19.235842,-45.106865
2988360623000.0,-2.3942018,9.447942027351248,1.2770401302183303,-0.10262536,-0.044593163,-0.0888809,348.34726,-19.921143,-44.8384
2988365552000.0,-2.3942018,9.444402856345969,1.2812871378883757,-0.102319926,-0.04428773,-0.093767814,347.7633,-20.598457,-44.570087
2988370414000.0,-2.3942018,9.440911793366125,1.285476415894414,-0.10781772,-0.025961773,-0.09193522,347.18713,-21.270044,-44.302563
2988375542000.0,-2.3942018,9.43722973434501,1.2898948892829296,-0.118507855,-0.042760566,-0.09193522,346.63452,-21.93319,-44.0246
2988380442000.0,-2.3942018,9.43371138621641,1.2941169094864644,-0.10598512,-0.03848451,-0.09987647,346.0898,-22.592237,-43.754677
2988385470000.0,-2.3942018,9.43010113021833,1.298449219197357,-0.11056661,-0.029321533,-0.10048734,345.55884,-23.241367,-43.47848
2988390432000.0,-2.3942018,9.42653826421545,1.302724660881018,-0.12003502,-0.040927973,-0.09682214,345.04626,-23.884853,-43.196896
2988395439000.0,-2.3942018,9.422943086852207,1.3070388762196097,-0.112399206,-0.050396383,-0.09468412,344.54535,-24.523886,-42.916607
2988400498000.0,-2.3942018,9.419310571916986,1.3113978966705655,-0.12186762,-0.055588737,-0.0842994,344.05545,-25.154003,-42.63118
2988405458000.0,-2.3942018,9.415749141974567,1.3156716150806742,-0.11911872,-0.06291912,-0.07574729,343.58124,-25.781448,-42.341785
2988410455000.0,-2.3942018,9.412161144913629,1.3199772140515036,-0.11362094,-0.06658431,-0.06719518,343.11707,-26.403275,-42.04937
2988415406000.0,-2.3942018,9.408606177243282,1.3242431777306265,-0.106901415,-0.086132,-0.06078109,342.66922,-27.02059,-41.74991
2988420438000.0,-2.3942018,9.40499304912428,1.3285789339886238,-0.106595986,-0.08155051,-0.06169739,342.22888,-27.631271,-41.454475
2988425498000.0,-2.3942018,9.401359816158829,1.3329388160763556,-0.09621128,-0.076358154,-0.05222898,341.80057,-28.241955,-41.15161
2988430882000.0,-2.3942018,9.397493941398752,1.3375778684795867,-0.08735373,-0.0842994,-0.04886922,341.38873,-28.84408,-40.848152
2988435419000.0,-2.394161127290491,9.394359921540088,1.3402649270611928,-0.08277224,-0.07666359,-0.05222898,340.98322,-29.44106,-40.549007
2988440494000.0,-2.39391885733655,9.391452646676171,1.3373576850841429,-0.08246681,-0.06261369,-0.043066,340.58542,-30.035349,-40.24692
2988445403000.0,-2.3936845118776544,9.388640466911252,1.3345455371303812,-0.07452556,-0.062308256,-0.043982297,340.226,-30.617735,-39.93026
2988450555000.0,-2.3934385661037223,9.385689081670089,1.3315941852750584,-0.07544186,-0.048563786,-0.050701816,339.8696,-31.19261,-39.620155
2988455510000.0,-2.3932020247004164,9.38285055025123,1.328755685965446,-0.06963864,-0.040011674,-0.05222898,339.52374,-31.764547,-39.309555
2988460419000.0,-2.392967679241521,9.38003837048631,1.3259435380116844,-0.07147124,-0.02565634,-0.055283304,339.18542,-32.32643,-39.006107
2988465451000.0,-2.392727462018224,9.377155728690209,1.323060928823799,-0.06078109,-0.024740042,-0.06047566,338.85928,-32.884373,-38.70389
2988471407000.0,-2.392443134955037,9.373743762367155,1.3196490010966444,-0.062002823,-0.010079277,-0.067500606,338.53693,-33.43196,-38.41
2988475448000.0,-2.392250226012402,9.371428826854824,1.3173340917706815,-0.05955936,0.00061086525,-0.073303826,338.22577,-33.974754,-38.11792
2988480509000.0,-2.3920086243893683,9.368529572059495,1.3144348697714994,-0.05467244,0.0030543262,-0.07849618,337.92377,-34.509724,-37.830116
2988485538000.0,-2.3917685503798376,9.36564864884952,1.3115539791503,-0.055283304,-0.004276057,-0.09773844,337.63538,-35.03321,-37.548363
2988490470000.0,-2.391533106948737,9.362823293257632,1.308728655518613,-0.04886922,-0.00580322,-0.09407325,337.34903,-35.556084,-37.266396
2988495535000.0,-2.3912913143740155,9.359921747014136,1.3058271420971828,-0.04337143,-0.004581489,-0.09560041,337.07828,-36.066853,-36.990517
2988500567000.0,-2.3910510971507186,9.357039105218032,1.3029445329092977,-0.053450707,-0.0015271631,-0.102319926,336.81586,-36.568935,-36.71704
2988505608000.0,-2.3908104502861245,9.35415130766355,1.3000567680213548,-0.03390302,-0.0070249503,-0.10048734,336.56168,-37.07262,-36.442753
2988510444000.0,-2.390579589695532,9.351380946827708,1.2972864385236178,-0.03268129,-0.008857546,-0.10293079,336.31598,-37.561977,-36.174244
2988515421000.0,-2.390341998057943,9.34852981244392,1.2944353363916417,-0.03481932,-0.015882496,-0.101098195,336.07925,-38.049164,-35.90464
2988520423000.0,-2.3901032129723045,9.345664356509085,1.291569912870616,-0.035430185,-0.016493361,-0.103847094,335.85028,-38.5288,-35.639717
2988525479000.0,-2.389861850038881,9.342767966023969,1.2886735551492434,-0.025045475,-0.036651913,-0.10781772,335.63562,-39.00362,-35.372215
2988530438000.0,-2.389625117683887,9.33992714315694,1.2858327644173828,-0.030543262,-0.040927973,-0.10751228,335.42365,-39.469017,-35.10966
2988535402000.0,-2.389388146639284,9.337083455979702,1.2829891094077124,-0.039095376,-0.03634648,-0.10751228,335.2226,-39.928318,-34.848583
2988540442000.0,-2.389147547512612,9.334196231287262,1.2801019173753316,-0.044593163,-0.047036625,-0.115453534,335.03522,-40.379,-34.588425
2988545434000.0,-2.388909239806193,9.331336503972842,1.2772422224099258,-0.044898596,-0.049480084,-0.11453723,334.84897,-40.82445,-34.331287
2988550486000.0,-2.388668067824457,9.328442404935895,1.274348156110801,-0.057421334,-0.047647487,-0.110872045,334.67188,-41.259037,-34.07695
2988555500000.0,-2.388428709883756,9.32557007465655,1.2714758583230317,-0.070554934,-0.05131268,-0.115453534,334.50464,-41.685543,-33.82575
2988560445000.0,-2.3881926458596694,9.322737271858117,1.2686430875690389,-0.087964594,-0.04795292,-0.10934488,334.33792,-42.105644,-33.575626
2988565429000.0,-2.387954720056627,9.319882127440032,1.2657879754481287,-0.101098195,-0.047647487,-0.106901415,334.18048,-42.51612,-33.32915
2988570453000.0,-2.3877148847367056,9.317004068540268,1.2629099491047395,-0.105068825,-0.03604105,-0.11789699,334.02597,-42.917385,-33.089783
2988575432000.0,-2.387477197623273,9.314151788432396,1.2600577012616394,-0.11148291,-0.043066,-0.1133155,333.87833,-43.313522,-32.84611
2988580445000.0,-2.3872378874204934,9.311280031015094,1.257185976329432,-0.124005646,-0.036651913,-0.10751228,333.73083,-43.699745,-32.61176
2988585401000.0,-2.387001298279265,9.308440926734194,1.2543469041642574,-0.13805555,-0.048563786,-0.105374254,333.5953,-44.0788,-32.375977
2988590423000.0,-2.3867615584351887,9.305564013558511,1.2514700235319922,-0.15882497,-0.044593163,-0.10995574,333.4586,-44.448227,-32.146996
2988595448000.0,-2.3865216753773453,9.302685381796705,1.248591424333041,-0.16065755,-0.05100725,-0.1020145,333.33005,-44.816032,-31.91396
2988600548000.0,-2.3862782119753554,9.299763785381732,1.2456698609669412,-0.16615535,-0.057726767,-0.10751228,333.2084,-45.169785,-31.688805
2988605449000.0,-2.3860442484198354,9.29695618851315,1.2428622958576756,-0.17715092,-0.06536258,-0.10720685,333.0907,-45.51956,-31.462267
2988610414000.0,-2.38580722963731,9.294111928473871,1.2400180679924433,-0.18051068,-0.069027774,-0.11301007,332.98013,-45.86186,-31.241135
2988615419000.0,-2.3855683013379063,9.291244753952904,1.2371509259047315,-0.19242255,-0.074830994,-0.12186762,332.87692,-46.194515,-31.022238
2988620405000.0,-2.38533028005902,9.28838846381074,1.2342946680726976,-0.19181168,-0.080634214,-0.13530666,332.78052,-46.52146,-30.808372
2988625543000.0,-2.385085002615995,9.285445098638167,1.2313513361952426,-0.2003638,-0.09193522,-0.14263703,332.69156,-46.83869,-30.596506
2988630527000.0,-2.3848470768129526,9.282589954220088,1.228496224074333,-0.20616703,-0.095294975,-0.14019357,332.60626,-47.150776,-30.388878
2988635617000.0,-2.3857151653430364,9.278730013339596,1.2277390893503133,-0.19914207,-0.10140363,-0.1432479,332.53067,-47.456043,-30.185268
2988640417000.0,-2.397662182800966,9.265634269116008,1.24864636990169,-0.20708331,-0.098043874,-0.16157386,332.45886,-47.749775,-29.988743
2988645405000.0,-2.410077125109331,9.25202560824366,1.2703725189413289,-0.21930063,-0.09743301,-0.17562376,332.38043,-48.047997,-29.7977
2988650582000.0,-2.422962481230102,9.237901302442513,1.2929218921526782,-0.21960606,-0.11301007,-0.17867808,332.31018,-48.340935,-29.609138
2988655529000.0,-2.435275376097681,9.224404501052074,1.3144694581709409,-0.22296582,-0.118507855,-0.1872302,332.2433,-48.62244,-29.429474
2988660440000.0,-2.4474986683343247,9.211005917743314,1.3358602195850682,-0.22999077,-0.12797627,-0.20189096,332.18643,-48.89694,-29.25178
2988665419000.0,-2.4598912099849564,9.197421811391386,1.3575471674736732,-0.23854288,-0.14202617,-0.20799962,332.1353,-49.16629,-29.075174
2988670407000.0,-2.472306152293321,9.18381315051904,1.3792733165133122,-0.24770586,-0.1441642,-0.21746802,332.08917,-49.426235,-28.905888
2988675482000.0,-2.4849376342931118,9.16996712928264,1.4013784100129447,-0.24678956,-0.1469131,-0.22937989,332.05118,-49.680653,-28.739151
2988680534000.0,-2.4975118701675822,9.156183858487314,1.4233833227932688,-0.2415972,-0.13775012,-0.23396139,332.01324,-49.92978,-28.57678
2988685435000.0,-2.509710272784522,9.14281255797902,1.444730527372914,-0.2507602,-0.13041973,-0.24801129,331.98242,-50.16795,-28.421509
2988690420000.0,-2.5221177482069765,9.129212081946813,1.4664436093622082,-0.26358834,-0.1255328,-0.25320363,331.95132,-50.403534,-28.268456
2988695459000.0,-2.534659627575832,9.11546427879209,1.4883918982577056,-0.26939157,-0.12492194,-0.26267207,331.92453,-50.63114,-28.122671
2988700446000.0,-2.5470720809222267,9.101858346199789,1.5101136916138964,-0.2761111,-0.108123146,-0.27397305,331.89493,-50.85105,-27.983757
2988705588000.0,-2.559870323374034,9.087829530200269,1.5325106159045587,-0.28099802,-0.09560041,-0.28099802,331.86923,-51.065617,-27.84777
2988710435000.0,-2.571934322044572,9.07460555681449,1.553622613578001,-0.28924468,-0.08155051,-0.27916542,331.8407,-51.27435,-27.716911
2988715432000.0,-2.584371665010671,9.060972341421724,1.5753879637686736,-0.3051272,-0.06719518,-0.29260445,331.81384,-51.47262,-27.595356
2988720414000.0,-2.596771673547213,9.047380050229656,1.597087978707623,-0.31031954,-0.0580322,-0.29810223,331.78485,-51.670204,-27.474411
2988725443000.0,-2.609288663296365,9.0336595298754,1.6189927107686386,-0.31673363,-0.048563786,-0.30757064,331.7561,-51.85769,-27.361616
2988730515000.0,-2.621912678410244,9.01982169347914,1.6410847372179267,-0.31764993,-0.04184427,-0.30695978,331.72656,-52.04317,-27.250225
2988735479000.0,-2.6342678856313197,9.006278511327912,1.6627063498548087,-0.32253686,-0.044898596,-0.310625,331.70087,-52.220783,-27.14392
2988740417000.0,-2.6465583798411645,8.992806264457894,1.6842147147220374,-0.31795537,-0.04520403,-0.32070425,331.67496,-52.395878,-27.041956
2988745398000.0,-2.6589558994157367,8.979216701545873,1.705910373977539,-0.31398472,-0.047036625,-0.3200934,331.6509,-52.568592,-26.93918
2988750455000.0,-2.67154258010006,8.965419789350314,1.727937065175104,-0.30787608,-0.04550946,-0.3200934,331.62912,-52.737503,-26.841057
2988755477000.0,-2.6840421471154183,8.951718366956383,1.749811307451982,-0.30268374,-0.04184427,-0.32162055,331.6089,-52.90402,-26.74473
2988760448000.0,-2.6964147770702867,8.938156086844828,1.771463409873001,-0.2947425,-0.058948494,-0.32559118,331.59598,-53.068954,-26.64807
2988765422000.0,-2.7087948739110663,8.924585621893133,1.7931285793443654,-0.28985557,-0.06352998,-0.32742378,331.57983,-53.23169,-26.554811
2988770403000.0,-2.7211923934856386,8.910996058981112,1.814824238599867,-0.2855795,-0.0729984,-0.3286455,331.5719,-53.39239,-26.461103
2988775584000.0,-2.734087705454291,8.896860840059775,1.8373910345450093,-0.2706133,-0.071776666,-0.33536503,331.5646,-53.5518,-26.37154
2988780414000.0,-2.746109391771333,8.883683247434789,1.858428985599832,-0.27183503,-0.0729984,-0.33964106,331.5619,-53.706543,-26.281649
2988785423000.0,-2.7585766022810763,8.870017292681464,1.8802466039918837,-0.26175576,-0.06780604,-0.33505958,331.558,-53.864086,-26.193602
2988790413000.0,-2.770996522513382,8.856403175249024,1.9019814643984183,-0.26939157,-0.070249505,-0.3378085,331.55957,-54.012947,-26.108843
2988796245000.0,-2.7855121487247665,8.840491846017363,1.9273838102683407,-0.2657264,-0.06780604,-0.33750305,331.55844,-54.164883,-26.024776
2988800493000.0,-2.796085259175034,8.828902112379486,1.9458867535563096,-0.26297748,-0.06047566,-0.33536503,331.55795,-54.312466,-25.942614
2988805468000.0,-2.808467844977784,8.815328919147746,1.9675562787111216,-0.27397305,-0.06536258,-0.3371976,331.562,-54.45483,-25.861555
2988810660000.0,-2.8213905355281117,8.801163689145895,1.9901709871741944,-0.27947086,-0.076358154,-0.33200526,331.56564,-54.598236,-25.779606
2988815426000.0,-2.833252928279047,8.78816070644389,2.0109301744883323,-0.28985557,-0.07788532,-0.32895094,331.56964,-54.73536,-25.700565
2988820457000.0,-2.84577489595214,8.77443472952954,2.032843617916244,-0.2941316,-0.09590584,-0.3313944,331.58267,-54.87016,-25.61963
2988825440000.0,-2.8581773934506525,8.760839710057427,2.054547988538641,-0.2938262,-0.113926366,-0.34025195,331.59766,-55.00081,-25.54077
2988830468000.0,-2.870691894237834,8.747121917983216,2.076448364916209,-0.2846632,-0.1386664,-0.35643986,331.62204,-55.12797,-25.462864
2988835716000.0,-2.8841217005834774,8.733416430835518,2.098627496446275,-0.27672195,-0.16462818,-0.36743546,331.65335,-55.251976,-25.385008
2988840468000.0,-2.8997814224533967,8.726834815331983,2.1122446488864064,-0.2855795,-0.18661933,-0.38637227,331.69464,-55.367214,-25.312313
2988845458000.0,-2.9162254485752186,8.719923565045232,2.126543805173497,-0.29077184,-0.22357668,-0.4089743,331.81937,-55.36979,-25.285412
2988850448000.0,-2.932669474697041,8.71301231475848,2.140842961460588,-0.28955013,-0.25350907,-0.4364632,331.9505,-55.36676,-25.263561
2988855482000.0,-2.949258498243584,8.706040123587437,2.1552682024924943,-0.28221974,-0.269697,-0.4550946,332.08896,-55.361053,-25.243122
2988860409000.0,-2.9654949144163734,8.69921612956683,2.1693868283495075,-0.2919936,-0.27488935,-0.47952923,332.23608,-55.34539,-25.229588
2988865391000.0,-2.981912577370064,8.69231595944086,2.183663060137541,-0.31398472,-0.28130344,-0.50793445,332.39,-55.324177,-25.220293
2988870454000.0,-2.9985971674010834,8.685303602686988,2.198171402478531,-0.33200526,-0.28038713,-0.53023106,332.54456,-55.298306,-25.216318
2988875466000.0,-3.015113692235266,8.67836188195809,2.2125336011380297,-0.3539964,-0.2660318,-0.54550266,332.6987,-55.263447,-25.218882
2988880495000.0,-3.0316862388017274,8.671396615887533,2.226944514358025,-0.36987892,-0.26939157,-0.55680364,332.85892,-55.223076,-25.22422
2988885424000.0,-3.047929245766549,8.664569851826732,2.241068871339803,-0.3924809,-0.2611449,-0.573297,333.0132,-55.173645,-25.237883
2988890415000.0,-3.064376567284388,8.657657216519883,2.255370893189276,-0.40775254,-0.26511553,-0.58246,333.17133,-55.12262,-25.250526
2988895432000.0,-3.0809095690986528,8.650708570690497,2.269747419660685,-0.4269948,-0.26053402,-0.5928447,333.32574,-55.063725,-25.269527
2988900430000.0,-3.097379958388606,8.643786240242965,2.284069500446833,-0.44348818,-0.27214047,-0.5925393,333.4846,-55.00385,-25.285362
2988905441000.0,-3.1138931878267724,8.636845904534166,2.2984288335439502,-0.45937067,-0.2846632,-0.6032294,333.644,-54.937,-25.306799
2988910403000.0,-3.130244942860135,8.629973434810145,2.31264775408434,-0.46975538,-0.29810223,-0.5910121,333.80267,-54.874184,-25.320324
2988915432000.0,-3.146817489426597,8.62300816873959,2.3270586673043354,-0.47555858,-0.3051272,-0.59681535,333.96564,-54.804348,-25.340153
2988920420000.0,-3.163254924756386,8.616099688493033,2.341352092466662,-0.48563787,-0.30176744,-0.59498274,334.12543,-54.73717,-25.354153
2988925434000.0,-3.179778040382601,8.609155197723942,2.355720022250925,-0.48472157,-0.29352075,-0.5928447,334.28522,-54.671066,-25.369009
2988930508000.0,-3.196498879769801,8.602127605748995,2.370259885778119,-0.48258355,-0.28069258,-0.6093381,334.4437,-54.60096,-25.388874
2988935441000.0,-3.2127550683186885,8.595295301607804,2.384395705009425,-0.48197266,-0.28099802,-0.61117065,334.59995,-54.535526,-25.403488
2988940424000.0,-3.229176026668396,8.588393746461735,2.3986748023598405,-0.49754974,-0.28099802,-0.61758476,334.7541,-54.464157,-25.42476
2988945415000.0,-3.245623348186234,8.581481111154886,2.4129768242093137,-0.5103779,-0.27091873,-0.6230826,334.9043,-54.39448,-25.44708
2988950460000.0,-3.262248621088958,8.57449368476277,2.427433586427424,-0.5164866,-0.26083946,-0.6374379,335.05542,-54.321156,-25.472912
2988955449000.0,-3.2786893518147635,8.567583819496116,2.4417298771521327,-0.5326745,-0.2452624,-0.6478226,335.20105,-54.2444,-25.500595
2988960425000.0,-3.295087242392356,8.560691959490729,2.455988915565873,-0.5561928,-0.2574797,-0.66431594,335.35345,-54.1621,-25.530767
2988965415000.0,-3.311531268514178,8.553780709203979,2.470288071852964,-0.57818395,-0.27580565,-0.68203104,335.5036,-54.07596,-25.564444
2988970399000.0,-3.3279555222599018,8.546877769037811,2.484570034765761,-0.59559363,-0.2837469,-0.6921103,335.6543,-53.985844,-25.599459
2988975499000.0,-3.344762041943528,8.53981416654033,2.499184402914892,-0.61911196,-0.3032946,-0.7067711,335.81543,-53.887257,-25.635662
2988980498000.0,-3.361235726629497,8.532890451072701,2.513509349263422,-0.6423248,-0.31887165,-0.70707655,335.97574,-53.787994,-25.669458
2988985427000.0,-3.377478733594319,8.526063687011899,2.5276337062452,-0.6444628,-0.33841935,-0.7089091,336.14368,-53.686714,-25.703596
2988990427000.0,-3.3939557136763048,8.519138586524173,2.5419615181561124,-0.63804877,-0.34605515,-0.68752885,336.30795,-53.589294,-25.730602
2988995417000.0,-3.410399739798127,8.512227336237421,2.556260674443203,-0.6236934,-0.33414328,-0.68416905,336.4735,-53.490738,-25.761972
2989001460000.0,-3.4303138179252155,8.503857659787954,2.573577267918732,-0.59742624,-0.32742378,-0.68386364,336.6386,-53.40138,-25.786427
2989005444000.0,-3.4434426756545418,8.498339739719333,2.5849936684493477,-0.5888741,-0.31764993,-0.68416905,336.79767,-53.313583,-25.811544
2989010431000.0,-3.4598768155883146,8.491432644492875,2.5992842280492914,-0.5684101,-0.3173445,-0.6783658,336.95517,-53.236156,-25.834139
2989015491000.0,-3.4765515194312844,8.484424442799295,2.6137839737031348,-0.56413406,-0.30757064,-0.66706485,337.10516,-53.15979,-25.857372
2989020441000.0,-3.4928637297124507,8.477568593316445,2.627968507494938,-0.5729916,-0.3109304,-0.6646214,337.258,-53.085564,-25.879234
2989025451000.0,-3.5093736637546007,8.470629642627742,2.6423249750296725,-0.5647449,-0.30298916,-0.6609562,337.4018,-53.01943,-25.900232
2989030489000.0,-3.52597586888521,8.463651911376308,2.656761678311108,-0.5687156,-0.28802297,-0.6542367,337.54254,-52.95155,-25.919909
2989035386000.0,-3.542113423177507,8.45686946795863,2.6707943372966554,-0.57360244,-0.2742785,-0.64599,337.67947,-52.88739,-25.93877
2989040425000.0,-3.583613311221152,8.44854848689251,2.718786147756319,-0.55924714,-0.258396,-0.6469063,337.81076,-52.8269,-25.960133
2989045460000.0,-3.627201805297934,8.440119754715852,2.7695992503738216,-0.5674938,-0.25259277,-0.65270954,337.93945,-52.76282,-25.980764
2989050498000.0,-3.6708162706720806,8.43168600045448,2.8204426289213846,-0.5671884,-0.2678644,-0.66645396,338.0974,-52.609943,-26.066132
2989055498000.0,-3.71410176627961,8.423315859266141,2.8709025123548537,-0.5900958,-0.3032946,-0.68019843,338.25897,-52.452473,-26.149231
2989060449000.0,-3.7569630640301854,8.415027745461447,2.9208678889306743,-0.61727935,-0.34788775,-0.6979135,338.4287,-52.293373,-26.231718
2989065428000.0,-3.800066760556164,8.406692758866098,2.9711158408537224,-0.64996064,-0.408058,-0.6936375,338.61008,-52.133263,-26.303463
2989070459000.0,-3.84362062623646,8.398270722802392,3.0218885755644784,-0.6658431,-0.453262,-0.698219,338.80203,-51.968624,-26.376137
2989075480000.0,-3.887087920925541,8.38986542702106,3.072560390508368,-0.68294734,-0.47586402,-0.6908886,339.0001,-51.803726,-26.438038
2989080450000.0,-3.930113703559425,8.381545506679853,3.122717514641236,-0.67164636,-0.49510628,-0.68477994,339.20856,-51.643246,-26.4942
2989085416000.0,-3.973104857796823,8.373232282451593,3.172834270867357,-0.6469063,-0.4886922,-0.6737844,339.41193,-51.48767,-26.546368
2989090412000.0,-4.016355725007866,8.364868837376205,3.2232537863940784,-0.61850107,-0.4792238,-0.6609562,339.61627,-51.339695,-26.593098
2989095518000.0,-4.060558873122275,8.356321249194673,3.274783419356337,-0.5852089,-0.4868596,-0.643852,339.81888,-51.203568,-26.633394
2989100479000.0,-4.103506741864066,8.348016395107603,3.3248497156990244,-0.54458636,-0.48288897,-0.63346726,340.0125,-51.078423,-26.674082
2989105446000.0,-4.146506553200585,8.339701496851106,3.374976563901832,-0.5152648,-0.49235737,-0.61819565,340.20642,-50.964527,-26.705467
2989110406000.0,-4.189445764843255,8.331398316792272,3.425032768267833,-0.49693888,-0.49388456,-0.6078109,340.39417,-50.859795,-26.736399
2989115396000.0,-4.232644689459569,8.32304491588631,3.475391731934435,-0.48624873,-0.51007247,-0.59986967,340.58466,-50.763927,-26.760101
2989121311000.0,-4.283851430763276,8.313143038860504,3.5350857740362285,-0.473726,-0.5198463,-0.58093286,340.76846,-50.678215,-26.778652
2989125468000.0,-4.319838991811376,8.30618410347652,3.577038121122814,-0.47525316,-0.52381694,-0.5674938,340.95285,-50.59396,-26.794676
2989130449000.0,-4.362960002535597,8.297845768824695,3.627306256999236,-0.48075095,-0.514654,-0.5571091,341.13184,-50.516148,-26.806969
2989135470000.0,-4.406427297224678,8.289440473043365,3.6779780719431248,-0.5027421,-0.5271767,-0.5513059,341.31467,-50.437904,-26.813168
2989140412000.0,-4.44921068108316,8.28116742549281,3.7278526207287657,-0.52870387,-0.516792,-0.5500842,341.48578,-50.36029,-26.82237
2989145436000.0,-4.4927039470696055,8.272757107626767,3.7785547116027143,-0.5626069,-0.5036584,-0.5696318,341.66016,-50.274986,-26.833733
2989150506000.0,-4.53659543961564,8.264269784461792,3.829721033404252,-0.573297,-0.5030475,-0.59528816,341.83405,-50.189617,-26.845818
2989155516000.0,-4.579967506214384,8.255882902991075,3.880281836604588,-0.57635134,-0.48930305,-0.60139686,341.9988,-50.100574,-26.861395
2989160404000.0,-4.622283406720305,8.247700252965355,3.929611418649147,-0.57940567,-0.4886922,-0.60994893,342.16977,-50.00545,-26.881622
2989165447000.0,-4.665941157590059,8.239258128562795,3.980505257080143,-0.5717699,-0.4801401,-0.61666846,342.33368,-49.912777,-26.905586
2989170443000.0,-4.709192024801103,8.230894683487406,4.030924772606864,-0.5647449,-0.49846604,-0.6065892,342.50168,-49.822784,-26.923134
2989175433000.0,-4.752390949417417,8.222541282581444,4.081283736273466,-0.54275376,-0.5216789,-0.5925393,342.6674,-49.738586,-26.941328
2989180498000.0,-4.796239156467845,8.214062329557656,4.13239959819157,-0.52381694,-0.55863625,-0.57726765,342.83832,-49.659103,-26.951557
2989185424000.0,-4.838884026740383,8.205816066458905,4.182112675350224,-0.4990769,-0.57848936,-0.5662721,343.0075,-49.588737,-26.958206
2989190454000.0,-4.882429235321557,8.197395704423435,4.232875318084293,-0.47800204,-0.5748242,-0.5561928,343.17615,-49.525692,-26.959274
2989195447000.0,-4.925654131235236,8.189037281432759,4.283264557680955,-0.4605924,-0.57910025,-0.5467244,343.34885,-49.470207,-26.953724
2989200494000.0,-4.969346510501476,8.18058846091725,4.334198764018698,-0.44257188,-0.6038403,-0.5363397,343.52252,-49.42237,-26.943085
2989205433000.0,-5.012103923062593,8.172320435451407,4.384043036874279,-0.44440445,-0.61575216,-0.52503866,343.69037,-49.377003,-26.93136
2989210405000.0,-5.05514701989472,8.163997167053722,4.43422034496052,-0.45875978,-0.659429,-0.5161811,343.87057,-49.335102,-26.909527
2989215431000.0,-5.0986576000794095,8.155583501131204,4.484942619787843,-0.4886922,-0.6969972,-0.5006041,344.04755,-49.29391,-26.882782
2989220413000.0,-5.141787267902751,8.147243492451143,4.535220847640951,-0.539394,-0.7147123,-0.48502702,344.2276,-49.247948,-26.850803
2989225492000.0,-5.18575667434088,8.138741103032027,4.586477997232668,-0.5830709,-0.71685034,-0.47219884,344.40933,-49.200558,-26.813038
2989230577000.0,-5.229778023373737,8.130228669443486,4.637795698684506,-0.63407815,-0.70432764,-0.46517387,344.588,-49.14396,-26.773151
2989235485000.0,-5.272267065862088,8.122012538853014,4.687327120262799,-0.68019843,-0.6924158,-0.46914452,344.76486,-49.08065,-26.733128
2989240441000.0,-5.3596054296970825,8.15266889091247,4.657156188998327,-0.7079928,-0.6621779,-0.47800204,344.93073,-49.012093,-26.697968
2989245419000.0,-5.452630798643376,8.188106959301246,4.617288015145883,-0.7104363,-0.65179324,-0.5015204,345.09964,-48.936855,-26.666697
2989250457000.0,-5.467844486302545,8.164116287675151,4.57281428767515,-0.7089091,-0.64843345,-0.5174029,345.33356,-48.606377,-26.778605
2989255556000.0,-5.45388048767515,8.117569625583835,4.526267625583833,-0.6979135,-0.6432411,-0.5357288,345.56503,-48.280735,-26.894053
2989260426000.0,-5.409041406366048,8.021654941766986,4.458156960681494,-0.68844515,-0.66248333,-0.54183745,345.79294,-47.977524,-27.013771
2989265449000.0,-5.345242644562334,7.894057623138135,4.37472775938584,-0.6762278,-0.68019843,-0.54092115,346.01807,-47.683468,-27.132286
2989270424000.0,-5.27110118743014,7.758387144974997,4.322645197597804,-0.65026605,-0.68966687,-0.5311473,346.24908,-47.453476,-27.224152
2989275467000.0,-5.19060029118541,7.616326443161094,4.284762472340426,-0.62858033,-0.72173727,-0.5177083,346.48557,-47.232582,-27.305513
2989280522000.0,-5.111794195880186,7.462520396116413,4.288940005064727,-0.6200282,-0.74372846,-0.51251596,346.7178,-47.114433,-27.347786
2989285445000.0,-5.036060099877162,7.306597779930077,4.315669620334498,-0.59986967,-0.7611381,-0.49693888,346.94662,-47.009445,-27.380974
2989290382000.0,-4.976618827745879,7.187788255380626,4.3489435550287086,-0.58123827,-0.7800749,-0.48380527,347.17642,-46.958675,-27.387316
2989295459000.0,-4.93159066178922,7.102234504973144,4.389468904389702,-0.5766568,-0.78801614,-0.47983465,347.40155,-46.909744,-27.393381
2989300443000.0,-4.89190205409634,7.030579263739806,4.436122056997913,-0.57543504,-0.79779,-0.46395215,347.6316,-46.891514,-27.3743
2989305474000.0,-4.859921619571401,6.980324315645742,4.495514333434477,-0.5861252,-0.8038987,-0.45723262,347.859,-46.869442,-27.358635
2989310406000.0,-4.837534281254691,6.935704286434316,4.544393425018766,-0.58093286,-0.79259765,-0.45875978,348.09717,-46.88577,-27.321367
2989315407000.0,-4.842670321662198,6.904887936729223,4.564937586648793,-0.57818395,-0.7901542,-0.45631635,348.33237,-46.89903,-27.283178
2989320392000.0,-4.847573448343804,6.875469020702456,4.589677645488292,-0.57451874,-0.77488256,-0.4538729,348.57703,-46.951435,-27.226574
2989325475000.0,-4.852206835560632,6.8476684554921,4.622111646297354,-0.5644395,-0.7620544,-0.45662177,348.81708,-47.001507,-27.175821
2989330428000.0,-4.844403964363835,6.823357926640539,4.644751,-0.56505036,-0.7535023,-0.4718934,349.05176,-47.101936,-27.115025
2989335478000.0,-4.804733480404667,6.805726513497995,4.644751,-0.5448918,-0.7666359,-0.46639562,349.28143,-47.206406,-27.054615
2989340503000.0,-4.7650893787736255,6.779970496023262,4.643918880099205,-0.52626044,-0.7648033,-0.4783075,349.52124,-47.2679,-27.017546
2989345452000.0,-4.72455608261353,6.682690458265629,4.635812263191653,-0.514654,-0.7910705,-0.4810564,349.7664,-47.331326,-26.974674
2989350454000.0,-4.683588705892414,6.584368625801762,4.62761883062516,-0.51251596,-0.8017606,-0.48838675,350.02142,-47.388634,-26.934502
2989355422000.0,-4.628167713422361,6.4938842464860125,4.590740524466322,-0.49357912,-0.80481493,-0.49327368,350.2775,-47.448223,-26.895952
2989360396000.0,-4.567805297397407,6.405662679003802,4.544308120528316,-0.48197266,-0.8017606,-0.4868596,350.5303,-47.50399,-26.860004
2989365386000.0,-4.503609655678016,6.290647298622319,4.523347617840976,-0.46028697,-0.8200866,-0.48533243,350.80923,-47.54393,-26.825842
2989370427000.0,-4.437099906120842,6.162378106140523,4.5138462604802205,-0.45478916,-0.82619524,-0.4783075,351.07724,-47.58213,-26.795471
2989375478000.0,-4.329200880708986,5.948165277438857,4.484077255866996,-0.46792278,-0.84482664,-0.47616947,351.35703,-47.611496,-26.763277
2989380486000.0,-4.201797718521572,5.693359274177888,4.444538368773473,-0.46578476,-0.84238315,-0.4746423,351.62634,-47.64363,-26.736063
2989385457000.0,-4.1255513285714285,5.517608714285715,4.415181522857143,-0.48624873,-0.840856,-0.45906523,351.91452,-47.64739,-26.704025
2989390398000.0,-4.10191548001998,5.42306532007992,4.396272844015984,-0.4804455,-0.8597928,-0.45204028,352.2025,-47.653923,-26.674519
2989395453000.0,-4.087396035194155,5.334583323725474,4.382376990230687,-0.51159966,-0.87109387,-0.43951756,352.50595,-47.614883,-26.644194
2989400470000.0,-4.083451629513177,5.255695251292997,4.374488220055825,-0.5204572,-0.90316427,-0.4373795,352.81345,-47.580738,-26.611498
2989405677000.0,-4.082944141848793,5.174142718822545,4.357350035971975,-0.5332854,-0.9306532,-0.43585235,353.13602,-47.52532,-26.58008
2989410459000.0,-4.11646639689428,5.10230895797344,4.256782870793685,-0.5357288,-0.93676186,-0.43860126,353.45428,-47.47003,-26.55045
2989415409000.0,-4.149766928431046,5.025862271968688,4.160894204996669,-0.5375614,-0.94225967,-0.43799037,353.7911,-47.396584,-26.523401
2989420422000.0,-4.173755435942705,4.933907370186542,4.120913776615589,-0.5580254,-0.93737274,-0.44684792,354.12158,-47.31704,-26.502626
2989425500000.0,-4.198054985343105,4.840760154696869,4.080414950499667,-0.56382865,-0.93309665,-0.46303585,354.4556,-47.240826,-26.499006
2989430565000.0,-4.170736341900648,4.720408421258871,4.032940667880284,-0.56382865,-0.93828905,-0.47647488,354.78503,-47.160957,-26.498537
2989435394000.0,-4.127928595392368,4.596742067078062,3.985376830679831,-0.5751296,-0.93401295,-0.49296826,355.10782,-47.074524,-26.507095
2989440425000.0,-4.114637621898734,4.520689111139241,3.967596573019891,-0.6133087,-0.9126327,-0.52473325,355.44608,-46.962772,-26.53999
2989445418000.0,-4.110314252721519,4.460161310632912,3.95894974437613,-0.6582073,-0.86651236,-0.56413406,355.77502,-46.84368,-26.585188
2989450517000.0,-4.091288594282239,4.42548079714112,3.9552212,-0.7131852,-0.8185594,-0.6087272,356.11868,-46.698574,-26.646177
2989455627000.0,-4.061521186536902,4.410597093268451,3.9552212,-0.77182823,-0.7672467,-0.6585127,356.4518,-46.536438,-26.72693
2989460431000.0,-4.008156516640128,4.388198012619427,3.9238106684713374,-0.84788096,-0.70432764,-0.713796,356.79227,-46.338856,-26.832922
2989465422000.0,-3.9368024030055735,4.35965637709992,3.871484245621019,-0.93523467,-0.6246097,-0.7593055,357.11728,-46.12146,-26.959776
2989470390000.0,-3.8043516015081456,4.310240894209291,3.816208016945294,-1.0146471,-0.5558874,-0.79809546,357.4455,-45.883633,-27.100485
2989477371000.0,-3.5570373727253326,4.219875953781035,3.735355253923312,-1.0809261,-0.4978552,-0.86254174,357.76483,-45.620193,-27.268412
2989480497000.0,-3.446293313253183,4.179411721754287,3.699150449854165,-1.2275337,-0.44776422,-0.87781334,358.07083,-45.337395,-27.43322
2989485425000.0,-3.3336412049097666,4.142870938455414,3.634408297717622,-1.2644911,-0.410196,-0.8875872,358.37222,-45.05738,-27.617853
2989490428000.0,-3.236154182661005,4.1132009443736735,3.566591181033263,-1.3255776,-0.38026363,-0.89766645,358.66214,-44.74285,-27.81114
2989495450000.0,-3.155694293147443,4.0500834996398805,3.4799163303014717,-1.3662001,-0.36957347,-0.89919364,358.94257,-44.44475,-27.97166
2989500481000.0,-3.0912480579689268,3.9558931787220906,3.375811176098364,-1.3991868,-0.37507126,-0.8940013,359.21622,-44.140087,-28.133303
2989505435000.0,-3.0590919271965693,3.8949695942156177,3.310784408287624,-1.4187346,-0.38240165,-0.8857546,359.48947,-43.851776,-28.279213
2989510436000.0,-3.0495390546025734,3.8567579043382874,3.272572568784282,-1.4220943,-0.3680463,-0.86467975,359.75034,-43.5687,-28.422258
2989515435000.0,-3.058784365548691,3.859003333647151,3.301537608943807,-1.428203,-0.355829,-0.8503244,0.02136615,-43.289177,-28.561718
2989520525000.0,-3.0826865503089147,3.892466252544866,3.382804797528685,-1.4230106,-0.33567044,-0.84299403,0.27891254,-43.019135,-28.700655
2989525474000.0,-3.1181809806881886,3.944645569089504,3.428868912275276,-1.4422529,-0.30665436,-0.84604836,0.53147185,-42.748035,-28.844055
2989530603000.0,-3.165657693620723,4.015860539338875,3.4478595974482893,-1.4700472,-0.27183503,-0.8564331,0.77264875,-42.481007,-28.990868
2989535437000.0,-3.243351473311469,4.089433708824434,3.47758023113662,-1.5008959,-0.21044308,-0.87017757,1.0178646,-42.19703,-29.14296
2989540475000.0,-3.362030426411807,4.173498137234806,3.522084819186225,-1.5360206,-0.14080444,-0.9068295,1.2545768,-41.90517,-29.308676
2989545433000.0,-3.4804639508844764,4.246764949097473,3.558804422148014,-1.5766432,-0.07513642,-0.93187493,1.4819995,-41.61822,-29.483679
2989550491000.0,-3.602874215758123,4.312341827797834,3.589407056841156,-1.6227635,-0.017715093,-0.9773844,1.7020136,-41.316986,-29.680347
2989555432000.0,-3.7156294656615834,4.369863886839305,3.6278398415750255,-1.6685784,0.01038471,-1.0299188,1.9304789,-41.006332,-29.898312
2989560439000.0,-3.813436743614757,4.412388751684994,3.687374652358992,-1.7061466,0.044898596,-1.0772609,2.1481392,-40.685326,-30.13388
2989565699000.0,-3.914066295939781,4.4528191747171535,3.750864678923358,-1.7314975,0.04917465,-1.1362094,2.3854742,-40.35166,-30.39517
2989570463000.0,-3.984833212180657,4.44865645584854,3.8174689632299272,-1.7482964,0.03481932,-1.1814134,2.62301,-40.010952,-30.66275
2989575447000.0,-4.058868122034672,4.44430150395073,3.887149012135037,-1.7666223,0.0070249503,-1.2241739,2.881652,-39.647884,-30.94805
2989580491000.0,-4.1441292722076986,4.373351127864419,3.9125576912647615,-1.7638733,-0.009162978,-1.2541064,3.1446552,-39.285698,-31.235266
2989585420000.0,-4.229235413260615,4.292500376065988,3.929578892815289,-1.7785342,-0.011301007,-1.2757921,3.4150715,-38.915638,-31.522722
2989590439000.0,-4.312453489235964,4.226771517940059,4.037616578471929,-1.7763962,-0.019242255,-1.3197744,3.718357,-38.517906,-31.822355
2989595412000.0,-4.39286799081891,4.171486515301815,4.198445581637822,-1.783421,-0.04917465,-1.3518448,4.025829,-38.120514,-32.114407
2989600468000.0,-4.472608338430164,4.133894933010061,4.316253852986494,-1.7846428,-0.0693332,-1.3857478,4.361793,-37.687397,-32.435795
2989605450000.0,-4.550448329239554,4.103623762757183,4.415716121163782,-1.8032742,-0.08735373,-1.4034629,4.7039986,-37.25426,-32.74962
2989610406000.0,-4.58296588418354,4.035241124871817,4.547118176153646,-1.8072448,-0.08827003,-1.4251486,5.0779767,-36.76662,-33.073586
2989615400000.0,-4.574653285035196,3.9313336789171807,4.709213989745373,-1.8255708,-0.112399206,-1.4471397,5.4619346,-36.27879,-33.386864
2989620429000.0,-4.560849988548228,3.824777693405176,4.851670557509297,-1.8677205,-0.15363261,-1.4559973,5.874268,-35.75096,-33.702118
2989625466000.0,-4.527902802208393,3.711292787554071,4.921225728671169,-1.9068159,-0.18051068,-1.4535538,6.286613,-35.2293,-34.010845
2989630460000.0,-4.495236880314184,3.5987766827654246,4.990187119336722,-1.9181169,-0.20861048,-1.4514158,6.739098,-34.64848,-34.30151
2989635410000.0,-4.454172589644206,3.486340215146094,5.03768765024846,-1.9446895,-0.22815818,-1.4480561,7.1898727,-34.07021,-34.58039
2989640396000.0,-4.406716890180879,3.3724465364341083,5.07090649121447,-1.9853121,-0.25289822,-1.4419475,7.641836,-33.500538,-34.844395
2989645436000.0,-4.35370972595824,3.2582163671600823,5.128574600823448,-2.0332649,-0.25870144,-1.4272866,8.111475,-32.887165,-35.09801
2989650560000.0,-4.295984231791001,3.142765228134497,5.20554234496618,-2.0769417,-0.26939157,-1.434617,8.586394,-32.276863,-35.34116
2989655500000.0,-4.268669786030497,3.072619339301525,5.32127059173635,-2.1160371,-0.26939157,-1.4385877,9.066618,-31.639896,-35.574055
2989660425000.0,-4.264029675356616,3.035499083767831,5.469750984013773,-2.1633792,-0.25625798,-1.4541647,9.545359,-31.002724,-35.803715
2989665403000.0,-4.245986168454794,3.0480798269538987,5.596533455076837,-2.2162192,-0.25717425,-1.4633276,10.041797,-30.332685,-36.01602
2989670408000.0,-4.214354021099274,3.111344451965683,5.700468246723862,-2.275473,-0.26267207,-1.4724907,10.534525,-29.663038,-36.225365
2989675461000.0,-4.188926742384038,3.1831531693613084,5.810956025506531,-2.3258693,-0.25870144,-1.4709635,11.029343,-28.968493,-36.417976
2989680455000.0,-4.174169762583565,3.266774702344956,5.929009706674894,-2.3893993,-0.25870144,-1.4700472,11.522402,-28.272184,-36.602253
2989685523000.0,-4.187934308447997,3.3488129401355726,6.058949356414408,-2.4397957,-0.28252518,-1.4697418,12.001313,-27.573364,-36.752365
2989690410000.0,-4.23528555107244,3.424574641562121,6.196267727640631,-2.4807239,-0.2959642,-1.4666874,12.469764,-26.879234,-36.896603
2989695475000.0,-4.3306150503218985,3.456032745651965,6.30512234054963,-2.5097399,-0.29993483,-1.4422529,12.918462,-26.200432,-37.006924
2989700442000.0,-4.476879621850678,3.433178913808014,6.3736837883539925,-2.5735753,-0.31123585,-1.4358387,13.367278,-25.518333,-37.108067
2989705467000.0,-4.607677759187424,3.381261922356064,6.44658694638628,-2.5809057,-0.31948254,-1.4340062,13.79431,-24.858513,-37.188313
2989710427000.0,-4.709507278174765,3.2842816185585955,6.524171148917926,-2.6077838,-0.33628133,-1.4318681,14.213864,-24.198193,-37.256798
2989715410000.0,-4.800346538087387,3.1635540595877987,6.612242572514427,-2.6285532,-0.35002577,-1.4217888,14.631291,-23.530039,-37.336468
2989720408000.0,-4.8753202464138505,3.009660406727123,6.714838450964551,-2.6386325,-0.38881573,-1.4153748,15.047065,-22.874657,-37.400246
2989725856000.0,-4.958481966767896,2.8348979630043383,6.8186865,-2.6639833,-0.44043383,-1.4049901,15.473737,-22.189848,-37.46435
2989730523000.0,-5.045738871409978,2.6070603379175705,6.8186865,-2.6627617,-0.4972443,-1.4016303,15.897572,-21.525528,-37.5117
2989735621000.0,-5.127140229438603,2.3674034410236064,6.833768858361436,-2.6590965,-0.5305365,-1.3921618,16.366182,-20.808159,-37.555145
2989740407000.0,-5.145325130609006,2.1810099604443565,6.911053833862329,-2.6645942,-0.56382865,-1.3988814,16.835794,-20.104313,-37.579826
2989745418000.0,-5.158421548582618,1.996640057422604,7.001197513651623,-2.6710083,-0.59773165,-1.4010195,17.347704,-19.356411,-37.612495
2989750560000.0,-5.130869845673256,1.8818415989742636,7.15732347851548,-2.7015514,-0.63407815,-1.4162911,17.857872,-18.616556,-37.631847
2989755833000.0,-5.105352968152866,1.7631693719745225,7.311678504458598,-2.7430904,-0.68783426,-1.4132367,18.403652,-17.833605,-37.6325
2989760406000.0,-5.117659289808917,1.6483086850318471,7.373210969426752,-2.781575,-0.7330383,-1.41904,18.945826,-17.058926,-37.62194
2989765365000.0,-5.131004369426752,1.5237527815661298,7.439937296515549,-2.7895162,-0.77091193,-1.4184291,19.508589,-16.254793,-37.573498
2989771464000.0,-5.254878068836406,1.0994819299251153,7.689306838767281,-2.7947085,-0.7901542,-1.4132367,20.0576,-15.461825,-37.51206
2989775421000.0,-5.345833072119816,0.7975118858294932,7.867578274423963,-2.8118126,-0.8002335,-1.4104879,20.593304,-14.68293,-37.437775
2989780474000.0,-5.395289235026412,0.4514096546383584,8.048655852803739,-2.8515189,-0.8020661,-1.4046847,21.147415,-13.874562,-37.3517
2989785380000.0,-5.423926240796424,0.1268566933258837,8.210932119158878,-2.8991663,-0.79534656,-1.387275,21.678469,-13.0822525,-37.259205
2989790400000.0,-5.4337938543718,-0.1634667303209925,8.324265653209926,-2.9254336,-0.7837401,-1.3775011,22.282236,-12.19517,-37.16676
2989795434000.0,-5.438540664572666,-0.4435345694033083,8.423951344033085,-2.9571986,-0.7770206,-1.3640621,22.858303,-11.320438,-37.066895
2989800576000.0,-5.439626,-0.685376765629925,8.515689064938764,-2.9639182,-0.7901542,-1.3503176,23.479,-10.382888,-36.95218
2989805494000.0,-5.439626,-0.9044822615076428,8.600648180290515,-2.9675834,-0.79779,-1.3426818,24.074217,-9.461705,-36.833622
2989810449000.0,-5.451321870705774,-1.0704008076718607,8.68718204821265,-2.971554,-0.82558435,-1.3255776,24.701956,-8.493582,-36.691998
2989815404000.0,-5.468719961173235,-1.2095848501558204,8.77417204637947,-2.96178,-0.85154617,-1.3203852,25.308311,-7.5488596,-36.542465
2989820456000.0,-5.57399773440678,-1.3571876398728815,8.906450489830508,-2.9422324,-0.8720101,-1.3118331,25.932241,-6.5721717,-36.371872
2989825465000.0,-5.772179880635593,-1.509635440582627,9.08430607161017,-2.9400945,-0.91996306,-1.3191634,26.538189,-5.6139197,-36.180782
2989830502000.0,-6.061833694752505,-1.6887688393710942,9.26207055004464,-2.9095511,-0.95539325,-1.3115277,27.144144,-4.6503544,-35.97293
2989835420000.0,-6.402891799166749,-1.880322085457792,9.434935737625237,-2.891225,-0.9960158,-1.2938126,27.725628,-3.7070725,-35.74558
2989841495000.0,-6.768587771797604,-2.063884758473147,9.57686185894363,-2.8728993,-1.0280862,-1.2773192,28.311314,-2.7545455,-35.514656
2989845439000.0,-6.986529325565912,-2.1644731086551263,9.643920712383489,-2.833804,-1.0467176,-1.2486086,28.860916,-1.8389813,-35.272663
2989850472000.0,-7.213435178887842,-2.280480500452404,9.70878772120641,-2.7937922,-1.0543534,-1.2180653,29.415445,-0.9071195,-35.052654
2989855486000.0,-7.335630044957587,-2.370995298322337,9.731416408859566,-2.717434,-1.0476339,-1.2006557,29.938627,-0.019298702,-34.829292
2989860437000.0,-7.425588777582645,-2.4370747092252065,9.745180219938016,-2.645352,-1.0149527,-1.1930199,30.45884,0.86529326,-34.641647
2989865425000.0,-7.395979741632231,-2.4124006500103303,9.725441034400824,-2.5708263,-0.9468411,-1.1823297,30.94876,1.7046254,-34.46451
2989870458000.0,-7.320302054066252,-2.3754751941691485,9.705029943316184,-2.4920247,-0.86406887,-1.1603385,31.421236,2.5251973,-34.31287
2989875459000.0,-7.121447867497067,-2.30630846170232,9.683415367632458,-2.4083362,-0.75441855,-1.1389582,31.872168,3.3033457,-34.18719
2989880452000.0,-6.914591187997316,-2.234798508580194,9.661516166139393,-2.3423629,-0.6407976,-1.1184943,32.296345,4.0475335,-34.079807
2989885461000.0,-6.560482595724284,-2.119828152737034,9.63392320774614,-2.2721133,-0.52778757,-1.0885619,32.698048,4.746529,-34.00312
2989890796000.0,-6.18269956510623,-2.000140392725964,9.602241862801584,-2.2088888,-0.42577308,-1.0442741,33.059677,5.4106154,-33.923035
2989895440000.0,-5.838369039575081,-1.964105829096147,9.518161548793662,-2.1655173,-0.37384954,-0.9773844,33.394363,6.037337,-33.862026
2989900551000.0,-5.459412683849478,-1.92444763471372,9.4256261299964,-2.1468859,-0.26206118,-0.96486163,33.70325,6.640619,-33.794
2989905484000.0,-5.181449715404649,-1.9501139046783065,9.282790870743703,-2.140472,-0.18020524,-0.95447695,33.98286,7.2114015,-33.73482
2989910466000.0,-4.928325333944246,-1.996136493276744,9.12171133008585,-2.147802,-0.09407325,-0.94042706,34.255543,7.7644134,-33.70896
2989915427000.0,-4.732776013578191,-2.097608641077932,8.966126148995942,-2.1594086,0.003970624,-0.93187493,34.51794,8.31949,-33.655853
2989920390000.0,-4.564634262376444,-2.2261875726147125,8.81282051971699,-2.1988094,0.08460484,-0.93523467,34.77722,8.869169,-33.622215
2989925506000.0,-4.828174363359529,-2.8938720590176814,9.338071287819252,-2.2226331,-0.20189096,-0.9578367,35.027824,9.440317,-33.48124
2989930522000.0,-5.233990197151277,-3.729097551827112,10.083639574656187,-2.129171,-0.46822822,-0.8720101,35.24126,9.962562,-33.37456
2989935419000.0,-5.263428546141147,-4.126571130509698,9.41475271650846,-1.9520199,-0.44409904,-0.7654142,35.47222,10.500628,-33.250996
2989940420000.0,-5.149772513660751,-4.368707610441601,8.184304241023526,-1.8209893,0.006414085,-0.6249151,35.66829,10.994893,-33.182682
2989945403000.0,-5.181658654893168,-5.372914486362437,9.46545213067792,-1.8252654,0.27916542,-0.6545421,35.9587,11.611254,-33.034653
2989950540000.0,-5.259521220381606,-6.644666982458453,11.56341115132331,-1.6737708,0.46761733,-0.75502944,36.247265,12.134558,-32.993458
2989955439000.0,-5.031578221022728,-8.056652125,13.82782080681818,-1.3381003,0.6356053,-0.79229224,36.627533,12.688198,-33.09315
2989960429000.0,-4.50257403734326,-9.69047921551724,16.39325665125392,-0.9868528,0.5421429,-0.69913524,36.987274,13.185244,-33.171818
2989965425000.0,-4.198757944417021,-10.597408831276532,17.793707,-0.6047566,0.26328292,-0.41538838,37.367714,13.711744,-33.045258
2989970442000.0,-4.165553319478724,-10.630612960904337,17.793707,-0.111177474,0.46914452,-0.009162978,37.702618,14.077426,-33.047077
2989975413000.0,-3.929149892885376,-11.71305771945951,18.0038105934369,0.1001819,1.153619,0.2406809,38.06655,14.550027,-32.8299
2989980441000.0,-3.4157155735177867,-14.222689705119954,18.49954070502804,-0.30024028,1.8286251,0.30115658,38.361694,14.993469,-32.706272
2989985520000.0,-3.380463096972328,-16.3336825831796,18.69117744709712,-1.0409144,2.2745566,0.2855795,38.6366,15.433575,-32.72882
2989990529000.0,-4.650645969256647,-17.270703140314705,18.04567416711883,-1.599856,2.1930063,0.16768251,38.93286,15.914526,-32.795544
2989995432000.0,-5.150711992957163,-17.95011415394813,16.936477520009944,-1.7632625,1.9489655,0.032070424,39.54701,16.817265,-32.81783
2990000488000.0,-4.6050854729140775,-18.311190641478166,15.11103655754412,-1.7684549,1.2638801,-0.24251351,40.161827,17.808407,-32.683674
2990005743000.0,-3.974826774878878,-18.665491190908156,13.19542781022575,-1.6991217,0.59681535,-0.38912117,40.927376,18.909006,-32.635605
2990010456000.0,-2.467363838315637,-18.67014394845892,11.204087416245748,-1.5146403,0.17134771,-0.39064834,41.633926,19.950712,-32.459885
2990015521000.0,-0.8861923184983591,-18.573011312895225,9.135075582926438,-1.2962561,-0.0571159,-0.29077184,42.443817,21.080677,-32.218445
2990020425000.0,0.1739240817257664,-17.24222673273033,7.992255046049788,-1.1160508,-0.30085114,-0.14263703,43.126427,22.126774,-31.869823
2990025405000.0,1.2504696920675578,-15.890818247978869,6.831723587312895,-0.977079,-0.5687156,-0.015882496,43.787395,23.18608,-31.441685
2990030493000.0,1.8235110793755456,-13.978002155337924,5.463030131474838,-0.8970556,-0.66737026,0.10445796,44.352184,24.167894,-31.014421
2990035487000.0,1.98118618182876,-11.691712830796083,3.979028964966547,-0.96944314,-0.5290093,0.22968534,44.8347,25.107508,-30.600674
2990040476000.0,1.5371845100771009,-9.514901017347729,2.808573897879722,-1.258077,-0.22724187,0.32895094,45.1649,25.959198,-30.191538
2990045433000.0,0.5123406878315344,-7.45606294959522,1.9484371783828065,-1.6853772,0.19150625,0.34391713,45.509865,26.847904,-29.850176
2990050530000.0,-0.6103458367961855,-5.474911009333469,1.4503766873592372,-2.0803015,0.65393126,0.23915374,45.810673,27.641443,-29.688488
2990055499000.0,-1.7931451520097397,-3.71760906127625,1.460032134401948,-2.3307564,1.0439687,0.028710667,46.200176,28.517872,-29.58883
2990060488000.0,-2.714597501288915,-2.107303760512592,1.6970450847907992,-2.3903158,1.2705997,-0.20280726,46.587006,29.266817,-29.735826
2990065449000.0,-3.3222575338092404,-0.6847197999841366,2.196362701050962,-2.3316727,1.2809844,-0.43279803,47.072876,30.079653,-29.882011
2990070436000.0,-3.845355425142632,0.6201024720627581,2.4763139364056657,-2.270586,1.1191051,-0.66339964,47.448704,30.652906,-30.213675
2990075597000.0,-4.268339125909896,1.8015399554003535,2.4665901270706274,-2.1642957,0.9147707,-0.9257663,47.895477,31.236713,-30.490524
2990080407000.0,-4.651278666666666,2.8740425552238804,2.414308195820896,-1.9089539,0.6224717,-1.1859949,48.182518,31.644045,-30.702662
2990085458000.0,-5.036333233333333,3.957007864328358,2.2939787505373133,-1.4862351,0.29046643,-1.3637567,48.463596,32.009846,-30.828606
2990090378000.0,-5.2741892096836045,4.802647379232981,2.3676694554841804,-0.96974856,0.12156218,-1.4080443,48.643528,32.20646,-30.953802
2990095416000.0,-5.29269262924257,5.325372193921381,2.7562435364621285,-0.677755,-0.20066923,-1.3793337,48.745064,32.367046,-30.95643
2990100552000.0,-5.270603144889798,5.343513657695527,3.263624821603273,-0.112399206,-0.3848451,-1.2208142,48.71538,32.1994,-31.054483
2990105448000.0,-5.165951953073561,4.310084117436994,3.974380051064819,0.34300083,-0.38820487,-0.9963212,48.630962,31.96604,-31.144564
2990110452000.0,-4.974026755082029,3.108229101778239,4.672730303149161,0.60231316,-0.28955013,-0.786489,48.386276,31.518753,-31.240648
2990115415000.0,-4.32870573113332,1.1364146160050912,5.214979325693004,0.6065892,-0.0888809,-0.6310238,48.122154,30.991106,-31.393183
2990120753000.0,-3.530558926227084,-1.087992977572793,5.72039658365429,0.39950588,0.25778514,-0.5290093,47.90794,30.507374,-31.530622
2990125442000.0,-1.897877891591434,-3.9693982972977966,5.467884434293637,0.077579886,0.6933321,-0.49754974,47.73185,30.032526,-31.751642
2990131448000.0,0.1933744637128334,-7.660104279440764,5.144449166846403,-0.30176744,1.0793989,-0.5271767,47.673115,29.771017,-31.931282
2990135399000.0,0.983824106917903,-9.413229996142432,4.941516549554896,-0.62980205,1.3170254,-0.58276546,47.67117,29.576035,-32.17376
2990140410000.0,1.3588152983264097,-10.913194781602376,4.694686882492581,-0.8313876,1.484708,-0.59589905,47.72906,29.440308,-32.48628
2990145404000.0,1.5896919267916425,-12.310739239211092,4.550886805116188,-0.9294315,1.6282613,-0.5717699,48.36724,30.094028,-32.3581
2990150556000.0,1.6137788598125369,-13.606617141183364,4.555704292325718,-1.0091494,1.6798794,-0.50426924,49.008373,30.77737,-32.24581
2990155421000.0,1.5451138832812803,-14.745492301581104,4.690592080909624,-1.1691961,1.6511687,-0.42302418,49.8447,31.729698,-32.06182
2990160407000.0,1.3167566891567442,-15.7661088856139,5.054099510735897,-1.3585643,1.5454891,-0.35185838,50.65105,32.682243,-31.874584
2990165423000.0,1.0952201874950969,-16.606317654977644,5.284359805130619,-1.5308284,1.3423764,-0.29352075,51.545124,33.812397,-31.615393
2990170434000.0,0.8919232059621872,-17.035500547187574,5.216593961167334,-1.6120734,0.96883225,-0.26419923,52.347572,34.93121,-31.299723
2990175465000.0,0.6878148215893936,-17.466396402447632,5.148557648858556,-1.575116,0.48166725,-0.28221974,53.121853,36.125896,-30.885872
2990180594000.0,0.6559102689214406,-17.49254284157492,4.630353609684643,-1.4004086,-0.016798794,-0.35888332,53.781235,37.276356,-30.390993
2990185441000.0,0.6732339751259563,-17.40592453666729,4.019694288747901,-1.1872166,-0.2648101,-0.4868596,54.367607,38.387367,-29.841665
2990190427000.0,0.7155234750891878,-17.141121507523668,3.533847371280518,-1.0571023,-0.58184916,-0.56779927,54.863186,39.509598,-29.2048
2990195425000.0,0.7727609944374688,-16.769077061484804,3.133184730861983,-0.97341377,-0.53878313,-0.6826419,55.382137,40.586075,-28.570545
2990200444000.0,0.7102866151596235,-16.276068326997603,3.1721215180476103,-0.71776664,-0.183565,-0.56779927,55.908894,41.581924,-28.021664
2990205467000.0,0.5726935755342314,-15.707942834286769,3.4872539618472045,-0.5002986,0.30482176,-0.39920044,56.457104,42.5453,-27.50342
2990210433000.0,0.316222419223777,-14.847621199264632,3.868581934112961,-0.46792278,0.7828238,-0.30573806,57.07075,43.45824,-27.091864
2990215399000.0,-0.0869385552446123,-13.623565852926156,4.334888522592176,-0.61391956,1.1294898,-0.29871312,57.733154,44.325054,-26.766233
2990220447000.0,-0.626531790586625,-12.4144479882675,4.739081087172468,-0.8332202,1.3634512,-0.34574974,58.37371,45.081715,-26.53149
2990225435000.0,-1.2944026450488852,-11.256182499022293,5.066011032264372,-0.99265605,1.475545,-0.42058071,59.06315,45.846252,-26.329256
2990230623000.0,-2.0845794531007757,-10.018444234496124,5.214543590406977,-1.0476339,1.4569136,-0.50762904,59.64056,46.45763,-26.193605
2990235448000.0,-2.921877225387597,-8.831899123062016,5.147380572238372,-1.0436633,1.3521502,-0.61666846,60.23625,47.09956,-26.03551
2990240407000.0,-3.7328973551991567,-7.501637898290791,4.862550980829757,-1.0641272,1.2495248,-0.73792523,60.72531,47.580746,-25.96759
2990245414000.0,-4.469439760259017,-5.974395753542655,4.2162712022889846,-1.1594223,1.1893547,-0.86406887,61.21338,48.09154,-25.859201
2990250508000.0,-5.218780086077856,-4.420616747082298,3.558761876967096,-1.3075571,1.1523973,-0.9783007,61.623535,48.434937,-25.909424
2990255474000.0,-5.304961330562901,-3.442928987004156,3.373637364072535,-1.421178,1.1264355,-1.0354166,62.02774,48.797577,-25.93278
2990260392000.0,-5.162615236494144,-2.664474336645259,3.351395862353608,-1.4908166,1.1432343,-1.0564915,62.44148,49.18962,-25.936125
2990265407000.0,-4.943346016431925,-1.946186042867461,3.526781960879379,-1.4532484,1.1597277,-1.0308352,62.692715,49.055126,-26.529556
2990270382000.0,-4.676646309859155,-1.283738291874323,3.832196069989166,-1.3671165,1.1481212,-0.9602802,62.948742,48.92968,-27.103918
2990275473000.0,-4.387872534513274,-0.7006323905132743,4.218032433628319,-1.2299771,1.1166617,-0.80481493,63.22196,48.958626,-27.454727
2990280483000.0,-4.079478869306008,-0.2715629080428504,4.709674491010713,-1.0680978,1.0360274,-0.5705481,63.45143,48.928577,-27.830158
2990285475000.0,-3.869754560526316,-0.0084374611089181,5.19939384747807,-0.9077458,0.9645562,-0.28527406,63.552166,48.832386,-28.138828
2990290403000.0,-3.947377044736842,-0.2283679825358187,5.682378643969298,-0.7611381,0.7602218,-0.13103059,63.572906,48.67955,-28.44166
2990295656000.0,-4.029414013475428,-0.4931448050554871,6.160095018451647,-0.6914995,0.58184916,0.13133603,63.38446,48.378876,-28.757217
2990300490000.0,-4.098729247824555,-1.002814108138101,6.274260908622512,-0.56779927,0.5103779,0.36835176,63.143658,48.0082,-29.089474
2990305407000.0,-4.1692346279020605,-1.521234456350185,6.39038703232341,-0.4456262,0.5476407,0.5665775,62.762432,47.52752,-29.447996
2990310412000.0,-4.171090854871891,-2.231523066551337,6.297682637507013,-0.36285394,0.6795876,0.6914995,62.357044,46.99771,-29.84504
2990315374000.0,-4.15331600018702,-2.986939125107537,6.146599388675893,-0.32650748,0.79717916,0.7305948,61.93529,46.432236,-30.266645
2990320416000.0,-4.008224944295368,-4.744371122612868,5.729460808471257,-0.33322698,0.8723156,0.7199047,61.52304,45.845943,-30.730257
2990325459000.0,-3.7906549795122895,-7.06669558799334,5.161886641582608,-0.35246924,0.88331115,0.691194,61.11986,45.259438,-31.195423
2990330571000.0,-3.822765294955339,-9.032108005582622,4.6778812171741775,-0.36987892,0.8555168,0.6612616,60.746567,44.655865,-31.746916
2990335414000.0,-4.001658646102314,-10.66568798721072,4.273017035200974,-0.38881573,0.80481493,0.6236934,60.381615,44.086205,-32.262592
2990340380000.0,-4.253489468132882,-12.174176060699272,3.9346799318671177,-0.38087448,0.7440339,0.5842926,60.422894,44.022476,-32.49343
2990345410000.0,-4.54983723282067,-13.601584127960628,3.6383321671793296,-0.31490102,0.6533204,0.535118,60.450768,43.96211,-32.695045
2990350579000.0,-4.78405933021464,-14.490072011636135,3.500554332824908,-0.23793201,0.5332854,0.5018258,60.711918,44.143578,-32.81265
2990355513000.0,-4.977242944964226,-15.088198188536836,3.441113268338706,-0.13927728,0.36835176,0.48563787,60.93574,44.308975,-32.897583
2990360429000.0,-5.136201549781832,-15.65820040291551,3.370559242512892,-0.04337143,0.09590584,0.41722095,61.302643,44.64135,-32.89674
2990365435000.0,-5.088659442681475,-16.076571243256645,3.227932871568822,0.06291912,-0.24190263,0.3436117,61.593063,44.943546,-32.85381
2990370438000.0,-5.018211043033063,-16.430481912449395,3.042873747992578,0.122783914,-0.537256,0.26236662,61.910175,45.315224,-32.748417
2990375506000.0,-4.780774772823887,-16.324044935728747,2.5475324464068825,0.15118915,-0.75808376,0.19150625,62.143036,45.668255,-32.591187
2990380430000.0,-4.550084915975034,-16.220632214068825,2.0662655622300945,0.17195857,-0.8481864,0.13347405,62.378925,46.068905,-32.375496
2990385434000.0,-4.26970751286031,-15.75075042572062,1.5836426758989686,0.2171626,-0.8564331,0.1282817,62.556732,46.443573,-32.14219
2990390408000.0,-3.975805874279379,-15.162947148558755,1.106052387332498,0.24037547,-0.8567385,0.13041973,62.70042,46.81081,-31.892338
2990395425000.0,-3.712865696653664,-14.395085053787724,0.7525293764339971,0.28710666,-0.81336707,0.118507855,62.916153,47.20411,-31.655655
2990400518000.0,-3.462533715828372,-13.528936809997948,0.457137681928762,0.30909783,-0.72784597,0.08368854,63.129402,47.585743,-31.42614
2990405439000.0,-3.3370737252133296,-12.709912178029285,0.2984371375819635,0.3371976,-0.63285637,0.0580322,63.368496,47.94511,-31.232933
2990410550000.0,-3.2491422595616632,-11.865769905775622,0.1797296428842181,0.31673363,-0.5342017,0.025961773,63.626747,48.306877,-31.045938
2990415412000.0,-3.1982076190225404,-10.96937628165157,0.1846344633600168,0.29077184,-0.41691554,0.0012217305,63.890667,48.622307,-30.90445
2990420452000.0,-3.1778717445755214,-9.947500621234465,0.3066494817716452,0.2938262,-0.3118467,-0.00580322,64.17357,48.932446,-30.773188
2990425466000.0,-3.1031023292779687,-9.080332197602043,0.518823496970819,0.33567044,-0.21868975,0.0076358155,64.44199,49.17053,-30.702436
2990430531000.0,-2.991917474742132,-8.302038037238825,0.7925092693943401,0.4089743,-0.14202617,0.03573562,64.73086,49.397263,-30.646072
2990435450000.0,-2.890926406781161,-7.589386289668909,1.1129697694316572,0.47219884,-0.087964594,0.087964594,64.9532,49.512882,-30.656868
2990440434000.0,-2.8021917049398017,-6.951341677983357,1.5439667729019122,0.49968776,-0.038179077,0.16310102,65.18819,49.60989,-30.690142
2990445529000.0,-2.728514969556353,-6.306352839384526,2.031111422871566,0.51159966,0.0009162979,0.2434298,65.31988,49.592175,-30.763092
2990450590000.0,-2.822618960848461,-5.737024289010775,2.9721505496942044,0.50518554,0.036957346,0.31429017,65.45622,49.559547,-30.858389
2990455777000.0,-2.9182044864476384,-5.206408601971252,3.870225638767967,0.49418998,0.06383542,0.37568212,65.45409,49.407948,-30.984966
2990460420000.0,-2.994899982053388,-5.2757996575195065,3.990747164550308,0.4804455,0.086132,0.4260785,65.45253,49.246937,-31.129427
2990465398000.0,-3.0771291823819302,-5.350197390562628,4.119964514398357,0.45142943,0.11362094,0.46761733,65.23022,48.896397,-31.330494
2990470408000.0,-3.1734514236842104,-5.509688168421053,4.181032463157894,0.4437936,0.16340645,0.5027421,65.01215,48.53951,-31.543388
2990475434000.0,-3.2802195656684816,-5.732930743859649,4.190738653276871,0.43890667,0.22021692,0.5439755,64.79472,48.18157,-31.767517
2990480395000.0,-3.400612963791267,-5.965126806070288,4.18714525228967,0.43004912,0.23884831,0.569021,64.5567,47.807713,-31.998058
2990485432000.0,-3.5333241456336526,-6.20914411014377,4.174302019834931,0.4196644,0.29443705,0.5858198,64.33899,47.43382,-32.243248
2990490452000.0,-3.6973145628089887,-6.465894019662921,4.1988269746067415,0.4007276,0.34880406,0.61422503,64.14057,47.078693,-32.48942
2990495406000.0,-3.918744789619706,-6.744732071953328,4.293140002022472,0.3744604,0.39492437,0.64812803,63.950916,46.727947,-32.7415
2990500833000.0,-4.15884849972067,-7.043874779329609,4.392998959497207,0.34574974,0.39675698,0.68325275,63.789433,46.40398,-32.995205
2990505480000.0,-4.3453153962057725,-7.2510602358938545,4.451701408170391,0.33292156,0.37568212,0.6988298,63.631542,46.084827,-33.24944
2990510439000.0,-4.544301696973929,-7.472156142737431,4.514345144553072,0.32742378,0.35063666,0.6960809,63.486893,45.775864,-33.510563
2990515408000.0,-4.76195584416633,-7.69557784094671,4.5618983862535325,0.33658674,0.30818152,0.6988298,63.327152,45.468456,-33.764496
2990520466000.0,-5.0064020209931375,-7.925357400312878,4.591232029572063,0.35308012,0.26145032,0.68600166,63.16215,45.171383,-34.003033
2990526258000.0,-5.267127296581518,-8.164225969055222,4.595043189171675,0.37782016,0.204029,0.6768387,63.000923,44.877926,-34.244015
2990530557000.0,-5.448853713749061,-8.326620007700978,4.57957708448535,0.43066,0.160963,0.6469063,62.837055,44.59114,-34.465374
2990535400000.0,-5.624632015143332,-8.491406207156212,4.5681367,0.4728097,0.10842858,0.6209445,62.68177,44.307575,-34.692577
2990540401000.0,-5.748992465974242,-8.62571510552555,4.5681367,0.5345071,0.04734206,0.5919284,62.518574,44.02602,-34.897408
2990545414000.0,-5.828383091077636,-8.711002010863266,4.488553745770568,0.60139686,-0.032986723,0.5626069,62.373333,43.75011,-35.104725
2990550456000.0,-5.842370989571263,-8.724989958043645,4.292722972112785,0.67347896,-0.1020145,0.5589417,62.215572,43.470474,-35.297256
2990555438000.0,-5.826709568851474,-8.710976565343756,4.13130351359992,0.7275405,-0.16523905,0.5580254,62.06379,43.19944,-35.475765
2990560421000.0,-5.754969950090199,-8.64401968771297,4.030868097274003,0.7901542,-0.21533,0.54825157,61.899914,42.924313,-35.636894
2990565371000.0,-5.722381532652316,-8.556159249543962,4.026137098139365,0.8249735,-0.22021692,0.5510005,61.775494,42.66421,-35.810417
2990570422000.0,-5.766500847500912,-8.423800844308646,4.211438404779278,0.85918194,-0.22021692,0.5335908,61.64538,42.40658,-35.964695
2990575485000.0,-5.801370578786483,-8.280776488868428,4.405438797477212,0.88300574,-0.20463985,0.5326745,61.530193,42.152622,-36.122234
2990580488000.0,-5.788136236534389,-8.086672802504374,4.639245648789246,0.90194255,-0.20708331,0.52015173,61.41713,41.906143,-36.265602
2990585875000.0,-5.768211136297884,-7.874780159549959,4.879997520546477,0.89675015,-0.21594086,0.49449542,61.259506,41.627106,-36.40913
2990590387000.0,-5.683325585802304,-7.662566525046879,4.949449162443075,0.8888089,-0.22937989,0.47861293,61.102684,41.35278,-36.546074
2990595431000.0,-5.5884313666755965,-7.425331247468524,5.027089694740602,0.88697636,-0.2510656,0.44348818,60.879227,41.04345,-36.66529
2990600502000.0,-5.4585698669315095,-7.1752936619833045,5.054256639384492,0.88361657,-0.28802297,0.40011674,60.65566,40.74875,-36.76919
2990605398000.0,-5.321815177039123,-6.930078119953736,5.063688000704013,0.87872964,-0.31887165,0.3662137,60.436207,40.46749,-36.86007
2990610423000.0,-5.146764303650095,-6.685424778623872,5.081226142458569,0.8888089,-0.30726522,0.32406402,60.181534,40.164013,-36.9397
2990615404000.0,-4.961639749213341,-6.445263256618418,5.101239689700021,0.9080512,-0.28038713,0.27488935,59.935036,39.875854,-37.003323
2990620433000.0,-4.7950476861239855,-6.230730936587485,5.147497616164542,0.93279123,-0.21044308,0.24495697,59.676926,39.5673,-37.071915
2990625417000.0,-4.633732556344148,-6.023325934733488,5.198196677578215,0.9398162,-0.13530666,0.2125811,59.44287,39.276684,-37.130688
2990630488000.0,-4.543696762985376,-5.896171925506808,5.221176678870398,0.9285152,-0.04520403,0.2049453,59.20594,38.970478,-37.19247
2990635403000.0,-4.477233966717096,-5.796477582390318,5.2354187774583965,0.8866709,0.010995574,0.2049453,58.98906,38.68046,-37.25255
2990640414000.0,-4.459048358580351,-5.78978893113909,5.156154913274512,0.8567385,0.009162978,0.21960606,58.739338,38.368958,-37.30853
2990645414000.0,-4.454301159214831,-5.808777431188658,5.051718460414395,0.83199847,-0.025045475,0.24740042,58.495754,38.06747,-37.367954
2990650537000.0,-4.387395215142501,-5.867971871624604,4.936406858199789,0.82986045,-0.04520403,0.28069258,58.235363,37.75541,-37.430252
2990655508000.0,-4.305165973994819,-5.936496302850014,4.822199361520008,0.8173377,-0.06169739,0.30604348,57.96454,37.451527,-37.487675
2990660427000.0,-4.177611555288898,-6.116600334395482,4.81504127311687,0.82802784,-0.064446285,0.33108896,57.71794,37.150974,-37.55733
2990665400000.0,-4.028736774387416,-6.347115808742563,4.85346054391449,0.8396343,-0.07086037,0.34116822,57.46588,36.85618,-37.62198
2990670400000.0,-3.8877137825949366,-6.592343419620254,4.921433162341772,0.8374963,-0.10629055,0.34055737,57.240646,36.589912,-37.6723
2990675533000.0,-3.746735267543512,-6.84999382670095,5.004075579094145,0.818254,-0.1414153,0.32895094,57.016346,36.330067,-37.718376
2990680423000.0,-3.8258309563297073,-6.65721607545949,5.168898125993999,0.75655663,-0.15332718,0.3115413,56.815285,36.125534,-37.71187
2990685450000.0,-4.00189630451988,-6.264454689291073,5.376565079894974,0.70921457,-0.13683382,0.2678644,56.624214,35.933895,-37.69489
2990690395000.0,-4.383064631897712,-5.511735799596232,5.736603879676985,0.5726862,-0.043982297,0.16615535,56.484314,35.827454,-37.625732
2990695400000.0,-4.940627020861372,-4.447298940242261,6.229654792193809,0.40744713,0.058643065,0.0580322,56.3662,35.748474,-37.551662
2990700521000.0,-5.4928123951510415,-3.7617667483429456,6.598460106168736,0.2837469,0.16829337,0.021991149,56.19587,35.598946,-37.537186
2990705439000.0,-6.003904330726366,-3.526940686205885,6.810263928047708,0.18448131,0.28160888,-0.023823744,56.08443,35.50354,-37.518665
2990710423000.0,-6.459679610345516,-3.4084365886159373,6.97415696944278,0.089491755,0.37018433,-0.10995574,55.708824,35.09146,-37.745667
2990715401000.0,-6.831011666147393,-3.451282583582984,7.069370540143799,0.03390302,0.42424592,-0.19333886,55.372723,34.7199,-37.96075
2990720421000.0,-7.106597655485111,-3.518964021825168,7.14450049154659,0.009162978,0.42852196,-0.27580565,55.06522,34.330406,-38.208393
2990725511000.0,-7.247075983631124,-3.6219814168299713,7.19132653573487,-0.0021380284,0.37507126,-0.3484986,54.782856,33.983215,-38.423744
2990730508000.0,-7.204779251845952,-3.787759014449026,7.219314272788606,-0.0009162979,0.2996294,-0.35430184,54.54955,33.646935,-38.649464
2990735514000.0,-6.83641312648988,-4.070772042372564,7.214822006971515,0.018936822,0.20799962,-0.3042109,54.308083,33.327885,-38.845142
2990740519000.0,-6.422963610053894,-4.396055239100539,7.187415894759338,0.038789943,0.108123146,-0.20525073,54.05673,33.006145,-39.04012
2990745471000.0,-5.858912726649321,-4.8631598862664935,7.08165618444527,0.07696902,0.008552114,-0.08582657,53.769688,32.67668,-39.218582
2990750597000.0,-5.2607015524652985,-5.354264422702888,6.939890033211275,0.09987647,-0.09437868,0.040317107,53.43151,32.35408,-39.352554
2990755439000.0,-4.549915414476709,-5.895251561985864,6.477879200204377,0.13194689,-0.20647246,0.1591304,53.043636,32.013226,-39.47414
2990760450000.0,-3.8143207557693946,-6.455120738967896,5.999742834199097,0.14263703,-0.31123585,0.24831672,52.71694,31.830017,-39.420586
2990765447000.0,-3.64313419750934,-6.646826791052783,5.7212399276750645,0.1740966,-0.3817908,0.30451632,52.353184,31.622217,-39.366795
2990770472000.0,-3.703063736737235,-6.688316712740684,5.523011162946642,0.20433442,-0.4156938,0.33536503,51.961533,31.403196,-39.310055
2990775541000.0,-3.868390993225168,-6.655285876375149,5.391028254135338,0.21533,-0.43279803,0.32406402,51.709526,31.369453,-39.12572
2990780473000.0,-4.088947925366047,-6.580520698852394,5.3013103533834585,0.23335053,-0.43279803,0.30879238,51.45018,31.324007,-38.94446
2990785459000.0,-4.320938672570818,-6.491547505237841,5.213451129663282,0.23732115,-0.37568212,0.2666427,51.263565,31.30496,-38.79485
2990790443000.0,-4.63727317920898,-6.277256283003742,5.15222491394976,0.22968534,-0.2910773,0.18997909,51.10027,31.29611,-38.64309
2990795498000.0,-4.916662315240252,-6.047728481435043,5.102632919106941,0.21533,-0.17470746,0.10781772,50.99867,31.278063,-38.563416
2990800482000.0,-5.055661648422586,-5.781313280982042,5.094910581621097,0.17684549,-0.040927973,0.021685716,50.94544,31.283772,-38.491276
2990805423000.0,-5.193461749797768,-5.517196606536159,5.087254869438602,0.12522738,0.084910266,-0.0693332,50.946896,31.268284,-38.493645
2990810402000.0,-5.272810438465499,-5.131117852100926,5.129158043882595,0.093462385,0.20463985,-0.14049901,50.99758,31.270746,-38.510715
2990815397000.0,-5.331928141091658,-4.702513775015448,5.188276158043254,0.042455133,0.2996294,-0.20647246,51.09569,31.304972,-38.53292
2990820417000.0,-5.336052791853732,-4.401371812971052,5.321190085515489,0.0030543262,0.3481932,-0.25259277,51.1894,31.289255,-38.61485
2990825405000.0,-5.326348560589131,-4.134505250533266,5.4716056194514975,-0.046120327,0.3680463,-0.2660318,51.307167,31.292784,-38.70301
2990830522000.0,-5.294416214880622,-4.040077649472515,5.599310591338146,-0.07880162,0.36896262,-0.26175576,51.368465,31.220505,-38.834797
2990835431000.0,-5.25961151390894,-3.983519982000741,5.7167767921525074,-0.10873401,0.33841935,-0.258396,51.43022,31.162443,-38.95816
2990840434000.0,-5.236251136285453,-4.035832920475754,5.797097903019213,-0.1301143,0.2874121,-0.23487769,51.405697,31.036493,-39.09608
2990845423000.0,-5.218765763943275,-4.140745063238792,5.858296455169259,-0.1432479,0.22021692,-0.20799962,51.368385,30.917664,-39.220566
2990850869000.0,-5.2391526456697095,-4.5201553261767575,5.865261295275242,-0.13958271,0.15057829,-0.1853976,51.27539,30.778072,-39.321648
2990855441000.0,-5.285728441716159,-5.036370642194841,5.8264481319032,-0.121256754,0.09040806,-0.15424347,51.160095,30.635454,-39.412575
2990860397000.0,-5.323591728959276,-5.557388235540929,5.775048750719868,-0.10445796,0.020463986,-0.13683382,51.033943,30.516018,-39.45978
2990865413000.0,-5.318651763348416,-5.952594150473057,5.691067375154257,-0.0842994,-0.023823744,-0.11789699,50.892242,30.38895,-39.503033
2990870378000.0,-5.308669899260988,-6.318456750068067,5.611787697782964,-0.036651913,-0.047036625,-0.1133155,50.861748,30.373854,-39.48854
2990875461000.0,-5.285002612991054,-6.626131619856087,5.540785838973163,-0.03176499,-0.06719518,-0.099571034,50.81381,30.35728,-39.47076
2990880439000.0,-5.252519672017883,-6.906829682320667,5.471653131477343,-0.017104227,-0.10048734,-0.08307768,50.830338,30.395346,-39.42801
2990885477000.0,-5.188790149359886,-7.122528719203414,5.403021770981508,0.022296581,-0.118507855,-0.058643065,50.839104,30.42215,-39.38921
2990890417000.0,-5.129408916642321,-7.290496886824423,5.348585540461584,0.03573562,-0.13652839,-0.044593163,50.89304,30.5031,-39.32966
2990895452000.0,-5.077757239945467,-7.337452858486707,5.329803210633947,0.055283304,-0.14172074,-0.024740042,50.9362,30.56738,-39.2758
2990900458000.0,-5.0257471685962924,-7.363459065531592,5.308330382292849,0.07238753,-0.15424347,-0.006414085,51.00317,30.66443,-39.205963
2990905431000.0,-4.971688842877413,-7.313905651248581,5.276796284477866,0.08674286,-0.15088372,0.013744468,51.06523,30.751865,-39.143707
2990910497000.0,-4.916646654673377,-7.258192649013969,5.246499746209943,0.070249505,-0.15088372,0.03268129,51.122463,30.84653,-39.075172
2990915431000.0,-4.863260176674199,-7.161126030525884,5.231939834521365,0.061391957,-0.16249016,0.046731193,51.1722,30.932123,-39.00892
2990920421000.0,-4.815438895836715,-7.064829285302711,5.216534836227885,0.042760566,-0.15943582,0.05467244,51.21695,31.017555,-38.946453
2990925451000.0,-4.803710733606557,-6.978823102459017,5.196987967213115,0.028099801,-0.15210545,0.062002823,51.25522,31.099674,-38.886047
2990930640000.0,-4.791611840204513,-6.890098235107937,5.17682321506249,0.008552114,-0.14966199,0.055588737,51.27893,31.17729,-38.823666
2990935410000.0,-4.798574702357359,-6.747906708511526,5.171476,-0.012217305,-0.13713925,0.06536258,51.299717,31.251753,-38.770477
2990940376000.0,-4.813456903567331,-6.574281373057265,5.171476,-0.036651913,-0.13683382,0.057421334,51.323982,31.33441,-38.711613
2990945464000.0,-4.820687982958478,-6.414099486159169,5.189246100346021,-0.040927973,-0.12644911,0.03634648,51.345173,31.403322,-38.664547
2990950486000.0,-4.825310646107266,-6.2615502024221446,5.212359657439446,-0.043982297,-0.118202426,0.024129177,51.365063,31.47526,-38.618088
2990955459000.0,-4.854194079777616,-6.132897466070872,5.226230818040112,-0.03940081,-0.116980694,0.023823744,51.368748,31.522188,-38.583046
2990960415000.0,-4.893651678322768,-6.014524103917697,5.236095179050192,-0.04642576,-0.10293079,0.01740966,51.382225,31.57482,-38.54967
2990965408000.0,-4.914117863577608,-5.931539869941334,5.267294406930496,-0.040011674,-0.0842994,0.010995574,51.37286,31.597517,-38.526
2990970424000.0,-4.928447403997216,-5.859892417221836,5.305506431589937,-0.042760566,-0.08155051,0.004886922,51.36468,31.624086,-38.501266
2990975522000.0,-4.921585957288103,-5.824402822881034,5.315128,-0.047647487,-0.06994407,0.0033597588,51.346523,31.62939,-38.494705
2990980872000.0,-4.90698046745534,-5.8000604245534015,5.315128,-0.049480084,-0.060170226,0.003970624,51.329823,31.63526,-38.487762
2990985458000.0,-4.87219177052463,-5.83755458628354,5.324467903824589,-0.024740042,-0.051618114,0.009773844,51.297546,31.617897,-38.48954
2990990364000.0,-4.82515154144974,-5.903411005226271,5.338579874309171,-0.021685716,-0.05222898,0.008552114,51.2675,31.606627,-38.49013
2990995432000.0,-4.765937751320212,-5.984526719279885,5.355749431646664,-0.006414085,-0.050396383,0.022296581,51.227432,31.581205,-38.496563
2991000476000.0,-4.701005029284685,-6.072649782208353,5.3743016656168985,0.010079277,-0.071776666,0.02443461,51.185474,31.557976,-38.495308
2991005432000.0,-4.6413985646918965,-6.15010679413513,5.398207005983752,0.028099801,-0.08979719,0.0421497,51.143463,31.540525,-38.485054
2991010410000.0,-4.584723142064592,-6.220951072419259,5.426544520031702,0.03756821,-0.09407325,0.052839845,51.101376,31.522757,-38.47242
2991015439000.0,-4.541440526959581,-6.275054313369334,5.456745495385371,0.05100725,-0.11575896,0.05375614,51.053165,31.517633,-38.434467
2991020486000.0,-4.509803038700704,-6.314601122074947,5.488383024938635,0.058948494,-0.12767084,0.057421334,51.00318,31.508976,-38.40078
2991025498000.0,-4.483728164481877,-6.351562193655371,5.515884074549387,0.050396383,-0.14782938,0.06627888,50.94752,31.512764,-38.345325
2991030500000.0,-4.499426910500098,-6.3704006560922855,5.512744390915645,0.05497787,-0.16432275,0.079107046,50.88838,31.51071,-38.29051
2991035462000.0,-4.515000116766075,-6.38908847108868,5.509629814708003,0.04062254,-0.16920967,0.084910266,50.82145,31.520132,-38.222565
2991040576000.0,-4.531063680950803,-6.409043516663906,5.503269995941693,0.03848451,-0.17440203,0.08979719,50.74803,31.523642,-38.15441
2991045475000.0,-4.546606746446911,-6.436243881282094,5.46052648467782,0.027794369,-0.16218472,0.1001819,50.675396,31.52917,-38.09217
2991050444000.0,-4.562371901060129,-6.463832901855226,5.417172227182375,0.021685716,-0.15607607,0.10781772,50.604828,31.537336,-38.031258
2991055467000.0,-4.581248769012641,-6.48703336901264,5.39082939955586,0.020463986,-0.14813483,0.1142318,50.535904,31.544569,-37.976013
2991060728000.0,-4.602765486129142,-6.508550086129143,5.373616115732832,0.026267206,-0.1301143,0.11453723,50.471195,31.551123,-37.925385
2991065430000.0,-4.611221624438347,-6.529003900814611,5.347414991896759,0.03359759,-0.10995574,0.11911872,50.42409,31.564192,-37.885326
2991070405000.0,-4.594879803138398,-6.553516590104613,5.294304030012005,0.040927973,-0.10293079,0.119729586,50.379612,31.576605,-37.846245
2991076137000.0,-4.5777135,-6.579266,5.2385135,0.041233405,-0.07422013,0.12492194,50.353107,31.59149,-37.82185
2991080416000.0,-4.5777135,-6.579266,5.2385135,0.04734206,-0.071776666,0.129198,50.322323,31.60353,-37.79375
2991085411000.0,-4.564339784953768,-6.574489674978985,5.2437674525357245,0.050701816,-0.055588737,0.122783914,50.32086,31.627321,-37.775578
2991090421000.0,-4.438867289857103,-6.5296780862986825,5.293060153292238,0.05497787,-0.044593163,0.12950343,50.314053,31.645811,-37.760387
2991095815000.0,-4.307989019743864,-6.481333767902882,5.345235444023479,0.06078109,-0.03940081,0.12675454,50.311687,31.665916,-37.745068
2991100485000.0,-4.276168726254002,-6.437580677454642,5.373078429260049,0.06291912,-0.030543262,0.13164146,50.308956,31.682678,-37.735756
2991105446000.0,-4.242365626467449,-6.391101216702241,5.402656384240484,0.070554934,-0.026267206,0.1301143,50.28634,31.696112,-37.700573
2991110436000.0,-4.192267573905598,-6.322679035288451,5.440482140640052,0.06963864,-0.020463986,0.1282817,50.265182,31.709618,-37.66903
2991115371000.0,-4.136623771861287,-6.246801680423847,5.480949880124157,0.06719518,-0.015271631,0.13897185,50.242123,31.719416,-37.640903
2991120460000.0,-4.143246609663906,-6.171928716328668,5.538350188079597,0.061391957,-0.012217305,0.13439035,50.206924,31.72452,-37.604897
2991125467000.0,-4.161508453936971,-6.098881053203847,5.597701277311245,0.059253927,-0.008857546,0.13439035,50.169304,31.726187,-37.573467
2991130522000.0,-4.187940298724719,-6.029870126930358,5.634038237062867,0.049785517,-0.0015271631,0.13622294,50.114887,31.719267,-37.53605
2991135395000.0,-4.215837968835309,-5.964776226860616,5.661935955723822,0.0421497,0.010079277,0.129198,50.06527,31.714298,-37.49917
2991140551000.0,-4.249288076109937,-5.899067144367261,5.658363032920567,0.03390302,0.016493361,0.12217305,49.995342,31.69115,-37.466293
2991145396000.0,-4.281986875264271,-5.83834080308064,5.644349164300816,0.023518313,0.028099801,0.11178834,49.933025,31.672436,-37.435467
2991150465000.0,-4.31628177166593,-5.816230557083517,5.643973353919576,0.014049901,0.039095376,0.122478485,49.8555,31.636414,-37.416046
2991155459000.0,-4.350096381794079,-5.80777690455148,5.648200091913389,0.015882496,0.054367006,0.11759156,49.789654,31.606045,-37.39536
2991160419000.0,-4.384352175895765,-5.815922286960176,5.650316,0.0061086523,0.07422013,0.10262536,49.72659,31.569307,-37.389168
2991165432000.0,-4.419663617263844,-5.841144782704634,5.650316,-0.00580322,0.07360926,0.09621128,49.662148,31.532665,-37.382416
2991170386000.0,-4.444843389157559,-5.8487334714189,5.653011528581101,-0.0015271631,0.08399397,0.09773844,49.608994,31.492315,-37.38731
2991176364000.0,-4.466992575887416,-5.843196059096624,5.658548940903376,0.00580322,0.10415252,0.09285152,49.562187,31.457062,-37.39155
2991180441000.0,-4.477190148773006,-5.858727171395706,5.662303774731595,0.00061086525,0.112704635,0.09101892,49.51899,31.42434,-37.400692
2991185434000.0,-4.486357511196319,-5.890813131326688,5.666887551667944,-0.004276057,0.12644911,0.0888809,49.48377,31.391878,-37.413948
2991190397000.0,-4.502208270504282,-5.921356950090823,5.655221902949571,-0.0036651916,0.12736541,0.09468412,49.44636,31.357437,-37.429173
2991195427000.0,-4.527208471265461,-5.95052381472191,5.621887982873454,-0.0033597588,0.13805555,0.092240654,49.417824,31.326872,-37.447044
2991200444000.0,-4.549527760933727,-5.983553888113764,5.589041753099007,-0.009162978,0.14263703,0.089186326,49.38977,31.302124,-37.462826
2991205490000.0,-4.553849873624899,-6.044062157016367,5.558787596082641,-0.0143553335,0.13927728,0.10476339,49.35837,31.274496,-37.481762
2991210409000.0,-4.558063205437796,-6.10304752656292,5.529294889312227,-0.0027488936,0.13744467,0.11575896,49.348186,31.252394,-37.50749
2991215383000.0,-4.5810966640959725,-6.164090729155955,5.503280735904028,0.004581489,0.14508049,0.11178834,49.33953,31.232546,-37.53404
2991220819000.0,-4.607266195776851,-6.226569000139033,5.479166708689608,0.01985312,0.1459968,0.119729586,49.322906,31.20467,-37.56238
2991225461000.0,-4.614992173096976,-6.242021035453597,5.490755815849844,0.03970624,0.15118915,0.12797627,49.32633,31.189165,-37.592045
2991230548000.0,-4.623458792361835,-6.258954362391379,5.503455899461244,0.040927973,0.15424347,0.12522738,49.344166,31.184837,-37.623367
2991235420000.0,-4.640287365565533,-6.25955936236904,5.480956783194355,0.03390302,0.15332718,0.12950343,49.35809,31.175426,-37.657066
2991240378000.0,-4.660591896782125,-6.254483269317939,5.4454239198203975,0.042455133,0.15424347,0.13225232,49.37427,31.163836,-37.690315
2991245442000.0,-4.7016044023498935,-6.246115119530021,5.428316336756407,0.046731193,0.15454891,0.124005646,49.391537,31.157,-37.720554
2991250463000.0,-4.746090583125174,-6.237217883374965,5.414970668331946,0.04734206,0.16187929,0.13500121,49.404655,31.145063,-37.755882
2991255451000.0,-4.8017650675818935,-6.227486134760945,5.407388257500265,0.04886922,0.16035213,0.13683382,49.425606,31.13646,-37.792778
2991260389000.0,-4.8619244394254215,-6.2174596862079925,5.40237487617937,0.050396383,0.16646078,0.15790866,49.441765,31.12194,-37.837673
2991265395000.0,-4.919552193154469,-6.192869175182482,5.375093795659893,0.042760566,0.17531833,0.1572978,49.46909,31.107601,-37.890022
2991270402000.0,-4.976310178082462,-6.1644900839416055,5.341984971118564,0.038179077,0.17928895,0.15027285,49.492702,31.090002,-37.944138
2991275441000.0,-5.0396114197947615,-6.164566363255018,5.3342814,0.04550946,0.17806722,0.14813483,49.5179,31.064655,-38.01058
2991280462000.0,-5.104538522657305,-6.1732233283823925,5.3342814,0.05467244,0.17867808,0.14477506,49.546726,31.042278,-38.07525
2991285457000.0,-5.140823543834435,-6.159177904196608,5.3342814,0.07544186,0.18600847,0.14813483,49.583626,31.008778,-38.15642
2991290414000.0,-5.154469185972981,-6.127338499990419,5.3342814,0.08460484,0.17928895,0.15027285,49.61853,30.977669,-38.23207
2991295414000.0,-5.164295593474715,-6.1100025,5.3438675737031,0.09193522,0.17379116,0.15118915,49.654507,30.939758,-38.320118
2991300463000.0,-5.169554350734095,-6.1100025,5.364902163458401,0.09468412,0.17501289,0.15424347,49.68928,30.901146,-38.407055
2991305436000.0,-5.165785197036474,-6.104311756458967,5.38112475987842,0.10629055,0.183565,0.15118915,49.719826,30.85349,-38.497437
2991310399000.0,-5.156755959469985,-6.095282613174392,5.394668545516717,0.1133155,0.17073683,0.15974127,49.741596,30.804508,-38.584183
2991315389000.0,-5.148055203324607,-6.078048133246074,5.403452514921466,0.11026118,0.16707164,0.1554652,49.768738,30.757494,-38.66889
2991320419000.0,-5.139648036745201,-6.052827467452008,5.407656032373473,0.10293079,0.16340645,0.15241088,49.79028,30.70936,-38.75074
2991325443000.0,-5.136166858585859,-6.027390428956229,5.411895577777778,0.09712757,0.14996742,0.1432479,49.802116,30.661219,-38.825012
2991330668000.0,-5.149827744471745,-6.0000693228501225,5.416449016216216,0.101098195,0.15027285,0.14202617,49.815304,30.612959,-38.9006
2991335741000.0,-5.163056341696113,-5.975541620777385,5.422787275335689,0.09987647,0.1423316,0.1386664,49.818893,30.563164,-38.969864
2991340447000.0,-5.175000311042403,-5.971560311519434,5.446675130883392,0.09773844,0.13713925,0.1337795,49.824383,30.514816,-39.037563
2991346898000.0,-5.19161561927605,-5.964131831628888,5.479659108733088,0.09437868,0.13958271,0.12095132,49.826176,30.465446,-39.104713
2991350488000.0,-5.2036981046037605,-5.936946239641539,5.5008034580565806,0.08674286,0.13225232,0.1255328,49.82134,30.416183,-39.16932
2991355548000.0,-5.220728014285714,-5.898628942857143,5.5306058,0.0852157,0.14172074,0.116980694,49.82449,30.367012,-39.232803
2991360459000.0,-5.236126546284673,-5.877762776230006,5.554557445029358,0.083383106,0.13530666,0.1151481,49.819363,30.318483,-39.291813
2991365417000.0,-5.250546958048187,-5.872955955578052,5.57378462725248,0.07452556,0.13500121,0.11453723,49.820457,30.274538,-39.351322
2991370448000.0,-5.260069388171312,-5.863375535825969,5.576071086335826,0.07391469,0.13683382,0.10903945,49.81334,30.21973,-39.410378
2991375544000.0,-5.26480905914344,-5.849156720870156,5.5618525683208695,0.070554934,0.14294247,0.103847094,49.807793,30.168785,-39.46873
2991380421000.0,-5.279655885197935,-5.850126662134252,5.5442047263339065,0.063224554,0.15515977,0.1020145,49.797,30.115198,-39.529488
2991385403000.0,-5.307029064505641,-5.868375607133295,5.521393664180532,0.051618114,0.13133603,0.099571034,49.78114,30.065798,-39.581192
2991390395000.0,-5.338316997455289,-5.881671853510099,5.506664,0.035124753,0.12889257,0.09407325,49.77509,30.018139,-39.642387
2991395426000.0,-5.376899516665183,-5.885958700613934,5.506664,0.02687807,0.12186762,0.087659165,49.763695,29.97327,-39.69529
2991400444000.0,-5.419585093969529,-5.889736,5.506664,0.024129177,0.11911872,0.0870483,49.76458,29.93376,-39.75402
2991405535000.0,-5.495202491232552,-5.889736,5.506664,0.02076942,0.12064589,0.070249505,49.77154,29.901842,-39.80656
2991410421000.0,-5.56777499231822,-5.889736,5.506664,0.01038471,0.1142318,0.058337633,49.78084,29.86786,-39.864277
2991415414000.0,-5.62629902446202,-5.865460296818099,5.543077597020416,-0.002443461,0.10751228,0.040011674,49.797184,29.840923,-39.91657
2991420433000.0,-5.683762558892772,-5.838938800459813,5.582859887713813,-0.010079277,0.10293079,0.027183503,49.814404,29.817213,-39.965485
2991425535000.0,-5.728821922851196,-5.790170365993757,5.623477082726327,-0.0036651916,0.11759156,0.01985312,49.84383,29.790789,-40.027023
2991430531000.0,-5.768651947991676,-5.735404224391259,5.663307315816857,-0.019242255,0.09682214,0.011911872,49.867287,29.773657,-40.07604
2991435406000.0,-5.803739797312471,-5.719699300671882,5.683932523147722,-0.025350908,0.09040806,0.0125227375,49.88391,29.739504,-40.139393
2991440412000.0,-5.839039538352508,-5.710874365411873,5.701582301518638,-0.05009095,0.08246681,0.002443461,49.900524,29.71686,-40.192974
2991445408000.0,-5.851429,-5.722135107387521,5.719263425939641,-0.058948494,0.07880162,-0.0012217305,49.902275,29.677244,-40.251663
2991450449000.0,-5.851429,-5.744481269579707,5.737140262358822,-0.057726767,0.062308256,-0.003970624,49.90189,29.643538,-40.30263
2991455433000.0,-5.8408917808366105,-5.766198219163389,5.743976600178763,-0.0693332,0.065973446,-0.016187929,49.908943,29.611464,-40.358425
2991460461000.0,-5.819372228459064,-5.787717771540937,5.73967277958527,-0.06688975,0.057726767,-0.012217305,49.905586,29.57481,-40.409073
2991465372000.0,-5.7962481040201,-5.803545,5.732858932961683,-0.0852157,0.05131268,-0.018020526,49.91139,29.551004,-40.452892
2991470411000.0,-5.765935607035176,-5.803545,5.717702605339196,-0.08582657,0.040927973,-0.015882496,49.911015,29.521753,-40.495087
2991475444000.0,-5.735659203517588,-5.803545,5.702564324544598,-0.076358154,0.032375857,-0.016187929,49.917744,29.503155,-40.52816
2991480472000.0,-5.677409381315504,-5.819020340440911,5.676534394109144,-0.09590584,0.024129177,-0.006414085,49.918564,29.48813,-40.560486
2991485433000.0,-5.608727590458981,-5.840483344054934,5.646486009757861,-0.09010262,0.017715093,-0.0067195175,49.92085,29.469261,-40.58866
2991490407000.0,-5.542434197938931,-5.860362426335878,5.608828317557252,-0.0888809,0.012217305,0.013133603,49.91631,29.450596,-40.617916
2991495420000.0,-5.478300612041984,-5.878686185019085,5.563018681679389,-0.08674286,0.013744468,0.016187929,49.916943,29.434753,-40.643524
2991500873000.0,-5.392158434782608,-5.894732695652174,5.505414504347827,-0.0842994,0.0027488936,0.02443461,49.913795,29.425407,-40.65906
2991505498000.0,-5.301813789049919,-5.904242867418144,5.448354764680623,-0.069027774,-0.017715093,0.03390302,49.907513,29.412521,-40.673264
2991510482000.0,-5.231681141647575,-5.8958970708237874,5.39968391331806,-0.061086524,-0.029932396,0.0421497,49.908405,29.412792,-40.679417
2991515405000.0,-5.184717712620779,-5.872415356310389,5.362113170096623,-0.05131268,-0.025045475,0.04428773,49.907562,29.40913,-40.68534
2991520387000.0,-5.139989465796447,-5.858571567769163,5.295170597585631,-0.03573562,-0.025961773,0.049480084,49.906437,29.411066,-40.681873
2991525522000.0,-5.0965510649720285,-5.85374500039258,5.198641316350966,-0.03604105,-0.034513887,0.051923547,49.90488,29.414316,-40.677654
2991530545000.0,-5.080515528546203,-5.837004564155386,5.1523223,-0.027794369,-0.027488936,0.05589417,49.90597,29.413631,-40.6763
2991535556000.0,-5.089930742358249,-5.808758824406514,5.1523223,-0.028405234,-0.032070424,0.058337633,49.901943,29.414467,-40.67079
2991540381000.0,-5.091439437334632,-5.800811161058356,5.157454643998052,-0.017104227,-0.023823744,0.056505036,49.917084,29.419739,-40.674553
2991545435000.0,-5.083582745962178,-5.816524625842058,5.169239681056733,-0.008857546,-0.011911872,0.053450707,49.931522,29.425306,-40.678337
2991550753000.0,-5.076329028848631,-5.833104232695115,5.180431075478665,-0.008857546,-0.023518313,0.06078109,49.93621,29.424276,-40.682777
2991555516000.0,-5.088078307443977,-5.848769828436508,5.168681878672619,0.0067195175,-0.0125227375,0.0711658,49.949203,29.418747,-40.69464
2991560468000.0,-5.100293807675796,-5.865057048699236,5.156466463475573,0.013133603,-0.005497787,0.067500606,49.96183,29.419569,-40.696964
2991565421000.0,-5.112446285641288,-5.883929928564129,5.160330697138477,0.0106901415,-0.00030543262,0.06841691,49.972332,29.416037,-40.70395
2991571445000.0,-5.127185641798672,-5.908495864179868,5.175070258507921,0.016798794,0.004276057,0.064751714,49.98673,29.411575,-40.710682
2991575445000.0,-5.134294407609107,-5.933109593117012,5.192316540859239,0.01282817,0.0070249503,0.06994407,50.005043,29.412018,-40.721447
2991580513000.0,-5.137965554723546,-5.980833508947886,5.229027245344528,0.008246681,0.007941248,0.06566802,50.027626,29.414291,-40.73021
2991585423000.0,-5.141522250132365,-6.027069583677482,5.264593456674987,0.008857546,0.01160644,0.07238753,50.0486,29.413643,-40.742943
2991590407000.0,-5.188897513890242,-6.052195438522273,5.3014352562725415,0.00580322,0.0076358155,0.06658431,50.072536,29.418173,-40.7509
2991595452000.0,-5.259540545618481,-6.066323946515255,5.339111359547714,-0.0021380284,-0.0015271631,0.06780604,50.09194,29.42061,-40.760868
2991600711000.0,-5.310749992103511,-6.086915587698601,5.38691969650842,-0.0009162979,0.0021380284,0.067500606,50.11305,29.428112,-40.76398
2991605440000.0,-5.3452195925696895,-6.108459059870611,5.434315425268766,-0.0033597588,0.003970624,0.06688975,50.131054,29.437561,-40.764782
2991610270000.0,-5.3722160051292365,-6.133385499909484,5.461080965241878,-0.004886922,0.0027488936,0.051618114,50.152103,29.445173,-40.768337
2991615266000.0,-5.391463895303229,-6.162257737141707,5.46589286241577,-0.010995574,-0.0009162979,0.045814894,50.17028,29.452156,-40.77328
2991620266000.0,-5.399076929824561,-6.17031448311763,5.4683566,-0.0021380284,-0.0027488936,0.048258353,50.182037,29.454018,-40.776875
2991625355000.0,-5.394404573099415,-6.156297608091267,5.4683566,-0.0125227375,-0.00030543262,0.037873644,50.19914,29.464554,-40.777138
2991630276000.0,-5.395731511903535,-6.142325794630527,5.4723459869318765,-0.02321288,0.009162978,0.03268129,50.214752,29.473618,-40.78173
2991635270000.0,-5.405589810986293,-6.127538500412244,5.482203977202927,-0.0143553335,0.011911872,0.02321288,50.2333,29.483858,-40.78267
2991640274000.0,-5.410896,-6.123809384447411,5.48539505715648,-0.035124753,0.013744468,0.02321288,50.24877,29.499355,-40.785862
2991645268000.0,-5.410896,-6.132930732344808,5.480834597501669,-0.043066,0.009162978,0.018325957,50.26718,29.513575,-40.785587
2991650435000.0,-5.407112728535981,-6.134950108784119,5.466583822630273,-0.03604105,0.009162978,0.014966198,50.276367,29.522627,-40.790276
2991655429000.0,-5.3976184281885855,-6.125455758868486,5.438101516406948,-0.040317107,0.015577064,0.0018325958,50.290028,29.538197,-40.792564
2991660393000.0,-5.374083710759992,-6.1195793,5.415175059755858,-0.049480084,0.008857546,-0.004886922,50.29769,29.554453,-40.7926
2991665397000.0,-5.32690694655444,-6.1195793,5.401021887635361,-0.054061573,0.014966198,-0.00061086525,50.310417,29.570715,-40.796394
2991670390000.0,-5.289815199924869,-6.114960003080391,5.391742,-0.03726278,0.02443461,-0.011911872,50.331875,29.592632,-40.795795
2991675503000.0,-5.271420644618708,-6.101164170632983,5.391742,-0.036957346,0.02076942,-0.011911872,50.346775,29.614653,-40.796562
2991680420000.0,-5.258736979370915,-6.090849,5.388532173611111,-0.02443461,0.024129177,-0.014049901,50.36865,29.637594,-40.792805
2991685620000.0,-5.263822804534313,-6.090849,5.3732752291666666,-0.026267206,0.01863139,-0.017715093,50.38746,29.662962,-40.78618
2991690392000.0,-5.263637208173823,-6.092652381789964,5.355798425763063,-0.01282817,0.022907447,-0.027488936,50.407204,29.683094,-40.779205
2991695398000.0,-5.249464837779913,-6.09973851149213,5.327453721971769,-0.0076358155,0.022907447,-0.01863139,50.419895,29.701439,-40.773094
2991700559000.0,-5.234853650484074,-6.107044047926983,5.298231385522134,0.0018325958,0.02443461,-0.025045475,50.44109,29.721586,-40.766663
2991705423000.0,-5.234277144909036,-6.112672722454518,5.2863975,0.00061086525,0.023823744,-0.027183503,50.457726,29.739645,-40.762268
2991710673000.0,-5.244384331560961,-6.11772631578048,5.2863975,0.011301007,0.022602014,-0.02321288,50.47436,29.753448,-40.758068
2991715395000.0,-5.245361736324743,-6.116850736324743,5.291854598859122,0.0076358155,0.017715093,-0.027794369,50.504417,29.778738,-40.75066
2991720399000.0,-5.240480172995824,-6.111969172995824,5.301617674544159,0.018325957,0.023823744,-0.032070424,50.53524,29.798029,-40.746258
2991725460000.0,-5.246309986275733,-6.104804887710543,5.3133474591391145,0.021685716,0.018936822,-0.028099801,50.558525,29.819677,-40.73956
2991730530000.0,-5.25929132795651,-6.09615073522859,5.3263287556367525,0.017104227,0.016187929,-0.034208454,50.587498,29.843515,-40.732048
2991735428000.0,-5.281581160233918,-6.085472532163744,5.336073549707602,0.010995574,0.016187929,-0.028710667,50.606728,29.862736,-40.725273
2991740434000.0,-5.321632401378446,-6.070453225250627,5.341079967919799,0.0076358155,0.021685716,-0.02565634,50.628708,29.883764,-40.717655
2991745414000.0,-5.345933393229679,-6.033065816453455,5.339707813540641,0.0027488936,0.025045475,-0.031154128,50.643917,29.900976,-40.712208
2991750542000.0,-5.350766086636489,-5.965408159220626,5.330042426727021,0.005192355,0.026572637,-0.048563786,50.662342,29.919106,-40.7059
2991755427000.0,-5.355345560781266,-5.920401276571762,5.318973057302497,-0.0030543262,0.02321288,-0.05497787,50.67676,29.9343,-40.70614
2991760437000.0,-5.360007961908464,-5.901751964162861,5.30498619470411,-0.0021380284,0.019547688,-0.054367006,50.694134,29.949274,-40.704674
2991765374000.0,-5.363012,-5.891225271428572,5.304909726414923,0.00580322,0.025961773,-0.062308256,50.70814,29.95634,-40.70879
2991770421000.0,-5.363012,-5.895623371428572,5.331297729408553,0.008246681,0.015271631,-0.06261369,50.71456,29.962475,-40.70984
2991775446000.0,-5.360982720189303,-5.902018673452987,5.353435,-0.003970624,0.013439035,-0.06780604,50.72995,29.968918,-40.71623
2991780434000.0,-5.34818619971426,-5.919080492901152,5.353435,-0.006414085,0.013133603,-0.080634214,50.745235,29.974846,-40.718964
2991785441000.0,-5.335340935476382,-5.9362073032413605,5.353435,-0.009162978,0.016493361,-0.0720821,50.7501,29.9778,-40.72202
2991790430000.0,-5.325706313570101,-5.929044913570101,5.36201017597104,-0.0070249503,0.018020526,-0.06963864,50.75971,29.984325,-40.72101
2991795384000.0,-5.316422883025144,-5.919761483025145,5.371293703453674,-0.01160644,0.008857546,-0.077579886,50.767944,29.99302,-40.717983
2991800492000.0,-5.295777256358646,-5.930077046184812,5.384199046184812,-0.018020526,0.00030543262,-0.076358154,50.778988,30.005482,-40.711933
2991805397000.0,-5.274288599451052,-5.942970240329369,5.397092240329369,-0.009773844,0.005497787,-0.077579886,50.793903,30.018066,-40.705036
2991810426000.0,-5.270433746928244,-5.944007153149645,5.394939439528771,-0.020158553,0.00580322,-0.07971791,50.80709,30.033108,-40.693474
2991815409000.0,-5.275079905637231,-5.939360848894947,5.385647025080323,-0.010079277,-0.0021380284,-0.07513642,50.81776,30.041395,-40.682476
2991820424000.0,-5.279653071890267,-5.93762,5.379333028109733,-0.01863139,0.00030543262,-0.076358154,50.83351,30.061316,-40.6646
2991825498000.0,-5.284218337128898,-5.93762,5.374767762871102,-0.02076942,-0.013744468,-0.07544186,50.841053,30.076406,-40.64311
2991830448000.0,-5.296780297126621,-5.927237229977485,5.380375718173046,-0.020158553,-0.006414085,-0.076358154,50.86219,30.094326,-40.62686
2991835448000.0,-5.317315892709338,-5.906701688002573,5.395777455065938,-0.03176499,-0.007941248,-0.08552113,50.8794,30.116184,-40.604713
2991840423000.0,-5.327747104431329,-5.905398008862659,5.401319,-0.021685716,0.00061086525,-0.08857546,50.90051,30.131561,-40.589603
2991845404000.0,-5.332518740002,-5.914941280004001,5.401319,-0.029626964,-0.007941248,-0.09101892,50.919018,30.153967,-40.569256
2991850444000.0,-5.325649602046757,-5.921343865984415,5.3955644680311705,-0.035430185,-0.01038471,-0.092240654,50.937214,30.168554,-40.55488
2991855420000.0,-5.312227156229462,-5.925818014590179,5.386616170819641,-0.03604105,-0.0027488936,-0.093767814,50.956287,30.183985,-40.54062
2991860474000.0,-5.295264270199917,-5.94090187938359,5.377022061953353,-0.03176499,0.0015271631,-0.09743301,50.976105,30.201738,-40.5245
2991865413000.0,-5.275564325072886,-5.9655269393586,5.367172140816327,-0.040317107,0.00061086525,-0.09987647,50.996284,30.221764,-40.50916
2991870447000.0,-5.2534100101920815,-5.99252812998824,5.346411154449236,-0.03726278,-0.0012217305,-0.08582657,51.01499,30.239605,-40.494595
2991875429000.0,-5.230031130537045,-6.020582687926304,5.31835640121521,-0.04734206,-0.003970624,-0.09315695,51.039555,30.266207,-40.475494
2991880480000.0,-5.204751449510208,-6.040692275244896,5.295812051084867,-0.04153884,-0.010995574,-0.086132,51.056854,30.287712,-40.45801
2991885424000.0,-5.178743284720315,-6.053696357639843,5.278473425432574,-0.035430185,-0.013439035,-0.087659165,51.07866,30.313915,-40.438313
2991890416000.0,-5.160566214041362,-6.066116913543773,5.268576785958638,-0.042760566,-0.021380283,-0.07971791,51.103947,30.345024,-40.417313
2991896312000.0,-5.156176210682631,-6.079287106981807,5.272966789317369,-0.034208454,-0.02443461,-0.081855945,51.132576,30.373852,-40.395092
2991900514000.0,-5.1530475142590575,-6.0886733269320485,5.276095485740942,-0.043676864,-0.03359759,-0.07422013,51.15958,30.40849,-40.37025
2991905456000.0,-5.144196109216295,-6.1071007027691655,5.272757795520154,-0.032986723,-0.03268129,-0.070249505,51.189396,30.438248,-40.34639
2991910381000.0,-5.134110048326741,-6.127271982037849,5.267715002031434,-0.024740042,-0.03176499,-0.0711658,51.21564,30.46898,-40.321636
2991915412000.0,-5.111749293277229,-6.137723661610726,5.267244,-0.01863139,-0.035430185,-0.06414085,51.23946,30.49742,-40.29636
2991920376000.0,-5.088489074469126,-6.147027943438693,5.267244,-0.018020526,-0.030543262,-0.064446285,51.267456,30.5265,-40.272095
2991925556000.0,-5.089346860162294,-6.136121546782412,5.283495016418192,-0.005497787,-0.03573562,-0.061391957,51.29368,30.555626,-40.243267
2991930479000.0,-5.093795583600679,-6.12277551582374,5.301289445650123,-0.005497787,-0.027794369,-0.064446285,51.325676,30.587727,-40.217663
2991935413000.0,-5.094861,-6.1195793,5.305551,-0.008246681,-0.029321533,-0.05467244,51.350254,30.617075,-40.188137
2991940371000.0,-5.094861,-6.1195793,5.305551,0.0061086523,-0.031154128,-0.04917465,51.37825,30.644112,-40.15949
2991945444000.0,-5.079751493834081,-6.100692318684604,5.2715545125186845,0.007330383,-0.029321533,-0.05009095,51.39885,30.670298,-40.131092
2991950585000.0,-5.061353111266817,-6.077694220403587,5.230158031670404,0.0012217305,-0.032070424,-0.035430185,51.411625,30.690191,-40.105923
2991955442000.0,-5.042885594601177,-6.075112356748528,5.205691594601177,0.014660766,-0.033292156,-0.029932396,51.42876,30.709263,-40.078926
2991960420000.0,-5.0235336827481225,-6.079950271564847,5.186339682748123,0.019547688,-0.027183503,-0.026572637,51.44326,30.728024,-40.055817
2991965408000.0,-5.011348782231487,-6.070925213380981,5.1810527,0.01985312,-0.032375857,-0.030543262,51.45869,30.743828,-40.03508
2991970410000.0,-5.001838477744689,-6.056659880782211,5.1810527,0.029932396,-0.020158553,-0.01985312,51.474693,30.752693,-40.023205
2991975486000.0,-4.999093,-6.0525417,5.187701450377521,0.03390302,-0.023823744,-0.025350908,51.49099,30.772724,-40.00033
2991980569000.0,-4.999093,-6.0525417,5.197006405820511,0.029321533,-0.023823744,-0.0076358155,51.50154,30.78485,-39.987732
2991985422000.0,-4.996131871390162,-6.049580571390162,5.209089778589922,0.02565634,-0.02107485,-0.006414085,51.516006,30.798513,-39.970764
2991990420000.0,-4.99136545567616,-6.04481415567616,5.223389175044812,0.04062254,-0.019242255,-0.00030543262,51.523766,30.804424,-39.95826
2991995423000.0,-4.986639786403294,-6.054470994314283,5.2346897271934125,0.048258353,-0.014660766,0.007941248,51.526203,30.811024,-39.946907
2992000539000.0,-4.981836834849525,-6.0736827002254685,5.244295630300951,0.04428773,-0.016187929,0.02076942,51.52452,30.81457,-39.936954
2992005505000.0,-4.985112561032649,-6.094204720102715,5.261023020102715,0.05375614,-0.022907447,0.022296581,51.518932,30.812946,-39.92476
2992010411000.0,-4.993730230786867,-6.115749006969919,5.282567306969919,0.06291912,-0.021685716,0.022296581,51.511898,30.80976,-39.916245
2992015404000.0,-5.002867703169444,-6.134818143437627,5.292199616537993,0.057421334,-0.013133603,0.025045475,51.504517,30.811197,-39.904316
2992020572000.0,-5.012923201097115,-6.149901626574563,5.282144171109305,0.061086524,-0.024129177,0.03940081,51.489426,30.806683,-39.89095
2992025498000.0,-5.028752183971148,-6.157887,5.274719620757363,0.06078109,-0.030543262,0.038789943,51.482384,30.807783,-39.87555
2992030521000.0,-5.052847638759768,-6.157887,5.269900570056101,0.062308256,-0.035430185,0.038789943,51.469025,30.804794,-39.861137
2992035710000.0,-5.058962070460873,-6.162666019692751,5.257685935663471,0.06261369,-0.048258353,0.051618114,51.457016,30.803001,-39.84668
2992040431000.0,-5.044977513454996,-6.17198905769667,5.239039810980514,0.06291912,-0.049785517,0.05467244,51.44944,30.803083,-39.831932
2992045447000.0,-5.042779490310786,-6.1770406,5.227143621953077,0.076052725,-0.047647487,0.059864793,51.437176,30.798363,-39.821022
2992050440000.0,-5.053706584095064,-6.1770406,5.22350129539153,0.069027774,-0.054061573,0.059864793,51.423206,30.79802,-39.80769
2992056694000.0,-5.064656001103007,-6.1775321329656645,5.2188684567692585,0.07360926,-0.05467244,0.06872234,51.411865,30.794245,-39.797886
2992060493000.0,-5.054947160185021,-6.18076841327166,5.215632108877424,0.08735373,-0.05222898,0.070249505,51.40189,30.791706,-39.786114
2992065442000.0,-5.04229934399573,-6.184984352001424,5.211416082102828,0.08307768,-0.0580322,0.06566802,51.390427,30.79238,-39.774563
2992070452000.0,-5.028192539944048,-6.191221230027977,5.19597153395244,0.095294975,-0.054367006,0.076358154,51.37747,30.7839,-39.768814
2992075473000.0,-5.013245349145167,-6.198694825427417,5.173550786773391,0.09010262,-0.06047566,0.07971791,51.36415,30.782242,-39.757576
2992080657000.0,-4.996414034262171,-6.205771,5.155894260533449,0.10842858,-0.056199603,0.08552113,51.347546,30.773218,-39.75019
2992085433000.0,-4.96665882411363,-6.205771,5.195567943109618,0.1151481,-0.05681047,0.084910266,51.329376,30.76825,-39.739944
2992090482000.0,-4.940721652473971,-6.209413571086336,5.22984734752603,0.11148291,-0.0571159,0.09040806,51.315205,30.764193,-39.732677
2992095458000.0,-4.936330778356215,-6.22697697585921,5.2342382216437855,0.124005646,-0.050701816,0.09712757,51.302628,30.755854,-39.72686
2992100474000.0,-4.931900082632628,-6.243611754389295,5.238979753724969,0.12522738,-0.052839845,0.0888809,51.280815,30.75347,-39.707207
2992105472000.0,-4.927357532912594,-6.229984294960615,5.252607450317927,0.12156218,-0.049480084,0.092240654,51.257248,30.745989,-39.69374
2992110403000.0,-4.922875877716618,-6.21653951656069,5.266052462702857,0.13103059,-0.04428773,0.08979719,51.23778,30.740856,-39.6762
2992115421000.0,-4.9356361032090375,-6.180261377726682,5.267244,0.13316862,-0.036957346,0.08735373,51.219055,30.737282,-39.66067
2992120418000.0,-4.9499883284514645,-6.1419885439568125,5.267244,0.13072516,-0.037873644,0.089186326,51.199387,30.732588,-39.64503
2992125540000.0,-4.955500877588016,-6.155900551836656,5.2887029397958205,0.12156218,-0.029321533,0.08155051,51.182697,30.726908,-39.63069
2992130417000.0,-4.959957229939891,-6.1737255889896,5.310984236237,0.124005646,-0.021991149,0.08827003,51.16132,30.716331,-39.61911
2992135440000.0,-4.968790447761194,-6.15302692238806,5.343143629850746,0.12492194,-0.007330383,0.10262536,51.14006,30.701614,-39.615345
2992140372000.0,-4.978381783125191,-6.124252515686871,5.376713378738958,0.12797627,-0.002443461,0.095294975,51.122746,30.689617,-39.60819
2992145416000.0,-5.009836982157639,-6.085944637450566,5.408325662742573,0.1160644,0.0033597588,0.08674286,51.10286,30.677055,-39.605213
2992150515000.0,-5.045766103421319,-6.045524381890923,5.439763602814311,0.12705997,0.01038471,0.071776666,51.08869,30.662916,-39.60082
2992155469000.0,-5.067079825751899,-6.012336128673874,5.452711730707481,0.11789699,0.011301007,0.062002823,51.06562,30.64972,-39.594204
2992160382000.0,-5.082187445360162,-5.982120573948411,5.457747779192979,0.10751228,0.006414085,0.053450707,51.047077,30.63805,-39.585213
2992165414000.0,-5.127071290578496,-5.937939206445255,5.508164492953583,0.09896017,0.0015271631,0.036651913,51.02825,30.620134,-39.577793
2992170415000.0,-5.178991350251306,-5.890739465832266,5.569523958608456,0.09407325,0.0015271631,0.016187929,51.013256,30.606674,-39.568012
2992175538000.0,-5.244227397332933,-5.849532007252023,5.629219249026071,0.071776666,-0.0033597588,-0.0021380284,50.997417,30.593529,-39.558815
2992180566000.0,-5.31156628483668,-5.811052614264309,5.686938539406652,0.057421334,0.0027488936,-0.016187929,50.9891,30.583735,-39.548954
2992185472000.0,-5.360310302377569,-5.796423859524486,5.72312414038079,0.044593163,0.004886922,-0.0143553335,50.963478,30.560308,-39.54367
2992190426000.0,-5.405250595263806,-5.787435800947239,5.754582533105996,0.027794369,0.0067195175,-0.022296581,50.946335,30.546003,-39.53518
2992195439000.0,-5.433018527428066,-5.7843914,5.787193192870471,0.02107485,0.014660766,-0.034208454,50.915573,30.516277,-39.53697
2992200523000.0,-5.452144013198468,-5.7843914,5.82066251837376,0.021380283,0.010079277,-0.041233405,50.883728,30.489893,-39.535633
2992205440000.0,-5.449502287812372,-5.7843914,5.8322754,0.011911872,0.013744468,-0.04153884,50.85602,30.459658,-39.542217
2992210455000.0,-5.434745634903727,-5.7843914,5.8322754,0.007941248,-0.00061086525,-0.049480084,50.82752,30.4323,-39.540863
2992215417000.0,-5.420193455605381,-5.790962029596412,5.8322754,0.0076358155,0.0021380284,-0.0421497,50.799118,30.400787,-39.544865
2992220426000.0,-5.405526662535671,-5.800739891642886,5.8322754,0.006414085,-0.0021380284,-0.043066,50.770615,30.37444,-39.541065
2992225445000.0,-5.360209771515486,-5.806707316924778,5.797490640265487,-0.0030543262,-0.01740966,-0.04734206,50.737133,30.350536,-39.534004
2992230439000.0,-5.30289556519174,-5.811116197640118,5.74899396519174,-0.003970624,-0.012217305,-0.040317107,50.705315,30.323755,-39.532314
2992235411000.0,-5.251181275111552,-5.813122,5.701291014476946,-0.016798794,-0.019547688,-0.03634648,50.67047,30.30334,-39.522175
2992240415000.0,-5.203662874318295,-5.813122,5.653772315974219,-0.0067195175,-0.025961773,-0.022296581,50.632923,30.275682,-39.516556
2992245430000.0,-5.164064210929383,-5.80098745545507,5.61660059722917,-0.008857546,-0.027183503,-0.003970624,50.602978,30.261421,-39.506523
2992250480000.0,-5.131493265672503,-5.777722668077737,5.588682949547816,-0.004581489,-0.03604105,-0.0012217305,50.570545,30.24466,-39.493305
2992255492000.0,-5.109505796727682,-5.7539659918192045,5.544394178729932,0.005192355,-0.0421497,0.0070249503,50.543953,30.228565,-39.482628
2992260522000.0,-5.099653806953676,-5.729336017384191,5.480356245198895,0.014660766,-0.040927973,0.016493361,50.516308,30.211224,-39.47249
2992265432000.0,-5.08807123074266,-5.6924580375935525,5.431096948647093,0.027183503,-0.040317107,0.020158553,50.4832,30.191406,-39.461494
2992270459000.0,-5.07421326482441,-5.641645206486279,5.394142372865093,0.025045475,-0.034208454,0.021380283,50.450294,30.171618,-39.453312
2992275465000.0,-5.070592363354549,-5.606059582193935,5.359203325466118,0.029932396,-0.043982297,0.031154128,50.42155,30.147112,-39.45089
2992280438000.0,-5.081290699498315,-5.591795134002246,5.327108354271808,0.04337143,-0.03390302,0.0290161,50.402454,30.124115,-39.452026
2992285393000.0,-5.091950312527144,-5.577582316630475,5.295129552287532,0.04886922,-0.022907447,0.034208454,50.37838,30.095823,-39.45795
2992290406000.0,-5.102036982802743,-5.591641357006859,5.307925410942778,0.054367006,-0.01985312,0.031154128,50.358143,30.067778,-39.462196
2992295418000.0,-5.111863765810216,-5.61620831452554,5.337405708660047,0.048563786,-0.02076942,0.04153884,50.334724,30.03766,-39.471165
2992300636000.0,-5.110199328480278,-5.636846964153133,5.35911960479505,0.058948494,-0.014966198,0.034513887,50.322956,30.009077,-39.485615
2992305473000.0,-5.105721175522042,-5.65476013712297,5.377032590719257,0.05131268,-0.010079277,0.0421497,50.304058,29.980577,-39.50387
2992310443000.0,-5.093893148960573,-5.673952630107527,5.406769881146953,0.05100725,-0.004276057,0.040317107,50.288723,29.951126,-39.519257
2992315447000.0,-5.079170371449052,-5.693582760983103,5.44112278953405,0.05497787,-0.009162978,0.03940081,50.269966,29.921297,-39.53447
2992320404000.0,-5.0757074,-5.723200359116022,5.46706029281768,0.051923547,-0.0009162979,0.03848451,50.25266,29.895618,-39.549484
2992325524000.0,-5.0757074,-5.757063279400158,5.491247948697711,0.046731193,-0.008552114,0.037873644,50.23096,29.870401,-39.559467
2992330523000.0,-5.082425173958431,-5.771955703812098,5.527316912666604,0.043676864,-0.014660766,0.040317107,50.204437,29.844786,-39.566387
2992335457000.0,-5.0912334377668005,-5.780763875645446,5.566954007829247,0.03359759,-0.0143553335,0.040011674,50.179058,29.822855,-39.57217
2992340428000.0,-5.10395411281499,-5.790453475209993,5.595402213719578,0.03268129,-0.0143553335,0.037873644,50.15218,29.806044,-39.569973
2992345459000.0,-5.119519764591859,-5.8008305763945724,5.616156524445402,0.027183503,-0.0143553335,0.043066,50.12383,29.79098,-39.569054
2992350450000.0,-5.117024060477701,-5.80026122737451,5.62815294525098,0.020463986,-0.0070249503,0.04337143,50.09092,29.773954,-39.566254
2992355443000.0,-5.108101413883187,-5.795799764321702,5.637075871356597,0.02107485,-0.010079277,0.040011674,50.055717,29.756784,-39.561314
2992360377000.0,-5.10718451097852,-5.804954330708035,5.648979162370724,0.009468411,-0.008552114,0.033292156,50.027454,29.745607,-39.555824
2992365486000.0,-5.112049949463007,-5.824416592700875,5.6635758842680985,-0.005192355,-0.011911872,0.03268129,49.997063,29.734764,-39.549026
2992370427000.0,-5.116720208167272,-5.848508992500245,5.672175551663885,-0.01038471,-0.009468411,0.03970624,49.96247,29.721678,-39.5435
2992375500000.0,-5.121489336114656,-5.877123660587023,5.676944580013744,-0.009773844,-0.008552114,0.03604105,49.930477,29.713001,-39.53479
2992380479000.0,-5.1235914,-5.887252205200454,5.666627211024962,-0.008857546,-0.0036651916,0.031154128,49.90151,29.705423,-39.526695
2992385439000.0,-5.1235914,-5.882760910192889,5.644169985608926,-0.013133603,-0.010079277,0.042455133,49.866997,29.69638,-39.51863
2992390426000.0,-5.117535959760717,-5.882177837926221,5.623088121834496,-0.014966198,-0.0067195175,0.04520403,49.845448,29.693909,-39.509396
2992395450000.0,-5.103144979740778,-5.88697473108674,5.603900248654038,-0.014660766,-0.012217305,0.050396383,49.816727,29.689058,-39.499447
2992400573000.0,-5.096849116404578,-5.885759891746534,5.586890775341956,-0.015882496,-0.010995574,0.050701816,49.79886,29.687532,-39.493088
2992405489000.0,-5.10122992332744,-5.876998552358797,5.573748629031358,-0.020463986,-0.00580322,0.052534413,49.77907,29.685354,-39.487614
2992410373000.0,-5.103175358250334,-5.8705826,5.560336727487422,-0.012217305,-0.013744468,0.04917465,49.76571,29.684433,-39.478252
2992415413000.0,-5.098219194373139,-5.8705826,5.54546844285861,-0.011301007,-0.0106901415,0.04917465,49.75496,29.684849,-39.47339
2992420437000.0,-5.090298053242523,-5.86601962147863,5.530831116770309,-0.00580322,-0.01863139,0.0571159,49.736366,29.683455,-39.466873
2992425558000.0,-5.075775461356233,-5.851496928496694,5.516308727075313,-0.014049901,-0.0125227375,0.05681047,49.724415,29.686365,-39.46258
2992430681000.0,-5.061633804071987,-5.841852,5.496171413561171,0.0009162979,-0.009162978,0.052839845,49.714413,29.683825,-39.457523
2992435646000.0,-5.048668303617524,-5.841852,5.4659183986547895,-0.006414085,-0.009773844,0.06414085,49.70085,29.684193,-39.45563
