timestamp,acc_x,acc_y,acc_z,gyro_x,gyro_y,gyro_z,ori_azimuth,ori_pitch,ori_roll
666279859000.0,0.4724765369876439,9.762151863594625,-0.0413958150617801,-1.171945,0.74464476,0.029932396,124.35086,175.55638,12.96841
666284845000.0,0.4689022243012555,9.765487881469946,-0.0592673784937222,-1.171945,0.7651087,0.032070424,124.35216,175.54848,12.97504
666289854000.0,0.4653114236100964,9.768839288116054,-0.077221381949518,-1.1911873,0.763887,0.03176499,124.75932,176.66371,13.440748
666294822000.0,0.4617500145796155,9.772163262605543,-0.0950284271019223,-1.1924089,0.75228053,0.03573562,125.130104,177.76517,13.907075
666299887000.0,0.4581190691811885,9.775552137563126,-0.1131831540940576,-1.1801916,0.73761976,0.032070424,125.46111,178.86102,14.369216
666304731000.0,0.4546465520025151,9.778793146505777,-0.1305457399874244,-1.1768318,0.73731434,0.032986723,125.758446,179.95183,14.828153
666309714000.0,0.4510743899254446,9.782127157150128,-0.1484065503727769,-1.1588113,0.7254025,0.031154128,126.018906,-178.9711,15.274849
666314767000.0,0.4474520469642893,9.78550800318382,-0.1665182651785536,-1.1542299,0.7431176,0.027794369,126.24521,-177.89742,15.72418
666319750000.0,0.4438798848872188,9.788842013828171,-0.1843790755639061,-1.1731668,0.79412484,0.03481932,126.44082,-176.82877,16.173273
666324808000.0,0.4402539575772002,9.79222620524682,-0.2025087121139989,-1.2189816,0.8185594,0.059253927,126.608795,-175.76086,16.612993
666329702000.0,0.4367455969098948,9.795500668039002,-0.220050515450526,-1.5845845,0.768163,0.059253927,126.74122,-174.6045,17.037647
666334693000.0,0.4331676998746432,9.798840031299278,-0.2379400006267841,-1.2586879,0.754724,0.064751714,126.8513,-173.63324,17.471994
666339716000.0,0.4295668630066671,9.802200805023254,-0.2559441849666647,-1.2498302,0.74067414,0.06627888,126.93188,-172.48065,17.882872
666344720000.0,0.4259796466643711,9.805548866284408,-0.2738802666781444,-1.2559389,0.72387534,0.07422013,126.98927,-171.41943,18.280159
666349697000.0,0.4224117858059364,9.808878862466813,-0.2917195709703176,-1.2522738,0.7021896,0.07849618,127.02064,-170.36835,18.66213
666354728000.0,0.4188052139797792,9.812244988806714,-0.3097524301011038,-1.2589933,0.6942484,0.09437868,127.03287,-169.31982,19.033985
666359698000.0,0.4152423712097531,9.815570301450183,-0.3275666439512346,-1.2681563,0.66920286,0.105374254,127.0233,-168.27673,19.384441
666364755000.0,0.4116171607695071,9.818953823791842,-0.3456926961524642,-1.2635747,0.6068946,0.09132435,126.99164,-167.23982,19.710802
666369713000.0,0.4080629204367527,9.822271107511426,-0.3634638978162365,-1.181108,0.5363397,0.095294975,126.950035,-166.22937,20.018797
666374729000.0,0.4044671016571851,9.825627197696468,-0.3814429917140747,-1.067487,0.45540005,0.093767814,126.88889,-165.23155,20.29436
666379701000.0,0.4009028251476136,9.82895384849392,-0.3992643742619319,-0.93828905,0.3894266,0.082161374,126.81305,-164.26402,20.543232
666384701000.0,0.3973184762844082,9.832299233447111,-0.4171861185779588,-0.8081747,0.32895094,0.07238753,126.728165,-163.33144,20.760809
666389762000.0,0.3936903983650717,9.835685432096732,-0.4353265081746412,-0.68630713,0.25717425,0.053145275,126.63046,-162.43283,20.94516
666394728000.0,0.3901304230741362,9.83900806843224,-0.4531263846293191,-0.50243664,-0.0027488936,-0.0009162979,126.53312,-161.58408,21.048103
666399732000.0,0.3865432067318402,9.842356129693394,-0.4710624663407989,-0.008246681,-0.03726278,-0.01160644,126.41691,-160.85571,21.185377
666404730000.0,0.3829602916081801,9.845700176492604,-0.4889770419590994,0.058643065,0.008552114,-0.0015271631,126.30154,-160.06178,21.262789
666410232000.0,0.3790160741191089,9.849381438095095,-0.5086981294044554,0.018936822,0.021685716,-0.008857546,126.17865,-159.36891,21.31174
666414831000.0,0.3757191900347326,9.85245852317504,-0.5251825498263369,0.009162978,0.035430185,-0.01038471,126.04856,-158.70505,21.367146
666419818000.0,0.3721441604785716,9.855795210127352,-0.5430576976071422,0.0076358155,0.045814894,-0.008857546,125.91011,-158.03438,21.417116
666424843000.0,0.3685418898710502,9.85915732200531,-0.5610690506447492,0.0012217305,0.04734206,-0.010995574,125.764145,-157.36147,21.46031
666429793000.0,0.3649933844964768,9.862469253108967,-0.5788115775176158,0.0021380284,0.05222898,-0.01863139,125.60322,-156.68507,21.50746
666434782000.0,0.3614169212007705,9.865807278215264,-0.5966938939961475,-0.007941248,0.053145275,-0.018020526,125.43967,-156.00735,21.547169
666439857000.0,0.357778807104617,9.86920284394275,-0.6148844644769148,-0.009773844,0.056199603,-0.015577064,125.2694,-155.33417,21.580578
666444788000.0,0.3542439222557239,9.872502062583589,-0.6325588887213806,-0.005497787,0.06047566,-0.014049901,125.09509,-154.66287,21.607237
666449866000.0,0.3506036575502525,9.875899635542048,-0.6507602122487375,-0.014660766,0.05681047,-0.011911872,124.919136,-153.99112,21.625961
666454848000.0,0.3470322123429546,9.879232977109409,-0.6686174382852267,-0.011301007,0.06688975,-0.012217305,124.73754,-153.32703,21.64218
666459783000.0,0.3434944600149709,9.882534872058208,-0.6863061999251452,-0.015577064,0.07452556,-0.013744468,124.554726,-152.66223,21.650202
666464831000.0,0.3398757014026788,9.885912372706947,-0.704399992986606,-0.008246681,0.079107046,-0.01863139,124.36796,-152.00464,21.652832
666469802000.0,0.33631214176288,9.88923835442741,-0.7222177911855999,-0.0125227375,0.082161374,-0.010995574,124.181595,-151.3482,21.652107
666474819000.0,0.3327156061135397,9.892595113689442,-0.7402004694323013,-0.010079277,0.09590584,-0.011301007,123.98818,-150.698,21.646954
666480900000.0,0.3283563210261093,9.896663770869512,-0.7619968948694533,-0.008857546,0.10720685,-0.017715093,123.79418,-150.05081,21.63599
666484776000.0,0.3255777337873525,9.899257113285229,-0.7758898310632374,-0.015271631,0.11209377,-0.014660766,123.60077,-149.40785,21.622202
666489854000.0,0.3219374690818811,9.902654686243688,-0.7940911545905942,-0.0076358155,0.11484267,-0.0076358155,123.40489,-148.77316,21.60442
666494804000.0,0.3183889637073078,9.905966617347346,-0.8118336814634609,0.00061086525,0.11942416,-0.021685716,123.2033,-148.13953,21.579641
666499804000.0,0.3148046148441024,9.909312002300537,-0.8297554257794878,-0.0070249503,0.1328632,-0.01038471,123.00813,-147.51266,21.55732
666504790000.0,0.311230302157714,9.912648020175858,-0.8476269892114299,-0.018020526,0.13958271,-0.014049901,122.80659,-146.88846,21.524414
666509778000.0,0.3076545557317803,9.915985376205162,-0.8655057213410983,0.00030543262,0.1414153,-0.021991149,122.6061,-146.27588,21.489439
666514843000.0,0.3040236103333533,9.919374251162743,-0.8836604483332335,-0.0027488936,0.14110987,-0.013439035,122.408936,-145.6619,21.452688
666519810000.0,0.300462918172645,9.922697556575244,-0.9014639091367748,-0.002443461,0.15027285,-0.01740966,122.205925,-145.05627,21.41017
666524806000.0,0.2968814367885302,9.926040265220472,-0.9193713160573488,-0.0067195175,0.15851954,-0.012217305,122.0089,-144.45644,21.365824
666529795000.0,0.2933049734928239,9.929378290326763,-0.9372536325358805,0.0018325958,0.1591304,-0.010079277,121.81155,-143.86465,21.316118
666534778000.0,0.2897328114157534,9.932712300971115,-0.9551144429212328,0.014049901,0.17867808,-0.009468411,121.61159,-143.27887,21.268753
666539862000.0,0.2860882454916462,9.93611388839152,-0.973337272541769,0.0012217305,0.17440203,-0.0125227375,121.41781,-142.69443,21.211859
666544790000.0,0.2825555112520709,9.939411099801385,-0.9910009437396452,0.0061086523,0.18600847,-0.011911872,121.22008,-142.12396,21.159456
666549790000.0,0.2789711623888656,9.942756484754575,-1.008922688055672,0.0070249503,0.19761491,-0.01160644,121.02464,-141.55469,21.10164
666554855000.0,0.2753402169904385,9.946145359712158,-1.0270774150478073,-0.00030543262,0.20616703,-0.011301007,120.829994,-140.9906,21.042057
666559777000.0,0.2718117839694992,9.94943855666008,-1.044719580152504,0.004581489,0.20647246,-0.01038471,120.63736,-140.43597,20.979792
666564877000.0,0.2681557481290296,9.952850849312334,-1.0629997593548517,0.005497787,0.2144137,-0.01863139,120.44198,-139.8834,20.915726
666571363000.0,0.2635061307836797,9.957190482673614,-1.086247846081602,0.004886922,0.21991149,-0.021685716,120.25114,-139.33864,20.84911
666574871000.0,0.2609913516212547,9.959537604756772,-1.098821741893726,0.004886922,0.2302962,-0.024740042,120.058556,-138.79932,20.78035
666579803000.0,0.2574557499025889,9.9628374924746,-1.116499750487055,0.009773844,0.23487769,-0.01985312,119.87004,-138.26794,20.709536
666584843000.0,0.2538427262484779,9.966209640507415,-1.1345648687576102,0.0015271631,0.23457226,-0.022296581,119.681114,-137.73811,20.634857
666589874000.0,0.2502361544223207,9.969575766847315,-1.1525977278883963,0.009162978,0.24587326,-0.023823744,119.49297,-137.22055,20.56188
666594853000.0,0.2466668598243407,9.972907101183704,-1.170444200878296,0.0021380284,0.24862215,-0.013439035,119.3119,-136.70483,20.486546
666599870000.0,0.2430703241750005,9.976263860445735,-1.1884268791249974,0.011301007,0.25320363,-0.016493361,119.12798,-136.19936,20.408232
666604847000.0,0.2395024633165658,9.979593856628142,-1.2062661834171706,-0.0033597588,0.24098633,-0.02321288,118.95191,-135.69336,20.326277
666609750000.0,0.2359876508213066,9.98287434111324,-1.2238402458934663,0.015577064,0.25228736,-0.019547688,118.77422,-135.20538,20.249096
666614858000.0,0.232325880022656,9.98629198638142,-1.2421490998867195,-0.0027488936,0.2452624,-0.014966198,118.6057,-134.70999,20.162916
666620142000.0,0.2304531890481566,9.9879120567789,-1.2447173185094416,0.005192355,0.25442538,-0.01740966,118.43356,-134.23169,20.079306
666624821000.0,0.2320201248616245,9.98612128394445,-1.2194225019282643,0.0027488936,0.24770586,-0.027794369,118.269516,-133.75208,19.988956
666629857000.0,0.2337066152990308,9.98419387808972,-1.1921977324683786,0.004276057,0.2434298,-0.023823744,118.13059,-133.30586,19.848192
666634840000.0,0.2353753567306424,9.98228675668898,-1.1652594826235387,-0.008857546,0.24617869,-0.021380283,117.99275,-132.86023,19.705511
666639839000.0,0.2370494563526825,9.980373511679488,-1.138234736291138,-0.0061086523,0.23640485,-0.023518313,117.86223,-132.42532,19.560394
666644879000.0,0.238737286337696,9.97844457492257,-1.1109883427093616,0.0033597588,0.23518312,-0.022602014,117.733475,-131.99606,19.419308
666649852000.0,0.2404026789002897,9.9765412807773,-1.0841041531692477,-0.004886922,0.23426682,-0.018936822,117.61045,-131.56955,19.27753
666654842000.0,0.2420737645402138,9.974631480297733,-1.0571280611111,0.0030543262,0.23304509,-0.016187929,117.491135,-131.15572,19.136375
666659779000.0,0.2437271011743431,9.972741964272156,-1.0304384886679987,0.0067195175,0.24037547,-0.018020526,117.3731,-130.74489,18.99724
666664833000.0,0.2454196195759816,9.970807669357578,-1.0031164106596062,0.0036651916,0.24740042,-0.015882496,117.25987,-130.34149,18.860325
666669832000.0,0.2470937191980217,9.968894424348086,-0.9760916643272056,0.008246681,0.25137106,-0.013439035,117.14853,-129.94678,18.72476
666674806000.0,0.2487594466475172,9.96699074747727,-0.9492020687566188,0.011911872,0.25045475,-0.012217305,117.03995,-129.55728,18.590754
666679795000.0,0.2504301974005395,9.96508132972325,-0.922231382728944,0.0125227375,0.2657264,-0.005192355,116.93089,-129.1753,18.463009
666684841000.0,0.2521200367069637,9.963150096613049,-0.8949525529643321,0.017715093,0.28130344,-0.005497787,116.823944,-128.8004,18.33473
666689888000.0,0.2538102109002897,9.9612184807773,-0.8676683171692476,0.025045475,0.2843578,-0.008857546,116.719925,-128.43256,18.208786
666695097000.0,0.2555546367717055,9.959224863402936,-0.8395083044376062,0.022602014,0.2996294,-0.0076358155,116.61263,-128.06995,18.089273
666699855000.0,0.2571480286504146,9.957403855250275,-0.8137864114490958,0.02443461,0.29749137,-0.0106901415,116.51047,-127.71477,17.9666
666704834000.0,0.258815430534419,9.955498264751723,-0.7868697857261464,0.032986723,0.29840767,-0.010995574,116.4072,-127.36682,17.84872
666709835000.0,0.2604901999302628,9.95358425429114,-0.7598342273328005,0.03176499,0.310625,-0.016187929,116.30309,-127.02132,17.731318
666714868000.0,0.2621756857069637,9.951657996613047,-0.732625675964332,0.024740042,0.32070425,-0.014049901,116.20313,-126.68294,17.616373
666719834000.0,0.2638387340612448,9.949757381546608,-0.7057793286375262,0.032070424,0.33108896,-0.01282817,116.10169,-126.35231,17.502884
666724833000.0,0.265512833683285,9.947844136537116,-0.6787545823051253,0.030543262,0.33078352,-0.0106901415,116.00356,-126.02359,17.390984
666729791000.0,0.2671732029423518,9.945946583275052,-0.6519514832221001,0.03390302,0.33200526,-0.01985312,115.90341,-125.70166,17.279371
666735727000.0,0.2691610915913677,9.943674724428014,-0.6198612863368967,0.03604105,0.33750305,-0.011301007,115.80794,-125.387146,17.174126
666739875000.0,0.270550202459986,9.942087178859026,-0.597437071936657,0.03634648,0.35155296,-0.009162978,115.71005,-125.07588,17.067514
666745285000.0,0.2723619405986612,9.940016633649714,-0.568190447080028,0.04520403,0.34483343,-0.0106901415,115.6193,-124.77301,16.960785
666749859000.0,0.2738937132874413,9.938266046997702,-0.5434632636984713,0.043676864,0.3436117,-0.015882496,115.52576,-124.47241,16.857475
666754843000.0,0.2755627896059546,9.936358542871416,-0.5165196078231591,0.043066,0.35155296,-0.013133603,115.43497,-124.18002,16.757051
666759850000.0,0.2772395683232091,9.934442236057548,-0.4894516132469776,0.043676864,0.35460728,-0.019547688,115.34593,-123.89028,16.653173
666764868000.0,0.2789200307963833,9.932521719262663,-0.4623241523355978,0.046731193,0.35918877,-0.014966198,115.258835,-123.60777,16.555035
666771660000.0,0.2811945826333299,9.929922247347386,-0.4256063933658707,0.041233405,0.35796702,-0.0125227375,115.17349,-123.32677,16.455374
666774897000.0,0.282278611534419,9.928683364751723,-0.4081070727261464,0.038179077,0.36254853,-0.011301007,115.08821,-123.052216,16.358982
666779784000.0,0.2839152038234588,9.926812985003496,-0.3816878018066739,0.047647487,0.36987892,-0.023518313,115.00316,-122.78233,16.261002
666784842000.0,0.2856090617727045,9.924877159186732,-0.3543440996763911,0.046731193,0.37018433,-0.016798794,114.923874,-122.51666,16.16869
666789833000.0,0.2872804822995304,9.922966975981616,-0.327362601587771,0.03145956,0.37293324,-0.017104227,114.84147,-122.25138,16.07388
666795249000.0,0.2890942297596163,9.920894134419022,-0.2980835405483064,0.031154128,0.37415496,-0.021685716,114.761894,-121.99428,15.980483
666800194000.0,0.2907502454889599,9.91900155658907,-0.2713507198614246,0.032375857,0.37201694,-0.024740042,114.684784,-121.73835,15.888267
666805890000.0,0.2926577612815466,9.916821551873314,-0.2405579702896392,0.042760566,0.39064834,-0.015882496,114.60502,-121.490005,15.801821
666809750000.0,0.2939504247224498,9.915344231261864,-0.2196906926655009,0.03848451,0.39584067,-0.022296581,114.52892,-121.23989,15.709629
666814859000.0,0.2956613619036867,9.9133888864422,-0.1920712829811168,0.038789943,0.40591997,-0.02107485,114.450935,-121.00002,15.625628
666819825000.0,0.2960581031074301,9.913007821299304,-0.1724458213146819,0.03726278,0.40378192,-0.01740966,114.37631,-120.76217,15.540613
666824918000.0,0.2928926078401653,9.916903817430244,-0.1726893210093007,0.04642576,0.40530908,-0.015577064,114.300026,-120.530945,15.458115
666829852000.0,0.2898259371846216,9.920678183208771,-0.1729252188088783,0.047036625,0.40958515,-0.018936822,114.153015,-120.20911,15.400647
666834782000.0,0.2867617526828318,9.924449489104225,-0.1731609253658134,0.048563786,0.4129449,-0.019242255,114.00941,-119.895386,15.343759
666839792000.0,0.2836478451059623,9.928281992661264,-0.1734004567755994,0.04734206,0.4120286,-0.0143553335,113.86888,-119.58632,15.286686
666844812000.0,0.2805277221447079,9.932122145926003,-0.1736404662919918,0.05009095,0.4089743,-0.004886922,113.73139,-119.2841,15.230305
666849820000.0,0.2774150576447153,9.935953119541503,-0.1738799020804565,0.048258353,0.4098906,-0.01160644,113.594475,-118.98352,15.170801
666854790000.0,0.2743260116053857,9.939755024267749,-0.174117521063817,0.04550946,0.40194935,-0.018325957,113.464905,-118.6895,15.111698
666859776000.0,0.2712270209510402,9.943569168526311,-0.1743559050177477,0.046120327,0.41630468,-0.015577064,113.33233,-118.40088,15.055547
666864800000.0,0.2681044118360317,9.94741238167413,-0.1745961057767826,0.048563786,0.41233405,-0.0106901415,113.20917,-118.11595,14.994671
666869799000.0,0.2649973411819856,9.9512364705527,-0.1748351112693016,0.047647487,0.42149702,-0.009773844,113.08128,-117.83474,14.936301
666875746000.0,0.2613010520882445,9.955785751721107,-0.1751194412681034,0.04337143,0.41508293,-0.013439035,112.961555,-117.55783,14.875388
666879794000.0,0.258785064489209,9.958882353397534,-0.1753129788223577,0.04153884,0.40744713,-0.010995574,112.843285,-117.286835,14.816918
666884782000.0,0.2556848307579865,9.962698027597638,-0.1755514583976097,0.044898596,0.40286562,-0.0143553335,112.7276,-117.018974,14.755354
666889836000.0,0.2525435754898231,9.966564189868553,-0.1757930934764636,0.05497787,0.41355577,-0.005497787,112.61419,-116.75897,14.698321
666894806000.0,0.2494545294504935,9.970366094594796,-0.1760307124598241,0.053145275,0.40469822,-0.015271631,112.50755,-116.49771,14.632717
666899860000.0,0.2463132741823301,9.974232256865712,-0.1762723475386781,0.05681047,0.40591997,-0.009162978,112.40064,-116.24832,14.575847
666904843000.0,0.2432161481433,9.978044106211964,-0.1765105880606269,0.044593163,0.40042216,-0.004581489,112.299286,-115.997116,14.514308
666909775000.0,0.2401507205646333,9.981816942048956,-0.1767463902388833,0.054061573,0.3979787,-0.013439035,112.1985,-115.754745,14.451308
666914887000.0,0.2369734160670371,9.985727472624522,-0.1769907983360541,0.061086524,0.39003745,-0.005192355,112.10557,-115.516556,14.39298
666919803000.0,0.2339179331033863,9.989488068929194,-0.1772258355437403,0.05955936,0.39278635,-0.006414085,112.01085,-115.27957,14.330768
666924850000.0,0.2307810286042924,9.99334887640472,-0.1774671359479698,0.05681047,0.3830125,-0.011911872,111.92457,-115.04851,14.267688
666929862000.0,0.2276658779505459,9.997182909903298,-0.1777067629790771,0.062002823,0.37384954,-0.0070249503,111.840675,-114.82431,14.20763
666934788000.0,0.2246041796025101,10.00095115591567,-0.1779422782933696,0.065973446,0.3726278,-0.004581489,111.75877,-114.60169,14.145548
666939943000.0,0.2214001489520586,10.00489458023434,-0.1781887422489478,0.06352998,0.3662137,-0.004581489,111.68332,-114.38295,14.083019
666944814000.0,0.2183726352181401,10.008620752854368,-0.1784216279769054,0.06963864,0.3717115,-0.0012217305,111.60769,-114.17173,14.023443
666949873000.0,0.2152282722577843,10.012490739979132,-0.1786635021090626,0.07513642,0.36285394,-0.0012217305,111.53962,-113.96288,13.961337
666954845000.0,0.2121379831415776,10.016294174646918,-0.1789012167137444,0.070249505,0.3463606,0.0015271631,111.47487,-113.75763,13.901092
666959821000.0,0.209045207871617,10.02010066919778,-0.1791391225610687,0.0729984,0.35277468,0.00030543262,111.40783,-113.55819,13.841543
666964822000.0,0.205936894140694,10.023926288017892,-0.179378223674909,0.0711658,0.35185838,-0.00030543262,111.34976,-113.36057,13.781118
666969775000.0,0.2028584142548188,10.02771518824105,-0.1796150298770387,0.06963864,0.34483343,-0.0012217305,111.29341,-113.16676,13.72082
666974852000.0,0.19970286360257,10.031598944839672,-0.1798577646010873,0.07422013,0.3390302,0.003970624,111.2394,-112.97822,13.662554
666979811000.0,0.1966206544860639,10.035392434887449,-0.1800948576671809,0.079107046,0.34513888,0.0061086523,111.18553,-112.79199,13.604202
666984850000.0,0.193488722294478,10.039247122596814,-0.1803357755861253,0.07880162,0.34422258,0.004581489,111.13719,-112.60911,13.545655
666989831000.0,0.1903928393323249,10.043057442001528,-0.1805739204867528,0.08277224,0.33750305,-0.0018325958,111.09033,-112.43096,13.486941
666994873000.0,0.1872590425254234,10.046914424623203,-0.1808149818376791,0.0870483,0.32436943,0.0067195175,111.04848,-112.25825,13.431808
666999880000.0,0.1841469995638694,10.050744633267934,-0.1810543698154832,0.0870483,0.3155119,0.0027488936,111.0073,-112.0852,13.371944
667004846000.0,0.1810604396782938,10.0545434781111,-0.1812917975562012,0.099265605,0.32162055,0.0027488936,110.968376,-111.921036,13.316275
667009773000.0,0.1779981197918195,10.05831248909424,-0.1815273606811544,0.096516706,0.30695978,-0.00030543262,110.93873,-111.75517,13.2568
667014925000.0,0.1747959537566835,10.062253618500602,-0.1817736812047507,0.10781772,0.3042109,0.004276057,110.90624,-111.599396,13.20164
667019812000.0,0.1735848600807303,10.064165939427284,-0.1815745811801925,0.10751228,0.2959642,0.002443461,110.880104,-111.4415,13.142903
667024833000.0,0.1795977580342628,10.05887458271852,-0.1796504538651994,0.11209377,0.27977628,0.0018325958,110.85893,-111.29097,13.085586
667029864000.0,0.1856226314866075,10.053572687557836,-0.1777224943906465,0.13164146,0.2864958,0.0076358155,110.82548,-111.12289,13.006356
667034835000.0,0.1915756519460797,10.048334023108666,-0.1758175278734525,0.13591751,0.28344148,0.008857546,110.80019,-110.95457,12.924853
667039894000.0,0.1976340567950981,10.043002620282609,-0.173878838352132,0.13622294,0.27305678,0.013133603,110.77709,-110.79425,12.847005
667044809000.0,0.2035200144612229,10.037822971164188,-0.1719953319284732,0.15332718,0.269697,0.0143553335,110.75394,-110.641174,12.770238
667049865000.0,0.2095748266605977,10.032494729873704,-0.1700577920550206,0.16187929,0.26725355,0.016493361,110.73504,-110.48999,12.695368
667054842000.0,0.2155350324193572,10.027249742353384,-0.1681505262420908,0.15974127,0.27091873,0.017715093,110.716545,-110.34296,12.622016
667060610000.0,0.2224425001341503,10.021171163286231,-0.165940136607978,0.17104226,0.24953845,0.02107485,110.70726,-110.204185,12.548866
667064903000.0,0.2275835817741653,10.016647005877203,-0.1642949905089408,0.17837265,0.24984388,0.020463986,110.69169,-110.06608,12.478134
667069786000.0,0.2334312178440915,10.011501079804928,-0.1624237469958734,0.18417588,0.2312125,0.022296581,110.689,-109.933655,12.4070425
667074928000.0,0.2395890193332499,10.006082207827935,-0.1604532505502063,0.17959438,0.22266038,0.028405234,110.68465,-109.80358,12.338955
667079797000.0,0.2454198897048393,10.000951035588344,-0.1585873720605227,0.17898351,0.21777347,0.026267206,110.684944,-109.67682,12.2691345
667084795000.0,0.2514052440111042,9.995683917318996,-0.1566720587125172,0.17867808,0.2012801,0.01863139,110.69187,-109.55149,12.199111
667089856000.0,0.2574660439598849,9.990350406802552,-0.1547326027592847,0.17531833,0.19333886,0.027488936,110.699745,-109.43016,12.134494
667094808000.0,0.2633963109716143,9.98513176541203,-0.1528349173452544,0.17562376,0.18173242,0.026572637,110.712814,-109.30865,12.064776
667099932000.0,0.2695325565629111,9.979731862648494,-0.150871318786795,0.17470746,0.16798794,0.030848695,110.73061,-109.19083,11.999367
667104845000.0,0.2754161191292735,9.974554321220458,-0.1489885787950481,0.17012598,0.15149458,0.036651913,110.753265,-109.07449,11.9342575
667109852000.0,0.2814122513844692,9.96927771834438,-0.1470698165034387,0.1685988,0.1459968,0.034208454,110.77713,-108.95999,11.869015
667114948000.0,0.2875149655790922,9.963907323246218,-0.1451169479917469,0.16310102,0.13133603,0.035124753,110.80964,-108.84728,11.805572
667119790000.0,0.2933135021038889,9.95880460482681,-0.1432614163328748,0.16187929,0.118507855,0.032986723,110.84346,-108.73621,11.741513
667125080000.0,0.2996485409754658,9.95322976376141,-0.1412342039257221,0.16249016,0.10445796,0.019242255,110.88165,-108.6244,11.674502
667130910000.0,0.3066302567828936,9.94708584629236,-0.1390000549023383,0.16310102,0.09101892,0.025045475,110.92518,-108.51745,11.61263
667134843000.0,0.3113402204656746,9.942941073152433,-0.1374928665474553,0.16982053,0.077579886,0.018020526,110.97131,-108.40915,11.543646
667139843000.0,0.3173279698717018,9.937671847192696,-0.1355767867675378,0.18600847,0.06811147,0.021380283,111.02181,-108.307945,11.479722
667144792000.0,0.3232546442337877,9.932456367337752,-0.1336802510013755,0.20066923,0.06078109,0.026267206,111.075584,-108.20879,11.414756
667149884000.0,0.3293525682288858,9.927090187620358,-0.1317289153535075,0.21319197,0.056199603,0.03390302,111.1321,-108.11565,11.352272
667154802000.0,0.3352421185446542,9.92190737696636,-0.1298442592819807,0.21471913,0.053145275,0.04642576,111.191315,-108.02677,11.293328
667159781000.0,0.3412047194031762,9.916660281755656,-0.1279362270371389,0.23396139,0.049785517,0.04734206,111.25191,-107.94547,11.234119
667164824000.0,0.3472439634540952,9.911345740452669,-0.1260036689711141,0.24770586,0.04184427,0.056505036,111.31641,-107.86855,11.181245
667171363000.0,0.3550747421272977,9.904454646742527,-0.1234978198349381,0.26816985,0.02687807,0.067500606,111.38427,-107.79931,11.129504
667174808000.0,0.3592003014680505,9.900824150056271,-0.1221776408665749,0.27183503,0.02321288,0.073303826,111.45161,-107.731384,11.080118
667179828000.0,0.3652120018717019,9.895533847192697,-0.1202538967675378,0.26908615,0.015882496,0.080634214,111.52521,-107.670006,11.033899
667184854000.0,0.3712308875746405,9.890237221257973,-0.1183278533727647,0.2837469,0.00061086525,0.08002335,111.60198,-107.61402,10.987233
667189843000.0,0.3772054639319745,9.884979587595348,-0.1164159889683631,0.29229903,-0.005497787,0.07880162,111.678764,-107.55835,10.943448
667194842000.0,0.3831920157881205,9.879711415480804,-0.1145002924044016,0.2919936,-0.013744468,0.086132,111.76099,-107.50639,10.901582
667200858000.0,0.3903964758734525,9.873371482806052,-0.1121948652132049,0.28252518,-0.031154128,0.08093964,111.84651,-107.45277,10.855757
667204855000.0,0.3951830827486307,9.86915926357384,-0.1106631510371389,0.28771752,-0.040927973,0.0842994,111.93323,-107.406105,10.815156
667209797000.0,0.401101374261548,9.863951160635237,-0.1087692977826685,0.27366763,-0.050396383,0.08399397,112.024055,-107.35238,10.771837
667214832000.0,0.4071310379134175,9.858645050093784,-0.1068398054442916,0.25381452,-0.07544186,0.076052725,112.12162,-107.29865,10.7265005
667219854000.0,0.408756361565252,9.850258462750466,-0.1102083007333914,0.25870144,-0.10140363,0.08093964,112.2228,-107.2505,10.684845
667224887000.0,0.3950791798684754,9.83106240657125,-0.1320438016710889,0.26083946,-0.11728613,0.08124508,112.32717,-107.196075,10.639659
667229795000.0,0.3817416857759302,9.812343105214683,-0.1533369943200497,0.24831672,-0.14538592,0.0729984,112.42598,-107.14165,10.61153
667234796000.0,0.3681514641058369,9.793269098270068,-0.1750336643358307,0.27305678,-0.15363261,0.08277224,112.52471,-107.100105,10.589373
667239836000.0,0.3544552599032233,9.774046343820784,-0.1968995345376975,0.28130344,-0.15699236,0.08277224,112.628555,-107.04971,10.561342
667244798000.0,0.3409710207656502,9.755121084380834,-0.2184270043673926,0.2910773,-0.16829337,0.087964594,112.73768,-107.008575,10.537025
667249988000.0,0.3268671914379589,9.735326224144368,-0.2409436445157436,0.3005457,-0.17623462,0.09743301,112.846756,-106.97067,10.514535
667254850000.0,0.3136547023837709,9.71678236856254,-0.2620372677144493,0.3200934,-0.18234327,0.112399206,112.95886,-106.93973,10.494989
667259780000.0,0.3002574232728811,9.697979158357189,-0.2834259066222278,0.35643986,-0.18234327,0.11209377,113.07069,-106.91413,10.474228
667264876000.0,0.2864090390235718,9.678542817747354,-0.3055347309374486,0.36682457,-0.18478674,0.12370021,113.186264,-106.892334,10.460866
667269812000.0,0.2729954549076788,9.659716723310517,-0.3269494006430865,0.38728857,-0.17959438,0.13041973,113.29882,-106.88021,10.446975
667274796000.0,0.259451430751761,9.64070755502178,-0.3485723167315993,0.41263947,-0.17012598,0.12858713,113.41052,-106.872215,10.434414
667279826000.0,0.2457824015574859,9.621522940958307,-0.3703948022703671,0.42363504,-0.1740966,0.12583824,113.524376,-106.866684,10.423232
667284793000.0,0.2322845749157435,9.60257861132545,-0.3919439644316117,0.44012842,-0.17623462,0.11728613,113.633965,-106.86666,10.4109335
667289844000.0,0.2185584782039576,9.583313902451772,-0.4138575577628873,0.45142943,-0.17928895,0.11484267,113.74455,-106.86847,10.399544
667294812000.0,0.2050579340613814,9.564365758780337,-0.4354110583904418,0.4560109,-0.18997909,0.11636983,113.85701,-106.87156,10.3865595
667299869000.0,0.1913155323445924,9.54507816567517,-0.4573506825195769,0.46670106,-0.20830505,0.105374254,113.97088,-106.87577,10.369022
667304814000.0,0.1778774907211947,9.5262177448911,-0.4788043984220037,0.45356745,-0.20891592,0.10445796,114.08287,-106.87757,10.355522
667309847000.0,0.1642003090244181,9.507021688711884,-0.5006398993597013,0.46578476,-0.22724187,0.093767814,114.20299,-106.88365,10.3342495
667314814000.0,0.1507024823826757,9.488077359079028,-0.5221890615209459,0.4529566,-0.24007004,0.08032878,114.320786,-106.8804,10.312687
667319799000.0,0.137155740725924,9.46906437675171,-0.5438163160757685,0.43493605,-0.24709499,0.07544186,114.44126,-106.87826,10.290182
667324860000.0,0.1234024690057996,9.44976152749222,-0.5657732940701431,0.42180246,-0.25809056,0.06352998,114.56438,-106.87071,10.261421
667329805000.0,0.1099644273824019,9.430901106708152,-0.58722700997257,0.39492437,-0.2843578,0.04917465,114.692604,-106.854805,10.22975
667334861000.0,0.0962247431664467,9.411617327641569,-0.6091622956353951,0.38637227,-0.30024028,0.046731193,114.82029,-106.84025,10.198702
667339916000.0,0.0824877764513254,9.392337362613564,-0.6310932428319104,0.36835176,-0.3213151,0.03604105,114.95464,-106.81383,10.160062
667344976000.0,0.0687372222320348,9.373038327392656,-0.6530458823599751,0.38087448,-0.3213151,0.03481932,115.08726,-106.794014,10.124534
667349855000.0,0.0554785356636713,9.354429633154949,-0.6742132594859489,0.3930918,-0.32650748,0.032070424,115.225716,-106.76839,10.08476
667354841000.0,0.0419290765060858,9.335412836789049,-0.6958448525070815,0.39522982,-0.32895094,0.044593163,115.36357,-106.74617,10.049951
667359839000.0,0.028347007338494,9.316350271960172,-0.7175285071239328,0.42210788,-0.3109304,0.057726767,115.49617,-106.732376,10.016429
667364890000.0,0.0146209106267081,9.297085563086496,-0.7394421004552084,0.45173484,-0.28680122,0.06841691,115.62763,-106.72176,9.986748
667369815000.0,0.0012372190199875,9.278301423074051,-0.7608090470314375,0.4633413,-0.26267207,0.07422013,115.75377,-106.714745,9.961218
667374844000.0,-0.0124290926734536,9.25912062304916,-0.7826271941038955,0.49357912,-0.23243423,0.095294975,115.872345,-106.72324,9.945463
667379815000.0,-0.0259377893185314,9.24016103726198,-0.8041937101303795,0.514654,-0.2125811,0.112704635,115.98647,-106.73258,9.931672
667385842000.0,-0.0423161668441568,9.217173826733042,-0.830341646580112,0.5329799,-0.19975294,0.1255328,116.09446,-106.75079,9.924292
667389967000.0,-0.0535258577837959,9.201440917585565,-0.8482378201084256,0.5561928,-0.19272798,0.13439035,116.19872,-106.77687,9.921735
667394864000.0,-0.0668334593671686,9.18276357065339,-0.8694832896279776,0.559858,-0.19394971,0.13103059,116.30106,-106.80227,9.919703
667399853000.0,-0.0803910710272557,9.163735332171749,-0.8911278980480398,0.5552765,-0.19058995,0.13347405,116.40046,-106.832985,9.92251
667404846000.0,-0.0939595526906783,9.14469183753578,-0.9127898603333416,0.5421429,-0.18997909,0.12950343,116.49964,-106.86029,9.922328
667409800000.0,-0.1074220518215806,9.12579709040448,-0.9342826224325576,0.5338962,-0.19150625,0.113926366,116.59718,-106.88551,9.919666
667414850000.0,-0.1211454310325327,9.106536195569385,-0.9561918772975232,0.5204572,-0.19181168,0.09712757,116.69321,-106.90512,9.915697
667419898000.0,-0.1335081847757551,9.086189699853076,-0.9785079816644672,0.50579643,-0.21563543,0.08857546,116.79518,-106.920876,9.908085
667424876000.0,-0.1237733586161316,9.048437575262096,-1.007237593132455,0.49846604,-0.21594086,0.06994407,116.88814,-106.930374,9.89477
667429843000.0,-0.1140600437236347,9.010768872400826,-1.0359037201235153,0.49663344,-0.22082779,0.063224554,117.02291,-106.984955,9.818675
667434818000.0,-0.1043310842732276,8.973039499190676,-1.0646160176432502,0.48472157,-0.23854288,0.04795292,117.15743,-107.03083,9.735611
667439894000.0,-0.0944046122792041,8.934544162825908,-1.0939112180875066,0.48380527,-0.24190263,0.04184427,117.28741,-107.079155,9.655382
667444798000.0,-0.08481449828025,8.897353238962074,-1.122213752165251,0.5030475,-0.26236662,0.044898596,117.42478,-107.12842,9.572629
667449856000.0,-0.0749232265415245,8.858994410882287,-1.151405068919989,0.4981606,-0.26267207,0.04734206,117.554924,-107.17063,9.490795
667455871000.0,-0.063160474562791,8.813377892317654,-1.1861195351674678,0.51007247,-0.2678644,0.07513642,117.69226,-107.22579,9.4166355
667459841000.0,-0.0553968626998531,8.783270231685634,-1.209031660022412,0.5357288,-0.2602286,0.08124508,117.82275,-107.27983,9.33957
667464883000.0,-0.0455368800769479,8.745032744303607,-1.2381306357198,0.5571091,-0.29352075,0.08399397,117.966034,-107.339226,9.267338
667469789000.0,-0.0359428549385163,8.707826652852553,-1.2664447124297131,0.59773165,-0.2406809,0.09040806,118.08183,-107.41043,9.205891
667474800000.0,-0.0261434949775132,8.66982426307244,-1.2953647773284858,0.6377433,-0.2171626,0.0842994,118.21254,-107.484634,9.138501
667479786000.0,-0.0163930242599796,8.632011468132578,-1.3241405593251487,0.66889745,-0.17654006,0.10720685,118.32449,-107.571144,9.087221
667484800000.0,-0.0065877975897602,8.593986326971637,-1.3530779381721745,0.70280045,-0.14630222,0.10354166,118.4286,-107.66227,9.029
667489949000.0,0.0034814309951938,8.554937373673331,-1.3827944446905895,0.72234815,-0.122478485,0.10293079,118.52347,-107.76026,8.98143
667494806000.0,0.0129796332164255,8.518102888109171,-1.410825726912369,0.72356987,-0.11575896,0.1133155,118.61372,-107.86189,8.937748
667499862000.0,0.0228669938156734,8.479759227616604,-1.440005501034938,0.7247916,-0.13469578,0.12339478,118.70302,-107.96685,8.894464
667504851000.0,0.0326233312424234,8.441923681295913,-1.468798596979854,0.7275405,-0.1414153,0.13622294,118.78667,-108.07295,8.856989
667509785000.0,0.0422721123335408,8.404505243623776,-1.49727427054013,0.70707655,-0.18234327,0.13408493,118.883354,-108.17143,8.8147335
667514876000.0,0.0522279178736459,8.365896150354857,-1.5266560407256518,0.68325275,-0.23579398,0.1423316,118.98585,-108.27148,8.777952
667519801000.0,0.0618590988371142,8.32854596682521,-1.5550797724411685,0.65148777,-0.24556783,0.15027285,119.085945,-108.36257,8.7414
667526169000.0,0.0743121669336354,8.28025236911622,-1.5918315132664294,0.6441574,-0.27763826,0.14355333,119.205086,-108.45155,8.6978035
667529770000.0,0.0813541735629653,8.252943128326319,-1.6126140224862415,0.6282749,-0.29810223,0.17379116,119.32585,-108.53521,8.667392
667534851000.0,0.0912904234056826,8.2144098729935,-1.6419380795109195,0.6114761,-0.301462,0.19883664,119.44829,-108.613846,8.633288
667539893000.0,0.1011504060285877,8.176172385611475,-1.6710370552083074,0.6044512,-0.31978795,0.18661933,119.578415,-108.68868,8.595033
667544809000.0,0.1107639868644071,8.138890456224319,-1.6994088450790648,0.6160576,-0.33017266,0.1966986,119.709656,-108.76901,8.570671
667549818000.0,0.1205594356859326,8.100903234031426,-1.7283173673456682,0.6453791,-0.3295618,0.19761491,119.839615,-108.847946,8.540452
667554837000.0,0.1303744402048459,8.062840173902433,-1.7572836027731156,0.66920286,-0.32711834,0.21166481,119.97237,-108.930176,8.516462
667559781000.0,0.140042776993351,8.025345898294194,-1.785816989494235,0.72265357,-0.29810223,0.23060162,120.09653,-109.026764,8.496853
667564880000.0,0.1500142270913663,7.9866761346763955,-1.815244930208432,0.7715228,-0.27152961,0.25961772,120.22124,-109.12982,8.484305
667572110000.0,0.1641529963027118,7.9318453068755135,-1.8569715454984184,0.8356637,-0.21319197,0.25992316,120.32683,-109.24737,8.474459
667574813000.0,0.1694389013066214,7.911346312747466,-1.872571412874468,0.9294315,-0.18295415,0.26725355,120.434525,-109.387596,8.474391
667579825000.0,0.1792402168373633,7.873336339173743,-1.9014972490893245,0.9596693,-0.13133603,0.27977628,120.51941,-109.52632,8.4825735
667584869000.0,0.1891041105997459,7.8350836842044975,-1.930607767418881,0.9944886,-0.07819075,0.2938262,120.59507,-109.68869,8.495731
667589868000.0,0.1988800037238837,7.7971722999477056,-1.9594585765246408,1.0097603,-0.027794369,0.3173445,120.65811,-109.85371,8.518839
667594797000.0,0.2085190069663072,7.759791781243619,-1.9879053935044948,1.0027353,-0.004581489,0.3051272,120.7111,-110.01621,8.537835
667599874000.0,0.2184474345300694,7.721288861085241,-2.0172063652648355,0.9932669,0.0106901415,0.30176744,120.75443,-110.182945,8.568744
667604807000.0,0.228094260051448,7.683878007206713,-2.045676267509027,0.95233893,0.040927973,0.32345316,120.7877,-110.338295,8.60596
667609803000.0,0.2378642864663694,7.645989374330751,-2.074509762666534,0.9071349,0.028099801,0.33322698,120.82653,-110.485275,8.635904
667614971000.0,0.2479706708763602,7.606796328953856,-2.104335924190552,0.8573494,-0.011301007,0.30757064,120.862465,-110.61606,8.661677
667619842000.0,0.2574962510739347,7.569855670279154,-2.1324480048375127,0.8063421,-0.044898596,0.2864958,120.90104,-110.73407,8.689945
667624806000.0,0.2829676835209235,7.5738083823376625,-2.135628,0.7480045,-0.07727446,0.2764165,120.94805,-110.8333,8.710199
667629753000.0,0.3103134098268398,7.582923711688311,-2.135628,0.68600166,-0.07544186,0.32162055,120.997444,-110.920654,8.73947
667634849000.0,0.2908540404564584,7.726471551715766,-2.409466791032697,0.66248333,-0.08735373,0.33414328,121.07885,-111.17161,8.808173
667639875000.0,0.2596898954710262,7.901769857089673,-2.748376853512464,0.6441574,-0.12858713,0.32559118,121.16859,-111.406334,8.878944
667644894000.0,0.2410805111373093,8.102124552011096,-3.121560762829404,0.6420194,-0.13836098,0.3472769,121.23903,-111.62428,8.957068
667649813000.0,0.2457474647741232,8.344807076778284,-3.55092133560531,0.657291,-0.16249016,0.32895094,121.318375,-111.83204,9.015092
667654750000.0,0.2570988778640369,8.515807411665968,-3.886334994376836,0.6768387,-0.16523905,0.3475823,121.39517,-112.07664,9.052562
667659832000.0,0.2843302904070499,8.522615045321025,-4.008876381032312,0.70921457,-0.1432479,0.36987892,121.467354,-112.32181,9.085244
667665126000.0,0.3126976847405231,8.52970666526787,-4.136529687005176,0.76083267,-0.124311075,0.38606682,121.52047,-112.5964,9.083497
667670001000.0,0.335251797049515,8.559446018376724,-4.293455183001531,0.81581056,-0.12950343,0.3921755,121.57093,-112.875755,9.084551
667674814000.0,0.3540749363920367,8.611209722817764,-4.486392211393568,0.8894198,-0.10476339,0.4175264,121.60775,-113.17142,9.099569
667679779000.0,0.4230729394348002,8.645378409366169,-4.620416795115059,0.98532563,-0.105374254,0.43066,121.588394,-113.4495,9.079667
667684820000.0,0.5448853261303997,8.659995681267661,-4.688631934769883,1.0680978,-0.1151481,0.4343252,121.56346,-113.73999,9.065398
667689838000.0,0.6527286613247661,8.681121418217897,-4.756644422753473,1.1539245,-0.14844026,0.41538838,121.47868,-113.999725,8.99078
667694897000.0,0.7488668321912502,8.708589546253425,-4.825314503826892,1.2232577,-0.16890424,0.42363504,121.39436,-114.27753,8.926329
667699840000.0,0.87592935227509,8.730266496701319,-4.85535887245102,1.2727377,-0.19730948,0.4251622,121.31019,-114.54811,8.837096
667704840000.0,1.0530294322431029,8.74462600289884,-4.831426445421831,1.3319917,-0.20891592,0.4428773,121.226845,-114.83943,8.756181
667709742000.0,1.2218305641931686,8.69916994267766,-4.781112805064782,1.3784174,-0.2003638,0.48472157,121.14812,-115.12977,8.670839
667714851000.0,1.3899181686101296,8.55509518988025,-4.685062551972909,1.434617,-0.22327125,0.4792238,121.07406,-115.43231,8.575242
667719796000.0,1.54895240374817,8.432582340263544,-4.607273982811127,1.4700472,-0.21960606,0.49418998,120.981705,-115.723175,8.512767
667725000000.0,1.7094838414055638,8.335290144265496,-4.553763554387507,1.4789047,-0.19883664,0.50640726,120.887436,-116.017746,8.449018
667729748000.0,1.8069708239641176,8.165731845650008,-4.489795971443828,1.4831808,-0.18509217,0.5195409,120.78101,-116.29909,8.404005
667734817000.0,1.7966024345578813,7.795925812473302,-4.38611218564716,1.5048665,-0.19425514,0.5235115,120.67393,-116.58473,8.359918
667739844000.0,1.7863199540794532,7.429183865584508,-4.283287488231525,1.5176947,-0.23671028,0.528093,120.594284,-116.88772,8.353299
667744872000.0,1.7885536341742214,7.123672306464328,-4.27170910637564,1.5344934,-0.2782491,0.53786683,120.51651,-117.19429,8.347007
667749852000.0,1.802652707094994,6.879288179542767,-4.346904014731966,1.5354098,-0.28680122,0.52106804,120.436905,-117.49379,8.333062
667754837000.0,1.798169707305936,6.690045682938979,-4.459627560273972,1.5088371,-0.3032946,0.49357912,120.38728,-117.81712,8.325556
667759848000.0,1.7732685839041096,6.560559851650062,-4.614014410958904,1.5091426,-0.34391713,0.46211955,120.3413,-118.14125,8.307258
667764887000.0,1.7567209116661058,6.553158999791316,-4.749800370615954,1.4999796,-0.36713,0.45265114,120.31435,-118.4953,8.294336
667771606000.0,1.7437259902524402,6.674445113907775,-4.910071022820599,1.4789047,-0.39003745,0.44684792,120.29119,-118.83844,8.268009
667774760000.0,1.7376259780276002,6.731378646267251,-4.985304485695052,1.4746287,-0.3979787,0.45265114,120.282074,-119.21414,8.230925
667781158000.0,1.6685003430897578,7.010127330736758,-5.142865535430697,1.4737124,-0.42638394,0.46303585,120.2802,-119.57941,8.187012
667784810000.0,1.612254293959192,7.217534611669515,-5.234265489154689,1.4828753,-0.441961,0.46486846,120.273125,-119.94064,8.142346
667789820000.0,1.547260608173772,7.472547423518786,-5.316778210847182,1.4944818,-0.46700647,0.4810564,120.28967,-120.31058,8.080048
667794822000.0,1.4910158920429917,7.706179314342485,-5.368696323473627,1.5268577,-0.5015204,0.48716503,120.307274,-120.682465,8.012046
667799773000.0,1.419378900513573,7.916499021989309,-5.370467690493659,1.5592335,-0.5494733,0.4822781,120.33412,-121.033615,7.908981
667804783000.0,1.318802874834923,8.092506922523844,-5.284978165810712,1.6081028,-0.6084218,0.48166725,120.36942,-121.39383,7.803039
667809772000.0,1.2369490754608914,8.244490672453912,-5.213266094648291,1.6297885,-0.67164636,0.4859433,120.41561,-121.72478,7.6667643
667814861000.0,1.17588685945051,8.37097718905495,-5.156565280069805,1.6502525,-0.74464476,0.47678033,120.47217,-122.06312,7.519412
667819834000.0,1.1361139234784194,8.46388105356328,-5.136200589597591,1.6942347,-0.8023715,0.47250426,120.539764,-122.36848,7.342589
667824800000.0,1.1621519588283602,8.455201542294004,-5.231673400985491,1.7397442,-0.84574294,0.47769663,120.617325,-122.67644,7.1612267
667829953000.0,1.1928289299575014,8.43661657469329,-5.325186857268863,1.7843374,-0.8775079,0.48502702,120.70015,-122.95396,6.9514365
667834846000.0,1.2754930477347446,8.278802905821506,-5.332701777066794,1.8280143,-0.89919364,0.49602258,120.78816,-123.2419,6.744281
667839869000.0,1.360353432691845,8.116796353860957,-5.34041635751744,1.8435913,-0.90133166,0.50885075,120.88485,-123.555145,6.54802
667844797000.0,1.4414494367661592,7.9300701286519075,-5.275189601917375,1.865277,-0.9129381,0.52564955,120.98663,-123.87912,6.355249
667851149000.0,1.5436576243131053,7.659519439108519,-5.112858773848586,1.8567249,-0.88331115,0.52320606,121.0734,-124.19435,6.1715274
667854785000.0,1.578128507206308,7.530460605769039,-5.04617777437868,1.8225164,-0.88117313,0.52442783,121.190216,-124.54257,6.014878
667859774000.0,1.611510140742589,7.368321043696976,-4.96987704711049,1.7889189,-0.8698721,0.52503866,121.29259,-124.88256,5.8662524
667864886000.0,1.612065936269685,7.275512432332677,-4.946269902805118,1.7342464,-0.86070913,0.52687126,121.414154,-125.21789,5.7421656
667869855000.0,1.581956011079865,7.252093609392576,-4.973034346737908,1.6728544,-0.8518516,0.5183192,121.52726,-125.53525,5.6190553
667874810000.0,1.5519309196498874,7.228740768243814,-4.999723382698257,1.6258179,-0.84940815,0.51159966,121.64927,-125.845695,5.505594
667879783000.0,1.4748625823854404,7.256991207442314,-5.1710243584010405,1.6044376,-0.84421575,0.505491,121.76338,-126.14009,5.3934445
667884828000.0,1.3727997074260645,7.3119480549805,-5.418330438755281,1.5870279,-0.8374963,0.5021312,121.87236,-126.41693,5.2824063
667889813000.0,1.2806268941749692,7.360028445873028,-5.633612319700386,1.5625933,-0.8268061,0.49388456,121.977264,-126.68567,5.159667
667894858000.0,1.2208963101447168,7.384623288648099,-5.739019249960003,1.5622878,-0.8359691,0.49418998,122.08265,-126.95183,5.0376263
667899871000.0,1.1615445920587593,7.409062128456112,-5.843757593149589,1.5619824,-0.8481864,0.48655418,122.17252,-127.23163,4.880505
667904829000.0,1.013619028808462,7.406042527470704,-6.020323581696568,1.570229,-0.86742866,0.47678033,122.26178,-127.50944,4.7229667
667909776000.0,0.7630538635694286,7.371651361049466,-6.280714772498185,1.5928311,-0.88270026,0.46944994,122.34813,-127.786865,4.5655828
667914808000.0,0.6179310450234943,7.365767124989321,-6.393948292524562,1.6362026,-0.8729264,0.44440445,122.42503,-128.07518,4.381115
667920529000.0,0.5664421427765912,7.389171171465186,-6.365863485630072,1.6441438,-0.87781334,0.43157628,122.50526,-128.3562,4.196384
667924846000.0,0.5310745415172586,7.392999030883919,-6.347680775856668,1.6569719,-0.88025683,0.41447207,122.55471,-128.66785,3.9560018
667929833000.0,0.5041475313380943,7.342136941853035,-6.338705081845518,1.6600263,-0.8894198,0.39584067,122.59903,-128.9755,3.7160456
667934772000.0,0.4774796943068345,7.29176440170394,-6.329815779114202,1.6621643,-0.88331115,0.3857614,122.643394,-129.26987,3.466713
667940210000.0,0.4514787867849396,7.235411877440347,-6.325346608266192,1.6737708,-0.86437434,0.38087448,122.67971,-129.56499,3.221464
667944833000.0,0.4686284478060117,7.1771029110629065,-6.383655395568639,1.6798794,-0.8561276,0.3744604,122.71052,-129.85628,2.9789388
667949806000.0,0.4870764824713356,7.114379465292841,-6.4463786487062285,1.6798794,-0.8341365,0.36102137,122.73112,-130.14885,2.7330143
667954765000.0,0.5341077628234439,7.053184145734178,-6.505567574976618,1.6997325,-0.8045095,0.35124752,122.7437,-130.44626,2.4954178
667959771000.0,0.6237832325626105,6.9934005512626,-6.56036930728463,1.7137824,-0.7828238,0.344528,122.74776,-130.7392,2.2638283
667964996000.0,0.6936595151293564,6.910399414154373,-6.545858977535457,1.7256943,-0.7641924,0.3323107,122.75505,-131.06284,2.0429192
667969809000.0,0.7363657467671585,6.81513175452213,-6.46701671376951,1.7391334,-0.7467828,0.33322698,122.755516,-131.38719,1.8318356
667974842000.0,0.7810240604661107,6.715509454308317,-6.3845706066566885,1.7299703,-0.79504114,0.35308012,122.78051,-131.73056,1.6349627
667979778000.0,0.8305316435074627,6.644759667942894,-6.3569022721933806,1.7272215,-0.70157874,0.3387248,122.76163,-132.07405,1.4643981
667984846000.0,0.8840747609402985,6.584917276456847,-6.353752712452953,1.7324139,-0.68783426,0.32834008,122.771286,-132.41234,1.2780393
667990230000.0,0.9409563995074628,6.521343591421156,-6.350406771323816,1.6890424,-0.6973027,0.33567044,122.79068,-132.73843,1.1169125
667994839000.0,0.9816879601067748,6.45730467789028,-6.39210249615243,1.6600263,-0.7131852,0.33475417,122.80192,-133.06444,0.9555227
667999854000.0,1.021475273205081,6.3821509052927095,-6.462835368989323,1.6490307,-0.71776664,0.32986724,122.810616,-133.37802,0.79758185
668004822000.0,1.0279780056446508,6.282049709010339,-6.509876232601815,1.6410894,-0.7189884,0.33322698,122.843216,-133.69794,0.6529767
668009830000.0,0.9908697894527678,6.14711086272772,-6.526743579580784,1.6462818,-0.70280045,0.321926,122.86626,-134.01283,0.5088233
668014954000.0,0.9529020379018076,6.009046436139832,-6.54400162389393,1.6255124,-0.6936375,0.3155119,122.90765,-134.34023,0.37128994
668019837000.0,0.8745197658355413,5.906101399772899,-6.547868759415216,1.6053538,-0.6844745,0.3213151,122.94262,-134.66321,0.23875506
668024881000.0,0.7648178489733157,5.819254105601817,-6.5432978969246784,1.5815301,-0.675617,0.32345316,122.97077,-134.97334,0.10753966
668029855000.0,0.6747671017019498,5.755644331046908,-6.555705383237887,1.5519031,-0.6759224,0.32162055,123.010056,-135.30492,-0.032325577
668034837000.0,0.6041559472009523,5.715733641567467,-6.58640596045943,1.534188,-0.66950834,0.31856623,123.04292,-135.62701,-0.16735865
668039862000.0,0.5329353427514317,5.675478480059199,-6.617371516569076,1.5170839,-0.6591236,0.31856623,123.07317,-135.93858,-0.32674262
668044808000.0,0.4913594674425532,5.616479301021276,-6.62642912212766,1.5180001,-0.63316184,0.30909783,123.09287,-136.24515,-0.4817731
668049854000.0,0.4995849155395745,5.521886512629787,-6.597639866978724,1.5234979,-0.6206391,0.29993483,123.10999,-136.54318,-0.6350617
668055140000.0,0.5069851467522516,5.432098977437193,-6.56588294495971,1.534188,-0.70341134,0.30940324,123.14368,-136.8469,-0.8245739
668059834000.0,0.4998823697369253,5.456958709969979,-6.519714907339233,1.5546521,-0.6401868,0.31306845,123.13961,-137.15057,-0.98119444
668064834000.0,0.492316565502449,5.483439038615895,-6.470537193640386,1.5949692,-0.5332854,0.27275133,123.15044,-137.47522,-1.1493983
668069855000.0,0.4581531446727671,5.485447006365625,-6.456830993634375,1.5787812,-0.52503866,0.26419923,123.171776,-137.78418,-1.3154459
668074841000.0,0.3964116018897951,5.461700276307937,-6.480577723692063,1.559539,-0.5180137,0.24617869,123.15908,-138.09897,-1.4668205
668079768000.0,0.3575392017846554,5.46036704604816,-6.496264710788922,1.5512923,-0.5198463,0.24770586,123.175545,-138.39514,-1.6185431
668085111000.0,0.3427387479224817,5.486267826784293,-6.503664895220189,1.5622878,-0.5363397,0.23548855,123.18363,-138.68697,-1.775467
668089880000.0,0.3295283110015185,5.509386079326053,-6.510270075746619,1.5815301,-0.54611355,0.22632557,123.20746,-138.9786,-1.944778
668094847000.0,0.3288357715076281,5.483997284923718,-6.521901528191036,1.6108516,-0.5439755,0.22204952,123.22687,-139.27202,-2.113205
668099882000.0,0.3334050113446413,5.438304886553587,-6.535609295413626,1.6258179,-0.5314528,0.20677789,123.238266,-139.56262,-2.282033
668105823000.0,0.7447425833812457,5.271543699794662,-6.220762121149898,1.6362026,-0.5714644,0.11636983,123.260414,-139.8519,-2.4813397
668109810000.0,1.155429999644079,5.122202772953946,-5.89967938574362,1.6740762,-0.6826419,0.17867808,123.31952,-140.14667,-2.6645203
668114897000.0,1.2586505407995054,5.0374002,-5.877051569544612,1.7027869,-0.59437186,0.14049901,123.32229,-140.4574,-2.8426244
668119821000.0,1.0319224766467476,5.0374002,-6.155603051102411,1.6982054,-0.57971114,0.13255776,123.374626,-140.76266,-3.0399828
668124802000.0,0.8025698187375506,5.0374002,-6.437379031939007,1.6554449,-0.5858198,0.15668693,123.47974,-141.06602,-3.127792
668129791000.0,0.7087702482113719,4.817226239588302,-6.641555708597966,1.6200147,-0.59040123,0.16249016,123.57285,-141.36362,-3.2159097
668134823000.0,0.6936483523911133,4.466398067076692,-6.801847867453245,1.6129897,-0.5910121,0.16432275,123.66773,-141.64998,-3.2998865
668139903000.0,0.6783822095519016,4.112223361917911,-6.963669045311912,1.5949692,-0.58032197,0.1563815,123.72805,-141.95842,-3.445587
668144945000.0,0.68149643671875,4.031018274824219,-7.2753764948437505,1.5940529,-0.53878313,0.12064589,123.77319,-142.26424,-3.5867126
668149838000.0,0.704376945703125,4.246095202626953,-7.742139260390624,1.6355917,-0.6392705,0.027183503,123.82291,-142.5727,-3.7667181
668154723000.0,0.7649257388047048,4.399933304175056,-7.99619824478118,1.733941,-0.7583892,0.069027774,123.85094,-143.0364,-3.925319
668159698000.0,0.8860946130496979,4.460517701759033,-7.920467747801208,1.7763962,-0.66248333,0.09560041,123.830505,-143.49034,-4.0751705
668164718000.0,0.9700621820759964,4.544222329082484,-7.881712,1.8280143,-0.58276546,0.0720821,123.83346,-143.98813,-4.25317
668170730000.0,1.0234225266357737,4.672287234031511,-7.881712,1.8445076,-0.5879578,0.073303826,123.84236,-144.47644,-4.418284
668174705000.0,1.0361291771724404,4.701234605670602,-7.856934986355719,1.8521434,-0.60048056,0.101098195,123.87603,-144.95499,-4.5458055
668179672000.0,1.0131138564157152,4.641394608283337,-7.783286017611767,1.883603,-0.61575216,0.10445796,123.90233,-145.4353,-4.6781282
668184672000.0,0.999542738371762,4.586202509630894,-7.675160424423569,1.9370537,-0.6282749,0.10751228,123.96696,-145.89636,-4.7991605
668189786000.0,1.0134840293481355,4.54437873375083,-7.466041059777967,1.9752327,-0.6462954,0.11575896,124.03356,-146.35165,-4.922708
668194733000.0,1.0207432061306532,4.4931855869748745,-7.32773773001005,1.9996674,-0.69058317,0.10903945,124.11843,-146.81488,-5.0618052
668199700000.0,0.9968397058291456,4.388010185648241,-7.509404432140704,2.0332649,-0.75808376,0.112704635,124.210304,-147.28064,-5.20672
668204722000.0,0.9888156968276928,4.333534312785652,-7.6925972267476626,2.0583105,-0.8231409,0.1591304,124.33941,-147.72623,-5.353952
668209699000.0,1.0577537453958152,4.526560858374313,-7.871836124231029,2.0772474,-0.7461719,0.15821409,124.44193,-148.17104,-5.4882016
668214740000.0,1.123470473516584,4.7136512285728775,-8.05234811715184,2.1041253,-0.66553766,0.16187929,124.555084,-148.66121,-5.6299353
668219770000.0,1.1527866645095852,4.826029765138452,-8.223359443858403,2.111761,-0.6582073,0.18967366,124.66915,-149.13957,-5.7660365
668224731000.0,1.1884740942570282,4.933005468393574,-8.3825144562249,2.133447,-0.64568454,0.2003638,124.738815,-149.6244,-5.8404217
668229731000.0,1.2702038633333337,5.014735036666666,-8.478667066666667,2.1484132,-0.6560693,0.20769419,124.814415,-150.09807,-5.9147735
668234701000.0,1.3418192627170582,5.074088258171604,-8.571795484678244,2.173764,-0.6722572,0.22235495,124.90865,-150.56795,-5.9799676
668239847000.0,1.350209152536602,4.985994546475996,-8.651499350357508,2.2085834,-0.70829827,0.2275473,125.00423,-151.03421,-6.0529923
668245064000.0,1.3587147987061627,4.896685394918284,-8.732302900153217,2.2369885,-0.73639804,0.21777347,125.1176,-151.49059,-6.116296
668249854000.0,1.4114981268606432,4.935763068300154,-8.969833753751914,2.2562308,-0.883922,0.23701571,125.25838,-151.94249,-6.2139535
668254756000.0,1.4738045236753443,4.998069515160797,-9.243023039509955,2.2708917,-0.92271197,0.22174409,125.373726,-152.39224,-6.297396
668259780000.0,1.5373340264633142,5.005361868920033,-9.226648891178897,2.3066273,-0.82894415,0.22510384,125.49563,-152.87369,-6.3785734
668264825000.0,1.6010636060593568,5.001378689612531,-9.150970147980214,2.364354,-0.80481493,0.22052236,125.62294,-153.35533,-6.489235
668269827000.0,1.6058820026455547,4.941542765047207,-9.038085769866246,2.3744333,-0.80878556,0.23915374,125.74995,-153.83797,-6.5680614
668274837000.0,1.5303827118312352,4.804700488296617,-8.872931178992918,2.4120014,-0.8045095,0.24556783,125.86566,-154.3339,-6.6409416
668279790000.0,1.4318409684912976,4.724651233745153,-8.703364834069799,2.4376578,-0.8237518,0.2837469,126.01842,-154.81032,-6.7068048
668284826000.0,1.292665120606006,4.7333496759852105,-8.520696865812967,2.4724772,-0.77640975,0.28008172,126.15025,-155.29016,-6.7590675
668289883000.0,1.1622493157403386,4.78635757273122,-8.33119894789405,2.4801128,-0.7492262,0.24281894,126.29186,-155.77113,-6.838455
668294936000.0,1.0746975337711682,5.042008545701259,-8.114070243378203,2.5014932,-0.72143185,0.23762658,126.43192,-156.25348,-6.9019775
668299932000.0,0.9881333733282676,5.294775666413374,-7.899390843465045,2.5121834,-0.711658,0.24251351,126.581154,-156.69846,-6.997695
668305075000.0,0.8357420041547279,5.477611845272207,-7.644534072861236,2.5540276,-0.6942484,0.23273966,126.717415,-157.14856,-7.085834
668309852000.0,0.6203893006446992,5.55719885530086,-7.3683209619218175,2.581822,-0.7247916,0.24801129,126.86246,-157.58617,-7.1800585
668315294000.0,0.449599068535407,5.628357810986103,-7.121459483057578,2.6358836,-0.70463306,0.2406809,127.04836,-157.90747,-7.2991595
668319858000.0,0.3686037480350761,5.671748130509596,-6.971039587888815,2.6734517,-0.6768387,0.22266038,127.23294,-158.22493,-7.420652
668324769000.0,0.2814503696439444,5.718437407279947,-6.809183298411648,2.676506,-0.6606508,0.22357668,127.43677,-158.46817,-7.5926123
668329824000.0,0.1806805401381276,5.689357709030715,-6.592325454644105,2.6826148,-0.6236934,0.21197024,127.62071,-158.72026,-7.7489457
668334837000.0,0.0658909658635276,5.556908292808534,-6.309766331230458,2.685669,-0.6123924,0.20463985,127.80112,-158.96811,-7.901643
668339872000.0,0.0517141066360549,5.310601999346461,-6.029557996630453,2.7091873,-0.5766568,0.15943582,127.96573,-159.13828,-8.090221
668344832000.0,0.3178033529304023,4.754233427626889,-5.763468815167204,2.6841419,-0.5647449,0.11636983,128.12392,-159.29736,-8.272817
668349780000.0,0.5832488349191988,4.199210908903412,-5.4980233978526565,2.7046058,-0.6041457,0.06841691,128.27837,-159.45198,-8.50521
668354824000.0,0.7172365809682739,4.062069316270495,-5.526776375046086,2.7128525,-0.62949663,0.007941248,128.40813,-159.60318,-8.723834
668359754000.0,0.83175500425342,3.979616154438731,-5.5909067448918215,2.7275133,-0.72387534,0.016493361,128.54869,-159.76443,-8.957588
668364830000.0,0.8612376986911189,3.926223105671818,-5.415491941581011,2.723848,-0.5644395,0.043066,128.66411,-160.13219,-9.055322
668371577000.0,0.8755720925977963,3.8641073987428816,-5.114469370184131,2.7482827,-0.4728097,0.03268129,128.78302,-160.50401,-9.195715
668374796000.0,0.8627210660252531,3.7675516373891274,-4.961137552447042,2.641992,-0.43799037,0.03634648,128.92287,-160.8721,-9.280158
668379776000.0,0.7183944195888553,3.1952216945737244,-4.662530713878744,2.5919013,-0.42577308,0.0729984,129.05782,-161.25127,-9.343013
668384805000.0,0.5672335030824001,2.764541302588445,-4.459085661559,2.5201247,-0.50640726,0.106901415,129.2199,-161.5678,-9.433891
668389917000.0,0.3929459843640139,2.8879949082845067,-4.6261112663650525,2.5082128,-0.60231316,0.07788532,129.37003,-161.8796,-9.526309
668394788000.0,0.2268750720640807,3.005628420284803,-4.785262620240303,2.515543,-0.56016344,0.042455133,129.48572,-162.29971,-9.620514
668399843000.0,0.1436521,3.144235823822656,-5.00574663262622,2.531731,-0.61208695,0.036957346,129.61368,-162.70905,-9.76446
668404795000.0,0.1436521,3.295140775456088,-5.272345021595249,2.5130997,-0.7742717,-0.016493361,129.71931,-163.10506,-9.932813
668409771000.0,0.2817585492225835,3.4165280538279634,-5.889753091989359,2.447737,-0.6835582,0.010995574,129.82768,-163.42104,-10.082875
668414877000.0,0.5082105497783033,3.522526832840674,-6.737743424711794,2.3872614,-0.5488624,0.020463986,129.9193,-163.73062,-10.265263
668419830000.0,0.7217361391951861,3.301178305302745,-7.493763014366303,2.228131,-0.54733527,0.01038471,130.04866,-163.97653,-10.449084
668424795000.0,0.931852343726965,2.8720047976400904,-8.209052396088754,2.0277672,-0.56107974,0.008246681,130.16634,-164.18771,-10.593856
668429846000.0,0.9322176281876646,2.330081007559304,-9.26517662287823,1.9587394,-0.6444628,0.007330383,130.31992,-164.47182,-10.683666
668434776000.0,0.7032425645292567,1.6879552905324195,-10.648982143173432,1.7989981,-0.5558874,0.021685716,130.46048,-164.66684,-10.726706
668439824000.0,0.2773787894722651,0.8280091249036979,-11.546646473902156,1.6823229,-0.42943826,0.048563786,130.54854,-165.02646,-10.73494
668444842000.0,-0.2872285745416023,-0.1762514688944532,-12.055718804603234,1.5580118,-0.38056904,0.07269296,130.6383,-165.32953,-10.738666
668449793000.0,-0.6414757585054862,-1.0436038223420354,-12.692914292849034,1.3982705,-0.32742378,0.11178834,130.60844,-165.79663,-10.726899
668454830000.0,-0.7966124331195612,-1.8010357412126368,-13.477722916572077,1.251052,-0.3943135,0.18173242,130.60287,-166.21587,-10.731492
668459786000.0,-0.9227287381709705,-2.3635135384780908,-13.898148525821597,1.174083,-0.41355577,0.087964594,130.38922,-166.86168,-10.816609
668465814000.0,-1.0243642967703444,-2.6910057459115806,-13.723110122065728,1.058324,-0.32925636,0.016493361,130.20708,-167.42998,-10.883263
668469815000.0,-1.201521533658731,-2.941042047275625,-13.513142790417373,0.9370673,-0.36682457,-0.020158553,129.90605,-168.15831,-11.02101
668474811000.0,-1.6066302482717405,-3.308022956051399,-13.09373558252814,0.82802784,-0.39950588,-0.033292156,129.59949,-168.83154,-11.134319
668479764000.0,-2.0890630018581864,-3.633214778422853,-12.719222519829898,0.72051555,-0.4251622,-0.047036625,129.27284,-169.50584,-11.275773
668484776000.0,-2.7457926780715542,-3.881707069557178,-12.426356676435242,0.62980205,-0.46853364,-0.057726767,128.95769,-170.13013,-11.428881
668489843000.0,-3.350897217182441,-4.128639038649198,-12.196292907010015,0.52564955,-0.5363397,-0.08460484,128.60281,-170.76701,-11.667884
668494926000.0,-3.677109238476018,-4.3558880620058735,-12.28059508011445,0.43799037,-0.589485,-0.14080444,128.24637,-171.36417,-11.912481
668500164000.0,-4.013268704841503,-4.590066772283714,-12.36746794706724,0.38362336,-0.59315014,-0.20708331,127.84954,-171.96503,-12.279803
668504791000.0,-4.286761594834233,-4.756195326060139,-12.23897467386276,0.37598756,-0.5522222,-0.344528,127.4208,-172.5447,-12.6469965
668509798000.0,-4.561988530968903,-4.899970389539964,-11.918561417887432,0.376293,-0.58368176,-0.38331795,127.00848,-173.09355,-13.026848
668514837000.0,-4.804050443816597,-5.061631465579593,-11.598787161123669,0.41050145,-0.6249151,-0.39858958,126.53184,-173.69838,-13.461978
668520124000.0,-4.893969348119148,-5.310952395600581,-11.275896055537617,0.38026363,-0.6646214,-0.42943826,126.04444,-174.27191,-13.897227
668524767000.0,-4.972935391750081,-5.529903989715854,-10.992335737164998,0.4071417,-0.7290677,-0.45998153,125.54248,-174.87617,-14.41023
668529777000.0,-4.621278004314248,-6.065845649782513,-10.293311757656458,0.3979787,-0.78801614,-0.5345071,125.01916,-175.45422,-14.922114
668535622000.0,-3.98523864665779,-6.845987580363959,-9.274655119840212,0.3182608,-0.6780604,-0.5934556,124.48875,-176.00916,-15.391119
668539825000.0,-3.711407202844682,-7.162221926689233,-9.006856113591981,0.18875736,-0.66828656,-0.6087272,123.928604,-176.58711,-15.931071
668545172000.0,-3.5647391181486787,-7.295556726337717,-9.176857786486137,0.1160644,-0.6630942,-0.6377433,123.34397,-177.15396,-16.429031
668549910000.0,-3.434775889181096,-7.413705273323786,-9.32749700963416,-0.079107046,-0.65576386,-0.6178902,122.704956,-177.77052,-16.874523
668554797000.0,-3.159977528905581,-7.616433438337929,-9.286017891128648,-0.3036,-0.4605924,-0.5656612,122.06445,-178.35042,-17.256273
668559840000.0,-2.6410623711419605,-7.960845835409337,-8.914052406389654,-0.5479461,-0.2406809,-0.5549711,121.41804,-178.86678,-17.620728
668564826000.0,-2.161647323035986,-8.244084293715154,-8.583246236061834,-0.7458665,-0.14752395,-0.548557,120.780266,-179.36176,-17.917486
668569836000.0,-1.7685032107704004,-8.377834534465281,-8.348170036112519,-0.9294315,-0.20525073,-0.61178154,120.129845,-179.7918,-18.190266
668574811000.0,-1.3781056142591654,-8.510650392295997,-8.114736085065044,-1.153619,-0.06261369,-0.56596667,119.493935,179.8016,-18.32675
668579773000.0,-0.4181254782649374,-8.162528502487774,-7.512333847310227,-1.31672,0.108123146,-0.46028697,118.86376,179.43266,-18.46966
668585114000.0,0.6143230929031062,-7.691649086471951,-6.906801967065369,-1.4318681,0.101098195,-0.36682457,118.250496,179.11848,-18.62184
668589876000.0,0.8468925321539176,-6.841713373834029,-7.253541930403339,-1.5555683,-0.11209377,-0.21746802,117.69339,178.84439,-18.738235
668595238000.0,1.1087651346870655,-5.884687903198888,-7.64397025535466,-1.8512272,-0.1957823,-0.1328632,117.22687,178.72154,-18.7072
668599849000.0,-1.609272270982854,-2.93167824608826,-9.959777192560669,-1.9996674,-0.28802297,0.18936823,116.8786,178.62509,-18.743591
668605383000.0,-5.065342846416191,0.7528107848308823,-12.869630094237795,-2.0998492,-0.43249258,0.7296785,116.62342,178.61972,-18.822536
668609782000.0,-7.99782359822205,1.5564648050826166,-14.372198266499176,-2.245846,-0.038179077,1.0280862,116.53419,178.83737,-18.690018
668614849000.0,-11.420738529423131,1.9644012930621315,-15.905476187554353,-2.3493876,0.3378085,1.3274102,116.60618,179.11365,-18.606611
668619820000.0,-13.53014423847867,0.2534614239506596,-16.84901264176803,-2.538145,0.35338554,1.4773777,117.133705,-179.96646,-18.82085
668624794000.0,-15.019504022271716,-2.5089953641425384,-17.51412429844098,-2.634662,0.2574797,1.600467,117.734055,-179.05107,-18.933683
668629786000.0,-15.905211575963266,-5.605114358454781,-18.092452745857457,-2.6590965,0.47800204,1.3567317,118.09322,-178.19177,-19.214058
668634780000.0,-15.513738904971053,-9.381398893890996,-18.483926413855063,-2.2489004,0.7678576,0.94806284,118.42971,-177.45627,-19.47453
668639897000.0,-14.57956099619016,-12.495615667839989,-18.806835814643037,-1.3906348,0.5311473,0.569021,118.32836,-177.3819,-20.090403
668644837000.0,-12.647844246148749,-14.043339884338248,-18.96748523654133,-0.5403103,0.17012598,0.042760566,118.09029,-177.44449,-20.614183
668649822000.0,-10.69853088603611,-15.605162803213515,-19.129598064104687,0.16646078,0.12034045,-0.45204028,117.49219,-178.18724,-21.12985
668654861000.0,-7.465486091005291,-16.6662885989418,-17.81688867777778,0.870483,0.3643811,-0.52473325,116.90705,-179.08586,-21.602312
668659869000.0,-4.208488168821604,-17.621173131096565,-16.34725882774141,1.2660183,0.7870999,-0.31642818,116.29579,179.96207,-21.985863
668664831000.0,-3.4151898400163665,-16.995089735679215,-14.161800339198038,1.1438452,1.5354098,-0.13164146,115.61741,178.8496,-21.978134
668670135000.0,-2.5672143591653027,-16.325854280360065,-11.825711700900165,0.8549059,2.2223277,-0.07788532,115.00626,177.67293,-21.595737
668675159000.0,-2.637191562656095,-14.327408676610505,-8.83300741704658,0.68966687,2.2208006,0.016798794,114.49697,176.56339,-21.200054
668679784000.0,-3.150794099821605,-11.78573465530228,-5.676766237661051,0.5699373,1.6358972,0.14080444,114.04329,175.56633,-20.78442
668684828000.0,-3.100318889965398,-9.170147028252597,-3.8565947507785463,0.45631635,0.9764681,0.26297748,113.664635,174.72122,-20.416138
668689826000.0,-2.5661866076124564,-6.702372984429066,-3.3390248287197237,0.39187005,0.5439755,0.37598756,113.318954,173.9209,-20.16187
668694867000.0,-2.048849910034765,-3.900471780082567,-3.142466799043963,0.4615087,0.453262,0.51923543,113.04098,173.40088,-20.233467
668699897000.0,-1.5952919830049974,-0.1882747658868693,-3.89955954236257,0.5006041,0.47036624,0.6722572,112.77968,172.91647,-20.402758
668704842000.0,-1.1493985537480989,3.4611912848482644,-4.643858471927283,0.44257188,0.48899764,0.82772243,112.727585,172.74414,-20.558666
668709842000.0,-0.8295866253176557,5.269035859119497,-4.953001126086956,0.2968805,0.56291234,0.9654725,112.71381,172.59651,-20.69833
668714844000.0,-0.6462000605724182,5.116213748427673,-4.8001791521739126,0.22418754,0.6081163,1.072374,112.731544,172.45575,-20.844547
668719796000.0,-0.442659167009283,4.885425554967411,-4.702115817993285,0.25045475,0.689056,1.0986412,113.24722,172.84448,-20.697168
668724868000.0,-0.1788288403270788,4.448906123958127,-4.735694150997433,0.3145956,0.8961393,1.1029172,113.794846,173.25787,-20.501284
668729778000.0,-0.0899917833144984,3.977407474419623,-4.944145016819974,0.35185838,1.0143417,1.0412198,114.30856,173.66365,-20.307224
668734835000.0,-0.4809221879887366,3.3501006584569177,-5.6684268406232405,0.3622431,1.0375546,0.929126,114.81113,174.0608,-20.077892
668739839000.0,-0.8677554379373006,2.7293683454101747,-6.385117812802704,0.42913285,1.0882565,0.8231409,115.230095,174.43355,-19.853256
668744887000.0,-1.2873509862844474,2.091999971390561,-7.087965279949319,0.56199604,1.1994339,0.73792523,115.626465,174.78062,-19.600027
668749892000.0,-2.027509711894204,1.3366585021832438,-7.562425804339563,0.6924158,1.2504412,0.68600166,116.00285,175.10709,-19.3464
668754926000.0,-2.77195706948052,0.5769404290584417,-8.039635450649351,0.84391034,1.2556335,0.6542367,116.253975,175.3168,-19.165703
668759830000.0,-3.418494818843856,-0.2746794834369449,-8.361768057080575,1.0177015,1.2608259,0.6264423,116.4959,175.48106,-18.969128
668764833000.0,-4.0142129267075735,-1.2340179296269982,-8.574524812691749,1.1621711,1.2382239,0.602924,116.73227,175.611,-18.778948
668769886000.0,-4.606783623261569,-2.214115480483379,-8.799914678462427,1.303281,1.244027,0.59315014,116.861275,175.5721,-18.668402
668774915000.0,-5.091460374090572,-3.318542579114081,-9.145544660975006,1.4184291,1.3017539,0.5366451,116.9708,175.49731,-18.548132
668779788000.0,-5.561102411630785,-4.3887102569083565,-9.480453172564546,1.5121969,1.3307699,0.46120325,116.94876,175.23343,-18.520851
668784839000.0,-5.4942076748621655,-5.134545835397523,-10.317601638513784,1.5763378,1.3414601,0.40317106,116.9155,174.94875,-18.481108
668790701000.0,-5.054603531018778,-5.762551520974831,-11.60949978489812,1.6481144,1.3704761,0.39064834,116.87443,174.64032,-18.427608
668794823000.0,-4.728874887259402,-6.22633550551663,-12.331264805186438,1.6872098,1.3344351,0.528093,116.732544,174.16235,-18.452223
668799845000.0,-4.233092911854715,-6.923529043665942,-12.098866770395423,1.7061466,1.4248432,0.4605924,116.530815,173.6617,-18.425516
668804821000.0,-3.741852149287268,-7.61433650002416,-11.86859743126359,1.7305813,1.427592,0.24587326,116.342545,173.05109,-18.280367
668809834000.0,-2.97972321196465,-7.844939571074099,-11.722032558803535,1.7693712,1.361924,0.17867808,116.181656,172.45454,-18.136734
668814893000.0,-2.069862233922501,-7.832588440431679,-11.61910718660775,1.831374,1.3515394,0.1600467,115.97688,171.84523,-17.976053
668819816000.0,-1.277933666104044,-7.785416841762333,-11.371888062984796,1.8796324,1.344209,0.15363261,115.71798,171.09781,-17.760107
668824966000.0,-0.6709271610880132,-7.652793556003723,-10.764881547316165,1.8719965,1.3310753,0.12003502,115.44991,170.36147,-17.552856
668829748000.0,-0.2450859853492193,-7.503038422350041,-10.176872112571898,1.861001,1.2773192,0.11453723,115.25858,169.59256,-17.216642
668834836000.0,-0.0412538830888175,-7.295566452229775,-9.50713822028834,1.8420641,1.2144,0.12308934,115.06547,168.83965,-16.893099
668839815000.0,0.1582115330186001,-7.0925391449914095,-8.851752007694031,1.8521434,1.1612549,0.16310102,114.910164,168.08197,-16.531725
668844988000.0,-0.0643177347111442,-6.72538818039508,-7.874951776816996,1.8325957,1.131017,0.19181168,114.75535,167.34796,-16.188232
668849909000.0,-0.4507524105013045,-6.31260560305628,-6.825430087169213,1.785559,1.1023064,0.2510656,114.620766,166.6353,-15.870379
668854794000.0,-0.7718332558569052,-6.092952237603994,-6.503815009484193,1.7165314,1.0882565,0.29840767,114.505806,165.94223,-15.550459
668860672000.0,-1.0971947734206149,-6.014076879796829,-6.819317006944566,1.6233743,1.0833695,0.34025195,114.40606,165.28116,-15.245818
668864845000.0,-1.2187911145887222,-5.917564865080186,-7.0867575988618725,1.5534303,1.0534371,0.35705075,114.28276,164.67747,-15.056617
668869840000.0,-1.0844497054689233,-5.698376247091863,-7.518064202106274,1.5430456,1.0421361,0.35369098,114.1651,164.09125,-14.871077
668874806000.0,-0.950888256482152,-5.480460195654423,-7.946866722969477,1.5879441,1.070236,0.34574974,114.05478,163.54083,-14.715173
668879775000.0,-0.7077557339741471,-5.354224328340947,-8.264750604091748,1.6832392,1.1630874,0.3491095,113.950035,162.98708,-14.550934
668884777000.0,-0.3725404885431043,-5.303010975303723,-8.492883418553795,1.779756,1.2589933,0.35888332,113.84648,162.42786,-14.38387
668889940000.0,-0.2768363726162982,-5.624160845925437,-8.565103180798417,1.8423696,1.3716979,0.3747658,113.83931,161.89413,-14.123215
668894944000.0,-0.422295127630485,-6.291373932378753,-8.479725299307159,1.8616118,1.4776831,0.38240165,113.84083,161.35457,-13.845924
668899803000.0,-0.5635389506948202,-6.939253306294952,-8.396821397195644,1.881465,1.5247196,0.4083634,113.90348,160.80237,-13.49567
668904825000.0,-0.6716185742344571,-7.484279091452727,-8.18727957191463,1.8939877,1.5357152,0.42363504,113.97245,160.25565,-13.135216
668909840000.0,-0.7359922186823384,-7.885376195793381,-7.8357003055985155,1.9205604,1.5622878,0.43585235,114.05436,159.7103,-12.769334
668914863000.0,-0.7014580265675702,-8.15783815719421,-7.474474982862139,1.9233092,1.5894713,0.41599923,114.06279,158.99902,-12.392111
668919875000.0,-0.5802132229612358,-8.316389341882834,-7.106077206237249,1.9049833,1.6245961,0.40133846,114.08398,158.2989,-12.016587
668924785000.0,-0.4494280724918441,-8.39886,-6.814991505373249,1.8692477,1.6743816,0.40530908,114.072685,157.53989,-11.650115
668930494000.0,-0.2815555410094031,-8.39886,-6.568428658510842,1.8148806,1.7073684,0.3930918,114.06032,156.80196,-11.285384
668934770000.0,-0.0447002314024701,-8.384267411452486,-6.45522420358273,1.7287487,1.7229455,0.3817908,114.04371,156.04402,-10.910494
668939961000.0,0.4170637509339594,-8.343672488006533,-6.429852575125039,1.7046194,1.7299703,0.32803464,114.02084,155.2932,-10.533185
668944773000.0,0.8129806625553447,-8.15751303833017,-6.35056768912081,1.6325374,1.6930131,0.25381452,114.003235,154.56284,-10.14489
668949854000.0,1.1861618743042377,-7.753554014563567,-6.188984015338393,1.572978,1.6496416,0.21044308,113.98476,153.84631,-9.763998
668955739000.0,1.607864515355917,-7.289369135338009,-6.007824715266378,1.5286902,1.5766432,0.18509217,113.9804,153.13492,-9.332643
668959691000.0,1.7914259509625428,-7.01261498676317,-5.942872229965676,1.5021176,1.5372424,0.16523905,113.97005,152.4441,-8.909026
668964750000.0,2.026405025540964,-6.658338863878526,-5.859725817228772,1.4899004,1.5470163,0.1563815,114.01677,151.79971,-8.4273205
668969663000.0,2.221403982097902,-6.31707603020979,-5.762665911888112,1.45783,1.5589281,0.1414153,114.0557,151.17569,-7.9602857
668974753000.0,2.2725360576223776,-5.976195215262238,-5.58796456486014,1.428203,1.5815301,0.14782938,114.10434,150.56364,-7.4987993
668980558000.0,2.3237681685024154,-5.608612768502415,-5.404714831497585,1.3680327,1.5952746,0.16065755,114.20347,150.01483,-6.9938784
668984692000.0,2.2855164861835746,-5.570361086183575,-5.442966513816425,1.3127494,1.6172657,0.14813483,114.30499,149.47981,-6.486837
668989707000.0,2.23911295768116,-5.523957557681159,-5.48937004231884,1.2550226,1.645671,0.16187929,114.45103,148.9986,-5.977361
668994735000.0,2.095295725994772,-5.722335237990125,-5.563192950624456,1.2006557,1.677436,0.19028452,114.60305,148.53877,-5.469838
668999710000.0,1.9338510757382128,-5.966808491209217,-5.6416090460838415,1.1172725,1.690875,0.19425514,114.755516,148.10988,-4.9661794
669004725000.0,1.8161792446349396,-6.311186375376884,-5.7035448640260125,1.0363328,1.7012597,0.19547687,114.93233,147.7089,-4.4685125
669009693000.0,1.7130452974874373,-6.68153121959799,-5.759799717587939,0.9425651,1.6920967,0.20280726,115.11176,147.3421,-3.9820783
669014727000.0,1.7550719965527373,-7.009907477729899,-5.75742610994026,0.89980453,1.6707164,0.20891592,115.28477,146.96275,-3.527282
669019694000.0,1.8482420884830089,-7.317368766506708,-5.734133599118598,0.81336707,1.6111571,0.20861048,115.45164,146.6292,-3.0927088
669024698000.0,1.956024937961336,-7.570390004217926,-5.843669904745167,0.73639804,1.5372424,0.21533,115.60163,146.26422,-2.6911888
669029688000.0,2.069653681164065,-7.797647387449602,-6.011642549116097,0.6612616,1.4217888,0.21930063,115.73592,145.93015,-2.3222427
669034671000.0,2.3642679063640046,-8.01753773571139,-6.111050820632348,0.6041457,1.3231341,0.20891592,115.85568,145.56761,-1.9568974
669039715000.0,2.721614298216457,-8.237819356870693,-6.189373539440616,0.56413406,1.2140946,0.19456059,115.95634,145.2285,-1.6298107
669044699000.0,3.1376050619280544,-8.306938195964536,-6.221104730357689,0.50976706,1.1242975,0.16707164,116.04832,144.8921,-1.3000382
669049696000.0,3.5716336456741056,-8.336199136961174,-6.240611515132987,0.45937067,1.0238101,0.13469578,116.11733,144.57275,-1.0031514
669054692000.0,3.865532049248648,-8.179807721097976,-6.295314208976157,0.41874814,0.9257663,0.122783914,116.18167,144.23956,-0.67087144
669059678000.0,4.128630512041675,-7.983679649869765,-6.357501097475455,0.35185838,0.82711154,0.11026118,116.2232,143.93527,-0.36470386
669064752000.0,4.309774467586207,-7.648579482068965,-6.439669420689655,0.30482176,0.7367035,0.11789699,116.27306,143.63257,-0.016438557
669069709000.0,4.468794539211823,-7.2931225353694575,-6.523856617980296,0.2742785,0.63804877,0.115453534,116.30155,143.35109,0.3030039
669074693000.0,4.504883927854516,-6.899200034770943,-6.650719734125013,0.2611449,0.5555819,0.12950343,116.34956,143.11116,0.6417916
669079680000.0,4.509630077014807,-6.495785384507602,-6.7883553340952005,0.22418754,0.47311515,0.15668693,116.384636,142.89243,0.94891715
669084688000.0,4.551270679840299,-6.096887476094243,-7.017969778539038,0.1966986,0.4034765,0.18173242,116.4414,142.73526,1.2621485
669089763000.0,4.603974184621452,-5.69442371648265,-7.276696470425867,0.18936823,0.34147367,0.21197024,116.493515,142.58684,1.5467662
669094711000.0,4.675234250456072,-5.379510764128661,-7.4612271656265,0.18661933,0.30207285,0.24007004,116.57204,142.51578,1.8190515
669099702000.0,4.75325294906385,-5.085793792578013,-7.62644292318771,0.18478674,0.2452624,0.25961772,116.64215,142.44907,2.0649536
669104730000.0,4.709850362851364,-4.93039387718908,-7.802128632355915,0.20372356,0.22510384,0.27214047,116.74964,142.46254,2.3128853
669109706000.0,4.608663377694641,-4.843662398442872,-7.980410310010111,0.20677789,0.15821409,0.27000242,116.8406,142.48271,2.5326173
669115156000.0,4.505663526451613,-4.87780762233871,-7.966683051129032,0.23548855,0.07971791,0.27152961,116.95667,142.55269,2.7534902
669119728000.0,4.421800879032258,-4.948428753024194,-7.887234135080646,0.2919936,-0.007941248,0.28588495,117.062515,142.61461,2.951764
669124728000.0,4.419464531772377,-5.0279444994467495,-7.821912419758941,0.355829,-0.09682214,0.27091873,117.16353,142.69597,3.1200056
669129727000.0,4.452572757646711,-5.108349922752421,-7.765155644556412,0.4334089,-0.16737708,0.28619036,117.263245,142.75696,3.262222
669134693000.0,4.396259691214845,-5.240887133661931,-7.712786711510583,0.4999932,-0.20769419,0.28069258,117.34506,142.77994,3.3833332
669139784000.0,4.297306730646564,-5.401096923166135,-7.660954161496086,0.548557,-0.22937989,0.2657264,117.41955,142.78711,3.4899478
669144730000.0,4.1347617465855775,-5.562385832841008,-7.595669212945265,0.59131753,-0.25259277,0.28038713,117.491234,142.75694,3.590105
669149854000.0,3.9258558659252825,-5.732921100260644,-7.518928075499565,0.605062,-0.2733622,0.27000242,117.550606,142.72414,3.6910434
669154755000.0,3.738763322785744,-5.85079406177796,-7.475018745776321,0.61758476,-0.29932398,0.24129178,117.59737,142.64761,3.7712622
669159775000.0,3.573325099434658,-5.87836724981565,-7.490774841474805,0.6224717,-0.32986724,0.24190263,117.64393,142.57144,3.84103
669165486000.0,3.382769425733718,-5.906004376036523,-7.5079415818131,0.6209445,-0.33567044,0.21319197,117.66221,142.45436,3.8838694
669169810000.0,3.174426350880462,-5.824982051243827,-7.500225258175719,0.61575216,-0.33536503,0.2049453,117.68081,142.33928,3.9168224
669174807000.0,2.9336561508245595,-5.731349174974378,-7.491307943370912,0.59315014,-0.3222314,0.21502456,117.69723,142.22678,3.9202101
669179781000.0,2.8629549067649283,-5.7212264342403625,-7.5125995625850335,0.5693264,-0.310625,0.17867808,117.7008,142.12012,3.9327734
669185744000.0,2.846768325236205,-5.742808505385487,-7.550368271598639,0.56321776,-0.31612277,0.1600467,117.70976,142.0167,3.9394295
669189830000.0,2.850615642224521,-5.818579401407139,-7.50251695691671,0.55741453,-0.31490102,0.14508049,117.71868,141.93393,3.9148319
669194984000.0,2.860829574392137,-5.936039727987584,-7.415698640144853,0.54275376,-0.32803464,0.121256754,117.717735,141.85805,3.8911943
669199893000.0,2.928277399601911,-6.109619558608678,-7.345538644844745,0.5305365,-0.36835176,0.087659165,117.70934,141.78487,3.8657792
669204854000.0,3.018116132802548,-6.308210590644904,-7.279341584792993,0.5207626,-0.40866885,0.059864793,117.694534,141.71732,3.8411207
669209836000.0,3.1130861917379886,-6.49544226400305,-7.21411170738073,0.5143485,-0.4196644,0.050701816,117.67309,141.62675,3.8172832
669214867000.0,3.2110729422082875,-6.6791675543598,-7.1487870649605965,0.5039638,-0.44073927,0.040011674,117.63626,141.5426,3.7879586
669219805000.0,3.281769858610709,-6.861302123981807,-7.078356901261112,0.48380527,-0.44715336,0.030848695,117.58964,141.42505,3.7767797
669224887000.0,3.301893769609262,-7.0524779388877405,-6.9928310543725445,0.45998153,-0.45662177,0.003970624,117.53263,141.31454,3.7654235
669229743000.0,3.3018986953142493,-7.2028600407804255,-6.919831851591236,0.43493605,-0.45753807,-0.03481932,117.45591,141.16919,3.7803204
669234783000.0,3.271022468862946,-7.307066776107469,-6.8580795598912525,0.39767328,-0.4654793,-0.04886922,117.37636,141.03702,3.7914913
669240591000.0,3.235983055778729,-7.421242967072769,-6.7866323447481065,0.36010507,-0.4831944,-0.059253927,117.27588,140.8781,3.806225
669244847000.0,3.219207135594337,-7.407822272966743,-6.729594132038196,0.30848694,-0.49632803,-0.07880162,117.17044,140.73744,3.8237956
669249810000.0,3.199644426037208,-7.392172154346395,-6.66308082149325,0.28221974,-0.5119051,-0.112399206,117.04684,140.57231,3.83513
669255601000.0,3.1109146035221,-7.354921504834254,-6.598353897444752,0.258396,-0.5335908,-0.12767084,116.92046,140.4242,3.8419728
669259781000.0,3.0058607246546964,-7.316217533839779,-6.55964978211326,0.23976462,-0.552833,-0.11759156,116.79101,140.285,3.8468945
669264808000.0,2.879519612437845,-7.26967091609116,-6.513102990780387,0.22235495,-0.5751296,-0.1328632,116.65005,140.1478,3.8495104
669269819000.0,2.8179232993810786,-7.199000120848806,-6.476194065464191,0.21105394,-0.5879578,-0.14569137,116.51119,140.0162,3.8475153
669274800000.0,2.805270194120248,-7.110428428063661,-6.446670211909814,0.22082779,-0.5842926,-0.1282817,116.375786,139.88536,3.8413436
669279759000.0,2.7392532958872677,-7.0628232290461765,-6.409144939089323,0.21624629,-0.5702427,-0.09773844,116.240234,139.76205,3.8058543
669284776000.0,2.5451782065546684,-7.111342266207656,-6.351804631451391,0.19761491,-0.5708536,-0.10415252,116.09939,139.64233,3.7721374
669289847000.0,2.3385963716756546,-7.161928295212416,-6.301962853682757,0.19058995,-0.56046885,-0.09132435,115.980156,139.53206,3.7341392
669294809000.0,2.0698386121728265,-7.221304893791925,-6.305087908621597,0.19028452,-0.5653558,-0.111177474,115.85037,139.42763,3.7006142
669299769000.0,1.8011891790543206,-7.280657559844799,-6.30821170396554,0.1908954,-0.55680364,-0.10934488,115.72488,139.30609,3.6286805
669304834000.0,1.5394970373252526,-7.340752791919192,-6.31427778890505,0.1872302,-0.55680364,-0.10048734,115.59479,139.18768,3.5574555
669309795000.0,1.408963044969697,-7.39450196969697,-6.34883092339394,0.1863139,-0.54702985,-0.094989546,115.46851,139.06989,3.4916804
669314889000.0,1.2749295523151516,-7.449692115151516,-6.38431039670303,0.17989981,-0.52656585,-0.08368854,115.333664,138.93936,3.3462684
669319868000.0,1.199031039724919,-7.499389311488674,-6.445547390138439,0.18997909,-0.52320606,-0.07849618,115.19742,138.80588,3.2022219
669325263000.0,1.1525847165048544,-7.550480310679612,-6.52915063613808,0.1863139,-0.5039638,-0.08582657,115.067924,138.67963,3.0689769
669329838000.0,1.1146395426574862,-7.58296590919741,-6.585113017737129,0.18906279,-0.48349985,-0.08307768,114.9398,138.54515,2.9013243
669334780000.0,1.07573004057137,-7.602420863385058,-6.624022672181687,0.1826487,-0.47739118,-0.08246681,114.81048,138.41606,2.7399943
669339867000.0,1.0412041514728791,-7.61662272617193,-6.667732122935845,0.19761491,-0.46181414,-0.08093964,114.688965,138.28517,2.5767748
669344868000.0,1.0140727880328566,-7.623405487353066,-6.715211982396261,0.20463985,-0.441961,-0.08246681,114.5689,138.15997,2.4198337
669349766000.0,0.9875002189208328,-7.630048551593259,-6.761713952329698,0.21227567,-0.4373795,-0.0852157,114.45343,138.03467,2.2561133
669354855000.0,0.9713600899881027,-7.59439547275556,-6.791327720023794,0.21197024,-0.43463063,-0.092240654,114.34011,137.91138,2.1009607
669359783000.0,0.962721951359019,-7.533928412153381,-6.8086039972819625,0.22479841,-0.44837508,-0.08368854,114.227196,137.78369,1.9442993
669364911000.0,0.9061220850984144,-7.40927132459957,-6.844465771559487,0.23243423,-0.45814893,-0.0983493,114.1134,137.66765,1.7893255
669369814000.0,0.7938699142003347,-7.214700874205116,-6.9005917788668425,0.2452624,-0.4886922,-0.112399206,113.9949,137.54788,1.6290404
669374768000.0,0.6804501192525301,-7.018106541907722,-6.957301597386246,0.2782491,-0.54519725,-0.12705997,113.87587,137.43484,1.465295
669379912000.0,0.6962470592649311,-6.862669283920368,-6.975273769678408,0.30451632,-0.60994893,-0.15851954,113.742966,137.32166,1.3031074
669384750000.0,0.7228545774885146,-6.720762520061255,-6.988577621401226,0.33567044,-0.66431594,-0.18325958,113.599815,137.199,1.1366521
669389823000.0,0.7515026652058624,-6.643476450177905,-6.974165185360895,0.36682457,-0.729984,-0.19608775,113.46015,137.11847,0.93318164
669395266000.0,0.7824147321162318,-6.577236237631311,-6.952085160623517,0.410196,-0.73792523,-0.20708331,113.31706,137.02594,0.7399469
669399852000.0,0.7550815869002123,-6.6146473019301295,-6.967503112642347,0.40744713,-0.75900006,-0.19211712,113.169586,136.96301,0.5418264
669404802000.0,0.6727332397664543,-6.747319722312295,-7.017826966145532,0.4098906,-0.77121735,-0.18295415,113.019966,136.8865,0.35188842
669409840000.0,0.6295975835716912,-6.877999265569852,-7.020109074742647,0.4120286,-0.73426,-0.17012598,112.88526,136.81879,0.17565225
669414851000.0,0.6472407572821691,-7.001501209806985,-6.949536600974264,0.39675698,-0.6924158,-0.15363261,112.75311,136.75554,-0.0002390566
669419868000.0,0.6506972617410535,-7.105393593305187,-6.872851163248894,0.3491095,-0.6637051,-0.15271631,112.620964,136.6879,-0.18592319
669424855000.0,0.6074889773522316,-7.143801163299155,-6.776832864897466,0.33078352,-0.64568454,-0.14996742,112.49961,136.61665,-0.3640105
669429748000.0,0.5907969036777284,-7.152343164180636,-6.71905412410195,0.32711834,-0.67103547,-0.15454891,112.35626,136.52351,-0.53525376
669434824000.0,0.6656355600239481,-7.056715873999316,-6.789734992901129,0.33353242,-0.71868294,-0.14294247,112.216866,136.43358,-0.7071475
669440732000.0,0.7777898687887923,-6.963690369356269,-6.887765485369746,0.35827246,-0.73456544,-0.110872045,112.06593,136.32254,-0.88841426
669444827000.0,1.101179041071112,-7.078441397597092,-7.110312831752084,0.38789943,-0.72204274,-0.08368854,111.913666,136.20932,-1.0706346
669449790000.0,1.493115661837205,-7.217515720712893,-7.38003260711119,0.43218717,-0.68936145,-0.020463986,111.79052,136.11464,-1.2414856
669454866000.0,1.6187822973317163,-7.394473947968466,-7.275260206003638,0.50610185,-0.5910121,0.0290161,111.686676,136.00415,-1.3949443
669459855000.0,1.5898079764099455,-7.587636389993936,-6.961371578077623,0.5571091,-0.52626044,0.058948494,111.59232,135.8893,-1.5533274
669464849000.0,1.4770656616885396,-7.728078746999789,-6.605949509495403,0.589485,-0.5354234,0.0842994,111.53186,135.78531,-1.6320246
669470142000.0,1.313423181633799,-7.849031727770369,-6.207515656319742,0.6264423,-0.6243043,0.07727446,111.46784,135.66742,-1.7119516
669474812000.0,1.1690418512246474,-7.955748225068426,-5.855978513993964,0.63407815,-0.60903263,0.025961773,111.378624,135.47571,-1.7743225
669479782000.0,1.0703562104722577,-7.989706373358746,-5.499105042609064,0.552833,-0.6096435,-0.013744468,111.2696,135.30246,-1.857028
669484760000.0,0.9845401606416772,-8.004850162007623,-5.145744632782719,0.37232238,-0.5821546,-0.04550946,111.16084,135.15845,-1.9204981
669489828000.0,1.0262720905387988,-8.24579338313139,-4.942883963762138,0.17715092,-0.54458636,-0.07819075,110.98758,134.93973,-2.0171087
669494918000.0,1.080727479814385,-8.509692846481052,-4.754384734493426,0.0015271631,-0.46792278,-0.093462385,110.825874,134.77032,-2.0952551
669499849000.0,1.210839265087519,-8.606811925561264,-4.710435301978691,-0.18234327,-0.39584067,-0.09162979,110.63792,134.60803,-2.1783237
669504854000.0,1.3932285688356163,-8.602252338184933,-4.756032604109589,-0.35246924,-0.27152961,-0.089186326,110.47472,134.4938,-2.231126
669510463000.0,1.6020255894427304,-8.482352140956422,-4.78169549267258,-0.4251622,-0.10873401,-0.046120327,110.303925,134.33095,-2.265209
669514854000.0,1.7682541083494023,-8.316123241033551,-4.785749843694562,-0.60994893,-0.08277224,-0.027794369,110.12794,134.25024,-2.2969542
669519914000.0,1.9300487120728265,-8.129869514652906,-4.81897727782105,-0.6469063,-0.069027774,0.054367006,110.01629,134.16054,-2.287394
669524820000.0,2.0489835550871387,-7.956042067666245,-4.887593450735079,-0.69027776,-0.071776666,0.08002335,109.900665,134.12546,-2.2689042
669529758000.0,2.1403095489689137,-7.82136931563558,-4.967053319790705,-0.73456544,-0.09682214,0.10567969,109.82068,134.1333,-2.2329884
669534775000.0,2.180977051400431,-7.758519384733764,-5.066873707448446,-0.7788532,-0.10903945,0.10598512,109.74407,134.15302,-2.1959496
669540960000.0,2.231112292089874,-7.68103745875654,-5.189933124961526,-0.8151997,-0.1459968,0.1020145,109.68407,134.22188,-2.150442
669545196000.0,2.1054004695508235,-7.579802590676449,-5.633413621957766,-0.8509353,-0.15210545,0.099265605,109.62936,134.30168,-2.1022983
669549858000.0,1.9655787216445957,-7.4679452090372225,-6.124787003668575,-0.86284715,-0.17165314,0.0870483,109.578995,134.41663,-2.05281
669554842000.0,1.8736617500244837,-7.299718545490157,-6.483811460062677,-0.88208944,-0.15577064,0.09468412,109.53922,134.54178,-2.001702
669559867000.0,1.831245651699148,-7.087637857016943,-6.700605048349819,-0.8729264,-0.13897185,0.09468412,109.49285,134.65948,-1.9509542
669564842000.0,1.8084497694021413,-6.906288882223848,-6.818510083587151,-0.8426886,-0.15271631,0.09254608,109.49857,134.88376,-1.9291893
669571605000.0,1.804142534022744,-6.699541449085588,-6.844353495863537,-0.80756384,-0.1777618,0.09315695,109.50677,135.09967,-1.9072094
669574867000.0,1.8020650237746887,-6.599820892099488,-6.856818557351866,-0.77518797,-0.20555615,0.10354166,109.545784,135.37044,-1.8960717
669580643000.0,1.7939736050890054,-6.460377364586387,-6.950629868879581,-0.75319684,-0.22693644,0.11636983,109.58231,135.629,-1.889207
669584839000.0,1.785558054764398,-6.380429592565445,-7.060032198848167,-0.72326446,-0.21105394,0.124311075,109.6225,135.87117,-1.8812318
669589837000.0,1.6239017429559377,-6.415824671408812,-7.148129936475005,-0.7113526,-0.18509217,0.12186762,109.67999,136.1477,-1.874555
669594900000.0,1.346064574296911,-6.549952988473951,-7.205613410419549,-0.68783426,-0.16218472,0.10476339,109.73913,136.40727,-1.8633698
669599909000.0,1.071190709431601,-6.6826507447803465,-7.262483787861425,-0.6542367,-0.14966199,0.06169739,109.80522,136.69016,-1.8459916
669604787000.0,0.8907602564470019,-6.756870358561795,-7.262052944949421,-0.6386596,-0.13316862,0.035124753,109.87674,136.96617,-1.822658
669609848000.0,0.7806213847309779,-6.78529331593608,-7.212312908664419,-0.6337727,-0.12370021,-0.026267206,109.933205,137.22966,-1.7829894
669616090000.0,0.6477910160013837,-6.821137842787962,-7.153139594603943,-0.6123924,-0.082161374,-0.092240654,109.964134,137.45576,-1.8133574
669620187000.0,0.6002895675475615,-6.855067408336216,-7.14296068951055,-0.6093381,-0.06414085,-0.118202426,109.98825,137.68042,-1.8410544
669624853000.0,0.546191017758561,-6.893709183500519,-7.131368116611899,-0.6065892,-0.049785517,-0.1518,109.98848,137.8756,-1.8754708
669629840000.0,0.4849494387475252,-6.931791904918203,-7.068178552558091,-0.59956425,-0.02565634,-0.16982053,109.99241,138.06418,-1.9006811
669634841000.0,0.4200732484318016,-6.966725169219548,-6.95339744733771,-0.6075055,-0.01160644,-0.20586158,109.98673,138.25133,-1.9140761
669639847000.0,0.4183906869468233,-6.885880325831508,-6.908555069129656,-0.63621616,-0.013744468,-0.21166481,109.97226,138.43091,-1.9483284
669644933000.0,0.4636610233685189,-6.7177333774148575,-6.91502225425878,-0.68569624,0.0033597588,-0.2098322,109.95887,138.61435,-1.9689626
669650461000.0,0.5128655887910775,-6.534973579764987,-6.922051471599283,-0.73914695,0.009162978,-0.20158553,109.927635,138.7816,-2.005835
669654844000.0,0.5382385615826419,-6.3798706058710914,-6.990237819272496,-0.77457714,0.03756821,-0.18661933,109.90665,138.95416,-2.034644
669659867000.0,0.5587041078068495,-6.1956807967028285,-7.107914870336098,-0.7965683,0.058337633,-0.20372356,109.88101,139.13382,-2.058223
669664816000.0,0.6223485263333642,-6.021082868657824,-7.21669822521102,-0.8142834,0.076052725,-0.18784106,109.89273,139.3621,-2.0706315
669669941000.0,0.7088471268806233,-5.84353311214173,-7.3259594602541505,-0.83291477,0.07574729,-0.15882497,109.90481,139.59207,-2.081133
669674838000.0,0.7163923091488288,-5.783087113873183,-7.471036638428917,-0.8176431,0.06872234,-0.09193522,109.94662,139.85857,-2.094775
669679786000.0,0.6589778883935784,-5.816578738994346,-7.65284915983441,-0.8200866,0.062002823,-0.14294247,109.96942,140.12859,-2.0912704
669684829000.0,0.6224862760501424,-5.841858356451465,-7.754830173790063,-0.77488256,0.08674286,-0.13958271,110.04643,140.42654,-2.0873988
669689834000.0,0.6048788294572505,-5.859465807640738,-7.785643213371292,-0.75686204,0.102319926,-0.13652839,110.10954,140.72614,-2.0769825
669694854000.0,0.5904563175911663,-5.85240119923912,-7.8050976,-0.7510588,0.1001819,-0.13194689,110.17785,141.02936,-2.0750892
669699817000.0,0.5816357260239399,-5.803888139036838,-7.8050976,-0.73975784,0.09590584,-0.13103059,110.24841,141.31966,-2.069485
669704763000.0,0.5716800851044155,-5.768166299606997,-7.809490072343377,-0.73426,0.09407325,-0.13469578,110.31039,141.60632,-2.067822
669709881000.0,0.556572105633043,-5.7832742002003545,-7.832152041550436,-0.71685034,0.087659165,-0.13836098,110.37105,141.88045,-2.0675914
669717017000.0,0.53523952163095,-5.810180481145683,-7.856719182134762,-0.6951646,0.056199603,-0.16157386,110.416916,142.1569,-2.0751016
669720119000.0,0.522996672929116,-5.886698185658355,-7.789383666082835,-0.6640105,0.050396383,-0.17256944,110.46838,142.42004,-2.078968
669724888000.0,0.5041745757469607,-6.004336139501339,-7.685862364970121,-0.6545421,0.04795292,-0.20708331,110.49804,142.67834,-2.085041
669729871000.0,0.557151444561615,-6.0363919164507385,-7.694593682735763,-0.6713409,0.028405234,-0.23762658,110.52262,142.92981,-2.0942948
669734925000.0,0.6446498283820428,-6.026669831505473,-7.757786701918248,-0.6737844,0.025350908,-0.25350907,110.545654,143.16902,-2.096277
669739824000.0,0.7799085035679085,-5.936830157392076,-7.963215462645377,-0.65179324,0.047647487,-0.25473082,110.54222,143.36765,-2.099103
669744838000.0,0.9408207408633944,-5.809047136871674,-8.23771244234181,-0.62858033,0.049480084,-0.24465153,110.534615,143.5621,-2.1060848
669749829000.0,1.0902010704950893,-5.652182038003608,-8.400911093405492,-0.5925393,0.062308256,-0.23182335,110.53208,143.7543,-2.0854661
669754716000.0,1.2309161573561838,-5.48332369867709,-8.504102806875126,-0.56016344,0.07269296,-0.24281894,110.52692,143.93661,-2.0629373
669759697000.0,1.3096955271071498,-5.355930794613447,-8.519042375121101,-0.5503896,0.08552113,-0.23793201,110.56255,144.17197,-2.0074532
669764755000.0,1.351931150164697,-5.252688400038752,-8.481499882193372,-0.5491679,0.10293079,-0.22999077,110.59889,144.39563,-1.9484545
669770775000.0,1.42865454512123,-5.117327969899468,-8.484388982850385,-0.56138515,0.106595986,-0.23060162,110.65265,144.66287,-1.8641542
669774694000.0,1.4878407926276365,-5.024849342292529,-8.502884685196136,-0.5702427,0.119729586,-0.22235495,110.71436,144.9237,-1.7783613
669779672000.0,1.4096841245946514,-4.919230977026743,-8.61066293451253,-0.5891795,0.14049901,-0.20463985,110.782524,145.20119,-1.6864446
669784666000.0,1.1981958486207622,-4.8235577568961885,-8.791938088860814,-0.5888741,0.13958271,-0.17989981,110.85249,145.47049,-1.6009842
669789691000.0,1.125781025996534,-4.769872336655113,-8.890313866551127,-0.5720753,0.15363261,-0.13744467,110.945206,145.76157,-1.5007453
669794693000.0,1.134083132339688,-4.74081500779896,-8.940126677989602,-0.5354234,0.16065755,-0.1731803,111.02332,146.0408,-1.3957522
669799716000.0,1.1380044840946166,-4.7491697533136215,-8.891692204730832,-0.49754974,0.15760323,-0.18753563,111.12088,146.34377,-1.3458761
669804748000.0,1.1330911013866232,-4.832697208044453,-8.646023069331159,-0.43493605,0.16462818,-0.1881465,111.215576,146.62283,-1.2891592
669809746000.0,1.1100037166635994,-4.996170236869709,-8.362569709974236,-0.37048978,0.17531833,-0.19608775,111.30794,146.89734,-1.2269683
669814794000.0,1.0566245538369523,-5.294203775993744,-8.0111568222304,-0.31581733,0.1853976,-0.20677789,111.39993,147.15112,-1.1637094
669819764000.0,1.016110845475638,-5.565560604988399,-7.697347449535963,-0.34483343,0.19333886,-0.22479841,111.45728,147.3663,-1.1000283
669824756000.0,1.020732595823666,-5.755052562296984,-7.503233741879351,-0.42241332,0.19517145,-0.24190263,111.512665,147.5761,-1.0350784
669829751000.0,0.9945256040485828,-5.943690872932331,-7.338127122614228,-0.49541172,0.18661933,-0.25809056,111.5044,147.69238,-0.9846202
669835262000.0,0.7533778542105263,-6.145156044135339,-7.356442193233083,-0.55924714,0.15088372,-0.17715092,111.51214,147.82648,-0.9537893
669846729000.0,0.3057663700482056,-6.516410066513123,-7.3952339557579005,-0.6420194,0.10934488,-0.3295618,111.42176,147.92874,-0.89256
669847507000.0,0.3831871877664702,-6.44617265155865,-7.399224716550616,-0.6420194,0.10934488,-0.3295618,111.389534,148.02481,-0.8662752
669849784000.0,0.6097774216282806,-6.240606335554365,-7.410904616711302,-0.72387534,0.09743301,-0.35094208,111.26139,148.1075,-0.90982026
669854774000.0,1.1063453913122656,-5.790111861746117,-7.436500884520622,-0.7458665,0.07788532,-0.37384954,111.133575,148.17117,-0.95391417
669859800000.0,1.3098165975151217,-5.556415831126369,-7.544233455778976,-0.7861836,0.0143553335,-0.40591997,110.991844,148.26102,-1.006014
669864890000.0,1.449272820255027,-5.36914593575282,-7.671736416380579,-0.79290307,-0.043676864,-0.4382958,110.844475,148.34492,-1.0570736
669869803000.0,1.573977813730023,-5.148913614845713,-7.860015515026635,-0.78954333,-0.079107046,-0.46181414,110.73825,148.51915,-1.012753
669874781000.0,1.68418860223138,-4.861407321007136,-8.157105397024827,-0.7828238,-0.12156218,-0.4098906,110.63472,148.6907,-0.99198675
669879764000.0,1.7672715666186145,-4.728841637066402,-8.347939387872781,-0.81581056,-0.1001819,-0.3726278,110.55924,148.92773,-0.9215168
669884801000.0,1.8063873048022343,-4.850534858176412,-8.365324049463915,-0.83169305,-0.081855945,-0.45234573,110.46268,149.15312,-0.8540221
669889873000.0,1.8151163467944225,-5.001845924904573,-8.387807924904573,-0.82650065,-0.08735373,-0.4813618,110.43126,149.46254,-0.77655137
669894774000.0,1.6871458039651008,-5.276068653034198,-8.431683653034199,-0.8356637,-0.08002335,-0.4877759,110.39177,149.77434,-0.6853736
669899744000.0,1.5573735946482825,-5.554152096985277,-8.476177096985278,-0.8436049,-0.04520403,-0.50762904,110.32972,150.05913,-0.5790964
669905220000.0,1.5531381505684896,-5.588017720086627,-8.409634252301029,-0.8381071,-0.05131268,-0.50793445,110.26753,150.33713,-0.4856271
669909700000.0,1.618179552192745,-5.48116377747699,-8.29813440173254,-0.8197812,-0.058948494,-0.49510628,110.20983,150.6082,-0.3856934
669914728000.0,1.5990719157617863,-5.291449468049628,-8.527706736277917,-0.8151997,-0.042760566,-0.48349985,110.11155,150.81627,-0.32511958
669919691000.0,1.5471784429379654,-5.079158042054591,-8.881526025905707,-0.8063421,0.0021380284,-0.46273044,110.02352,151.01344,-0.2639706
669924665000.0,1.3740003208502023,-5.121478508198381,-8.965839716599191,-0.795652,0.08368854,-0.4370741,109.94601,151.21614,-0.18099433
669929667000.0,1.1509693425101215,-5.266933579919028,-8.941597229959514,-0.81183994,0.13439035,-0.44623706,109.86839,151.41978,-0.09453668
669934663000.0,1.3746823756801887,-5.0398761495530895,-9.059372212258127,-0.8335256,0.13744467,-0.40225476,109.84474,151.69116,-0.022904186
669939702000.0,1.7633590406345152,-4.674899167164326,-9.230010243492782,-0.8671232,0.13225232,-0.25625798,109.85149,151.96492,0.044557594
669944727000.0,1.5842765352507095,-4.822306294408704,-9.125493118637657,-0.8881981,0.20647246,-0.32895094,109.79554,152.20291,0.10967581
669949692000.0,1.1749156203027438,-5.177685634380321,-8.909566818732262,-0.8686504,0.20341812,-0.44532076,109.75527,152.43382,0.13982777
669954687000.0,1.0582310316012205,-5.266494392225174,-8.825782934061609,-0.8353582,0.13103059,-0.44532076,109.77922,152.7538,0.24943414
669959705000.0,1.1480915049010925,-5.167174833362857,-8.83524211839386,-0.8136725,0.09010262,-0.4437936,109.77813,153.06506,0.3777924
669964775000.0,1.3617455767515618,-4.820023702085535,-8.778679328111485,-0.8032878,0.046120327,-0.43585235,109.69566,153.26599,0.39026633
669970570000.0,1.7137725843440652,-4.2066433640749645,-8.656002993176356,-0.816116,0.038789943,-0.4071417,109.620384,153.4629,0.39846194
669974720000.0,1.9020788362670715,-3.974767172685888,-8.621625611532625,-0.8347474,0.017715093,-0.4147775,109.53811,153.67566,0.41834596
669979699000.0,2.0726334397030133,-3.876569160893128,-8.62679403587687,-0.84391034,-0.0009162979,-0.41386122,109.46664,153.88474,0.43166006
669984689000.0,2.2934759113002325,-3.624824571305214,-8.723912699269345,-0.82619524,-0.021991149,-0.3753767,109.447014,154.18452,0.5079866
669989722000.0,2.5456017562935904,-3.280652619727665,-8.875988363002325,-0.7996226,-0.02565634,-0.33169982,109.4303,154.47864,0.58129483
669994700000.0,2.740152530368812,-3.175595418008639,-9.004479303688116,-0.7819075,-0.032986723,-0.3005457,109.42685,154.78613,0.67861897
669999702000.0,2.745458007564514,-3.8865300270240337,-9.057534075645142,-0.7425067,-0.04734206,-0.20341812,109.451385,155.07394,0.7576249
670004704000.0,2.647629680621915,-4.438495540760118,-9.054751204837116,-0.70646566,0.031154128,-0.2724459,109.50145,155.45294,0.9338963
670009741000.0,2.404771148272458,-4.771830725666337,-8.973798708785784,-0.65484756,-0.004886922,-0.2938262,109.57337,155.80922,1.0562693
670014729000.0,2.225016695331457,-4.940796684703485,-8.914496698437349,-0.61758476,-0.03268129,-0.27000242,109.588425,156.04208,1.1895255
670019731000.0,2.1366772875084927,-4.866405734747161,-8.886599976899932,-0.59406644,-0.03848451,-0.26358834,109.59186,156.25998,1.3203727
670024720000.0,2.044547887652105,-4.77871209283862,-8.826499324356673,-0.5870415,-0.065973446,-0.23518312,109.549065,156.39413,1.3766042
670029750000.0,1.9436504323359267,-4.66340052182326,-8.70157862716936,-0.58001655,-0.06963864,-0.20769419,109.51064,156.5188,1.4353112
670034699000.0,1.9123461678961349,-4.46606983599882,-8.65595242342874,-0.59498274,-0.049785517,-0.20799962,109.46884,156.65523,1.4737166
670039797000.0,2.022793658463657,-4.086707082482542,-8.771201721550113,-0.600786,-0.067500606,-0.2003638,109.43251,156.78403,1.4964869
670044744000.0,2.145631938042729,-3.719891340356405,-8.912910192478094,-0.59223384,-0.08857546,-0.18906279,109.3891,156.92046,1.5034876
670049731000.0,2.3055042973121984,-3.3531252559220244,-9.12450589711529,-0.589485,-0.1160644,-0.17654006,109.34642,157.05722,1.5029396
670054794000.0,2.4664961414794333,-3.048509974421016,-9.317927765295542,-0.5928447,-0.1337795,-0.15821409,109.34017,157.27324,1.5258114
670059776000.0,2.621521894801244,-2.9231698805392323,-9.45316332008296,-0.5897904,-0.16340645,-0.13347405,109.33567,157.48244,1.535742
670064885000.0,2.78049952902869,-2.794634645765641,-9.59184626857933,-0.57787853,-0.1881465,-0.10720685,109.37503,157.77768,1.5754101
670069858000.0,2.9437204160598918,-2.702143447236181,-9.69417121115783,-0.5500842,-0.22388211,-0.07971791,109.41781,158.06183,1.6006383
670074798000.0,3.118383435237412,-2.658477819095477,-9.74754053738078,-0.48472157,-0.2565634,-0.0421497,109.46882,158.32625,1.6156588
670079771000.0,3.215670385432583,-2.66780816773694,-9.79501300578154,-0.41355577,-0.26908615,-0.0290161,109.54526,158.63167,1.6720778
670084782000.0,3.2107159311996694,-2.7470802114804878,-9.834648846582695,-0.33536503,-0.2510656,0.014049901,109.63956,158.91005,1.7196789
670089825000.0,3.1460864688453745,-2.912773742464551,-9.76295371880486,-0.26908615,-0.22937989,0.029932396,109.74022,159.18335,1.798738
670094895000.0,3.0215039366374072,-3.1652173270020256,-9.57935861178258,-0.23518312,-0.19425514,0.0421497,109.85392,159.43817,1.8802006
670099862000.0,2.8994523710600943,-3.4125323732343014,-9.39949334618501,-0.23365596,-0.18142697,0.042760566,109.9524,159.66733,1.9593253
670104840000.0,2.8371362799123045,-3.547584830994793,-9.232128702452728,-0.22571471,-0.17592919,0.04153884,110.05543,159.88066,2.0425797
670109840000.0,2.824013712085503,-3.590233022280077,-9.074658333858592,-0.22143865,-0.1881465,0.03970624,110.15695,160.09052,2.1222494
670114967000.0,2.8105578310359003,-3.633964477624007,-8.913188217902166,-0.23640485,-0.2144137,0.038179077,110.20249,160.20758,2.1580722
670119845000.0,2.811898178901508,-3.6664449443900526,-8.776032249265715,-0.2733622,-0.24740042,0.039095376,110.24609,160.3277,2.1877732
670124855000.0,2.821293130634424,-3.6946296524378304,-8.644503807910711,-0.31215215,-0.27488935,0.049785517,110.289764,160.45044,2.210323
670129839000.0,2.846608589178374,-3.6776234476117495,-8.547494970966369,-0.35155296,-0.29718593,0.05467244,110.3066,160.55467,2.2233574
670134844000.0,2.883338044819072,-3.628650896909323,-8.474036315368242,-0.39461896,-0.34574974,0.0580322,110.32098,160.66904,2.2208762
670139849000.0,2.9039196624727905,-3.5599330298650416,-8.42214157161515,-0.42485678,-0.37201694,0.070554934,110.329636,160.77463,2.219998
670145091000.0,2.871136699579161,-3.4215161219126395,-8.440354307647656,-0.46609017,-0.4034765,0.0888809,110.3361,160.89354,2.204094
670149821000.0,2.841555735350457,-3.2966187593382674,-8.456788157596865,-0.4908302,-0.44593164,0.10170906,110.34087,161.02121,2.1876726
670154833000.0,2.7952676284688214,-3.237845514430297,-8.507744457721188,-0.50426924,-0.46486846,0.1151481,110.35061,161.15483,2.1679587
670160657000.0,2.7224301708129284,-3.2633385865817828,-8.60971674632713,-0.5335908,-0.46731192,0.12217305,110.36024,161.29752,2.1415174
670166418000.0,2.6503806183480245,-3.288555892327784,-8.710585969311133,-0.56138515,-0.47555858,0.13591751,110.38732,161.47803,2.1014829
670171774000.0,2.5234418914946164,-3.33241459284797,-8.772041113503901,-0.57635134,-0.46181414,0.15088372,110.419235,161.66013,2.0672574
670174866000.0,2.438611987236985,-3.361666323994863,-8.801292783562184,-0.6102544,-0.45814893,0.13958271,110.44686,161.85257,2.0304947
670179776000.0,2.3132064012886078,-3.3734854986500307,-8.822392010942933,-0.6133087,-0.47311515,0.14477506,110.47594,162.03752,1.9694914
670184840000.0,2.1991309193495603,-3.328847203538556,-8.802552918285947,-0.6044512,-0.4746423,0.14202617,110.50218,162.22546,1.9164727
670189803000.0,2.0846609744072584,-3.3461777985277754,-8.821386079517247,-0.5925393,-0.47769663,0.13622294,110.5103,162.40111,1.8314935
670195143000.0,1.9577188490969784,-3.451233328443037,-8.89580007421039,-0.6017023,-0.46975538,0.15271631,110.52552,162.57669,1.7496775
670199817000.0,1.851842257324788,-3.560725058048943,-8.955828551772932,-0.6188065,-0.47647488,0.15699236,110.529495,162.75436,1.6431768
670204849000.0,1.787663147552855,-3.845519923106376,-8.971873234975861,-0.61850107,-0.473726,0.17501289,110.544266,162.92607,1.5415864
670209751000.0,1.7251420831446644,-4.122957210171466,-8.987503409272515,-0.63499445,-0.48747048,0.25809056,110.55709,163.08337,1.3967029
670214822000.0,1.7825533844392305,-4.207564527508212,-8.977044656123885,-0.6429357,-0.51159966,0.23487769,110.54616,163.23575,1.2607449
670219854000.0,1.895623534265603,-4.198519017531675,-8.954430645049273,-0.6426302,-0.5332854,0.22632557,110.56181,163.38678,1.1173332
670224800000.0,1.9944447514374588,-4.073794485003299,-9.02278404581016,-0.6020077,-0.58551437,0.20097467,110.52094,163.4558,0.94057596
670230654000.0,2.1001335924969364,-3.8201412002450743,-9.18660168875483,-0.6114761,-0.64476824,0.16065755,110.47199,163.53735,0.7620653
670234785000.0,2.1607852562184027,-3.644807721435794,-9.260486117290192,-0.6273586,-0.6258314,0.21074851,110.45032,163.6119,0.60882205
670239837000.0,2.2194893940546003,-3.4344511253589483,-9.304514629322547,-0.59864795,-0.64873886,0.21166481,110.39662,163.67494,0.4390872
670244845000.0,2.1962732712176374,-3.253045065483414,-9.323286882079287,-0.57604593,-0.6948592,0.22174409,110.39437,163.8027,0.28863138
670249863000.0,2.0796314648665044,-3.102382711134709,-9.313566537014562,-0.5589417,-0.7431176,0.21624629,110.38684,163.92125,0.13599773
670254834000.0,2.0138487382716046,-2.863977567489712,-9.393231456790122,-0.52870387,-0.79381937,0.21135938,110.40284,164.07544,-0.013084081
670259788000.0,1.999902980717225,-2.533927826415834,-9.56522932745444,-0.4859433,-0.8894198,0.13897185,110.39227,164.21802,-0.17842704
670264838000.0,1.985223528830677,-2.327749019031087,-9.62754854110778,-0.46914452,-0.8206975,0.19730948,110.43542,164.38573,-0.34086552
670269830000.0,1.970135195044974,-2.286256022344958,-9.548334709957391,-0.40653083,-0.7648033,0.2098322,110.43874,164.52483,-0.51897085
670274852000.0,1.954956186176424,-2.2445136687075906,-9.468644834148652,-0.3662137,-0.7275405,0.20830505,110.49588,164.74715,-0.6802122
670279788000.0,2.0304856826546853,-1.3757701994477207,-9.457842337826454,-0.3475823,-0.65270954,0.20311269,110.563354,164.95358,-0.8121119
670284795000.0,2.1157679737526918,-0.4152226559964427,-9.453354176074136,-0.3567453,-0.6646214,0.24770586,110.6411,165.1528,-0.9574651
670289825000.0,1.9312011275740548,-0.9387514631250596,-9.505177971140109,-0.36193767,-0.66767573,0.2180789,110.707306,165.3475,-1.0774357
670294998000.0,1.6575209487284503,-1.9390995268558917,-9.575957264025146,-0.3472769,-0.6563747,0.18112154,110.78423,165.53568,-1.1959516
670299807000.0,1.501856145865911,-2.2719420951329163,-9.702471947713056,-0.33322698,-0.72112644,0.098043874,110.95248,165.95023,-1.3038076
670304821000.0,1.3845328091379985,-2.3470290972830337,-9.86203152101251,-0.36926803,-0.68111473,0.13194689,111.151855,166.36781,-1.3813016
670309838000.0,1.2108384114948256,-2.3288563224607133,-9.9273457962821,-0.36285394,-0.64965516,0.15790866,111.19124,166.53658,-1.5386955
670314879000.0,1.0026694856669225,-2.2548406661747795,-9.936597451418168,-0.3484986,-0.59986967,0.2134974,111.25289,166.7102,-1.679918
670319895000.0,0.7653803774025707,-2.2027453656349616,-9.883503724524422,-0.33017266,-0.5849035,0.25167647,111.308685,166.86806,-1.8470018
670324874000.0,0.5055145765161955,-2.1684234931002573,-9.780538516503857,-0.32162055,-0.59773165,0.26450464,111.37449,167.02159,-2.005564
670329867000.0,0.0794066094523717,-2.057379215098342,-9.75074463305052,-0.2929099,-0.5934556,0.27275133,111.44946,167.1771,-2.2015383
670334840000.0,-0.4532344762919397,-1.8966685116756647,-9.769111458252988,-0.27855456,-0.5867361,0.28802297,111.52938,167.3312,-2.3956776
670339827000.0,-0.7394477099451303,-1.8264297426886145,-9.798429220987654,-0.25137106,-0.57451874,0.30879238,111.59551,167.47025,-2.6359568
670344896000.0,-0.7993795955761317,-1.8397479317695475,-9.83838357962963,-0.22510384,-0.5708536,0.3136793,111.66149,167.60252,-2.869239
670349877000.0,-0.8582710381344307,-1.8528349114128944,-9.877644313580248,-0.20433442,-0.5558874,0.31581733,111.719124,167.76642,-3.226285
670354838000.0,-0.9409003018230508,-1.9865437470697287,-10.006525862189722,-0.19120082,-0.5308419,0.310625,111.77762,167.92061,-3.564868
670359852000.0,-1.0398149693274283,-2.1992101634256875,-10.194463844062213,-0.15882497,-0.5626069,0.25534168,111.82061,168.05843,-3.898871
670364870000.0,-1.013431300705738,-2.2277903002147896,-10.375102250076711,-0.13622294,-0.47891834,0.25503623,111.88494,168.19296,-4.2104144
670372160000.0,-0.884898132095735,-2.136746107594354,-10.63216869914084,-0.0842994,-0.31856623,0.24404067,111.93361,168.3048,-4.4922633
670375075000.0,-0.831552852154532,-2.126641751188707,-10.684963047548292,0.031154128,-0.30573806,0.24923302,111.961174,168.35146,-4.8012295
670379875000.0,-0.7290966432816812,-2.307159704914031,-10.39710976798981,0.06078109,-0.33567044,0.31856623,112.01036,168.40729,-5.0699368
670384844000.0,-0.6602757260135791,-2.449899468612997,-10.1522250042677,0.07513642,-0.30634892,0.28680122,112.06003,168.46309,-5.28184
670389819000.0,-0.7665634403685743,-2.385202609495636,-10.15684630155189,0.12950343,-0.27763826,0.28130344,112.133865,168.5003,-5.4993978
670394822000.0,-0.8699457759868421,-2.314877963815789,-10.153431358552632,0.13805555,-0.24862215,0.29046643,112.177055,168.49763,-5.693199
670400098000.0,-0.9484328806286548,-2.1948388399122805,-10.07956109137427,0.13805555,-0.21166481,0.28588495,112.21616,168.48207,-5.869646
670404751000.0,-1.0176520803819444,-2.0889741614583333,-10.014413564236111,0.14446963,-0.17256944,0.2883284,112.266396,168.47899,-6.0586014
670409848000.0,-1.0310566977518436,-2.08767461317391,-9.690844436099376,0.13744467,-0.13652839,0.2593123,112.30746,168.47888,-6.229756
670414867000.0,-1.037939523004224,-2.097998869019833,-9.346704610868477,0.12583824,-0.129198,0.2843578,112.36413,168.48035,-6.3956175
670419828000.0,-1.0374469841257263,-2.123602628526149,-9.034019485472797,0.094989546,-0.11942416,0.29046643,112.412895,168.51353,-6.564044
670424827000.0,-0.9868664260855784,-2.2551119790808243,-8.907568288431062,0.09132435,-0.122783914,0.29535335,112.46723,168.54256,-6.72976
670429924000.0,-0.93663676463514,-2.3797108462131686,-8.809779898726811,0.06383542,-0.11728613,0.2947425,112.50776,168.56406,-6.9030833
670434851000.0,-0.89200933209749,-2.4723985595562024,-8.806346950090942,0.054367006,-0.102319926,0.2910773,112.54832,168.58138,-7.069609
670440136000.0,-0.8441392324503455,-2.57182104078574,-8.802664560494726,0.029626964,-0.101098195,0.28924468,112.57126,168.58043,-7.2312684
670444882000.0,-0.7862548837030482,-2.644815550108161,-8.833766848967553,0.029932396,-0.08979719,0.29810223,112.59692,168.57556,-7.382121
670449990000.0,-0.7092939184247788,-2.7073463099115047,-8.901108069026549,0.038789943,-0.061086524,0.29046643,112.61782,168.57466,-7.5226173
670454839000.0,-0.6410337696735562,-2.766213544465907,-8.97288725188333,0.029626964,-0.029321533,0.28344148,112.63157,168.55302,-7.649232
670459837000.0,-0.5763140140815144,-2.826310512091945,-9.056098111068186,0.035124753,-0.006414085,0.27672195,112.64373,168.52509,-7.766733
670464851000.0,-0.5231518820033736,-2.8849823453873102,-9.124278454781368,0.03023783,0.012217305,0.27122417,112.65514,168.49464,-7.8616953
670469924000.0,-0.4884811490528091,-2.9417162181782794,-9.168404734462175,0.023518313,0.039095376,0.26939157,112.66696,168.46388,-7.945584
670474892000.0,-0.4545280244128714,-2.997275823939276,-9.211617696704296,0.014966198,0.06291912,0.26450464,112.68241,168.42657,-8.011856
670479871000.0,-0.4240246524227884,-3.033867220105427,-9.242608255457188,-0.0012217305,0.07452556,0.24862215,112.694595,168.39383,-8.07183
670485700000.0,-0.397616434300196,-3.026321980036494,-9.246380934581332,-0.01740966,0.07971791,0.2452624,112.709526,168.36475,-8.126113
670489836000.0,-0.3788783333986619,-3.020968212164628,-9.249057860444683,-0.026572637,0.089491755,0.24678956,112.719666,168.32489,-8.167478
670494770000.0,-0.36391866,-3.0104133904761907,-9.243344217600963,-0.038179077,0.10842858,0.24251351,112.727745,168.29091,-8.203362
670499866000.0,-0.36391866,-2.9908018793650792,-9.2188297647177,-0.063224554,0.108123146,0.22693644,112.73218,168.26382,-8.2404785
670504748000.0,-0.3654089043901522,-2.970935693610224,-9.186918280586356,-0.07269296,0.118202426,0.22204952,112.73875,168.23972,-8.262428
670509834000.0,-0.3699858264724676,-2.9480511309904154,-9.136572042097349,-0.089491755,0.11453723,0.2171626,112.73985,168.22469,-8.286891
670514861000.0,-0.3694531161393258,-2.939396144337078,-9.078562774456929,-0.116980694,0.10415252,0.2144137,112.7479,168.2188,-8.313204
670520257000.0,-0.3500986463325842,-2.981975919707865,-8.985661439026217,-0.12675454,0.10170906,0.20433442,112.75247,168.21243,-8.337087
670524895000.0,-0.333462984552809,-3.0185743255955058,-8.905810365318352,-0.16615535,0.08674286,0.19028452,112.75856,168.2245,-8.369877
670529839000.0,-0.3015724724660862,-3.0598866786900185,-8.878806922352704,-0.18448131,0.06719518,0.18234327,112.762856,168.23318,-8.403805
670534841000.0,-0.2579271310487953,-3.1035320403624214,-8.898204737092529,-0.22143865,0.054061573,0.17440203,112.76246,168.25742,-8.438625
670539804000.0,-0.2080360450878126,-3.138938161202768,-8.925743449529891,-0.24404067,0.036651913,0.1591304,112.746124,168.26485,-8.476039
670544886000.0,-0.1519156462054284,-3.1691568583288987,-8.960279322334575,-0.27855456,0.02321288,0.15088372,112.72894,168.28572,-8.515286
670549772000.0,-0.0651442829204265,-3.259971778589008,-8.881981807219033,-0.29871312,0.011301007,0.14049901,112.70479,168.29834,-8.546935
670555480000.0,0.119835783831009,-3.5234282294913863,-8.506416244462674,-0.30695978,0.004581489,0.11209377,112.672775,168.31569,-8.5787525
670559748000.0,0.1753454186852665,-3.515180406994076,-8.547539126122683,-0.32498032,-0.07086037,0.0711658,112.630905,168.33754,-8.625005
670564820000.0,0.1010881072600802,-3.15781710533155,-9.141597489585324,-0.3472769,-0.15271631,0.035124753,112.5818,168.36125,-8.673064
670569824000.0,0.0629026045167887,-2.9097823998779,-9.56122255418193,-0.35918877,-0.041233405,0.076358154,112.51865,168.32639,-8.670575
670574911000.0,0.1186686471393467,-2.939524268986569,-9.538916074710013,-0.32589662,0.032986723,0.089186326,112.430626,168.28201,-8.696885
670579841000.0,0.1727135832764041,-2.968348215262515,-9.517298039758852,-0.3145956,0.038789943,0.08277224,112.416245,168.35384,-8.705442
670584836000.0,0.1862952674307178,-2.994109479499165,-9.525491634223709,-0.29168814,0.029626964,0.07788532,112.4095,168.41216,-8.6983795
670589842000.0,0.1782916804808013,-3.018120227813022,-9.549502466110184,-0.27672195,0.012217305,0.059864793,112.39713,168.4673,-8.691091
670594770000.0,0.1270077829490942,-3.099133511395608,-9.488421275376986,-0.2660318,-0.014049901,0.055283304,112.382805,168.50778,-8.677523
670599865000.0,-0.060641799254124,-3.360855271996761,-9.162503700738792,-0.24373524,-0.04642576,0.05589417,112.36365,168.5393,-8.670163
670604762000.0,-0.1206100089086542,-3.312336525882772,-9.503713951970116,-0.20799962,-0.33017266,0.025961773,112.31873,168.55586,-8.73929
670609836000.0,0.1473565870835186,-2.439284084132349,-11.65176881295028,-0.0067195175,-0.89675015,-0.07422013,112.23581,168.51558,-8.892798
670614884000.0,0.3982417130662918,-1.62185204565472,-13.67906333286484,0.41233405,-1.5604553,-0.30757064,112.03142,168.32658,-9.186218
670619864000.0,0.3088671575263527,-1.9123194211524948,-13.32528890794097,0.81122905,-0.6973027,-0.084910266,111.98533,168.10373,-9.225119
670624807000.0,0.2201566298086983,-2.200628705707816,-12.974142927539628,0.3203988,-0.09254608,0.029321533,112.012215,168.31886,-9.366478
670629868000.0,0.0628087558859512,-2.436883894826335,-12.425349420632452,-0.061391957,0.06383542,0.058948494,112.10019,168.39496,-9.399587
670634840000.0,-0.1642861816609642,-2.60473665592535,-11.67988604230171,-0.122478485,0.04062254,0.043982297,112.22892,168.51674,-9.321659
670639837000.0,-0.2887938931050861,-2.6840863833465267,-11.147989422917078,-0.09010262,0.016493361,0.022907447,112.30491,168.61676,-9.238187
670645086000.0,-0.3285870056679201,-2.689060467880467,-10.779902908371264,-0.059253927,0.008857546,0.007941248,112.376076,168.73012,-9.158716
670649825000.0,-0.3424154860350348,-2.679334930175174,-10.576216111602935,-0.027794369,0.007330383,-0.0036651916,112.387505,168.76439,-9.138773
670654841000.0,-0.3378913544848371,-2.656714272424185,-10.47216080250518,-0.0067195175,0.026572637,-0.0125227375,112.39602,168.79147,-9.114958
670659742000.0,-0.3280368578174331,-2.634259476938916,-10.36886846190803,0.016187929,0.04337143,-0.013744468,112.38843,168.79306,-9.109017
670664819000.0,-0.308967757323267,-2.610423113766056,-10.259220892636533,0.04428773,0.042455133,-0.01985312,112.377144,168.78651,-9.102105
670670107000.0,-0.2737373597008391,-2.586635803976651,-10.137648774899672,0.065973446,0.028405234,-0.02687807,112.36512,168.77448,-9.094128
670674883000.0,-0.2203392333294418,-2.566611452572054,-10.017503014958043,0.09773844,0.014660766,-0.043676864,112.34867,168.75122,-9.085784
670679801000.0,-0.1653534742225465,-2.545991737285662,-9.893785082086833,0.11881329,0.01740966,-0.04886922,112.3385,168.72694,-9.08093
