timestamp,acc_x,acc_y,acc_z,gyro_x,gyro_y,gyro_z,ori_azimuth,ori_pitch,ori_roll
455199766000.0,2.3093414555205043,9.54953704001118,-1.235149527833726,5.1013355,6.177069,8.498968,341.6235,-7.819316,-16.810596
455204830000.0,2.308373185173501,9.55195772219782,-1.2283716141724237,5.1013355,0.75319684,0.03634648,344.32574,-7.168838,-15.580678
455210246000.0,2.307337610094637,9.554546666653357,-1.2211225659122311,-1.1939361,0.75655663,0.0421497,341.4285,-8.057701,-16.923151
455214864000.0,2.306454617902208,9.556754152897016,-1.214941601202931,-1.181108,0.7467828,0.03940081,341.21994,-10.010944,-17.00547
455219837000.0,2.305503747358044,9.559131335463004,-1.208285486543046,-1.1847731,0.7528914,0.032986723,341.00705,-10.246777,-17.0891
455224805000.0,2.3045538328470028,9.561506127939944,-1.2016360641359862,-1.1777482,0.73975784,0.035124753,340.7881,-10.500594,-17.159542
455229852000.0,2.303588813012618,9.563918683823823,-1.1948809041342892,-1.1670581,0.72387534,0.028099801,340.56775,-10.763871,-17.227114
455234795000.0,2.3026436786671924,9.56628152585553,-1.188264942991355,-1.1499538,0.73456544,0.03145956,340.33728,-11.042441,-17.293074
455239775000.0,2.301691469676656,9.56866205454618,-1.1815994591775147,-1.1511755,0.77182823,0.03634648,340.1023,-11.32871,-17.35768
455244864000.0,2.300718419164037,9.571094687178054,-1.1747880842520866,-1.1643091,0.7476991,0.054367006,339.86032,-11.627785,-17.402376
455249866000.0,2.29976200362776,9.573485732260512,-1.1680931545258155,-1.1798862,0.8063421,0.05955936,339.60757,-11.934904,-17.476343
455254716000.0,2.2988346514984226,9.575804118635949,-1.1616016692854292,-1.2538009,0.77732605,0.05681047,339.3542,-12.232783,-17.513731
455259801000.0,2.2978623658123025,9.578234839196584,-1.154795648162261,-1.2437216,0.7623598,0.06414085,339.08633,-12.559842,-17.5656
455264955000.0,2.296876886869085,9.580698542986063,-1.147897273950106,-1.2461652,0.7498371,0.06352998,338.81876,-12.871271,-17.606121
455270060000.0,2.295900777050473,9.583138823902887,-1.1410644838156372,-1.2431108,0.7431176,0.07788532,338.5354,-13.20469,-17.622904
455274857000.0,2.29498355887224,9.585431875334423,-1.1346439364551972,-1.2455542,0.72418076,0.076358154,338.25476,-13.542869,-17.629269
455279844000.0,2.294030011435331,9.587815750149742,-1.1279690834874017,-1.2464706,0.7199047,0.094989546,337.95978,-13.893446,-17.630684
455284783000.0,2.293085641916404,9.590176680110211,-1.1213584761467277,-1.2507466,0.6762278,0.102319926,337.66968,-14.249075,-17.61223
455289809000.0,2.2921246374211357,9.592579197620092,-1.1146314236068962,-1.1994339,0.60903263,0.101098195,337.37582,-14.627968,-17.580776
455294875000.0,2.291155984660883,9.595000835842352,-1.1078508330444636,-1.0955868,0.54183745,0.10048734,337.08063,-15.027884,-17.53221
455299851000.0,2.290204540496845,9.597379452461766,-1.1011907030328836,-0.9633345,0.47036624,0.09254608,336.79184,-15.455562,-17.460289
455304790000.0,2.2892601709779177,9.599740382422237,-1.0945800956922094,-0.8185594,0.39828414,0.084910266,336.50745,-15.921342,-17.365469
455309790000.0,2.2883041378548894,9.602130471469074,-1.0878878428670686,-0.6942484,0.32895094,0.07452556,336.23123,-16.422672,-17.248428
455315889000.0,2.2871379686514195,9.605045902088408,-1.079724632870962,-0.5739079,0.08307768,0.03970624,335.9866,-16.965158,-17.062113
455319869000.0,2.2863769662854887,9.606948412969691,-1.07439759962215,-0.14172074,-0.054061573,0.0021380284,335.74313,-17.630766,-16.88395
455324778000.0,2.2854383329652994,9.60929500239588,-1.0678271457984267,0.07849618,-0.043676864,0.005192355,335.50906,-18.276787,-16.67498
455329846000.0,2.284469297791798,9.611717596653756,-1.061043878334864,0.035430185,-0.03970624,0.017104227,335.2999,-18.97058,-16.426128
455334783000.0,2.2835253106861195,9.614077570578605,-1.05443594789532,-0.0061086523,-0.044593163,0.01160644,335.09793,-19.727419,-16.175495
455339861000.0,2.282554363446372,9.616504945014576,-1.0476392959261072,-0.013744468,-0.041233405,0.0070249503,334.89456,-20.486221,-15.923475
455344868000.0,2.281596991876972,9.61889838018608,-1.0409376739470113,-0.017715093,-0.035124753,0.0125227375,334.69373,-21.238071,-15.667135
455349847000.0,2.28064497409306,9.621278430858924,-1.034273528583736,-0.018325957,-0.032986723,0.0018325958,334.50232,-21.989685,-15.409786
455354786000.0,2.279700604574132,9.623639360819393,-1.027662921243062,-0.013744468,-0.020463986,0.0076358155,334.30676,-22.745747,-15.151391
455359793000.0,2.2787432330047315,9.626032795990897,-1.020961299263966,-0.02107485,-0.008552114,0.0012217305,334.12103,-23.49844,-14.893153
455364786000.0,2.277788538328076,9.62841953891307,-1.0142784155927804,-0.015271631,0.007330383,-0.004581489,333.93536,-24.2581,-14.635767
455369798000.0,2.276830210725552,9.63081536417362,-1.0075701013608591,-0.015882496,0.020463986,-0.00580322,333.75287,-25.015074,-14.378357
455374796000.0,2.275874560015773,9.633204497184842,-1.0008805254368487,-0.01740966,0.036957346,-0.0125227375,333.5747,-25.773378,-14.124799
455379787000.0,2.2749202477523656,9.635590284071398,-0.9942003186667931,-0.016187929,0.047647487,-0.0125227375,333.39792,-26.533243,-13.870007
455385918000.0,2.2737479599369084,9.638521011260632,-0.9859942782526055,-0.009468411,0.0571159,-0.007941248,333.22342,-27.294233,-13.617032
455389866000.0,2.2729930761829653,9.640408225572015,-0.9807100754218744,0.0125227375,0.059864793,-0.006414085,333.053,-28.05943,-13.363259
455394844000.0,2.272041249605678,9.64278779822705,-0.9740472685091645,0.004276057,0.06169739,-0.0036651916,332.88373,-28.81808,-13.108743
455399849000.0,2.2710842604495265,9.645180277362936,-0.9673483234311984,0.012217305,0.052839845,0.0030543262,332.71814,-29.586866,-12.84948
455404844000.0,2.270129183359621,9.647567976320728,-0.9606627628588827,0.01038471,0.036957346,0.004581489,332.55804,-30.349337,-12.587502
455409802000.0,2.2691811809148263,9.649937988619577,-0.9540267249574732,0.021685716,0.0290161,0.0036651916,332.40118,-31.116484,-12.323066
455415136000.0,2.26816128477918,9.652487735614743,-0.946887429643613,0.0067195175,0.014966198,0.01282817,332.24918,-31.874863,-12.050111
455419863000.0,2.2672574510646686,9.654747325799624,-0.940560573822725,0.013439035,0.0009162979,0.02443461,332.1025,-32.640373,-11.773766
455424786000.0,2.266316140851735,9.657100607475144,-0.9339713816910914,0.018325957,-0.004276057,0.01740966,331.9635,-33.398167,-11.496713
455429845000.0,2.265348826537855,9.659518899572737,-0.927200160282614,0.026572637,-0.027488936,0.021380283,331.82898,-34.1576,-11.207722
455434790000.0,2.26440330977918,9.66188269764006,-0.9205815222385496,0.014966198,-0.033292156,0.032070424,331.6973,-34.90983,-10.921053
455439909000.0,2.2634245230678234,9.664329670806213,-0.9137299937961706,0.01863139,-0.06414085,0.03634648,331.57928,-35.66513,-10.623238
455444866000.0,2.262476711829653,9.66669920508725,-0.907095294345326,0.026267206,-0.08246681,0.034208454,331.4641,-36.415035,-10.326237
455449843000.0,2.2615250764589905,9.669078299724474,-0.900433825883181,0.022602014,-0.09407325,0.03145956,331.35736,-37.1592,-10.02329
455455678000.0,2.260409385804416,9.671867533642136,-0.8926239668362417,0.022602014,-0.09682214,0.023518313,331.25906,-37.90195,-9.7199335
455459796000.0,2.241531424638881,9.693494298739534,-0.8813455577569234,0.013439035,-0.09407325,0.029932396,331.16434,-38.637478,-9.413748
455465000000.0,2.2048489940932927,9.73476193734474,-0.8630043137565553,0.01282817,-0.095294975,0.032986723,331.07846,-39.370125,-9.108885
455469851000.0,2.1784784537892614,9.763799651330324,-0.8657585986552685,0.0061086523,-0.07574729,0.016187929,330.99817,-40.092022,-8.802756
455474855000.0,2.1646693171453277,9.77760907636154,-0.9025829870713667,0.01282817,-0.0571159,0.009773844,330.92032,-40.813023,-8.495025
455484784000.0,2.148682204897632,9.793595885588116,-0.965546652458852,-0.0125227375,-0.018020526,-0.011301007,330.84323,-41.528126,-8.209111
455489818000.0,2.147560528098672,9.792361568400937,-0.9981897527924954,-0.016187929,0.0027488936,-0.004581489,330.76614,-42.24657,-7.920259
455494863000.0,2.1559536412750804,9.775575429688178,-1.0401553624945712,-0.018936822,0.014966198,-0.013744468,330.69226,-42.966106,-7.6474814
455500183000.0,2.166672895288194,9.754522770722176,-1.083915073480123,-0.014049901,0.04184427,-0.02107485,330.61264,-43.69391,-7.378001
455504802000.0,2.2065633943037497,9.681390397459984,-1.1138329824528443,-0.016798794,0.061391957,-0.024740042,330.53757,-44.41222,-7.111275
455509790000.0,2.2496406424287967,9.602415667468248,-1.1461409560306606,-0.014966198,0.07360926,-0.035430185,330.4679,-45.13789,-6.8421106
455514866000.0,2.287418250387677,9.539938749612322,-1.1830193506978186,-0.009468411,0.08032878,-0.021685716,330.39554,-45.85817,-6.5722427
455519869000.0,2.3121844710017574,9.515172528998242,-1.2275985478031637,-0.011911872,0.07696902,-0.025350908,330.3326,-46.568573,-6.3093977
455525328000.0,2.340644565453844,9.500193,-1.262050901292106,-0.0070249503,0.06383542,-0.016493361,330.28162,-47.278576,-6.008363
455529853000.0,2.365716311725379,9.500193,-1.275979645988686,-0.008857546,0.0571159,-0.0125227375,330.23624,-47.978775,-5.7113223
455534791000.0,2.3930763742864487,9.500193,-1.291179677217794,-0.027488936,0.04550946,-0.0070249503,330.2074,-48.68754,-5.382505
455539837000.0,2.419618910043256,9.505412600786473,-1.295138347998427,-0.021380283,0.022907447,-0.0009162979,330.18674,-49.395237,-5.0518503
455544867000.0,2.4423501189303973,9.524355307825402,-1.2686185185843493,-0.018325957,0.010995574,0.0012217305,330.1711,-50.088985,-4.7233763
455549755000.0,2.4644396117813607,9.542763250570191,-1.2428473602988594,-0.015271631,-0.0125227375,0.005192355,330.1906,-50.806614,-4.3337216
455554784000.0,2.456474683443709,9.55668173013245,-1.2009886703145696,-0.026572637,-0.033292156,0.007330383,330.21814,-51.5113,-3.9469607
455559815000.0,2.43653226589404,9.568647014072848,-1.1531268265480132,-0.021380283,-0.06078109,0.020158553,330.25586,-52.212093,-3.5563645
455564890000.0,2.41987200728863,9.582927185422742,-1.1082459652478134,-0.02076942,-0.089491755,0.016493361,330.35303,-52.947292,-3.0766208
455569872000.0,2.4105986606414,9.6014738787172,-1.071152384995141,-0.015577064,-0.096516706,0.021685716,330.45474,-53.672424,-2.5998456
455574718000.0,2.390965479172669,9.617443700349869,-1.040377510290183,-0.011301007,-0.10262536,0.018020526,330.65244,-54.486217,-1.9762418
455579847000.0,2.33536607416135,9.627552865404404,-1.0252140266001235,-0.014660766,-0.112704635,0.016493361,330.85938,-55.279026,-1.3669007
455584789000.0,2.2880987116409863,9.634268,-1.0160027331126602,-0.01160644,-0.10751228,0.013744468,331.20575,-56.241734,-0.52365565
455589755000.0,2.254663819790263,9.634268,-1.0187889765246938,-0.009468411,-0.09132435,0.022602014,331.55762,-57.16846,0.284248
455595091000.0,2.2187378063155427,9.634268,-1.0217828135860332,-0.021380283,-0.06811147,0.01282817,331.9258,-58.136314,1.0912373
455600717000.0,2.181795581865049,9.632551575890826,-1.0330143299469294,-0.021380283,-0.03848451,0.010079277,332.29297,-59.070168,1.8608569
455604812000.0,2.163956159878696,9.61471209181198,-1.119238296019712,-0.026572637,-0.018020526,0.00061086525,332.66486,-59.9625,2.588523
455609830000.0,2.1420957888097045,9.592851644655042,-1.224896870318423,-0.035124753,0.018936822,-0.008857546,333.08035,-60.94632,3.3734317
455614778000.0,2.124774360623946,9.57297653520236,-1.307553157504216,-0.034513887,0.050701816,-0.005497787,333.49603,-61.88496,4.1148996
455619796000.0,2.1197093962057334,9.557781853499156,-1.327813015177066,-0.03970624,0.07788532,-0.0125227375,333.9095,-62.775707,4.8075113
455624756000.0,2.1113564694275277,9.551488846833127,-1.234982345767357,-0.028710667,0.0983493,-0.01863139,334.45123,-63.856045,5.663097
455629807000.0,2.096626744457978,9.56130835586683,-0.9305677733861144,-0.03726278,0.106901415,-0.019242255,334.98907,-64.86018,6.4575458
455634790000.0,2.1095126767286514,9.570579097129446,-0.912767868252392,-0.03634648,0.10995574,-0.018325957,335.45465,-65.782875,7.130883
455639861000.0,2.166502330673407,9.579346919299514,-1.3467663225672504,-0.021685716,0.09560041,-0.016798794,335.92297,-66.64866,7.764081
455644764000.0,2.2345120331782464,9.590508004549214,-1.6637523482009924,-0.025350908,0.07147124,-0.020463986,336.33337,-67.35717,8.289389
455649802000.0,2.3691992023883373,9.615450063275436,-1.4741925977047146,-0.02565634,0.043676864,-0.009773844,336.74612,-68.02607,8.79164
455654687000.0,2.469803393805482,9.630217196371088,-1.2643375382889477,-0.020158553,0.019242255,-0.005192355,337.28015,-68.80464,9.390881
455659683000.0,2.4651359766949565,9.6115476254024,-0.9562877653107014,-0.021380283,-0.010079277,0.004276057,337.8173,-69.51613,9.956892
455664675000.0,2.462834146622718,9.591973904259635,-0.7676849883671399,-0.008857546,-0.02687807,0.009468411,338.313,-70.101875,10.464797
455669683000.0,2.4725625167647056,9.567653105882354,-1.1860029744117648,0.0012217305,-0.05955936,0.004886922,338.8152,-70.63668,10.944188
455674677000.0,2.483943504071222,9.551627494802696,-1.4659039550510105,-0.0018325958,-0.0870483,0.019242255,339.26324,-71.04639,11.356897
455679673000.0,2.502363356968239,9.570047299615014,-1.1711853758556303,0.005192355,-0.09987647,0.021991149,339.71207,-71.42813,11.743022
455684704000.0,2.5074199998822144,9.585819983510012,-0.8838524232508834,0.0027488936,-0.11484267,0.016493361,340.24658,-71.85327,12.176826
455689758000.0,2.412403956556733,9.581069084609345,-0.6653154690341578,0.008552114,-0.106595986,0.01863139,340.76892,-72.23097,12.583757
455694678000.0,2.3242748676826883,9.575723590465026,-0.4826257660179757,-0.007941248,-0.083383106,0.02107485,341.20972,-72.505806,12.914594
455699676000.0,2.2868658435326297,9.56169540171942,-0.6556426198983978,-0.012217305,-0.0693332,0.0125227375,341.64493,-72.75429,13.2236395
455704927000.0,2.2487919444342226,9.549483117111317,-0.8387212103459061,-0.017715093,-0.025961773,0.008857546,342.02615,-72.95028,13.47874
455710362000.0,2.2248499444342227,9.568636617111316,-1.0446225803459062,-0.018020526,0.016798794,0.010995574,342.39868,-73.124725,13.718409
455714717000.0,2.205665508371665,9.583984085832569,-1.2096088667028515,-0.014660766,0.058643065,0.008246681,342.7896,-73.3007,13.954231
455719748000.0,2.189937497341888,9.599111925450655,-1.2778351531622365,-0.004886922,0.093767814,-0.009468411,343.16516,-73.45668,14.170989
455724703000.0,2.175439164314085,9.61361005662491,-1.326162980384968,-0.0021380284,0.10873401,-0.0061086523,343.52826,-73.584885,14.379226
455729723000.0,2.1776282304492938,9.615114,-1.3717995349422336,0.010079277,0.115453534,-0.009162978,343.92465,-73.71725,14.585739
455734699000.0,2.181706463808301,9.615114,-1.4166601018913136,0.01038471,0.124311075,-0.009468411,344.30923,-73.82139,14.779858
455739758000.0,2.2058441827311697,9.609531129210044,-1.4476870913655848,0.012217305,0.12003502,-0.008552114,344.7029,-73.908,14.96466
455744768000.0,2.2450193352112677,9.599737647887324,-1.4672746676056336,0.02687807,0.10140363,-0.0061086523,345.0913,-73.972046,15.137247
455749754000.0,2.2988751916269208,9.595961,-1.4438292098569157,0.029626964,0.083383106,-0.01282817,345.49365,-74.01384,15.303913
455754733000.0,2.3620481561031617,9.595961,-1.3932909086380498,0.02565634,0.06414085,-0.0012217305,345.89374,-74.02959,15.464591
455760585000.0,2.4304960406988134,9.601304326330686,-1.3438761188418418,0.02321288,0.03573562,0.010079277,346.28778,-74.02461,15.61587
455764830000.0,2.4747471276151085,9.610154275715686,-1.3173254389681073,0.010079277,-0.012217305,0.002443461,346.68588,-74.00363,15.754436
455769812000.0,2.509379222768958,9.610197792624,-1.245907592742333,0.0290161,-0.0421497,0.013439035,347.06378,-73.95175,15.89628
455774797000.0,2.528209850123262,9.600782773888175,-1.1376313871413075,0.017104227,-0.07422013,0.018020526,347.44937,-73.88966,16.024687
455780799000.0,2.4890431845705843,9.627544054242003,-1.0132701347531292,0.020158553,-0.09590584,0.01985312,347.82663,-73.80986,16.150764
455784805000.0,2.4323499619523643,9.664227648122392,-0.9332325251912378,0.008857546,-0.115453534,0.022296581,348.20538,-73.71901,16.26929
455789774000.0,2.366412403544883,9.703463990443518,-0.8516161515478232,0.0009162979,-0.1255328,0.01985312,348.55518,-73.62597,16.373264
455794867000.0,2.3186057607775874,9.71541587993139,-0.8476322715837622,-0.018936822,-0.11575896,0.021380283,348.8986,-106.4741,16.471668
455799717000.0,2.273080094682676,9.726797514334722,-0.8438384726782652,-0.020463986,-0.10262536,0.01863139,349.22617,-106.556335,16.542217
455804853000.0,2.2177660421414984,9.743069888214512,-0.8525344671981158,-0.013133603,-0.07788532,0.017715093,349.54227,-106.642334,16.60791
455809785000.0,2.162142696838482,9.760184674336443,-0.8653706238065042,-0.03359759,-0.044898596,0.014660766,349.84692,-106.728615,16.666813
455814936000.0,2.122393847399072,9.763049228407857,-0.8900172274602705,-0.03359759,-0.014966198,0.009468411,350.14725,-106.80823,16.71149
455819775000.0,2.0995223958148257,9.753900456717007,-0.9220372835603592,-0.043676864,0.004581489,0.005192355,350.43625,-106.887886,16.751045
455824794000.0,2.090089244074038,9.744498658784766,-0.969015259695707,-0.037873644,0.025350908,-0.0009162979,350.71814,-106.95815,16.774778
455829804000.0,2.0947388969473786,9.735199644345382,-1.029460819875957,-0.03176499,0.036651913,-0.0061086523,350.99292,-107.0283,16.793716
455834822000.0,2.121718180979827,9.724295469740634,-1.075941860518732,-0.03848451,0.06383542,-0.008552114,351.25336,-107.09595,16.805056
455839789000.0,2.175913973165337,9.711543585215468,-1.1046337504992962,-0.039095376,0.08674286,-0.009468411,351.50793,-107.16418,16.812134
455844810000.0,2.230698968648214,9.698653065344146,-1.1336375716372895,-0.0421497,0.10293079,-0.012217305,351.75967,-107.23737,16.817741
455850483000.0,2.2601264,9.691729,-1.1492168,-0.030543262,0.11056661,-0.0076358155,352.00348,-107.314026,16.822409
455854854000.0,2.2601264,9.691729,-1.1492168,-0.043066,0.10781772,-0.01160644,352.24167,-107.38623,16.82114
455859828000.0,2.3386933956289875,9.701866620512332,-1.1264070347585944,-0.03634648,0.09040806,0.004276057,352.48657,-107.48627,16.839989
455864812000.0,2.479599443205409,9.720047944957622,-1.0854988411770308,-0.038789943,0.070554934,0.0030543262,352.72833,-107.57868,16.84975
455869779000.0,2.571717602835204,9.730036,-1.0336050491878324,-0.03940081,0.04062254,0.013133603,352.97482,-107.678825,16.863655
455874806000.0,2.6048933284307934,9.730036,-0.9672537217168734,-0.04520403,0.016187929,0.020463986,353.22125,-107.77642,16.873146
455879756000.0,2.625967425904146,9.737725183181418,-0.9154940991424092,-0.046120327,-0.022602014,0.030848695,353.4527,-107.89124,16.902712
455884805000.0,2.6307065975301382,9.756681572772711,-0.8823202194158581,-0.062002823,-0.05009095,0.021685716,353.68347,-107.9991,16.925524
455889757000.0,2.633622,9.76505630321621,-0.8520527086967838,-0.070554934,-0.07513642,0.025350908,353.90793,-108.10925,16.954912
455894802000.0,2.633622,9.756073970998326,-0.8251062560290017,-0.083383106,-0.09040806,0.015271631,354.13293,-108.20916,16.97458
455899723000.0,2.6222199020332715,9.756444910043127,-0.8137807423577736,-0.09865474,-0.10262536,0.0021380284,354.3528,-108.30025,16.989769
455904850000.0,2.566756376155268,9.791740024645716,-0.8591599572992401,-0.11942416,-0.1001819,-0.0021380284,354.56912,-108.38689,17.002296
455909790000.0,2.5198836351288554,9.817159614490915,-0.9055645938698776,-0.13255776,-0.081855945,-0.021991149,354.77377,-108.46068,17.004633
455914803000.0,2.489459963329109,9.820540089142376,-0.9596511081791296,-0.14966199,-0.052534413,-0.03145956,354.97122,-108.53133,17.00731
455920144000.0,2.457045674264188,9.824141747852416,-1.0172764967539782,-0.16829337,-0.0030543262,-0.04795292,355.16324,-108.585785,16.99208
455924802000.0,2.430986514639044,9.814704791459675,-1.0882688573406616,-0.20005837,0.019547688,-0.06047566,355.35114,-108.6336,16.974003
455929845000.0,2.4054629433780783,9.789181166895675,-1.1903634088996933,-0.2125811,0.0720821,-0.07880162,355.51172,-108.67411,16.951582
455934827000.0,2.3988588663374197,9.77093425460799,-1.2912929203633476,-0.21135938,0.12614368,-0.082161374,355.67975,-108.7132,16.923574
455939811000.0,2.407277734174089,9.758305689126026,-1.39231937835788,-0.23579398,0.16371189,-0.086437434,355.83356,-108.74144,16.890877
455944745000.0,2.425605539319149,9.74374451574468,-1.4843072085957447,-0.23273966,0.21013765,-0.09132435,355.98,-108.78094,16.85723
455949893000.0,2.472808920468085,9.722765320425532,-1.5577348303404257,-0.25961772,0.23701571,-0.09162979,356.1185,-108.81258,16.823946
455954793000.0,2.5263630190816717,9.698367753857736,-1.6154166077154686,-0.26236662,0.25870144,-0.08582657,356.2634,-108.865364,16.79688
455959813000.0,2.5942153002258186,9.666703683477609,-1.6561279669552127,-0.2602286,0.267559,-0.08093964,356.40094,-108.91356,16.769552
455964732000.0,2.673268459334692,9.637831055668704,-1.6783012542430416,-0.26328292,0.25289822,-0.0729984,356.54288,-108.9783,16.753298
455969775000.0,2.7903663715546503,9.614411502570071,-1.65019774161575,-0.26206118,0.23273966,-0.06688975,356.6805,-109.04272,16.737347
455974736000.0,2.8959926797173146,9.595961,-1.5966289386996466,-0.25534168,0.19394971,-0.059253927,356.82376,-109.12613,16.736128
455979846000.0,2.965162217526502,9.595961,-1.4340804526219082,-0.25320363,0.13897185,-0.042760566,356.97467,-109.21038,16.736378
455984814000.0,3.032409627279152,9.595961,-1.276048969484099,-0.2434298,0.07269296,-0.033292156,357.12256,-109.309006,16.754993
455989805000.0,3.0798087436034365,9.603028161055647,-1.1426114578244717,-0.24862215,-0.0067195175,-0.024740042,357.28732,-109.40675,16.77316
455994823000.0,3.094685767935918,9.621624392926243,-1.049630201381472,-0.24678956,-0.08002335,-0.015882496,357.4661,-109.50623,16.789474
455999734000.0,3.1092455659623868,9.639824092949462,-0.9586316062456466,-0.25625798,-0.15271631,-0.008552114,357.61874,-109.58611,16.816587
456004843000.0,3.1092080318696165,9.663370336936328,-0.8604245638996791,-0.2574797,-0.21868975,-0.0061086523,357.78793,-109.665886,16.839823
456009776000.0,3.105218642036818,9.6873063426786,-0.7646791454272928,-0.26816985,-0.2724459,-0.0036651916,357.97186,-109.7421,16.860329
456015128000.0,3.0717071377829663,9.73727997553548,-0.6607170258836667,-0.30726522,-0.32345316,-0.010995574,358.1581,-109.79772,16.876123
456019801000.0,3.0126489753832097,9.8054238996041,-0.5698583845599432,-0.32406402,-0.3640757,-0.005497787,358.35455,-109.85645,16.892302
456024736000.0,2.9318274467408583,9.85765505882353,-0.5192638890302066,-0.3494149,-0.37415496,-0.0076358155,358.5405,-109.88568,16.899237
456029790000.0,2.8260219266096978,9.886511169117648,-0.5240732541375198,-0.35521814,-0.3735441,-0.009773844,358.73254,-109.91498,16.904749
456034844000.0,2.696102493114562,9.896054077058308,-0.5935459812921183,-0.39828414,-0.3387248,-0.013744468,358.91135,-109.90796,16.894478
456039788000.0,2.540034044242602,9.882181398476414,-0.739209957442133,-0.42821655,-0.2910773,-0.01740966,359.08365,-109.90063,16.883465
456044808000.0,2.381566484910636,9.8680954667448,-0.8871131047465572,-0.4636467,-0.20158553,-0.03176499,359.24036,-109.86279,16.851309
456049799000.0,2.2821266912865554,9.850457511927338,-0.976737761213694,-0.49693888,-0.113926366,-0.04642576,359.38147,-109.81971,16.820019
456054820000.0,2.2053363121069967,9.831260042419403,-1.0439293304671124,-0.5369505,-0.030848695,-0.06719518,359.49503,-109.76559,16.787197
456059804000.0,2.16419365731569,9.819364417958411,-1.08234394268431,-0.5821546,0.045814894,-0.09040806,359.6202,-109.69168,16.715557
456064809000.0,2.1370111144045367,9.810303381096409,-1.1095264855954632,-0.6169739,0.12186762,-0.1151481,359.71872,-109.60867,16.64251
456069764000.0,2.123132849553849,9.80081348194646,-1.1234047504461506,-0.6569856,0.19333886,-0.13561209,359.80905,-109.51242,16.555956
456074793000.0,2.118135783025524,9.790819661963065,-1.128401816974476,-0.698219,0.23640485,-0.15241088,359.8837,-109.407104,16.46703
456079789000.0,2.172895300037313,9.757801773134329,-1.1478803671268656,-0.72418076,0.27091873,-0.16218472,359.94812,-109.297745,16.374575
456084793000.0,2.257832178432836,9.71309812835821,-1.174702600671642,-0.743423,0.29840767,-0.1704314,0.0010619938,-109.18151,16.281048
456090155000.0,2.343784581035453,9.670387173888576,-1.2142011458638156,-0.7501425,0.3222314,-0.16982053,0.043412168,-109.06494,16.189617
456094775000.0,2.414330707090602,9.63718877771525,-1.255698772763084,-0.7476991,0.34391713,-0.16737708,0.07826368,-108.94763,16.099148
456099795000.0,2.5062870198530183,9.566149153805776,-1.3107123752230971,-0.73761976,0.36957347,-0.16157386,0.105378315,-108.852165,16.03218
456105779000.0,2.6446676952125987,9.415735581102362,-1.394944164409449,-0.7498371,0.40683624,-0.15241088,0.12312311,-108.7571,15.969559
456109748000.0,2.7311747294952253,9.290843247476126,-1.4835924654570258,-0.75655663,0.44868052,-0.13836098,0.12836222,-108.68848,15.928775
456114810000.0,2.836992536189177,9.110071147612553,-1.6246828590359257,-0.7620544,0.5149594,-0.111177474,0.116725735,-108.62518,15.898028
456119789000.0,2.9366991840795533,8.905661144802586,-1.770522331419614,-0.7733554,0.5534439,-0.1001819,0.09495649,-108.592354,15.893561
456124798000.0,3.025994239884393,8.633076242774568,-1.9350131410404623,-0.7892379,0.64751714,-0.082161374,0.039254017,-108.56729,15.904794
456129747000.0,3.129984981800948,8.366068466350711,-2.090957259936809,-0.8060367,0.75319684,-0.053450707,359.96335,-108.59601,15.953868
456134864000.0,3.2899786169036336,8.097691921011059,-2.2303065619799893,-0.83199847,0.8790351,-0.028710667,359.85464,-108.624245,16.012081
456139761000.0,3.435679896302033,7.893517515121007,-2.2987635590513067,-0.8414669,1.0009027,-0.006414085,359.7305,-108.72054,16.11359
456144888000.0,3.573521946621491,7.784194588422071,-2.2417255599709582,-0.8399397,1.106277,0.02107485,359.57532,-108.82,16.228048
456149765000.0,3.690182991469764,7.730285801521826,-2.082167359191029,-0.84940815,1.1545353,0.06505715,359.40982,-108.99587,16.396442
456154811000.0,3.7724334987585104,7.807697948578294,-1.637047210492591,-0.8072584,1.1316279,0.098043874,359.23404,-109.17894,16.570032
456159818000.0,3.821307540961832,7.925326713480916,-1.1950166705282443,-0.7583892,1.0296134,0.14966199,359.0487,-109.392494,16.788794
456164788000.0,3.788607444931298,8.143327075465649,-0.7553827323908396,-0.6728681,0.8350528,0.20586158,358.89853,-109.62204,17.010408
456169743000.0,3.756006041343512,8.360669488671757,-0.3170756572458015,-0.5717699,0.59956425,0.26633725,358.72568,-109.800354,17.246473
456175560000.0,3.4107001709014835,8.908239892925067,-0.0218547213141878,-0.49754974,0.3680463,0.33536503,358.6131,-110.00218,17.488482
456179813000.0,3.0621157816660327,9.400131131228605,0.1253253909889691,-0.43554693,0.18234327,0.39400807,358.55838,-110.22652,17.731958
456184845000.0,2.7364205041082266,9.794204740972845,0.0630365934487217,-0.40469822,0.05955936,0.42088616,358.5063,-110.37239,17.950968
456189843000.0,2.4793128044364865,10.04178994061474,-0.1797873263483537,-0.40317106,0.007941248,0.4279111,358.48914,-110.53193,18.171818
456194805000.0,2.2534317532272774,10.18075874354038,-0.4206846827946093,-0.464563,0.0012217305,0.40561453,358.53696,-110.56253,18.272821
456199807000.0,2.049567688783058,10.234151761070017,-0.6633799083088459,-0.5702427,0.032375857,0.38148534,358.58795,-110.589226,18.372156
456204790000.0,1.844758015659031,10.223274303886594,-0.8743286428839654,-0.6957755,0.105068825,0.33475417,358.673,-110.557205,18.394812
456209808000.0,1.63722932643635,10.164624662316935,-1.063811375516335,-0.8368854,0.20677789,0.26389378,358.73645,-110.498505,18.40527
456214792000.0,1.4174433806821258,10.10355133835604,-1.2028221139583146,-0.94959,0.33750305,0.18570304,358.81256,-110.40104,18.36399
456219791000.0,1.1798637744653977,10.03875693720112,-1.2805754404493368,-1.0421361,0.40042216,0.09254608,358.87363,-110.26912,18.300035
456224751000.0,0.9058179871181996,9.992033243063142,-1.2151999476949968,-1.0873401,0.5729916,0.059864793,358.90283,-110.11904,18.205591
456229786000.0,0.4896809464583789,10.00783623465152,-0.6357685834826307,-1.0793989,0.7696902,-0.0015271631,358.90073,-109.93663,18.0822
456234776000.0,0.1725202604035186,10.023898810946664,-0.1390749671362748,-1.0461067,0.8436049,-0.05589417,358.92163,-109.72547,17.913347
456239804000.0,0.0010764297556548,10.040707017592853,0.2407907733524155,-0.9737192,0.8228355,-0.08979719,358.9132,-109.51464,17.740923
456245244000.0,-0.1844157020511031,10.05889250767942,0.6517831417411337,-0.8979719,0.8023715,-0.09193522,358.86987,-109.19623,17.504187
456249798000.0,-0.3246580682998771,10.075659950430152,0.9253251213519048,-0.8344419,0.82558435,-0.06719518,358.82367,-108.89094,17.270624
456254791000.0,-0.4666790697326915,10.09524893557968,1.1701888828932816,-0.7852673,0.91904676,-0.052839845,358.76614,-108.59672,17.039541
456259873000.0,-0.506220408303307,10.142260574425494,1.187142933962687,-0.79290307,1.0680978,-0.040011674,358.66968,-108.23455,16.779577
456264837000.0,-0.4719619718232044,10.20697064088398,1.0424962745856354,-0.8414669,1.2791518,-0.038179077,358.5319,-107.882744,16.529528
456269799000.0,-0.4152330668479668,10.280504058016058,0.8963033092204092,-0.89919364,1.5271631,-0.020158553,358.33524,-107.50656,16.271791
456274798000.0,-0.1052456508503841,10.45409749434516,0.7309766902322369,-0.9615019,1.7623463,-0.00030543262,358.08606,-107.1365,16.024584
456279755000.0,0.2021373499697832,10.626232454113788,0.5670390926478459,-1.0363328,1.9404135,0.017104227,357.7978,-106.78796,15.793835
456284876000.0,0.5022089755706849,10.596729008329996,0.6434548192967561,-1.1093313,2.000889,0.044593163,357.48364,-106.4541,15.5784025
456289804000.0,0.7857162037645173,10.506006837404886,0.790878577957549,-1.180497,1.9370537,0.055588737,357.16214,-106.12715,15.368084
456294718000.0,1.0854706778858692,10.367375572359844,0.9135213496760606,-1.2211196,1.7858646,0.05467244,356.83997,-105.870926,15.21741
456299795000.0,1.4463158433557315,10.079674492829204,0.9671604784174106,-1.2388347,1.5622878,0.032986723,356.56613,-105.620865,15.063697
456304737000.0,1.7814997985282834,9.819558946432307,0.9994533650938132,-1.2391402,1.3408492,-0.01160644,356.28055,-105.42348,14.96658
456309786000.0,2.078290597586664,9.61045596903118,0.9758450024761108,-1.1957687,1.1927143,-0.07666359,356.04507,-105.228134,14.855493
456314831000.0,2.3748462682639326,9.40151865055451,0.952255343255214,-1.1340714,1.0381655,-0.14080444,355.83093,-105.09807,14.800347
456319793000.0,2.689499829393305,9.198742586610878,0.9263496773953976,-1.0574077,0.9627236,-0.18692477,355.6416,-104.96761,14.731056
456324798000.0,3.040465768985356,8.998190770711297,0.8962668788336821,-1.0140363,0.81245077,-0.20891592,355.52408,-104.83557,14.647985
456329782000.0,3.072337802832394,9.055252989000412,0.716201074321463,-0.95325524,0.7098254,-0.19730948,355.37183,-104.79465,14.646433
456336049000.0,2.7009913838306066,9.45960848026949,0.2953417086891241,-0.9416488,0.6545421,-0.14263703,355.25333,-104.76492,14.649928
456339967000.0,2.4688332109170905,9.712403248865668,0.0322290559769008,-0.8958339,0.66889745,-0.12675454,355.10474,-104.799446,14.70981
456344788000.0,2.092558012963143,10.057995380044732,-0.1636383171401342,-0.86345804,0.70829827,-0.093767814,354.96725,-104.85714,14.789018
456349789000.0,1.640775415442964,10.439914596032288,-0.2800771287880969,-0.8173377,0.7021896,-0.08857546,354.8403,-104.915405,14.863746
456354782000.0,1.263514187419651,10.745028085399449,-0.3689401028099173,-0.8185594,0.6658431,-0.09132435,354.8242,-104.90528,14.8585205
456360952000.0,0.8795218817757999,11.037196347743166,-0.4482428421614748,-0.86254174,0.6603453,-0.11148291,354.79974,-104.89198,14.849931
456364780000.0,0.6412848402839585,11.218463788302603,-0.4974439582453909,-0.9440922,0.6973027,-0.14355333,354.83005,-104.7806,14.741356
456369806000.0,0.3542126476503096,11.405436659181222,-0.3965838608649847,-1.0665708,0.7620544,-0.15515977,354.85275,-104.66926,14.634614
456374792000.0,0.0806244865236114,11.568706618149896,-0.2244880967174937,-1.2324207,0.8491027,-0.15790866,354.85733,-104.55123,14.523446
456379781000.0,-0.0668018003578772,11.439403553150912,0.2283973142288557,-1.4315627,0.9334021,-0.14966199,354.87613,-104.341446,14.322201
456386507000.0,-0.114871656789718,10.91597630588723,1.17377108079602,-1.6621643,0.9981538,-0.13469578,354.8766,-104.13701,14.127085
456389827000.0,-0.1200605165019132,10.65709336073023,1.6012193392697704,-1.9065105,1.0586295,-0.1160644,354.86713,-103.882034,13.88045
456394776000.0,-0.0104883782206632,10.26792339588648,1.9903893041135203,-2.127949,1.0790935,-0.09865474,354.85345,-76.35515,13.643924
456399758000.0,0.0998143885841836,9.8761584403699,2.382154259630102,-2.3228152,0.9822713,-0.09101892,354.76486,-76.56662,13.411213
456404782000.0,0.2458164770321866,9.454293863414184,2.7314283498939407,-2.4920247,0.8164214,-0.09315695,354.69562,-76.73903,13.185091
456409803000.0,0.4143339990685235,9.015261290878907,3.050724774702573,-2.6713138,0.5522222,-0.12308934,354.68842,-76.87425,12.958733
456414869000.0,0.5792245527577937,8.566947393285371,3.1605070117506,-2.8512135,0.4025602,-0.18173242,354.62302,-76.91637,12.758559
456419784000.0,0.7331487178384565,8.125698098266842,3.0168444655330284,-2.9901853,0.09896017,-0.22327125,354.68378,-76.90301,12.562847
456424784000.0,0.8867522033496497,7.764995079815721,2.953664986879739,-3.0460796,-0.13805555,-0.32498032,354.71378,-76.798485,12.378197
456430837000.0,1.0703550073989827,7.397789564670314,2.942537552308283,-3.1019738,-0.5045747,-0.5030475,354.87625,-76.65523,12.172535
456434800000.0,1.2580509111463705,7.224405301626339,2.88770735390718,-3.1465669,-0.61422503,-0.5564982,355.00964,-76.41353,12.011571
456439812000.0,1.538885736533122,7.048288472590242,2.7877491670765573,-3.1655037,-0.76144356,-0.6356053,355.26822,-76.17251,11.808052
456444790000.0,1.7592524434114791,6.849623180800323,2.6899600651576394,-3.189633,-0.7788532,-0.6575964,355.497,-75.84039,11.643076
456449784000.0,1.9235716968067904,6.627308881952303,2.593301639248181,-3.1609223,-0.66950834,-0.6582073,355.73492,-75.489784,11.465797
456454799000.0,2.0979105177610724,6.510334130721855,2.636905692238022,-3.0439415,-0.5290093,-0.6356053,355.94156,-75.0814,11.340675
456459844000.0,2.281700950692872,6.488454339036319,2.8075682044651757,-2.8631253,-0.35979962,-0.5687156,356.10745,-74.659386,11.224054
456464792000.0,2.357502774745335,6.436900649460413,3.0427856849823502,-2.6407704,-0.086437434,-0.43096542,356.171,-74.21289,11.153508
456469798000.0,2.212445303721634,6.320854702934947,3.42477039570348,-2.4346035,0.09437868,-0.35033122,356.2135,-73.79034,11.082489
456474709000.0,2.105550784163864,6.297135420635891,3.691538407031489,-2.1905627,0.18051068,-0.36865717,356.16925,-73.35542,11.0415945
456479805000.0,2.0707373093039845,6.466228988841333,3.736298455457047,-1.9214766,0.3036,-0.3839288,356.06107,-72.95348,11.011513
456484775000.0,2.086240741633654,6.633260082154311,3.740264204829278,-1.6618589,0.47739118,-0.42180246,355.9149,-72.54706,10.937678
456489795000.0,2.186001427919261,6.805573973306924,3.676780192001509,-1.427592,0.66431594,-0.47647488,355.73666,-72.1997,10.846184
456494786000.0,2.2893093800143203,6.963871887138638,3.604750211474089,-1.2351695,0.82802784,-0.52931476,355.5221,-71.90491,10.722924
456500664000.0,2.425342335227781,7.104943361048957,3.488870226259733,-1.1065824,0.98715824,-0.5739079,355.26566,-71.65665,10.575458
456505150000.0,2.5230647449391146,7.211159744590088,3.4106861655161715,-1.022283,1.0937542,-0.6105598,354.97485,-71.45443,10.419785
456510069000.0,2.570564055681378,7.313465635383541,3.4253013145738,-0.99204516,1.1038336,-0.65209866,354.67838,-71.277565,10.2492075
456514789000.0,2.616141763895137,7.411632702784457,3.439325202264795,-1.0024298,1.0720685,-0.7086037,354.373,-71.126114,10.081948
456519772000.0,2.485319318008172,7.416571475413688,3.5479251609805926,-1.0348058,0.9841039,-0.73823065,354.09042,-70.978935,9.918778
456524796000.0,2.121639347752809,7.293706861235956,3.778911130337079,-1.1218541,0.8741482,-0.81031275,353.83926,-70.83081,9.737362
456529789000.0,1.7995693325592028,7.243140426049191,3.93149675080918,-1.2226468,0.79259765,-0.8698721,353.60092,-70.66469,9.56395
456534836000.0,1.516732628417299,7.269656303611594,4.002205788406328,-1.3182472,0.73975784,-0.9257663,353.39847,-70.488754,9.382951
456539774000.0,1.2451050239341692,7.301609699059561,4.087870244514107,-1.3949108,0.73853606,-0.9627236,353.23132,-70.25546,9.13296
456544807000.0,0.9806845605143024,7.348827601097179,4.215358777233543,-1.4407257,0.7825184,-1.0079277,353.07935,-70.013466,8.8705435
456549797000.0,0.7500483633762732,7.401950643499101,4.316856082784102,-1.4489723,0.86834496,-1.0280862,352.94257,-69.754715,8.547917
456554795000.0,0.6114342536159377,7.473647537447573,4.345534940183742,-1.4364496,0.93737274,-1.0522153,352.81094,-69.493034,8.21474
456559813000.0,0.4913770746686242,7.523108511465325,4.359353338436801,-1.3933836,1.0210613,-1.056186,352.67398,-69.21735,7.8249106
456564819000.0,0.4276964080159396,7.506350450503356,4.329188898699664,-1.2840388,1.073901,-1.07665,352.53937,-68.963,7.426719
456570389000.0,0.3568411716484899,7.4877043459172254,4.295625988324944,-1.1508701,1.0803152,-1.1285735,352.41058,-68.72159,6.9922585
456574788000.0,0.3044924891739713,7.469886485098484,4.250114411983088,-1.01312,1.0488557,-1.1911873,352.2903,-68.50926,6.5553937
456579791000.0,0.250141609038878,7.445181560688873,4.1710582927193975,-0.88270026,0.9798279,-1.2672399,352.19406,-68.33227,6.111857
456584753000.0,0.1877620636121388,7.3846511262125984,4.080652626212599,-0.7641924,0.90377516,-1.3414601,352.1357,-68.181496,5.646953
456589831000.0,0.1131428132154121,7.276867881595772,3.972869381595772,-0.68875057,0.84116143,-1.4132367,352.10797,-68.05438,5.176324
456594803000.0,0.0090057117186544,7.105280626223241,3.8574397110091754,-0.64965516,0.7684685,-1.4902058,352.1235,-67.94407,4.6904078
456599863000.0,-0.3614731971770302,6.368439102098199,3.655734493883792,-0.64599,0.6844745,-1.5567901,352.17215,-67.84147,4.2044735
456604718000.0,-0.7169425850601426,5.661449853160041,3.462201128440367,-0.66767573,0.5751296,-1.6255124,352.26343,-67.73618,3.6992917
456609944000.0,-0.899222272596097,5.272726676032779,3.5765752790740897,-0.7458665,0.48258355,-1.7018706,352.38623,-67.61141,3.190267
456614799000.0,-1.0052775225073922,5.029192501453071,3.7847577775111936,-0.84849185,0.46944994,-1.7269161,352.5234,-67.466484,2.688349
456619783000.0,-1.113325995847972,4.899804512264453,4.182587073075695,-0.9306532,0.47250426,-1.7733418,352.70078,-67.26201,2.0931685
456624812000.0,-1.2210015812945811,4.966460740381135,4.885042322548706,-1.1203269,0.5540548,-1.7806722,352.86493,-66.98664,1.5022225
456629789000.0,-1.163724609190372,5.306150381267244,5.975956854076681,-1.353372,0.729984,-1.767844,353.0067,-66.590256,0.8660233
456634776000.0,-0.9456237841137856,5.915015256169727,7.457225048263723,-1.6129897,0.89736104,-1.7427986,353.13608,-66.122475,0.23040318
456640180000.0,-0.7909478576352201,6.6324426573584905,9.07032454297694,-1.9199494,0.96883225,-1.670411,353.25082,-65.45562,-0.42167658
456644787000.0,-0.7465500305811321,7.305809774415094,10.45405679245283,-2.261423,0.86620694,-1.598329,353.37433,-64.700584,-1.0566294
456649970000.0,-0.7129940702453987,8.049319382041272,11.936346383435582,-2.5289822,0.5271767,-1.5531249,353.54022,-63.692284,-1.6149621
456654798000.0,-0.9708681392638036,8.49415239933073,12.004038349693252,-2.6462681,0.064446285,-1.5323554,353.76782,-62.643112,-2.1177244
456659783000.0,-1.2371279226226994,8.953450781929726,12.07393156671779,-2.5653286,-0.17104226,-1.5308284,354.04666,-61.406746,-2.5740454
456664742000.0,-1.5000246948279503,9.38243274561959,11.779821921975934,-2.2736404,0.08277224,-1.4779885,354.3123,-60.233963,-3.0023632
456669813000.0,-1.7563261164450077,9.643860084336078,9.17067391665611,-1.8286251,0.82894415,-1.416902,354.5147,-59.161877,-3.4551275
456674758000.0,-1.897570780327869,9.6756295257079,6.858085565871833,-1.4446963,1.7962493,-1.4156802,354.61224,-58.215744,-4.031603
456679794000.0,-1.7070993534426229,9.021557635842026,5.215718902563339,-1.2794572,2.5289822,-1.4682146,354.5893,-57.358673,-4.670237
456684831000.0,-1.516590104590164,8.367355866728762,3.573026114023845,-1.3918564,2.8527408,-1.5647314,354.38364,-56.89684,-5.4183626
456689793000.0,0.0315773906521075,6.6465471246555765,2.94935072655373,-1.6807957,2.7614164,-1.6401732,354.11984,-56.430435,-6.202602
456694808000.0,2.6194555731197067,4.097879394479028,3.066981520461272,-2.0738876,2.232407,-1.6630806,353.90588,-55.902523,-6.957952
456699813000.0,4.159531418060985,2.501222028948397,4.257461588135262,-2.5121834,1.3017539,-1.6380352,353.76364,-55.498173,-7.6027493
456704799000.0,5.03687620359656,1.5072089854182955,6.119485870797498,-3.0228667,0.12522738,-1.568091,353.81726,-54.97039,-8.102132
456709778000.0,5.417003535265951,0.7725280759182089,7.103592280639317,-3.5439348,-0.47891834,-1.4416419,353.8636,-54.215385,-8.151286
456714821000.0,5.41075326965187,0.2318796956593761,7.40985549152323,-3.7788124,-1.5864171,-1.368949,354.29816,-53.42193,-7.9170346
456719805000.0,5.404576128303352,-0.3024434308942669,7.712535611103921,-4.120897,-2.2290473,-1.2073752,354.7292,-52.16308,-7.4782925
456724789000.0,4.781678346630424,-0.7491407842646922,7.356120209860343,-4.214665,-2.062892,-1.0122037,355.18088,-50.940247,-6.9618278
456729848000.0,3.4511341762583183,-1.1033471078789017,6.2480901490299,-4.0469823,-1.0118983,-0.8723156,355.52563,-49.727554,-6.4680786
456734768000.0,1.7030101939138849,-0.2721434917077892,5.188043703667151,-3.710701,0.54092115,-0.83169305,355.71204,-48.387016,-6.1065764
456739862000.0,-1.02532063081761,2.9659793270440247,4.125977431446541,-3.1667254,1.9046779,-0.91354895,355.6942,-47.18211,-5.9068117
456744730000.0,-3.0405121876468755,5.559124916834771,3.578902671581574,-2.4996605,2.588847,-1.1016954,355.57413,-46.106964,-6.137804
456749793000.0,-3.4337756717583447,6.814543016938755,4.355345914827909,-1.9055941,2.670703,-1.2953397,355.3291,-45.178154,-6.5278616
456755637000.0,-3.6594908944082336,7.926515205814751,5.126995157204116,-1.5476271,2.377793,-1.4391985,354.95978,-44.93025,-7.399248
456759872000.0,-3.614272135917668,8.423921621852488,5.572226227958834,-1.5509869,1.9685133,-1.5723672,354.6729,-44.73116,-8.274638
456765174000.0,-3.5348685168678364,9.018537397200529,6.136232533116949,-1.8573358,1.5989398,-1.6835446,354.4808,-44.491615,-9.148088
456769760000.0,-3.258674841119789,9.276912609291005,6.684165152408967,-2.2840252,1.2134838,-1.7189748,354.41138,-44.20581,-9.924994
456774968000.0,-2.9618266277335983,9.516651810778187,7.281512655097983,-2.7708848,0.8921687,-1.6319265,354.40543,-43.77255,-10.595841
456779800000.0,-2.876399653578529,9.132230255538198,7.55422162277762,-3.2775974,0.66614854,-1.5097535,354.47046,-43.222775,-11.189159
456784805000.0,-2.78791413916501,8.734045262993467,7.83669438420903,-3.6899316,0.5103779,-1.3833044,354.53516,-42.543842,-11.646978
456789753000.0,-2.7797664099511388,8.127822950244306,7.979693996146169,-3.88663,0.3707952,-1.2770138,354.62592,-41.815395,-12.026233
456794873000.0,-3.059840733810474,6.72745133094763,7.632131934347257,-3.8673878,0.23487769,-1.29198,354.74872,-41.059437,-12.358929
456799770000.0,-3.327716508017342,5.388072459913289,7.299707829536852,-3.7232237,0.21319197,-1.2907583,354.89404,-40.138386,-12.65955
456804779000.0,-3.471278615090218,4.23906197300095,6.909962214178537,-3.5311065,0.20250183,-1.2666291,355.05872,-39.268017,-12.920973
456809809000.0,-3.334038384985755,3.562009976894587,6.411322646182336,-3.3832772,0.19211712,-1.246776,355.22482,-38.453457,-13.168137
456814765000.0,-3.1508977708792907,2.988302287052881,5.970064303473869,-3.3166928,0.17898351,-1.2043208,355.49313,-37.395016,-13.538902
456819786000.0,-2.784100393309968,2.760293195928255,5.712314857860014,-3.2360587,0.14874569,-1.1633929,355.75922,-36.405254,-13.889433
456825791000.0,-2.424752495649843,2.619671490350004,5.614545696025121,-3.2262847,0.12095132,-1.1111639,356.02786,-35.369965,-14.236986
456829795000.0,-2.266166404664165,2.6607864096423373,5.764321453733629,-3.275154,0.13194689,-1.0998629,356.29282,-34.360058,-14.577564
456834799000.0,-2.067973397847898,2.7121697902963926,5.951503744336371,-3.303254,0.20463985,-1.0894781,356.52863,-33.35907,-14.875617
456839769000.0,-1.9516253165114548,3.0553857759545537,6.32848277905569,-3.3698382,0.27488935,-1.108415,356.7658,-32.35162,-15.17085
456844769000.0,-1.8758171120040976,3.5503687336748,6.80562866283293,-3.4507778,0.27366763,-1.1756102,357.01077,-31.34833,-15.464077
456849799000.0,-1.9369723938207364,4.183707105574346,7.298203917783271,-3.510948,0.28160888,-1.2385293,357.23346,-30.328888,-15.727082
456854785000.0,-2.126431702211526,4.938438418531287,7.7982523031091455,-3.535688,0.2932153,-1.2880094,357.468,-29.31353,-15.989966
456859761000.0,-2.315511028034344,5.691656030499544,8.297297783530636,-3.5592062,0.38331795,-1.2748758,357.64178,-28.339771,-16.22997
456864802000.0,-2.4685055629768944,6.176546158463192,8.609302389575497,-3.563788,0.41355577,-1.2195925,357.82227,-27.390694,-16.45021
456869780000.0,-2.570973809905069,6.30463153399606,8.673344988178398,-3.5870006,0.2724459,-1.1374311,358.00125,-26.4602,-16.635036
456874743000.0,-2.6580017405407537,6.36806013313101,8.650556854012297,-3.6199875,0.03176499,-1.0861185,358.0578,-25.698618,-16.794172
456879789000.0,-2.684666664472647,6.169977505809554,8.273437763361185,-3.731165,-0.15607607,-1.0558805,358.11227,-24.941698,-16.912582
456884776000.0,-2.711019810657417,5.974210945672395,7.900728111146145,-3.887852,-0.21685717,-1.0451905,358.2065,-24.08713,-17.012026
456889778000.0,-2.580061642340248,5.992146134573528,7.7198717458655,-3.9965858,-0.17531833,-1.0534371,358.3052,-23.243233,-17.082266
456894765000.0,-2.3712719417263517,6.116531498000186,7.63546736229188,-4.0225477,-0.15393804,-1.0225884,358.39618,-22.410759,-17.120308
456899817000.0,-1.9922175433001987,6.10454430998012,7.789397601630219,-4.000862,-0.24007004,-1.0216721,358.5505,-21.493671,-17.169224
456904798000.0,-1.4658826012127235,5.967033258727635,8.159254874333996,-3.986812,-0.31031954,-1.024421,358.6869,-20.596313,-17.21862
456909758000.0,-1.09557318628307,5.733704340609448,8.542644796821792,-4.0295725,-0.47433686,-1.0097603,358.85812,-19.667116,-17.180899
456914802000.0,-0.8720346273727407,5.400505266829652,8.947544597048807,-4.084856,-0.65240407,-0.9654725,359.02322,-18.762909,-17.11411
456919741000.0,-0.8103508750079256,4.98322536005495,9.28386040008454,-4.2024474,-0.852157,-0.91904676,359.20468,-17.798084,-16.903849
456924808000.0,-1.3539123228046073,4.203778864778611,9.39667517658248,-4.376239,-1.1221595,-0.82650065,359.3742,-16.833183,-16.617218
456929716000.0,-1.9421603884772465,3.454831186911708,9.295479242415404,-4.589125,-1.4202617,-0.7296785,359.56058,-15.749953,-16.217892
456934806000.0,-2.6910771227246206,2.6916945745040843,8.717201491540257,-4.8392744,-1.720502,-0.56382865,359.70654,-14.648565,-15.733212
456939768000.0,-3.388591744027136,1.863711074236555,8.346493213450005,-5.04422,-1.9443841,-0.29077184,359.78375,-13.414907,-15.277837
456944792000.0,-4.003556215091928,0.7898883876491987,8.512060958607806,-5.0836205,-2.165212,-0.09407325,359.83014,-12.203871,-14.738925
456949761000.0,-4.274002119334532,0.1445678632314148,8.790869638039569,-5.0659056,-2.3759604,0.23854288,359.74738,-10.869633,-14.282606
456954796000.0,-3.3971138544964026,0.9106406078057554,9.465398898381295,-5.077512,-2.4483478,0.6899723,359.5531,-9.58725,-13.790231
456959797000.0,-2.4131253155640207,1.6442944211536967,9.892146614631113,-5.110804,-2.3796256,0.72204274,359.4964,-8.093914,-13.355483
456964868000.0,-1.0388509241545516,2.297452349063205,9.514598778550884,-5.075374,-2.370768,0.41691554,359.38626,-6.6627436,-12.88084
456969812000.0,0.3010056309881057,2.9342523481924903,9.146506390150044,-5.031086,-2.0995438,0.17470746,359.15134,-5.331141,-12.361311
456974792000.0,1.2486379016896356,2.9390301884462904,8.937849215452143,-5.0115385,-1.8677205,0.09162979,358.94168,-4.041518,-11.846479
456979812000.0,1.9974079570039645,2.616832145403058,8.810785263215028,-4.9333477,-1.674687,0.05100725,358.76813,-2.8153057,-11.409806
456984796000.0,2.06455987501261,1.9657108017018052,8.55429987713104,-4.7406197,-1.4715744,0.14110987,358.6466,-1.6690793,-10.757996
456989851000.0,1.5566692929486534,1.023183196350247,8.183149008322404,-4.51124,-1.344209,0.24709499,358.51996,-0.5768853,-10.151091
456994797000.0,0.299560336754576,-0.1656508733172603,8.138709108344814,-4.324926,-1.2327261,0.3643811,358.37405,0.5220823,-9.4819765
456999975000.0,-1.6279675896969097,-1.6247163093475696,8.348541418323165,-4.1825943,-1.1606439,0.48624873,358.1882,1.5431175,-8.848179
457004788000.0,-3.290331437893903,-2.68102515543943,8.632303334283453,-4.053091,-1.1371256,0.6435465,357.92133,2.6171663,-8.347678
457009785000.0,-4.904453278052256,-3.5183982019477438,9.003627120427554,-4.014301,-1.1557571,0.6942484,357.64166,3.6433644,-7.8633604
457015315000.0,-6.540077711609242,-4.349731997405756,9.411020646615322,-3.9306123,-1.2629639,0.69058317,357.39087,4.8234057,-7.6404204
457019781000.0,-6.696109432922578,-4.283852070855289,9.71268183931901,-3.846313,-1.289842,0.61727935,357.14352,5.95538,-7.43686
457024810000.0,-6.871811073425213,-4.20966708415079,10.052371525415484,-3.8267653,-1.3869696,0.45112398,356.9647,7.2269154,-7.4810853
457029785000.0,-6.312681358469798,-4.127652752966442,9.86947401771812,-3.791946,-1.4556919,0.29077184,356.8056,8.430156,-7.516968
457034812000.0,-5.102115565816555,-4.03718330720358,9.227572676510066,-3.7293322,-1.402852,0.14996742,356.68887,9.585163,-7.548867
457039767000.0,-3.638029459475935,-4.052505394470963,8.4610384349642,-3.5521815,-1.0848967,-0.019242255,356.6526,10.668137,-7.64199
457044817000.0,-1.488247766884447,-4.321829286674622,7.3548865554892595,-3.304781,-0.6221663,-0.20005837,356.672,11.678285,-7.77533
457049712000.0,-0.0337163824465585,-4.59123977551694,6.755499332880302,-2.9385672,-0.12950343,-0.34788775,356.74533,12.643847,-7.800152
457054790000.0,-0.231998392753519,-4.893383683991845,7.416439409960198,-2.5873199,0.23976462,-0.45906523,356.87964,13.5202675,-7.908907
457059802000.0,-0.5415871497482172,-5.1642158258186575,7.974981479988357,-2.2956316,0.4364632,-0.55741453,357.03955,14.428721,-7.792389
457064805000.0,-1.2354191649803523,-5.342032100858681,8.215556534565565,-2.0564778,0.5329799,-0.655153,357.2476,15.240424,-7.7408743
457069812000.0,-1.9298059129850096,-5.519990543618105,8.456323933779654,-1.8771889,0.5503896,-0.7473936,357.50217,16.00254,-7.7239637
457074790000.0,-2.7783648491615267,-5.742103188280648,8.411034685620663,-1.7599027,0.46761733,-0.8197812,357.7762,16.70154,-7.69772
457080681000.0,-3.985435802158828,-6.062901522127987,7.992366039321511,-1.6581937,0.35918877,-0.86559606,358.06512,17.341982,-7.662082
457084836000.0,-4.703716442727273,-6.242769370666666,7.614349985151515,-1.5931365,0.28802297,-0.8772025,358.38602,17.97307,-7.746955
457089863000.0,-5.408835452727272,-6.403244616,7.055117561818182,-1.5280794,0.29046643,-0.904386,358.7189,18.563276,-7.8145075
457094841000.0,-5.647628755998373,-6.476219186864579,6.64515115697438,-1.455081,0.3436117,-0.9428705,359.09332,19.180605,-8.039842
457099785000.0,-5.291413455469703,-6.437709417852786,6.423720173647824,-1.3662001,0.37720928,-0.97341377,359.47156,19.761257,-8.253674
457104722000.0,-4.725188690181949,-6.730872511979824,6.520674625418844,-1.2938126,0.41599923,-0.9776898,359.88766,20.360043,-8.593876
457110884000.0,-3.693988702359935,-7.607924036569987,7.131952906917673,-1.2571607,0.4343252,-0.9578367,0.30893293,20.929846,-8.930326
457114769000.0,-3.001866624591612,-8.34262087382099,7.797097580714429,-1.2147056,0.4025602,-0.9450085,0.72620076,21.497562,-9.206175
457119770000.0,-1.983058157505519,-9.841999432294802,9.50552403613285,-1.2379184,0.26542094,-0.9379836,1.1311344,22.060638,-9.455427
457124732000.0,-0.972194807439294,-11.329685176575357,11.20062742981136,-1.2507466,0.25717425,-0.782213,1.4718424,22.700571,-9.57657
457129794000.0,0.0590406375496685,-12.847352495710416,12.92989252025888,-1.2782356,-0.08399397,-0.5525276,1.7358568,23.333147,-9.581041
457134774000.0,0.2799271287607227,-14.283540779613068,14.42108797928454,-1.4043792,-0.516792,-0.30085114,1.9403915,23.984295,-9.577531
457139812000.0,-1.9523882167840847,-15.560408040974629,15.279670670104032,-1.5748106,-0.89461213,-0.15760323,2.0757043,24.635794,-9.513474
457144820000.0,-4.212937514831741,-16.795268108433735,15.760806381803071,-1.6811012,-0.8185594,-0.25534168,2.120966,25.518017,-9.028429
457150172000.0,-7.289945286830079,-17.567181265060242,10.3467636497715,-1.500285,-0.3222314,-0.49846604,2.1659446,26.325048,-8.576701
457154780000.0,-9.620990399717517,-18.184105865617436,5.914764093983051,-0.8206975,0.45631635,-0.77396625,2.3950448,27.095045,-8.533238
457159803000.0,-10.038360550847456,-18.53838547457627,2.614630533050847,0.20525073,1.2599095,-1.0238101,2.7437093,27.677933,-8.591699
457164834000.0,-10.1876831568781,-18.57262661915949,-0.1007202086034977,1.3176364,1.8573358,-1.1261301,3.4179437,28.323908,-9.211745
457169809000.0,-8.906713075089185,-16.90197634072914,0.3511429082502393,2.1343632,1.9785925,-0.97433007,4.1355066,28.731613,-9.889505
457174719000.0,-7.642479285826155,-15.253153653876272,0.7971022858888019,2.3151793,1.591304,-0.5290093,4.9140244,29.151424,-10.700304
457179844000.0,-5.533699890219593,-13.4016239016953,1.657394440994425,1.7336355,0.6918049,-0.06566802,5.5956945,29.520777,-11.422295
457184825000.0,-3.3382864185948344,-11.577992468426444,2.566496393895779,0.763887,-0.41996986,0.25992316,6.1142635,29.906563,-12.026844
457189854000.0,-1.1217165834611444,-9.736787393560132,3.484359016088293,-0.017715093,-1.2873985,0.52595496,6.3018093,30.206776,-12.355118
457194810000.0,0.6838655332594059,-8.511993332079209,3.9078509226930698,-0.376293,-1.7281377,0.5839872,6.3577156,30.642656,-12.531451
457199799000.0,1.7671644861821785,-8.422112792376238,3.401680714792079,-0.31856623,-1.7602082,0.40958515,6.332029,31.167048,-12.600222
457204765000.0,2.396564822160825,-8.153787880907217,3.16388940796701,-0.17959438,-1.2321151,0.2837469,6.0297303,31.484879,-12.204222
457209914000.0,2.022411431331959,-7.466484073154639,3.525842195521649,0.3622431,-0.50885075,0.020158553,5.829207,31.696648,-11.803856
457215531000.0,1.578292300647525,-6.71277123021215,3.9464048925108632,0.84513205,0.42821655,-0.26145032,5.729715,31.953457,-11.4119425
457220555000.0,0.2624062377694469,-5.937997191190253,4.97943693027179,1.4871514,0.9285152,-0.38606682,5.6998367,32.02123,-11.073446
457224817000.0,-0.8538967877055468,-5.280734660475419,5.855786959120729,1.9526308,1.097114,-0.46517387,5.835267,31.911388,-10.917835
457229788000.0,-1.7622284105115944,-4.7845279463592885,6.620431043805829,2.180789,1.2617421,-0.6765333,6.110008,31.70952,-10.840762
457234887000.0,-2.3570437142380225,-4.506947505025715,7.184404045601372,2.5509732,1.2449434,-0.8866709,6.3988276,31.348919,-10.748413
457239785000.0,-2.9329584893875884,-4.109283450853695,7.455888095245886,2.7440066,1.0968086,-1.0262536,6.789539,30.801388,-10.879562
457244764000.0,-3.5277153362846336,-3.436525664277681,7.178009906717105,2.7724118,0.8921687,-1.0592403,7.1868515,30.221008,-10.979908
457249782000.0,-4.040152196944388,-2.944299385149725,6.792449056508454,2.723848,0.6994407,-0.9841039,7.5869875,29.57134,-11.14039
457254707000.0,-4.395648859961296,-2.7761590424118965,6.23518385178244,2.6688702,0.60994893,-0.85154617,7.958216,28.934639,-11.282511
457259645000.0,-4.747329149180487,-2.736707908360004,5.795193972165649,2.64749,0.64721173,-0.7141015,8.336947,28.222502,-11.545406
457264706000.0,-5.099876661807778,-2.9106312765881097,5.541359912287848,2.6028967,0.7492262,-0.63621616,8.68897,27.54342,-11.815418
457269632000.0,-5.349433827326171,-3.0641519841374416,5.327131223089398,2.4914138,0.86284715,-0.59742624,9.05449,26.902342,-12.19575
457274678000.0,-5.398414703871883,-3.186604226647071,5.180188286580174,2.3399193,0.94714653,-0.59315014,9.415366,26.297117,-12.602483
457279635000.0,-5.1892584169792695,-3.1517166471865745,5.154310800987166,2.1890357,0.9398162,-0.66920286,9.817297,25.778404,-13.080088
457284700000.0,-4.47099791697927,-2.8117401471865744,5.360212300987167,2.0567832,0.84513205,-0.79381937,10.228655,25.314575,-13.5513735
457289671000.0,-3.5536297995210537,-2.389546265256436,5.800571098183995,1.9575176,0.5751296,-0.9098838,10.645213,24.944931,-13.972463
457294672000.0,-2.1821005594991023,-1.777853705747356,6.746783052684095,1.9049833,0.3585779,-0.97127575,11.073304,24.616299,-14.373677
457299662000.0,-0.8298723740321057,-1.184033376506138,7.715298186968838,1.8887954,-0.24129178,-0.9841039,11.379133,24.265097,-14.462093
457304722000.0,0.5054546325779039,-0.6182873428895185,8.751112634560906,1.8732183,-1.0112875,-0.93767816,11.635462,23.937027,-14.451435
457310166000.0,1.896685135318596,-0.008068261940182,9.819139683745124,1.8359555,-1.8383989,-0.75411314,11.662241,23.462934,-13.9967
457314805000.0,2.628466090559168,0.5272872745539663,10.265910975552666,1.598329,-2.5964828,-0.6786713,11.625968,23.056223,-13.357112
457319706000.0,3.4015763431209365,1.0928784546267882,10.73791487750325,1.4770721,-3.0836477,-0.5390886,11.344014,22.464762,-12.269344
457324725000.0,3.549754340081861,1.6367486345712288,10.737015436657682,1.1291844,-3.179248,-0.45540005,11.036874,21.999365,-11.103262
457329683000.0,3.407550713467106,2.1581620971448534,10.518970347708894,0.6936375,-2.8689287,-0.4392121,10.723947,21.5864,-9.9419
457334737000.0,2.8504393925370284,2.2735384956330624,10.530312213760151,0.2312125,-2.1960607,-0.4999932,10.402938,21.159407,-8.684906
457339763000.0,2.10533174678452,2.195348247606306,10.649896914763495,-0.20555615,-1.2705997,-0.57910025,10.167613,20.8447,-7.6034
457344827000.0,1.2636800842567384,1.371374950833859,10.962504938339494,-0.5299256,-0.21380283,-0.6914995,10.06884,20.553894,-6.7927446
457349742000.0,0.3895773878445867,0.1026530586946723,11.386826773280449,-0.65087694,0.76174897,-0.82741696,10.09736,20.329157,-6.214235
457354780000.0,-0.5074615347272382,-2.084763869131344,11.934567193689412,-0.5564982,1.4566082,-0.9816604,10.277378,20.129702,-5.9965467
457359812000.0,-1.4051365138718874,-5.693783469891656,12.662783006652727,-0.3371976,1.7922786,-1.0800097,10.541967,19.93089,-5.9403462
457364778000.0,-2.001687401040551,-8.351893709869932,13.030154855087988,-0.09193522,1.7684549,-1.1661417,10.913135,19.907234,-6.12413
457369793000.0,-1.86572534082632,-8.73038270489671,12.504679931981638,0.086132,1.4590516,-1.2131784,11.301895,19.84437,-6.310774
457374750000.0,-1.7313357231828617,-9.104494359602144,11.985282286151492,0.14905111,1.0027353,-1.2586879,11.675252,20.592224,-6.513629
457379780000.0,-1.464603099453552,-9.22961356830601,11.06777397449909,0.10567969,0.5561928,-1.3038919,12.028202,21.262997,-6.6295877
457384831000.0,-1.1305189190163936,-9.22594262295082,9.948041337431691,-0.004276057,0.20433442,-1.3808609,12.358802,21.887009,-6.642003
457389859000.0,-0.7903397918433281,-9.183327033193184,8.822733685217967,-0.16768251,-0.084910266,-1.4840971,12.687727,22.556007,-6.519598
457394781000.0,-0.3105203808674486,-8.39058187836542,7.5153995479457105,-0.35979962,-0.22204952,-1.5864171,13.0043125,23.223415,-6.342967
457399783000.0,0.1770978015180347,-7.584951796193848,6.186816582761672,-0.4718934,-0.50671273,-1.6200147,13.322777,23.8373,-6.005044
457404701000.0,0.50757074,-7.038953,5.2863975,-0.6780604,-0.80573124,-1.6722436,13.642086,24.512928,-5.620961
457409695000.0,0.50757074,-7.038953,5.2863975,-0.89766645,-1.1172725,-1.7030923,13.914956,25.200193,-5.166784
457414704000.0,0.5455665562188956,-7.015696938881729,5.509131596609497,-1.1468995,-1.5012014,-1.7366899,14.150444,25.864182,-4.5340595
457419718000.0,1.0977724186001785,-6.677708850629523,8.746200467334193,-1.4208726,-2.0845776,-1.7803668,14.315832,26.582497,-3.7729688
457424796000.0,1.6264218514705884,-6.387205905473857,11.905152331699346,-1.7941113,-2.941927,-1.8310685,14.396874,27.376173,-2.8459077
457429684000.0,1.7373312902941176,-6.781125712205883,13.392868644117648,-2.2730296,-4.007887,-1.885741,14.361514,28.256437,-1.7258862
457434696000.0,1.851054307352941,-7.185038574591504,14.918325714052289,-2.8286116,-5.0937,-1.92392,14.0705385,29.066093,-0.30908382
457439959000.0,1.8544744359176568,-7.679277112658746,14.621923432712004,-3.288593,-5.923866,-1.9010127,13.641344,29.927944,1.259056
457444707000.0,1.793933788846784,-8.163602289225727,13.313314042707908,-3.5124753,-6.188065,-1.784032,13.099114,30.819185,2.8916507
457449677000.0,1.9344930373683165,-8.5594678064997,10.510947934804214,-3.296229,-5.6914315,-1.5690074,12.556889,31.582611,4.4945836
457454692000.0,2.187471328165375,-8.898363085271319,6.902427661498709,-2.692694,-4.4015894,-1.3206906,12.0467,32.249035,5.882292
457459688000.0,2.4858079934979425,-8.996318127572017,4.7573554953909465,-1.9178114,-2.7415633,-1.0494665,11.572777,32.900402,6.979028
457464694000.0,2.8113366885390945,-8.956859826131687,3.440444122572017,-1.1533136,-1.2302825,-0.7819075,11.215056,33.35424,7.7284236
457469669000.0,3.0413985698241803,-8.863456397323192,3.5560449829909127,-0.5488624,-0.26908615,-0.5888741,11.011294,33.908176,8.341107
457474740000.0,3.233275161991308,-8.743533808968786,4.323551652192809,-0.23304509,0.18142697,-0.46303585,10.917309,34.32807,8.675299
457479678000.0,3.5053078900382784,-8.645913062412474,4.9809989601624505,-0.124005646,0.37568212,-0.35613444,10.868309,34.72036,8.895737
457484687000.0,3.823288151507796,-8.556341470637662,5.6035236624965,-0.16920967,0.40653083,-0.23243423,10.832858,35.07279,9.023287
457489677000.0,4.125277192900266,-8.403120079932384,5.7685309905819855,-0.28344148,0.41355577,-0.084910266,10.810409,35.352535,9.102417
457494696000.0,4.415460759937213,-8.19031847961845,5.51703868971263,-0.35216382,0.49296826,0.0033597588,10.791616,35.63274,9.145654
457499848000.0,4.669328443103003,-7.923036075389382,5.186247725849754,-0.48075095,0.6899723,0.22296582,10.737492,35.91158,9.153003
457504686000.0,4.354357657439119,-7.0578635003442045,3.962247589148954,-0.5543602,0.93737274,0.47952923,10.679463,36.196198,9.107761
457509673000.0,4.0296864486533,-6.166045469804664,2.700550879407968,-0.5897904,1.1575897,0.6963864,10.600872,36.504322,9.065011
457514675000.0,3.600785280275049,-5.416024860117878,1.8706985311198427,-0.5757405,1.3854424,0.8197812,10.5344515,36.821712,8.936597
457519673000.0,3.1305998049705304,-4.724852029273085,1.2171406580943025,-0.5723807,1.6071864,0.8897252,10.474631,37.15405,8.733407
457524671000.0,2.6854184813512942,-4.088899320564091,0.6921565975163124,-0.5717699,1.7968601,0.9111055,10.45083,37.502003,8.469295
457529651000.0,2.25376678760261,-3.4815755325194697,0.2303896299515891,-0.5494733,1.9691241,0.9062186,10.460535,37.840816,8.156224
457534681000.0,1.9844561145584727,-2.9757356957040573,0.0282275812649164,-0.5491679,2.1138992,0.8546005,10.539377,38.1763,7.7667828
457539663000.0,1.7662046823389022,-2.5060207364956244,-0.0951319010700079,-0.5488624,2.2159138,0.77732605,10.655391,38.501205,7.359238
457544666000.0,1.6289615657334144,-2.1420494170622844,0.0757401258135524,-0.569021,2.2904391,0.69913524,10.833538,38.818176,6.8906894
457549639000.0,1.5178451321972002,-1.8135312613511867,0.3366221369324406,-0.5907067,2.2785273,0.6038403,11.041979,39.129692,6.440448
457554661000.0,1.4280439060655896,-1.5927868539808454,0.8615410838579859,-0.61544675,2.1728477,0.4990769,11.288737,39.413242,5.9891973
457559664000.0,1.3446126255006288,-1.4027488403405242,1.45483058696914,-0.65270954,1.9691241,0.40103304,11.539757,39.702034,5.582281
457564669000.0,1.1669627496153068,-1.3749311021360595,2.2194544736687587,-0.70402217,1.6954565,0.31948254,11.797485,39.94108,5.219593
457569654000.0,0.954310693844908,-1.4087621341769587,3.045897578700141,-0.77488256,1.3698653,0.23060162,12.033393,40.19131,4.9355936
457574661000.0,0.7059775746069632,-1.646926500858073,3.8494361556366505,-0.86620694,1.0027353,0.13744467,12.289687,40.333355,4.7308607
457579671000.0,0.4457064192661998,-1.9545195990926123,4.644446318177335,-0.9773844,0.60231316,0.03145956,12.497707,40.49629,4.624322
457584672000.0,0.1967626685061425,-2.444306031066339,5.126718437739558,-1.1160508,0.41263947,-0.093767814,12.682707,40.670692,4.5292034
457589689000.0,-0.0487838324422604,-3.0062298032235875,5.490316082751843,-1.2568552,0.027488936,-0.16737708,12.766757,40.872,4.5745935
457594663000.0,-0.1309394105642233,-3.501545894583456,5.438188409596704,-1.3090842,-0.32711834,-0.3032946,12.869994,41.054386,4.628293
457599661000.0,-0.1403329678971641,-3.971223712187224,5.198652528407418,-1.3704761,-0.6059783,-0.42271876,12.926371,41.27248,4.7588024
457604694000.0,0.0391310150543916,-4.307357731093876,4.594028178666398,-1.3686435,-0.79412484,-0.50823987,12.979211,41.519756,4.90674
457609687000.0,0.318480905922643,-4.567442185777598,3.799325943674456,-1.2663237,-0.86834496,-0.5647449,13.018832,41.74576,5.1035595
457614676000.0,0.747428887760804,-4.711863974542713,2.907339455879397,-1.142318,-0.8368854,-0.5946773,13.083482,42.03116,5.3266907
457619696000.0,1.2547590783537688,-4.7988349447939695,1.9603232669346733,-0.9972375,-0.68416905,-0.59315014,13.158816,42.270157,5.537791
457624693000.0,1.721639983930839,-4.874253239415844,1.285955527791345,-0.86101454,-0.4288274,-0.5497787,13.213609,42.586292,5.7626877
457629711000.0,2.172300941535606,-4.94466896042786,0.7367125117514898,-0.7144069,-0.13500121,-0.47586402,13.296528,42.85052,5.935781
457634717000.0,2.551616164228128,-5.085366370000996,0.4515616603364188,-0.5739079,0.15271631,-0.3915646,13.354027,43.184727,6.1446586
457639741000.0,2.891626502836668,-5.267343830815169,0.317473015527023,-0.45173484,0.40561453,-0.28313604,13.440653,43.481934,6.278414
457644712000.0,3.1700702540170944,-5.564345692051282,0.435728348034188,-0.3659083,0.6215554,-0.18875736,13.524282,43.80552,6.442375
457649716000.0,3.415825865641026,-5.932978966923077,0.7042390912820513,-0.31398472,0.77824235,-0.110872045,13.626642,44.10501,6.548018
457654752000.0,3.61779014534386,-6.371442269095406,1.2097512402739463,-0.267559,0.8341365,-0.0076358155,13.701523,44.411293,6.673447
457659749000.0,3.777110647084562,-6.86761185746219,1.924417208465709,-0.20861048,0.79290307,0.10476339,13.770158,44.700287,6.7692795
457664786000.0,3.882596233596392,-7.419385855129651,2.687525222266065,-0.11026118,0.63346726,0.22815818,13.786908,44.97087,6.8949904
457669774000.0,3.9140114486283353,-8.034227148252537,3.499833346993612,0.02687807,0.39400807,0.36102137,13.75397,45.21581,7.0195365
457674740000.0,3.889537915383792,-8.76909144395675,4.365831376844021,0.19120082,0.077579886,0.49938235,13.642726,45.39454,7.1768823
457679755000.0,3.730148319516112,-9.80769466898619,5.378726673546729,0.3631594,-0.25625798,0.6249151,13.454302,45.53424,7.3584065
457684781000.0,3.4637375556632755,-10.919685388065815,6.200138655383355,0.50823987,-0.5821546,0.7110472,13.184761,45.61146,7.5537534
457689808000.0,3.056167155533556,-12.125961864409094,6.765478363337202,0.634689,-0.73639804,0.7156286,12.874005,45.644398,7.7683067
457694755000.0,2.65508285685806,-13.313041579640885,7.321821218966341,0.6817256,-1.0268645,0.6780604,12.482617,45.671494,7.98703
457699756000.0,2.069106935578145,-14.598568571205162,7.804593313947805,0.7840455,-1.180497,0.5708536,12.103717,45.640865,8.217957
457704791000.0,1.2961666198221091,-15.97949323252859,8.209915489199492,0.86467975,-1.1563679,0.45937067,11.712743,45.59837,8.47403
457709922000.0,0.4063335788235295,-17.138870625735294,8.35922850857843,0.8762862,-0.93370754,0.4007276,11.408885,45.683693,8.537057
457714800000.0,-0.5478261764705881,-17.978531047794117,8.221829515931372,0.86284715,-0.5314528,0.37720928,11.1664715,45.73952,8.574753
457720127000.0,-1.5198741729765013,-18.82984085182768,8.086806985639686,0.8503244,-0.0143553335,0.38606682,11.080206,45.927326,8.353406
457724799000.0,-1.600189344778068,-18.851745045039163,8.134265753263708,0.8210029,0.5235115,0.40194935,11.08795,46.10096,8.066464
457729867000.0,-1.687312052545692,-18.875505843668407,8.185747139033943,0.8051204,0.96791595,0.43951756,11.290401,46.426426,7.4706864
457734919000.0,-1.451468582554054,-18.409432035135136,8.141010155540542,0.82253003,1.2568552,0.46639562,11.570735,46.71483,6.8324943
457739868000.0,-0.9911226468505068,-17.604827460641893,8.028926047880068,0.81214535,1.461495,0.46609017,11.923633,46.984413,6.1538873
457744823000.0,-0.4981819135309511,-16.633493604630097,7.8779736688575746,0.82650065,1.591304,0.462425,12.326372,47.214787,5.4405007
457749854000.0,0.1322678932793155,-14.97492507528938,7.567598340553598,0.86376345,1.6588045,0.505491,12.748002,47.41812,4.7188883
457754775000.0,0.6810712781103316,-13.412446975664675,7.232530887763056,0.906524,1.6728544,0.61453044,13.109488,47.51461,4.0953975
457759798000.0,0.972688279159089,-12.05434513994977,6.765943908807483,0.947452,1.6362026,0.76174897,13.457977,47.592014,3.4686632
457765764000.0,1.2827670570945946,-10.408321600718988,6.17545851502079,0.9783007,1.5818355,0.9053023,13.71771,47.533127,2.9548602
457769842000.0,1.1914239902027028,-9.0077284382623,5.468395841528067,0.98349303,1.5039502,1.0354166,13.938273,47.471474,2.4343126
457774857000.0,1.079093072972973,-7.285321692376993,4.598871734719335,0.96852684,1.4162911,1.1398746,14.084129,47.32059,1.9825885
457779852000.0,0.9609216786622526,-6.328664482446769,4.137726119434204,0.95905846,1.282817,1.2156218,14.183731,47.17015,1.5415415
457784933000.0,0.8364440980889324,-5.871026332066812,3.943687427763148,0.9437868,1.0858129,1.2565498,14.238313,47.028137,1.1235843
457790279000.0,0.705052401667218,-5.390840110444922,3.741003853407212,0.9324858,0.8393288,1.273654,14.244507,46.81401,0.733483
457794861000.0,0.578040119523652,-5.0243189505871655,3.617620506169368,0.9492846,0.7293731,1.269378,14.234777,46.598892,0.35832602
457799874000.0,0.4390805886668872,-4.623321444177969,3.4826312613628847,0.9605856,0.52106804,1.2415836,14.167958,46.359444,0.034725532
457804850000.0,0.2360570489479472,-4.157657588709678,3.5426146099706743,1.0115929,0.35216382,1.2027937,14.090729,46.107155,-0.26495466
457809849000.0,-0.027182267852517,-3.628254081989248,3.779530071749756,1.0815369,0.21166481,1.1710287,13.9818535,45.850094,-0.5183159
457814804000.0,-0.2881046152712609,-3.1035102580645164,4.014360260410557,1.1826351,0.129198,1.1322387,13.879458,45.53966,-0.76058483
457819735000.0,-0.5594672807626089,-2.6820771487137938,4.283180963955844,1.2935071,0.10598512,1.0845913,13.769891,45.21242,-0.97222507
457824796000.0,-0.8785309114543245,-2.5986296954223214,4.680783200850719,1.4337007,0.15393804,1.0415252,13.665966,44.854633,-1.1687602
457829749000.0,-1.1878946964787058,-2.5705723848441586,5.087765006043302,1.5525141,0.25442538,0.9987647,13.563358,44.36645,-1.4276736
457835789000.0,-1.554895472115156,-2.726547804306448,5.647441350559124,1.611768,0.37995818,0.95294976,13.484157,43.86234,-1.6867917
457839764000.0,-1.7964233004520582,-2.829197190459196,6.015771395170116,1.6377298,0.48930305,0.9193522,13.418767,43.296467,-2.013054
457844866000.0,-2.0977060540339503,-3.156518665201221,6.593827974194164,1.6221527,0.5561928,0.8875872,13.376688,42.731586,-2.34316
457849773000.0,-2.3845243688537097,-3.537449224947549,7.185390643219531,1.5748106,0.5815437,0.8854492,13.346276,42.1743,-2.6818352
457854842000.0,-2.624828331204601,-3.914087839989407,7.734103428919491,1.520749,0.5216789,0.8772025,13.332206,41.59057,-3.0760684
457859844000.0,-2.8314325802966103,-4.276551358527542,8.241552619809323,1.4691309,0.4083634,0.8848383,13.306443,41.025085,-3.4609885
457865139000.0,-3.041992359275982,-4.6864688627670725,8.767669307990003,1.4361442,0.22479841,0.8735373,13.278554,40.46075,-3.8597414
457869864000.0,-3.1259042525679277,-5.386950969918568,9.096020045714749,1.4110987,0.015577064,0.8588765,13.220623,39.916176,-4.2210016
457874852000.0,-3.2144867972748528,-6.126422874780295,9.442647237200678,1.3796391,-0.19975294,0.8390234,13.147969,39.38051,-4.572491
457879843000.0,-3.1656940144102728,-6.590462881396639,9.4608646862714,1.3716979,-0.40439278,0.82650065,13.0384445,38.855198,-4.8689313
457884861000.0,-2.994281664093215,-6.811394371932467,9.186604893944198,1.3820826,-0.4783075,0.80756384,12.918367,38.344173,-5.1331124
457890150000.0,-2.8122060163572344,-7.035592960371319,8.893729578505122,1.3805555,-0.6056729,0.7742717,12.799123,37.91963,-5.3353868
457894864000.0,-2.631567995966709,-7.122299324839949,8.583032049135724,1.3970488,-0.62888575,0.7632761,12.6851,37.498386,-5.5352573
457899862000.0,-2.4400472437580025,-7.2142294074903965,8.253616212948144,1.3997977,-0.6215554,0.73731434,12.591692,37.155247,-5.652799
457905392000.0,-2.2626330454401686,-7.228081035635213,7.745985652214022,1.4459181,-0.57971114,0.7031059,12.5060625,36.80679,-5.7635765
457909866000.0,-2.141230454032683,-7.182907904322614,7.24343555396679,1.5436565,-0.51893,0.6963864,12.425736,36.453213,-5.8751225
457914845000.0,-2.0061246197416973,-7.132635883579336,6.684160422278598,1.5928311,-0.4352415,0.66553766,12.406538,36.162052,-5.9320536
457919860000.0,-1.8871985089207732,-7.056308160948221,6.264707152838429,1.7009543,-0.355829,0.63591075,12.396696,35.83699,-5.99904
457924796000.0,-1.788901286712414,-6.953096236722812,6.009134436681223,1.8445076,-0.2770274,0.59315014,12.409293,35.49987,-6.075664
457929833000.0,-1.6664922796237749,-6.8015175093265885,5.935214467491305,2.0451767,-0.2284636,0.5204572,12.3881855,35.129715,-6.171132
457934940000.0,-1.5234616463167878,-6.60823281735694,6.0202597012804295,2.2504275,-0.23915374,0.44318274,12.382573,34.72962,-6.2605386
457940109000.0,-1.3805398307467731,-6.407753373563307,6.115052856422864,2.4507914,-0.3210097,0.34666604,12.374519,34.272743,-6.325791
457944869000.0,-1.2719693359711124,-6.162594247257222,6.311180362261831,2.5967882,-0.47586402,0.25870144,12.370231,33.788536,-6.358171
457949852000.0,-1.158312450368777,-5.9059497249078055,6.51649619452981,2.6914723,-0.6609562,0.18234327,12.338551,33.226498,-6.311
457954842000.0,-1.0183185095466398,-5.458572903103709,6.761904803709312,2.7149906,-0.82711154,0.13713925,12.299855,32.6617,-6.2223973
457959954000.0,-0.8371348941037935,-4.725602656320969,7.070740420968964,2.7073548,-0.9492846,0.13652839,12.247542,32.096428,-6.0959034
457964958000.0,-0.6727071716587987,-4.034907360686961,7.344732634966629,2.6422975,-0.98563105,0.16737708,12.16084,31.494688,-5.9044576
457969872000.0,-0.7110112537034022,-3.770609114585708,7.176194513983396,2.5335636,-0.93034774,0.2415972,12.059536,30.925127,-5.7147813
457975113000.0,-0.7518642642845516,-3.488723256259157,6.996441096793098,2.4077253,-0.7651087,0.34574974,11.8942995,30.250149,-5.498326
457979841000.0,-0.8359605854625551,-3.305101238011328,6.793975897419761,2.278833,-0.4822781,0.47525316,11.731971,29.624887,-5.341048
457984962000.0,-0.959416446530837,-3.1546393934864696,6.547064296137508,2.144137,-0.12492194,0.6267477,11.574427,29.052706,-5.2622724
457989950000.0,-1.08612917747365,-3.01348426268486,6.3057901139799,2.0421226,0.0571159,0.7049385,11.407454,28.46628,-5.2436604
457994867000.0,-1.3131297400604625,-2.959619831358771,6.0557046803251895,2.005165,0.43157628,0.8527679,11.262988,27.909597,-5.389827
457999853000.0,-1.5433157894926055,-2.9049995233270693,5.802109811054825,1.9449949,0.7629707,1.0149527,11.11873,27.377668,-5.6320443
458004844000.0,-1.74842914167868,-2.982108498766619,5.447214915617492,1.9401081,1.0170907,1.1591167,10.982664,26.851204,-5.959197
458009955000.0,-1.9405168215361204,-3.1545952111805224,5.0120776136232585,2.0054705,1.1487321,1.2748758,10.841699,26.331085,-6.3473744
458014809000.0,-2.098032090501044,-3.314177120218404,4.611204606656496,2.185065,1.1554517,1.3432927,10.722988,25.782558,-6.849984
458019839000.0,-1.99359763434238,-3.4340833700979605,4.328844987176811,2.4388795,1.0647382,1.357648,10.596444,25.206188,-7.355708
458024801000.0,-1.890575015762004,-3.5523686209731813,4.050302555395857,2.6929994,0.9370673,1.3151928,10.506382,24.63808,-7.924061
458029837000.0,-1.6825771518170327,-3.5690923660767897,3.838436046610839,2.9385672,0.78984874,1.2406673,10.414445,24.019667,-8.447762
458034962000.0,-1.3995211506715122,-3.514807611376205,3.671704386790962,3.1627548,0.63346726,1.1511755,10.327293,23.35864,-8.916331
458039791000.0,-1.1211827062079496,-3.45462525562288,3.533226521861367,3.3573153,0.49968776,1.0546589,10.223411,22.613104,-9.342538
458044861000.0,-0.6426209030911295,-3.246725477872032,3.6862094506059138,3.5124753,0.39278635,0.9795224,10.125806,21.838951,-9.718849
458049851000.0,-0.1716103710294071,-3.042106169987074,3.836778447535951,3.658472,0.3032946,0.9184359,9.994844,20.988007,-9.980702
458054910000.0,0.8140554019551318,-2.5815966341559173,4.757932724397084,3.8014145,0.17501289,0.86162543,9.8692465,20.117563,-10.1905155
458059972000.0,2.1385428445584487,-1.9523679302379615,6.191175748129156,3.973373,0.01282817,0.7791586,9.756981,19.222885,-10.353319
458064800000.0,3.2900044264747588,-1.3554334666973908,7.459829270348837,4.177707,-0.116980694,0.6954701,9.5810375,18.237259,-10.309904
458069861000.0,3.348424743675553,-0.762639405076574,7.779422593023256,4.3802094,-0.18203785,0.6337727,9.415018,17.230532,-10.2303505
458074843000.0,3.405933145235394,-0.1790985999007375,8.094027203488372,4.552168,-0.047647487,0.6239988,9.032297,15.969886,-9.604093
458079838000.0,3.4635916088627337,0.4059648930445263,8.40945274127907,4.647463,0.12705997,0.6914995,8.6544,14.705663,-8.980289
458084986000.0,3.523016187592172,1.0089492497376629,8.734539962209302,4.6337185,0.5723807,0.86742866,8.289244,13.453149,-8.482584
458090709000.0,3.5890781269994325,1.679283257770845,9.095937430232558,4.579046,1.0122037,0.9978484,7.9315853,12.202659,-8.042754
458094863000.0,3.367606901930268,2.838640986366852,10.313507467913087,4.534758,1.4850134,1.3014483,7.510887,10.976,-7.7612166
458099855000.0,2.840976278140475,4.882353829782719,12.700254811015665,4.4635925,1.9230038,1.6300939,7.0719986,9.802394,-7.5999665
458104843000.0,2.5409148601746727,6.205314939737991,14.360242054366813,4.440685,2.381458,1.9462167,6.4789405,8.249387,-7.493353
458109902000.0,2.486511769107923,6.752369257766688,15.24278334198378,4.338976,2.8704557,2.2693644,5.8129554,6.7531,-7.528541
458114821000.0,2.4336141994385527,7.2842846936993135,16.100901664535247,3.9086213,3.3609805,2.6169467,5.0119767,5.0290065,-7.738739
458119819000.0,2.0601260546931703,7.950653228777241,16.910207715510165,3.0069842,3.6483927,2.9578094,4.1294928,3.4949636,-8.037816
458124916000.0,0.7827186474696817,8.983261183824201,17.560037802498403,1.67316,3.6771033,3.1893275,3.182312,2.2297564,-8.399614
458129858000.0,-0.6242941485910376,9.993237214372224,18.17292067541381,0.12736541,3.4736853,3.131906,2.192294,1.177068,-8.740582
458134922000.0,-3.9996975792700846,11.128813761485668,18.603656705773112,-1.1496484,3.0100386,2.9272664,1.1853256,0.45502788,-9.024132
458139779000.0,-7.237125395780379,12.217971599031085,19.016785635365363,-1.8872682,2.4785857,2.7204883,0.1821675,-0.10967306,-9.51321
458144839000.0,-9.148528147576457,12.19046521648394,18.33784702096557,-2.221717,2.251344,2.4685066,359.25882,-0.39802456,-9.956713
458149848000.0,-10.048142957876514,11.373891754760532,16.912303348528564,-2.4065037,2.2137756,2.1713204,358.41876,-0.49453136,-10.309358
458154843000.0,-10.569785173857976,10.219341218171072,15.218670542936756,-2.4297166,2.1294763,1.8264871,357.59586,-0.6991557,-11.3376465
458159851000.0,-10.747971953559064,8.749298657603648,13.270763209997464,-2.278833,1.8707749,1.4413365,356.86874,-0.8640763,-12.245091
458164782000.0,-10.819856775969706,7.174037705567496,11.232808837682938,-1.9737056,1.5274686,0.98532563,356.2726,-0.9309254,-13.287653
458169772000.0,-10.262302539965203,4.801986944232934,8.440146732473647,-1.6032158,1.1633929,0.4370741,355.81534,-1.0223585,-14.199403
458174756000.0,-9.591827351446668,2.6592588795739167,5.769457656516481,-1.201572,0.9993755,-0.14630222,355.5505,-0.9714836,-15.177094
458179853000.0,-8.383272120015834,1.5104287196271775,3.5842210519519213,-0.84940815,0.84238315,-0.61850107,355.41766,-0.9799758,-16.023361
458184999000.0,-7.163098445120196,0.3505542830790271,1.3779766793623145,-0.6740898,0.99296147,-0.88606006,355.48343,-0.7611277,-16.936388
458189850000.0,-5.757076809758167,-0.5419733097157404,-0.1390262398939329,-0.34574974,1.3069462,-0.9388999,355.6317,-0.6639387,-17.840292
458194774000.0,-3.991470483665677,-1.182193168519304,-0.9342994221340686,-0.14385876,1.5864171,-0.93034774,355.84683,-0.56482804,-18.76534
458199851000.0,-2.269561539998138,-1.6181558437453465,-0.2876117720588236,-0.06780604,1.6560557,-0.8216137,356.114,-0.35804856,-19.625076
458204847000.0,-0.661937955612435,-1.8497249077810871,1.640645857352941,-0.15118915,1.3197744,-0.62949663,356.3621,-0.17064512,-20.448618
458210090000.0,0.9976250654871488,-2.031384022315202,4.084146566248257,-0.37018433,0.5662721,-0.35643986,356.60513,0.074107885,-20.952557
458214882000.0,2.478898889468021,-2.118248880334728,6.859249238493724,-0.5708536,-0.46853364,-0.049480084,356.78497,0.31413814,-21.281548
458219834000.0,3.856150214376102,-2.04321141533036,9.22466937454621,-0.6462954,-1.4709635,0.31520647,356.90585,0.5468795,-20.984276
458224792000.0,4.983972357182865,-1.698462200228192,10.771115395290945,-0.56688297,-2.158187,0.7415904,356.90552,0.75314623,-20.483292
458230411000.0,5.310963571726806,-1.1104278115799515,11.49008597183479,-0.41447207,-2.4544566,1.178359,356.85535,0.8403796,-19.296434
458235133000.0,4.790098417924953,-0.4512077892363899,11.229653203725368,-0.22937989,-2.403144,1.4908166,356.66913,0.8708457,-18.058134
458239758000.0,4.0329165746042674,0.2297972255306263,10.764554571920163,-0.04153884,-1.9953914,1.7082846,356.27826,0.7459241,-16.647846
458244823000.0,2.282656499242946,1.1073118209902664,9.472128516468391,0.10170906,-1.3649784,1.8579466,355.78604,0.58229375,-15.371405
458249772000.0,0.4849105755829904,1.8641607851640811,8.315342370159334,0.20066923,-0.71959925,1.9138408,355.1883,0.30014765,-14.387491
458254847000.0,-1.7664777714677635,2.171867668935317,7.623001948612431,0.22266038,-0.23273966,1.8304577,354.5861,0.020428775,-13.560071
458260126000.0,-4.09792726579968,2.209301472279261,7.387946058407484,0.19425514,-0.07360926,1.5989398,353.99344,-0.33773333,-13.172173
458264861000.0,-6.170560533348543,1.7402862724161534,8.039739028215074,0.1441642,-0.25870144,1.2476922,353.46866,-0.67047614,-12.823229
458269821000.0,-8.341682182143128,1.2489841834360027,8.722504208837174,0.06658431,-0.5867361,0.84421575,353.02475,-1.0089446,-12.852077
458274852000.0,-8.982786787896945,0.928537136969243,8.723850957259836,-0.020463986,-0.729984,0.45234573,352.69162,-1.3004732,-12.876939
458279849000.0,-8.839421690233673,0.6991527960774915,8.379774523267425,-0.13316862,-0.80878556,0.30268374,352.41586,-1.5451777,-12.825485
458285124000.0,-8.325917684244791,0.3720364900260416,8.33221480078125,-0.17195857,-0.5983425,-0.047036625,352.31772,-1.699175,-13.281243
458289873000.0,-7.712577002269345,0.042101605438988,8.421043891741071,-0.17165314,-0.33475417,-0.1740966,352.21713,-1.831697,-13.707267
458294817000.0,-6.727304121910828,-0.1296752512590233,8.577198200849256,-0.122478485,-0.08093964,-0.43493605,352.2461,-1.9087541,-14.186677
458299756000.0,-5.416766897133758,-0.1397176801114649,8.793110098726116,0.016798794,0.1386664,-0.66920286,352.3174,-2.001444,-14.713795
458304844000.0,-4.116142111345694,0.0254259186891867,9.019060416513678,0.20799962,0.32559118,-0.79443026,352.41858,-2.0476952,-15.19713
458310386000.0,-2.732517763447769,0.3226128452909859,9.267528360794932,0.39920044,0.43768495,-0.8045095,352.56293,-2.1235197,-15.709351
458314787000.0,-1.649607954421894,0.6285883690036901,9.543364844710949,0.5739079,0.48197266,-0.71959925,352.69455,-2.2330554,-16.046783
458319798000.0,-0.4346246790395653,1.0565379389298897,9.94671926993645,0.68600166,0.41905355,-0.5519168,352.8081,-2.3804426,-16.378698
458324786000.0,0.540460196649013,1.4112533658642272,10.234839765527203,0.71685034,0.32162055,-0.30482176,352.80057,-2.6032865,-16.505404
458329844000.0,1.282095118330284,1.695779965922003,10.407421550409245,0.6658431,0.2180789,-0.005192355,352.73087,-2.8433018,-16.607155
458334966000.0,1.550814706010929,1.835920943715847,10.580487469945352,0.50426924,0.11881329,0.3210097,352.55136,-3.1095273,-16.473532
458339884000.0,1.2130164003688524,1.787664042909836,10.744560885655735,0.25809056,-0.084910266,0.52656585,352.324,-3.3418918,-16.279184
458344855000.0,0.8715777307172132,1.7388870901024591,10.910402477663933,-0.044898596,-0.25625798,0.6600399,352.0338,-3.5326073,-15.92269
458349854000.0,0.3539327348820978,1.8225877641112405,10.699390329914348,-0.3378085,-0.29168814,0.81153446,351.681,-3.668759,-15.547032
458354850000.0,-0.3391903072919532,2.0401373875436186,10.10745334609284,-0.57787853,-0.1572978,0.9443977,351.29666,-3.7386818,-15.173918
458360115000.0,-1.409850138975577,2.2608708789128578,9.262505034305804,-0.7067711,0.064446285,1.0372492,350.87537,-3.7638512,-14.895207
458364887000.0,-2.565066247454148,2.4563020781146063,8.376549653900978,-0.7461719,0.32925636,1.078788,350.43024,-3.7502697,-14.668848
458369803000.0,-3.1603463,2.5570073,7.920019,-0.68844515,0.5687156,1.0680978,349.99304,-3.7630632,-14.621211
458374852000.0,-3.1603463,2.5570073,7.920019,-0.57604593,0.6743952,0.9999864,349.56387,-3.7783575,-14.60788
458379967000.0,-3.887219156669405,2.3059057641833287,8.03896203031133,-0.43554693,0.8402451,0.94806284,349.17395,-3.859782,-14.911237
458385077000.0,-5.115905990139687,1.8814503066831003,8.240020212544508,-0.36865717,0.9822713,0.838718,348.82678,-3.9426527,-15.231768
458389776000.0,-5.927679246640103,1.523188687034245,8.451743698363126,-0.2742785,1.0531317,0.70463306,348.5047,-4.0664053,-15.572647
458394769000.0,-6.282985395907818,1.1936293944647858,8.719510126211501,-0.18967366,1.0586295,0.5739079,348.21924,-4.1964927,-15.927877
458399787000.0,-6.501625176107595,0.9134523236946204,8.846503028481013,-0.13500121,0.98654735,0.43493605,348.02252,-4.3001084,-16.470915
458404790000.0,-6.591651271716772,0.6812801232891614,8.84176521914557,-0.08827003,0.8585711,0.310625,347.87473,-4.412753,-16.985428
458410087000.0,-6.621111573652595,0.4847225711663607,8.810392398631736,-0.03573562,0.68111473,0.21380283,347.78592,-4.497349,-17.49349
458415760000.0,-6.589382341715335,0.3215445193851159,8.751466749791422,0.01282817,0.48991394,0.13347405,347.743,-4.5826283,-17.948948
458419784000.0,-6.554371849849605,0.2099169160639395,8.714273031024407,0.053450707,0.30604348,0.07819075,347.7409,-4.648538,-18.35973
458424796000.0,-6.401745487714851,0.1067909413372293,8.708085562822275,0.10048734,0.12003502,0.05009095,347.7668,-4.7232656,-18.706406
458429784000.0,-6.249849978072362,0.0041587861223788,8.701927723358542,0.1282817,-0.040927973,0.052839845,347.80463,-4.778076,-19.004593
458434987000.0,-6.091407248186662,-0.1028971688862152,8.695504459779993,0.1255328,-0.14935656,0.047036625,347.8613,-4.8329597,-19.259575
458439844000.0,-5.943500975064455,-0.2028338925988311,8.689508343846683,0.10934488,-0.22021692,0.047647487,347.92203,-4.8912997,-19.474573
458444907000.0,-5.719036787085166,-0.2698411684106357,8.744754457616953,0.07941248,-0.22999077,0.03604105,347.9812,-4.940429,-19.679588
458450058000.0,-5.408381130447821,-0.2944963804808077,8.872961529488204,0.05222898,-0.20647246,0.032070424,348.04163,-4.9857316,-19.87035
458454846000.0,-5.095791753449281,-0.2255202167411581,9.005448779440343,0.023518313,-0.13927728,0.018936822,348.0989,-4.9838457,-20.018929
458460114000.0,-4.723245314467548,-0.0392470433171395,9.16721200446949,0.006414085,-0.053450707,-0.008246681,348.1616,-4.9765105,-20.178074
458464740000.0,-4.420532105450325,0.1650767650752089,9.311729123119775,-0.007941248,0.019547688,-0.0290161,348.20575,-4.9538317,-20.301386
458469834000.0,-4.126105385283195,0.4549739212534819,9.474796718662953,-0.031154128,0.04428773,-0.055588737,348.25967,-4.922015,-20.43413
458474787000.0,-3.8368982001162566,0.7386481254989343,9.63063856016276,-0.02443461,0.043676864,-0.064751714,348.2802,-4.9243813,-20.513876
458479867000.0,-3.530536796512304,1.0355829350319707,9.781462195117228,-0.026267206,0.0018325958,-0.07696902,348.31097,-4.91577,-20.587997
458486021000.0,-3.194197253469852,1.2903339715206674,9.916015063329542,-0.0421497,-0.1301143,-0.06841691,348.30536,-4.935853,-20.58322
458489859000.0,-3.026935466939704,1.3209986163746683,9.941104259992416,-0.0842994,-0.19639318,-0.06536258,348.30508,-4.945749,-20.585318
458494887000.0,-2.807812938885097,1.3611710588775123,9.97397254577171,-0.11301007,-0.31398472,-0.045814894,348.27026,-4.9871435,-20.482613
458499848000.0,-2.762083205349105,1.2562648615932168,9.893101647754632,-0.14905111,-0.4129449,-0.0421497,348.24084,-5.012103,-20.368717
458504803000.0,-2.856462858547053,1.0327342200408247,9.719244582958233,-0.19364429,-0.4569272,-0.032375857,348.2053,-5.0279627,-20.239029
458510144000.0,-2.997036565950532,0.7773629973144971,9.56655296831558,-0.24037547,-0.45478916,-0.04550946,348.14795,-5.03762,-20.056185
458514877000.0,-3.140243439989168,0.5441403549593788,9.447896000361077,-0.26328292,-0.40530908,-0.065973446,348.08932,-5.04049,-19.878399
458519859000.0,-3.2575856117623525,0.2773921387497499,9.325357638527704,-0.2837469,-0.2941316,-0.09560041,348.04343,-5.007857,-19.74726
458524796000.0,-3.328520840578116,-0.0158068053760752,9.207131845669132,-0.28710666,-0.17348573,-0.13347405,348.00378,-4.971282,-19.636404
458529755000.0,-3.3561376820612545,-0.2697521552795333,9.106476597472046,-0.25900686,-0.061086524,-0.16432275,347.97858,-4.904848,-19.59368
458534988000.0,-3.317156233174526,-0.4744043854234321,9.028514310257655,-0.21868975,0.039095376,-0.18478674,347.9582,-4.840487,-19.582613
458539756000.0,-3.2782591540912667,-0.598610717147915,8.966882737214792,-0.15943582,0.10720685,-0.20097467,347.9597,-4.754277,-19.609846
458544865000.0,-3.23013974013572,-0.613046551383753,8.918763273013376,-0.077579886,0.14355333,-0.21044308,347.96304,-4.686593,-19.655493
458549722000.0,-3.1830139601686605,-0.5912133280682487,8.875902700137281,0.0033597588,0.13255776,-0.20280726,347.978,-4.610749,-19.69987
458555549000.0,-3.1228213587173954,-0.4708280394577367,8.832125919886252,0.08368854,0.09560041,-0.19486602,347.99493,-4.558032,-19.745924
458560081000.0,-3.088816618300196,-0.3736201591024923,8.807293003220387,0.16310102,0.063224554,-0.17867808,348.00754,-4.527076,-19.783035
458564855000.0,-3.0760135149957994,-0.2647942756608793,8.797690859563147,0.21838433,0.038179077,-0.17959438,348.02325,-4.511156,-19.81106
458569872000.0,-3.062558724614953,-0.1504290772472696,8.787599959955195,0.2669481,0.032986723,-0.18081611,348.01657,-4.5338535,-19.832996
458574845000.0,-3.063644630227201,-0.0040799928761386,8.79489697277772,0.29901853,0.025961773,-0.183565,348.01147,-4.566007,-19.846935
458579845000.0,-3.083698760684745,0.1864333879216836,8.824978116113495,0.2996294,0.03023783,-0.18417588,348.00607,-4.6017323,-19.862322
458585102000.0,-3.1057177692028985,0.3546636808876812,8.876620207608696,0.30573806,0.044593163,-0.17867808,347.98376,-4.664925,-19.882444
458589799000.0,-3.126090155797101,0.4809725628623188,8.937737367391305,0.2733622,0.08093964,-0.18295415,347.96494,-4.7148247,-19.909924
458594756000.0,-3.1468891532714998,0.6045148094162718,8.988741423530598,0.23487769,0.11453723,-0.18509217,347.93478,-4.786438,-19.944834
458599800000.0,-3.1663690924589174,0.7067845918540175,9.008221261014215,0.19608775,0.14538592,-0.1881465,347.90695,-4.8461895,-19.98867
458604717000.0,-3.194161176137615,0.7517301758238533,9.02001912761468,0.13988814,0.1554652,-0.19608775,347.8852,-4.905114,-20.033197
458609934000.0,-3.2445816623669725,0.6692237707302753,9.015435346972478,0.08124508,0.14049901,-0.1994475,347.86438,-4.9508605,-20.07824
458614872000.0,-3.288800363876786,0.5931669130046626,9.004993697240694,0.03268129,0.10720685,-0.20525073,347.84906,-4.9936132,-20.121635
458619781000.0,-3.3139543080103957,0.5284855792998548,8.961872693036765,0.01038471,0.04428773,-0.20586158,347.8356,-5.026444,-20.151155
458625205000.0,-3.3417471360773523,0.4570185689077429,8.91422789230299,-0.023823744,-0.024740042,-0.19730948,347.82852,-5.0379276,-20.175049
458629843000.0,-3.368964572037551,0.3894711805441134,8.852927708305392,-0.017104227,-0.1001819,-0.18845193,347.82404,-5.0538807,-20.178556
458634927000.0,-3.401613163856691,0.3101815762908325,8.768974256059009,-0.011301007,-0.15699236,-0.1731803,347.81674,-5.0616317,-20.167076
458639843000.0,-3.4303811977368657,0.2433179849573417,8.711099622586438,0.010079277,-0.17592919,-0.16310102,347.81854,-5.064633,-20.152586
458644824000.0,-3.456085036515492,0.1876262895374943,8.681111855410867,0.033292156,-0.21624629,-0.13408493,347.81198,-5.07301,-20.115421
458649807000.0,-3.47959380670998,0.1404390910533603,8.66600152907658,0.06627888,-0.24037547,-0.11636983,347.81464,-5.082724,-20.086721
458654849000.0,-3.4950223589306635,0.1250105280924486,8.707144388699541,0.109650314,-0.2742785,-0.1001819,347.81024,-5.103825,-20.043789
458660150000.0,-3.5153571565165165,0.1443787494854854,8.744293876276275,0.14630222,-0.29779682,-0.086132,347.81003,-5.1228867,-20.00305
458664865000.0,-3.539463785745746,0.2136851779406073,8.768400316716717,0.18112154,-0.32589662,-0.08246681,347.80902,-5.152888,-19.952297
458669871000.0,-3.565058226026026,0.2872690551084418,8.793994556556557,0.22785273,-0.33505958,-0.07819075,347.8079,-5.1937146,-19.89954
458674821000.0,-3.568355428872367,0.3786418676332094,8.827374920280876,0.2434298,-0.3408628,-0.079107046,347.8078,-5.233991,-19.84132
458679850000.0,-3.5285686854399008,0.5079485500991326,8.877108219743908,0.28099802,-0.3390302,-0.08979719,347.80933,-5.2904563,-19.784475
458685180000.0,-3.4668783840395005,0.6262413854633694,8.938927990378122,0.2910773,-0.33505958,-0.09743301,347.81436,-5.3414106,-19.735888
458689890000.0,-3.390736074029372,0.7099980218830182,9.003649146691425,0.29138273,-0.32070425,-0.113926366,347.8249,-5.3959136,-19.69292
458694960000.0,-3.308056260433939,0.8011466033224555,9.07751456720762,0.29626966,-0.2910773,-0.12492194,347.83,-5.4645863,-19.648676
458699852000.0,-3.2171500599047453,0.9044490619536072,9.21387399744223,0.26816985,-0.2770274,-0.13897185,347.84103,-5.520225,-19.606277
458704717000.0,-3.1267455902451933,1.0071813721008995,9.349480830657964,0.2443461,-0.25595254,-0.15210545,347.8447,-5.5850434,-19.55492
458710137000.0,-3.021453881360288,1.1157266832105537,9.439558745759808,0.20586158,-0.24587326,-0.17348573,347.85495,-5.6339235,-19.506762
458714784000.0,-2.929961441365428,1.2072190833990064,9.50055370575638,0.16615535,-0.25228736,-0.1777618,347.86374,-5.6745353,-19.461245
458719831000.0,-2.8235789676075407,1.3093004010936362,9.572909095302574,0.11301007,-0.25686884,-0.18448131,347.8671,-5.702402,-19.395355
458724790000.0,-2.7098094046974275,1.413176963024685,9.65205320643683,0.062308256,-0.2648101,-0.17959438,347.8682,-5.7197194,-19.328255
458729842000.0,-2.6047834869684867,1.495791765716822,9.706999034798049,0.009162978,-0.269697,-0.17165314,347.86227,-5.7288265,-19.238237
458734898000.0,-2.5102208923124723,1.555967950075455,9.7370868352419,-0.031154128,-0.2724459,-0.1572978,347.85257,-5.7282767,-19.148464
458739771000.0,-2.4302968171937547,1.604042258046437,9.746977104883907,-0.07391469,-0.25717425,-0.13561209,347.82632,-5.724299,-19.041079
458744825000.0,-2.381856968654924,1.6234182176941554,9.69853720576461,-0.10781772,-0.24678956,-0.11056661,347.79468,-5.7133284,-18.933592
458749728000.0,-2.3433737778339907,1.624876593577431,9.65122209578117,-0.1328632,-0.21624629,-0.07971791,347.7529,-5.701736,-18.814539
458754852000.0,-2.330750204964843,1.5701749717286917,9.600728595180929,-0.14874569,-0.18051068,-0.04886922,347.703,-5.6859026,-18.70193
458760444000.0,-2.3209415945489718,1.5024429560137154,9.541367989010022,-0.14630222,-0.1518,-0.03390302,347.6481,-5.6790814,-18.589481
458769760000.0,-2.446445495023738,1.1023995496834886,9.290359368999471,-0.1337795,-0.111177474,0.0125227375,347.5734,-5.6764154,-18.490936
458774777000.0,-2.4979453552590267,0.9644310346153846,9.17228780690738,-0.13622294,-0.09682214,0.030848695,347.5129,-5.661561,-18.392105
458779809000.0,-2.540499723233909,0.8698657230769231,9.06353795290424,-0.12217305,-0.09896017,0.044898596,347.43976,-5.6584363,-18.300447
458785135000.0,-2.5570073,0.7832985345619452,8.983939145117715,-0.10598512,-0.089491755,0.06719518,347.37033,-5.639968,-18.233932
458789817000.0,-2.5570073,0.7140764475492087,8.932022433037437,-0.10415252,-0.08674286,0.07941248,347.30072,-5.6221304,-18.165657
458794741000.0,-2.552346293711628,0.6613092602455813,8.880794416744186,-0.093767814,-0.073303826,0.08582657,347.2428,-5.6087236,-18.110184
458799943000.0,-2.5430777330418604,0.624234988532093,8.82981723627907,-0.08155051,-0.07147124,0.09773844,347.18042,-5.598141,-18.052322
458804744000.0,-2.529826505094628,0.600127962037851,8.794663277603373,-0.07391469,-0.06658431,0.109650314,347.1278,-5.571638,-18.001276
458811039000.0,-2.502790019311149,0.5893133677244596,8.773034201901517,-0.06414085,-0.064446285,0.1151481,347.074,-5.550127,-17.95033
458814782000.0,-2.4871387139614693,0.5847514372077062,8.767873763045005,-0.03390302,-0.06658431,0.11575896,347.02356,-5.534474,-17.898739
458819815000.0,-2.468341414842836,0.5885108970314328,8.801708822946729,-0.025045475,-0.0693332,0.11789699,346.97147,-5.5167217,-17.84788
458824756000.0,-2.4498877182513064,0.5922016363497387,8.83492539973481,-0.017715093,-0.07819075,0.124311075,346.92117,-5.505855,-17.79039
458829785000.0,-2.413458893640817,0.5911596005878547,8.874993394121454,-0.0070249503,-0.0888809,0.13439035,346.86972,-5.4989247,-17.732103
458834947000.0,-2.36319645335983,0.5865902834975506,8.920686565024495,0.008552114,-0.099265605,0.14385876,346.81726,-5.495835,-17.671944
458839814000.0,-2.317956254941713,0.5883596181044096,8.957260177901672,0.01282817,-0.10903945,0.15332718,346.76633,-5.494695,-17.599241
458844864000.0,-2.2738339467815507,0.5981645527217436,8.986675084135834,0.008552114,-0.106901415,0.16035213,346.71365,-5.495702,-17.527893
458849779000.0,-2.233128437796867,0.5968058950783224,9.030507525012633,0.008246681,-0.111177474,0.15393804,346.66013,-5.498829,-17.439342
458854686000.0,-2.1951348187165234,0.5825582680869126,9.092247453562406,0.005192355,-0.11026118,0.14966199,346.60403,-5.5003505,-17.354017
458859820000.0,-2.176269009275834,0.5746084,9.152368707078926,-0.003970624,-0.110872045,0.14202617,346.55807,-5.5034394,-17.25319
458864684000.0,-2.1810067589910496,0.5746084,9.20448355817738,-0.009468411,-0.10995574,0.13744467,346.51248,-5.506043,-17.154917
458869680000.0,-2.1973615554539125,0.5815331873680024,9.25512383344934,-0.013133603,-0.10445796,0.14172074,346.4682,-5.5008326,-17.047247
458874705000.0,-2.2260719581584967,0.5958884087063737,9.302975004275629,-0.028710667,-0.09682214,0.13255776,346.429,-5.48916,-16.943031
458879912000.0,-2.250796225041934,0.6107064062170696,9.32781,-0.030848695,-0.079107046,0.12980886,346.39078,-5.477425,-16.8413
458884788000.0,-2.2692260136161817,0.6245287428367046,9.32781,-0.030848695,-0.0571159,0.12583824,346.35504,-5.461319,-16.745287
458889658000.0,-2.295420921448999,0.619963564194471,9.32781,-0.03726278,-0.044593163,0.12461651,346.32397,-5.4482555,-16.652884
458894682000.0,-2.3321141293040992,0.5924437157750239,9.32781,-0.058643065,-0.029626964,0.11209377,346.29648,-5.4299207,-16.569672
458899627000.0,-2.364159067198038,0.566343932801962,9.32781,-0.04886922,-0.0125227375,0.102319926,346.27353,-5.4182343,-16.49476
458904728000.0,-2.389118834620887,0.541384165379113,9.32781,-0.058948494,0.0076358155,0.096516706,346.2523,-5.3949842,-16.426743
458909852000.0,-2.4188946132917963,0.5176547699273105,9.315717082035306,-0.058643065,0.03604105,0.086437434,346.23676,-5.3769283,-16.373371
458914758000.0,-2.453743843183504,0.4967451810473223,9.287837450674973,-0.06505715,0.053450707,0.076358154,346.2224,-5.354304,-16.32388
458919697000.0,-2.4888274849354697,0.4756949447085002,9.259770288161992,-0.06688975,0.06811147,0.0720821,346.2068,-5.3300886,-16.28864
458924729000.0,-2.509752968841384,0.4760678195351416,9.206967264394471,-0.06047566,0.08674286,0.076052725,346.1909,-5.306978,-16.260136
458929678000.0,-2.524090696430372,0.485626286296259,9.14483752737723,-0.060170226,0.101098195,0.067500606,346.1796,-5.2810974,-16.235535
458934857000.0,-2.5346935771577246,0.5012503880674681,9.117071883007355,-0.04337143,0.11789699,0.06841691,346.16943,-5.259747,-16.22733
458939771000.0,-2.543137888928764,0.5181391218284587,9.10440508469406,-0.05009095,0.12644911,0.07360926,346.1603,-5.2325153,-16.221014
458944855000.0,-2.5521771172496406,0.5362176840632487,9.074232789841878,-0.048258353,0.13133603,0.05955936,346.16083,-5.21327,-16.224068
458949906000.0,-2.561448255582176,0.5547600575371346,9.027876856157164,-0.054367006,0.1563815,0.064751714,346.15332,-5.1926255,-16.23442
458954785000.0,-2.580320123951064,0.5684656247126734,9.005632089256483,-0.05100725,0.15118915,0.061391957,346.15396,-5.1686788,-16.243637
458960093000.0,-2.6153568110881364,0.577224780491083,9.01439140966658,-0.045814894,0.16218472,0.059864793,346.15143,-5.1450195,-16.263863
458964835000.0,-2.64360135130386,0.5853931939115783,9.02175465971275,-0.03970624,0.16035213,0.0580322,346.1456,-5.1241117,-16.286701
458969791000.0,-2.64740963348311,0.5968180404493301,9.025563021423414,-0.04062254,0.1695151,0.061391957,346.1383,-5.103751,-16.314926
458974783000.0,-2.6512455787290383,0.6083258761871139,9.029399046778464,-0.027794369,0.17256944,0.05955936,346.13184,-5.0938683,-16.347485
458979783000.0,-2.692645423455685,0.6035344659819322,9.054381910555872,-0.023823744,0.16829337,0.059864793,346.12408,-5.082249,-16.37947
458985128000.0,-2.763467869740376,0.586870333337674,9.096042198665256,-0.018325957,0.16615535,0.06658431,346.1152,-5.0753264,-16.411894
458990159000.0,-2.8180207763805103,0.5713553987935035,9.125070465429234,-0.026267206,0.1518,0.064751714,346.10394,-5.0693755,-16.44141
458994843000.0,-2.828428711322506,0.557478297107502,9.118131769682908,-0.01863139,0.14569137,0.06078109,346.09174,-5.069689,-16.471624
458999758000.0,-2.839349932552204,0.5429168208507348,9.110850879505026,-0.015577064,0.13927728,0.05497787,346.08917,-5.062734,-16.508669
459004845000.0,-2.860336937490577,0.5363012,9.10525363254879,-0.012217305,0.122783914,0.052534413,346.0876,-5.0581665,-16.540173
459010096000.0,-2.889821353069771,0.5363012,9.101041485216516,-0.008246681,0.10781772,0.060170226,346.08517,-5.055192,-16.56932
459014827000.0,-2.916120602642228,0.5349379664032373,9.094557926684123,-0.01282817,0.09315695,0.055283304,346.0881,-5.046792,-16.597477
459019968000.0,-2.943466496603983,0.5271248293676108,9.075025145282869,-0.005497787,0.081855945,0.04428773,346.09116,-5.0430965,-16.621597
459024720000.0,-2.9687432303340477,0.5199028828215504,9.05697033547568,-0.004581489,0.07513642,0.054061573,346.09448,-5.0349483,-16.648777
459029845000.0,-3.026574878663065,0.5225017704118838,9.05811348818366,-0.004276057,0.06261369,0.047647487,346.10632,-5.0267406,-16.671215
459034918000.0,-3.1003845452565835,0.5307028606532749,9.070415341914249,-0.0015271631,0.05131268,0.049785517,346.1129,-5.02124,-16.69108
459039756000.0,-3.157306483717236,0.5389159934868943,9.084042559670374,0.00030543262,0.051923547,0.047647487,346.11798,-5.0189424,-16.719723
459044854000.0,-3.1815432422557586,0.5486106969023035,9.103431865270055,0.006414085,0.06078109,0.049480084,346.12146,-5.019189,-16.746777
459049750000.0,-3.2066878424239973,0.5604762747639069,9.11812431508732,0.0076358155,0.06169739,0.037873644,346.13345,-5.01825,-16.788235
459054843000.0,-3.2382367290588614,0.5801943711190168,9.122068013421734,0.008857546,0.053145275,0.03604105,346.1422,-5.0199947,-16.828266
459061114000.0,-3.276257666610812,0.6038337691710027,9.126944444042683,0.017715093,0.051923547,0.030543262,346.15784,-5.0314293,-16.870184
459064796000.0,-3.288696877740541,0.6100533227806685,9.130053962695122,0.025961773,0.060170226,0.024740042,346.1742,-5.04262,-16.911674
459069786000.0,-3.305555015583385,0.6184823212902373,9.134268112091013,0.02565634,0.061391957,0.027794369,346.1908,-5.0554237,-16.958311
459074791000.0,-3.3161103938424388,0.6275626626863869,9.133738091457891,0.018325957,0.054061573,0.014660766,346.21408,-5.0663366,-17.004528
459079792000.0,-3.320929095593118,0.6372001517265319,9.128919741925747,0.032986723,0.058948494,0.010995574,346.23337,-5.0838614,-17.053345
459084855000.0,-3.3206855589944864,0.6465789592748341,9.131629778992618,0.03145956,0.056505036,0.003970624,346.25793,-5.093853,-17.101746
459089821000.0,-3.316241311522288,0.6554675934398655,9.140518088309504,0.035124753,0.06261369,0.0067195175,346.28033,-5.109371,-17.152922
459094753000.0,-3.3172785948024948,0.6626513474012474,9.162514787941788,0.03145956,0.053450707,0.0012217305,346.3103,-5.1127443,-17.202507
459099814000.0,-3.3268753049896054,0.6674497024948025,9.205699883575884,0.03023783,0.04795292,-0.0067195175,346.3398,-5.1177034,-17.253874
459104712000.0,-3.3312694784331875,0.6776735316391788,9.2276628419724,0.02443461,0.04428773,-0.0067195175,346.37003,-5.1194744,-17.300714
459109966000.0,-3.327035463572871,0.6988433848872434,9.214961106866374,0.025350908,0.039095376,-0.006414085,346.4024,-5.1221123,-17.344948
459115302000.0,-3.3211040076604896,0.7186700967571145,9.201672621525478,0.034208454,0.030543262,-0.006414085,346.43445,-5.1254063,-17.38571
459119774000.0,-3.303389071988749,0.7222130690933157,9.187500806171409,0.020158553,0.027488936,-0.01160644,346.46762,-5.1223116,-17.425964
459124779000.0,-3.283562763170086,0.7261783142951688,9.171639908173397,0.01038471,0.016493361,-0.003970624,346.4872,-5.1221323,-17.466604
459129787000.0,-3.265839032300025,0.7231229161500127,9.165004,0.013439035,0.0125227375,-0.012217305,346.51285,-5.119974,-17.508076
459135898000.0,-3.246065799831067,0.7132362999155334,9.165004,0.014049901,0.003970624,-0.01863139,346.53592,-5.1155186,-17.544064
459139800000.0,-3.2337191841655004,0.707062987851921,9.165814372997357,0.021685716,0.00061086525,-0.014966198,346.55722,-5.1177926,-17.575075
459144838000.0,-3.2187097604759685,0.6995582564162389,9.16956681707886,0.013133603,-0.004886922,-0.008246681,346.57953,-5.1156063,-17.602627
459149722000.0,-3.204159140130658,0.6922829272515166,9.173204557629491,0.011301007,-0.019547688,-0.004886922,346.60468,-5.111035,-17.6227
459154845000.0,-3.193795756640595,0.6822434849608922,9.162436641601486,0.005497787,-0.02107485,-0.004886922,346.6282,-5.103595,-17.644499
459160094000.0,-3.1860100177418107,0.6705648766127159,9.142972294354529,0.011301007,-0.029321533,-0.01038471,346.6526,-5.0988784,-17.659996
459164780000.0,-3.177482977024898,0.6616961102111566,9.125800571068387,0.014049901,-0.04428773,-0.008246681,346.66846,-5.0925894,-17.670322
459169921000.0,-3.142570515694926,0.677212759691144,9.11028359754176,0.011911872,-0.03756821,-0.0021380284,346.68408,-5.0866427,-17.684357
459174888000.0,-3.1088396860069336,0.692204239552474,9.095291804601324,0.02321288,-0.044593163,-0.0036651916,346.70724,-5.085705,-17.686642
459179841000.0,-3.076272881222,0.7258774077456868,9.095690195882185,0.018020526,-0.043066,0.01038471,346.72305,-5.0817323,-17.692736
459184962000.0,-3.043549539900868,0.7772996771251549,9.10971473605948,0.022907447,-0.047647487,0.0067195175,346.74457,-5.081955,-17.695686
459189856000.0,-3.0116525246141594,0.8169818047674997,9.112943234093398,0.016493361,-0.052839845,-0.0027488936,346.75262,-5.079979,-17.695637
459194828000.0,-2.978464139948223,0.8454290114268644,9.103460640446082,0.022296581,-0.05497787,-0.0067195175,346.76004,-5.0827746,-17.695173
459199835000.0,-2.948910709856013,0.8639771180287974,9.104159683431352,0.038789943,-0.04917465,-0.005192355,346.76593,-5.092773,-17.688503
459205716000.0,-2.9203560755019264,0.8696880448996147,9.121292821841411,0.03145956,-0.047036625,0.005497787,346.77023,-5.0980783,-17.680359
459209974000.0,-2.898758956022613,0.8651942280113066,9.135090518829214,0.023518313,-0.051618114,0.0018325958,346.7701,-5.1068544,-17.67062
459214855000.0,-2.873185311014862,0.8524074055074314,9.152139526488556,0.016798794,-0.061391957,0.00061086525,346.7662,-5.114747,-17.65988
459219735000.0,-2.847867770220588,0.8317210233455883,9.165004,0.014049901,-0.061086524,-0.0018325958,346.76047,-5.122397,-17.645819
459224790000.0,-2.822441881302521,0.7851070116596639,9.165004,0.01740966,-0.061086524,-0.0061086523,346.75595,-5.129343,-17.62936
459230199000.0,-2.7969968251254183,0.7364652280936455,9.16557331521739,0.0012217305,-0.06872234,-0.002443461,346.74664,-5.122462,-17.607079
459234962000.0,-2.8084385785953176,0.7173957053511706,9.177014869565216,0.0027488936,-0.071776666,-0.018936822,346.7445,-5.119222,-17.58716
459239763000.0,-2.8199716162625417,0.6981740428093646,9.18854770652174,-0.0027488936,-0.07360926,-0.0076358155,346.7285,-5.108206,-17.559801
459244837000.0,-2.822526311180241,0.6790035645550528,9.19636568881976,0.00061086525,-0.07696902,-0.009773844,346.7214,-5.0977206,-17.532455
459254843000.0,-2.817451912246621,0.6474811399738176,9.203311,0.002443461,-0.07086037,-0.008552114,346.7097,-5.086888,-17.507385
459259954000.0,-2.8215860378378377,0.6392130312432432,9.203311,-0.004886922,-0.0693332,-0.01038471,346.7042,-5.069662,-17.481363
459269833000.0,-2.7995097082277964,0.6448933624953019,9.1947614206226,-0.0027488936,-0.052839845,-0.0061086523,346.69128,-5.057738,-17.460812
459275353000.0,-2.773593806601846,0.6578512997777596,9.186122636408204,-0.0070249503,-0.049480084,-0.0033597588,346.6797,-5.042173,-17.43745
459279843000.0,-2.7627774210150107,0.6583398976649988,9.169398391470098,-0.0070249503,-0.05222898,-0.0030543262,346.6671,-5.0382237,-17.414532
459284978000.0,-2.7549660301405763,0.6544341818362323,9.14596442276229,-0.005497787,-0.04062254,-0.0009162979,346.65277,-5.0339785,-17.39691
459289794000.0,-2.7485435,0.6502694700175983,9.126220276795442,-0.0036651916,-0.03634648,-0.0061086523,346.6406,-5.0275617,-17.372822
459294756000.0,-2.7485435,0.6423049589524847,9.12223795265231,0.0009162979,-0.03604105,-0.004276057,346.62558,-5.0231986,-17.351038
459299720000.0,-2.7485435,0.6343372376854103,9.11825402338054,0.00030543262,-0.02687807,-0.0027488936,346.6076,-5.0207467,-17.333975
459304848000.0,-2.7485435,0.6292611943251776,9.128352084056829,-0.004276057,-0.027183503,-0.0030543262,346.59012,-5.018398,-17.31459
459309858000.0,-2.7485435,0.6254743144514602,9.143499524467243,-0.004886922,-0.030848695,0.0027488936,346.57043,-5.017568,-17.296892
459314770000.0,-2.7466679116962025,0.62249243,9.14886236749367,0.004276057,-0.027794369,-0.008246681,346.562,-5.02109,-17.27731
459319782000.0,-2.736946661873417,0.62249243,9.114837612455696,-0.0036651916,-0.029626964,0.005497787,346.5448,-5.022206,-17.254898
459324719000.0,-2.7283518184942204,0.6183397917838176,9.088389,-0.0009162979,-0.026572637,0.0061086523,346.5321,-5.0271645,-17.235035
459329790000.0,-2.7232945481620328,0.5981111381870249,9.088389,0.0036651916,-0.028405234,0.006414085,346.51575,-5.031389,-17.213284
459334835000.0,-2.719813,0.5876249196302004,9.09182875146379,-0.00580322,-0.02107485,0.006414085,346.4992,-5.032676,-17.19556
459339821000.0,-2.719813,0.5986611118027735,9.10286517411402,-0.0009162979,-0.018936822,0.0076358155,346.4826,-5.0390053,-17.176153
459345090000.0,-2.719813,0.6103237063790447,9.114528012249616,0.010079277,-0.020158553,0.0061086523,346.47107,-5.0378976,-17.15668
459349792000.0,-2.7164141330083424,0.6095167375173385,9.127316565483968,0.0027488936,-0.021685716,0.0067195175,346.45856,-5.033396,-17.137953
459354787000.0,-2.711606050135692,0.604708604438637,9.141740763895868,-0.0012217305,-0.018936822,0.00580322,346.44696,-5.0324664,-17.12051
459359983000.0,-2.716522018891885,0.60333884,9.142707091328171,0.0027488936,-0.01282817,0.006414085,346.43774,-5.032443,-17.102028
459364832000.0,-2.7246003255197007,0.60333884,9.138667874749936,-0.003970624,-0.0076358155,0.01282817,346.427,-5.0288153,-17.084309
459369759000.0,-2.7376704133572107,0.6095491802802065,9.134203058780152,-0.0033597588,-0.011911872,0.011911872,346.42352,-5.0318494,-17.060059
459374872000.0,-2.7583028468345097,0.6250235807932161,9.129045354366376,-0.00580322,-0.011911872,0.011911872,346.41754,-5.0326915,-17.03879
459379836000.0,-2.7587869804111884,0.6365242793355688,9.13337945654284,0.00030543262,-0.0027488936,0.0076358155,346.4159,-5.0337253,-17.021357
459384955000.0,-2.7414841009441453,0.6451757958563488,9.146356503220682,0.005192355,-0.0076358155,0.011301007,346.4121,-5.0343847,-17.000162
459389770000.0,-2.730594389782432,0.6524273023586824,9.155427,0.011301007,-0.0067195175,0.007941248,346.4117,-5.039967,-16.98755
459394846000.0,-2.7355365745323303,0.6573695387149248,9.155427,0.005192355,-0.013744468,0.0012217305,346.41153,-5.043316,-16.971624
459399776000.0,-2.745533888614875,0.6607997,9.156740465152549,0.004276057,-0.0012217305,0.016798794,346.40454,-5.045473,-16.95889
459404847000.0,-2.769202839194853,0.6607997,9.161474354128082,0.0027488936,0.010995574,0.017715093,346.404,-5.043973,-16.94505
459409988000.0,-2.7878802192474903,0.6587406507548811,9.16706297399415,0.0125227375,0.0033597588,0.01282817,346.401,-5.0466886,-16.930101
459414845000.0,-2.791556965560035,0.6513871197375701,9.174416236265907,0.010995574,0.009162978,0.01282817,346.39563,-5.0463204,-16.922499
459419851000.0,-2.795346504790136,0.643808001707375,9.181995077306144,-0.003970624,0.013133603,0.007330383,346.3956,-5.045775,-16.916124
459424884000.0,-2.7999695502718787,0.6381039608238432,9.180615245614035,0.005497787,0.011301007,0.021380283,346.3898,-5.0529666,-16.909388
459429807000.0,-2.804806585913614,0.633266940334462,9.175778614035089,0.01282817,0.014049901,0.01282817,346.3921,-5.0531116,-16.905937
459434968000.0,-2.8097007017820426,0.628372789620092,9.17088448242436,0.004886922,0.024740042,0.014660766,346.37848,-5.058211,-16.905579
459439847000.0,-2.814275725702536,0.6237977179271517,9.166309315186528,0.0027488936,0.01740966,0.0076358155,346.37076,-5.0650845,-16.901337
459444781000.0,-2.818893992870397,0.6291182669899404,9.161691007129605,0.00061086525,0.018325957,0.0012217305,346.3636,-5.0677695,-16.90358
459449852000.0,-2.8236371286258426,0.6386043255376502,9.156947871374156,-0.005497787,0.018020526,0.005192355,346.35587,-5.0688972,-16.90326
459454843000.0,-2.816765800998264,0.6360512289019098,9.14983210329861,0.007330383,0.018936822,0.0067195175,346.34943,-5.069112,-16.907242
459460775000.0,-2.8019715886718752,0.6261884704609375,9.1399691234375,0.0061086523,0.015577064,0.011911872,346.34103,-5.064537,-16.909555
459464824000.0,-2.79998903676171,0.631396331407332,9.130930741344194,0.0033597588,0.017715093,0.013744468,346.33337,-5.0702987,-16.912663
459469866000.0,-2.809823247250509,0.6559820219307536,9.116179553971486,0.006414085,0.016798794,0.008552114,346.32666,-5.0768685,-16.913923
459474751000.0,-2.813895200792277,0.6686906831891449,9.107543,0.014966198,0.028099801,0.009162978,346.3192,-5.0830383,-16.915894
459479847000.0,-2.8094509003460524,0.6642463363354886,9.107543,-0.005192355,0.02565634,0.01160644,346.3133,-5.081691,-16.913788
459484978000.0,-2.8051061178983376,0.6625960642033251,9.10844120085912,0.00061086525,0.022296581,0.011911872,346.3091,-5.08935,-16.918385
459489845000.0,-2.801398355142789,0.6700115897144221,9.112149041046854,0.007330383,0.01863139,0.008857546,346.30548,-5.091609,-16.922073
459494956000.0,-2.797504709068491,0.6777988818630181,9.116042768435287,0.007330383,0.018325957,0.013133603,346.30313,-5.1009297,-16.92015
459499834000.0,-2.8057182442120987,0.6768563960418222,9.110926062733382,0.0012217305,0.02107485,0.013744468,346.30286,-5.1094604,-16.91836
459504783000.0,-2.818991885408887,0.6724318643764003,9.102076814600448,-0.0018325958,0.018020526,0.016187929,346.301,-5.1189375,-16.914783
459509970000.0,-2.8279130927383207,0.6731315352027094,9.10072109273832,-0.00061086525,0.021380283,0.01863139,346.3018,-5.1281915,-16.911455
459514870000.0,-2.832587592190457,0.6778059370355614,9.105395592190456,0.0009162979,0.01740966,0.013439035,346.3044,-5.135922,-16.905493
459519781000.0,-2.850591983297022,0.6667391049382716,9.094328824255628,-0.004276057,0.017104227,0.017715093,346.3064,-5.145303,-16.902739
459524792000.0,-2.8804639168689694,0.6418457472486773,9.069435502956738,-0.00030543262,0.014966198,0.008857546,346.31393,-5.1556783,-16.899015
459530636000.0,-2.9019665732824427,0.63206923,9.05640196288497,0.0061086523,0.017715093,0.019242255,346.3138,-5.163214,-16.898697
459534982000.0,-2.912922253180662,0.63206923,9.052749980608931,0.008552114,0.013133603,0.009162978,346.3226,-5.168071,-16.896585
459539801000.0,-2.917680112565715,0.6304462778095042,9.051704986083909,-0.0027488936,0.014966198,0.013439035,346.3269,-5.1634293,-16.905485
459544763000.0,-2.907883218740336,0.6255478053221317,9.056603560870013,-0.0009162979,0.0106901415,0.017715093,346.3344,-5.162286,-16.911507
459549778000.0,-2.9035623818261462,0.62249243,9.066818489925046,0.0070249503,0.0021380284,0.0070249503,346.3432,-5.162729,-16.919916
459554847000.0,-2.9082878562931955,0.62249243,9.085720289107368,0.008552114,0.0015271631,0.01282817,346.34567,-5.163656,-16.928642
459559984000.0,-2.908908167817594,0.6310364015599422,9.101627774743791,0.01282817,0.011911872,0.015577064,346.35312,-5.1686854,-16.934338
459564877000.0,-2.902462156069881,0.6535974662349543,9.111296994291216,0.009468411,0.00580322,0.013744468,346.36057,-5.171954,-16.935163
459569869000.0,-2.8958857222573764,0.6766150086133847,9.121161851021393,0.007941248,0.0021380284,0.018936822,346.3647,-5.1772647,-16.939137
459574847000.0,-2.890007572806465,0.6939064000839631,9.131073162993284,0.0067195175,0.008552114,0.008246681,346.37387,-5.1800604,-16.944736
459579850000.0,-2.8849790012174643,0.7039636482787573,9.1411300961377,0.005192355,0.005497787,0.008552114,346.3786,-5.183516,-16.946184
459584865000.0,-2.880352440500488,0.7041506756677611,9.152649678498536,0.0061086523,0.00580322,0.008552114,346.38184,-5.1946564,-16.947983
459589889000.0,-2.876082776111456,0.6956115252196291,9.16545867166563,0.01038471,0.0067195175,0.0070249503,346.38553,-5.205783,-16.949198
459600473000.0,-2.900330352191154,0.6758859595221149,9.174581,0.0018325958,0.004276057,0.008552114,346.39417,-5.2166796,-16.944584
459604714000.0,-2.913947784281322,0.6677780292851653,9.175880126825518,0.004581489,-0.004581489,0.009162978,346.40356,-5.231101,-16.93874
459609988000.0,-2.923653454323597,0.6580724099154497,9.1807325311299,0.0030543262,0.0021380284,0.010079277,346.41318,-5.2296224,-16.938221
459614796000.0,-2.929667138712529,0.6520587438318733,9.182485364703046,0.0061086523,0.0027488936,0.014049901,346.42947,-5.2288623,-16.934624
459619846000.0,-2.92578030675882,0.6559454946154465,9.174712106646307,0.0076358155,0.0036651916,0.007941248,346.44794,-5.2265453,-16.933485
459624761000.0,-2.921997380213775,0.6597283421602508,9.167146648557422,-0.0021380284,0.0018325958,0.01160644,346.4607,-5.224041,-16.93307
459629840000.0,-2.920926,0.6765404549928673,9.149263245007132,0.00061086525,-0.002443461,0.0076358155,346.47726,-5.224209,-16.932743
459634995000.0,-2.920926,0.6985484810271041,9.127255218972897,0.005192355,0.0009162979,0.007941248,346.491,-5.2229166,-16.933983
459639799000.0,-2.9186913753600923,0.6997451081044748,9.119354694641828,-0.0018325958,-0.0021380284,0.01282817,346.49405,-5.2168236,-16.937613
459644833000.0,-2.914062115920876,0.6812278769925101,9.123984099097369,0.009773844,-0.0033597588,0.0076358155,346.49985,-5.216346,-16.942884
459649740000.0,-2.909577193570348,0.6703765,9.126697,-0.00061086525,-0.007330383,0.010995574,346.50024,-5.2094927,-16.949492
459654850000.0,-2.904949976475037,0.6703765,9.126697,0.004886922,0.007330383,0.0143553335,346.5017,-5.209792,-16.961063
459660077000.0,-2.9041039236219355,0.6633821853138728,9.120868410514383,0.0012217305,0.0009162979,0.007330383,346.5027,-5.205002,-16.96434
