timestamp,acc_x,acc_y,acc_z,gyro_x,gyro_y,gyro_z,ori_azimuth,ori_pitch,ori_roll
632910688000.0,-2.4899697,9.7145448037683,-0.9726138490230336,-1.1713341,0.74281216,0.03481932,265.79874,-8.150486,-48.567856
632915691000.0,-2.4899697,9.711898856045543,-0.9555354795437476,-1.1713341,0.743423,0.028405234,265.7853,-8.147391,-48.57386
632920694000.0,-2.4899697,9.70925290832279,-0.9384571100644616,-1.1768318,0.7486154,0.03756821,265.41388,-8.730826,-48.768616
632925678000.0,-2.4899697,9.70661700917224,-0.921443599473864,-1.1664472,0.7507534,0.030543262,265.0218,-9.303149,-48.957756
632930722000.0,-2.4899697,9.703949377688415,-0.9042252713400404,-1.1701124,0.7431176,0.03023783,264.59485,-9.866868,-49.137573
632935754000.0,-2.4899697,9.701288092671245,-0.8870479067148622,-1.1756102,0.7583892,0.025961773,264.14258,-10.422013,-49.31767
632940729000.0,-2.4899697,9.698656953370683,-0.8700651187557483,-1.1798862,0.77488256,0.038179077,263.65863,-10.973155,-49.486755
632945653000.0,-2.4899697,9.696052786553407,-0.8532564257083759,-1.1969905,0.7806858,0.041233405,263.15582,-11.511377,-49.649765
632950791000.0,-2.4899697,9.693335441080787,-0.8357172167568327,-1.2140946,0.78801614,0.04337143,262.6233,-12.04514,-49.80784
632955769000.0,-2.4899697,9.690702715163564,-0.8187241879205575,-1.2257011,0.7498371,0.046731193,262.07394,-12.571939,-49.945644
632960651000.0,-2.4899697,9.688120760979578,-0.802058867153443,-1.1936307,0.7696902,0.055283304,261.49222,-13.099657,-50.090885
632965699000.0,-2.4899697,9.685451014006867,-0.7848268845167379,-1.2443326,0.75777835,0.065973446,260.90164,-13.606849,-50.20726
632970796000.0,-2.4899697,9.682755352295318,-0.7674276342197321,-1.244638,0.7504479,0.06383542,260.29272,-14.122747,-50.320786
632975701000.0,-2.4899697,9.680161234050244,-0.7506838000610478,-1.2428054,0.7449502,0.06719518,259.66443,-14.629161,-50.42006
632980656000.0,-2.4899697,9.677540672194109,-0.7337692846163424,-1.235475,0.7290677,0.074830994,259.0255,-15.132538,-50.504505
632985716000.0,-2.4899697,9.674864578754743,-0.7164963384709921,-1.241889,0.7128797,0.092240654,258.37103,-15.632594,-50.57589
632990659000.0,-2.4899697,9.672250363365263,-0.6996227865349318,-1.2464706,0.68508536,0.09621128,257.7146,-16.128716,-50.630936
632995636000.0,-2.4899697,9.66961816632026,-0.682633171324377,-1.2290609,0.6206391,0.1001819,257.05386,-16.627354,-50.660484
633000780000.0,-2.4899697,9.666897647614316,-0.6650734806185111,-1.1407908,0.5503896,0.09773844,256.3951,-17.132517,-50.67229
633005717000.0,-2.4899697,9.66428660545816,-0.6482204104367733,-1.0348058,0.473726,0.09437868,255.74606,-17.640194,-50.656696
633010694000.0,-2.4899697,9.661654408413158,-0.6312307952262184,-0.8958339,0.40561453,0.08155051,255.11299,-18.161272,-50.618515
633015685000.0,-2.4899697,9.65901480715706,-0.6141933892555776,-0.7644979,0.34605515,0.08032878,254.49162,-18.696367,-50.55384
633020682000.0,-2.4899697,9.656372032667631,-0.5971355015306142,-0.6429357,0.24770586,0.055588737,253.9104,-19.239962,-50.460125
633025730000.0,-2.4899697,9.65370228569492,-0.5799035188939092,-0.45020768,-0.004581489,0.0076358155,253.39255,-19.80652,-50.31085
633030803000.0,-2.4899697,9.65101931691668,-0.5625861956141935,0.02321288,-0.034513887,-0.01038471,252.8485,-20.43556,-50.18435
633035687000.0,-2.4899697,9.648436304988252,-0.5459140475956383,0.069027774,-0.007941248,0.005497787,252.36351,-21.01801,-50.006805
633040663000.0,-2.4899697,9.645804636815472,-0.5289278460108038,0.020158553,0.0030543262,0.010995574,251.909,-21.650309,-49.8169
633045679000.0,-2.4899697,9.64315181375384,-0.5118050993971525,0.013133603,-0.008552114,0.008552114,251.46002,-22.292803,-49.62094
633050789000.0,-2.4899697,9.640449276703416,-0.494361471965781,0.018936822,-0.006414085,0.009773844,251.01117,-22.9255,-49.423763
633055742000.0,-2.4899697,9.637829772591722,-0.4774537837725164,0.0125227375,-0.0027488936,0.0106901415,250.57605,-23.5483,-49.219574
633060743000.0,-2.4899697,9.63518488261341,-0.4603822415446713,0.017104227,-0.0021380284,0.008246681,250.15244,-24.167072,-49.01071
633065954000.0,-2.4899697,9.632428929468643,-0.4425938379155371,0.014049901,-0.00030543262,0.013439035,249.73535,-24.77928,-48.79685
633070738000.0,-2.4899697,9.629898804762336,-0.4262630524690242,0.017104227,-0.0070249503,0.015271631,249.33353,-25.385403,-48.57802
633080880000.0,-2.4899697,9.62453498269474,-0.3916420604124746,0.007941248,-0.013744468,0.019547688,248.94006,-25.984396,-48.35424
633085751000.0,-2.4899697,9.621958846105189,-0.3750142895282848,0.02076942,-0.015271631,0.01038471,248.56229,-26.578041,-48.12872
633090752000.0,-2.4899697,9.619313956126875,-0.3579427473004398,0.020158553,-0.016798794,0.021991149,248.20529,-27.170757,-47.868214
633095700000.0,-2.4899697,9.616697096376289,-0.3410521272357772,0.005192355,-0.015577064,0.02107485,247.86816,-27.750843,-47.609936
633100742000.0,-2.4899697,9.614030522636906,-0.3238406263533948,0.01160644,-0.014049901,0.019242255,247.54144,-28.32947,-47.34745
633105717000.0,-2.4899697,9.611399383336346,-0.3068578383942807,0.018325957,-0.0033597588,0.02443461,247.22296,-28.899982,-47.084236
633111724000.0,-2.4899697,9.608222447903488,-0.2863521886916882,-0.00030543262,0.0012217305,0.01740966,246.9231,-29.456886,-46.82161
633115751000.0,-2.4899697,9.606092679468643,-0.272605517915537,0.00580322,-0.004886922,0.018020526,246.63252,-30.01445,-46.555267
633120737000.0,-2.4899697,9.60345572257365,-0.2555851800734984,0.008857546,0.00061086525,0.02443461,246.35013,-30.561071,-46.29146
633125706000.0,-2.4899697,9.600827756506416,-0.2386228738687069,0.0070249503,0.0030543262,0.016493361,246.08699,-31.097298,-46.028156
633130662000.0,-2.4899697,9.59820666577806,-0.221704944798281,0.0125227375,0.009162978,0.0125227375,245.8305,-31.630346,-45.76402
633135700000.0,-2.4899697,9.595542207527563,-0.2045070984187802,0.004581489,0.021685716,0.01740966,245.58325,-32.154003,-45.501125
633140688000.0,-2.4899697,9.592904192888126,-0.1874799333253007,0.0027488936,0.006414085,0.02076942,245.3562,-32.6709,-45.235367
633145711000.0,-2.4899697,9.590247667720948,-0.1703332913316063,0.0030543262,-0.012217305,0.014660766,245.13927,-33.178566,-44.97256
633150736000.0,-2.4899697,9.587590084809326,-0.153179822086471,0.004276057,-0.011301007,0.021380283,244.9284,-33.68284,-44.70739
633155681000.0,-2.4899697,9.584974811675403,-0.1362994428989698,0.0030543262,-0.007941248,0.014660766,244.73882,-34.174973,-44.444347
633160640000.0,-2.4899697,9.582352134330382,-0.1193712729513826,0.007330383,-0.013439035,0.011911872,244.56009,-34.663643,-44.178436
633165674000.0,-2.4899697,9.57968979156877,-0.1021870810747635,-0.0033597588,-0.015271631,0.013133603,244.39063,-35.142185,-43.915436
633175690000.0,-2.4899697,9.574392607401048,-0.0679962058589874,-0.0021380284,-0.010079277,0.011301007,244.2326,-35.614822,-43.655216
633181726000.0,-2.4899697,9.571200334673776,-0.0473915610105026,0.0009162979,-0.0067195175,0.016187929,244.08412,-36.08117,-43.393894
633185705000.0,-2.4899697,9.569095952105547,-0.0338087442689318,0.0067195175,-0.013439035,0.016798794,243.94865,-36.539787,-43.134663
633195742000.0,-2.4899697,9.563787661621182,0.0004538170869731,0.002443461,-0.0033597588,0.007330383,243.81772,-36.989258,-42.881622
633205719000.0,-2.4899697,9.558511103470089,0.0345115608996525,0.00030543262,-0.0061086523,0.009773844,243.6998,-37.436226,-42.624153
633210681000.0,-2.4899697,9.555886839508403,0.051449971724401,-0.008246681,-0.008552114,0.005497787,243.59143,-37.870968,-42.373993
633215664000.0,-2.4899697,9.553251469230077,0.0684600686892784,0.00580322,-0.0033597588,0.013744468,243.48734,-38.305805,-42.12295
633220712000.0,-2.4899697,9.550581722257366,0.0856920513259835,-0.0021380284,-0.0015271631,0.008857546,243.39758,-38.72533,-41.87714
633225716000.0,-2.4899697,9.547935245662387,0.1027738344309898,0.0033597588,-0.01282817,0.008246681,243.31644,-39.145473,-41.62922
633230662000.0,-2.4899697,9.545319443656243,0.1196576272442114,0.0125227375,-0.007330383,0.015271631,243.23709,-39.559235,-41.385635
633235696000.0,-2.4899697,9.542657100894631,0.1368418191208306,0.0106901415,-0.013744468,0.014966198,243.17505,-39.963886,-41.142704
633240683000.0,-2.4899697,9.540019615127418,0.1538655705885896,0.020158553,-0.007330383,0.0106901415,243.11441,-40.36595,-40.90412
633245764000.0,-2.4899697,9.537332415371408,0.1712102028740687,0.019547688,-0.008552114,0.01282817,243.06496,-40.761494,-40.664368
633251666000.0,-2.4899697,9.534211011521778,0.1913574218760165,0.021380283,-0.004886922,0.013744468,243.02051,-41.151226,-40.430016
633255688000.0,-2.4899697,9.53208388744804,0.2050870245235656,0.021380283,-0.0027488936,0.014966198,242.98389,-41.535057,-40.19714
633260728000.0,-2.4899697,9.5294183714531,0.2222916981545073,0.025045475,0.0021380284,0.014049901,242.95264,-41.913303,-39.967957
633265685000.0,-2.4899697,9.526796751852524,0.2392130408506536,0.02321288,0.014966198,0.012217305,242.92508,-42.28481,-39.742622
633270769000.0,-2.4899697,9.524107965479848,0.2565679140132939,0.01863139,0.002443461,0.011301007,242.91113,-42.65048,-39.517002
633275705000.0,-2.4899697,9.521497452195916,0.2734175705693114,0.020463986,0.005497787,0.013744468,242.89438,-43.011303,-39.2974
633280682000.0,-2.4899697,9.519868276096531,0.2850410098684112,0.03848451,0.014966198,0.013133603,242.88684,-43.36701,-39.08052
633285659000.0,-2.4899697,9.522727867001306,0.2726494837023853,0.03726278,0.020158553,0.014966198,242.88521,-43.715733,-38.864796
633290678000.0,-2.4899697,9.525611589474895,0.2601533876952959,0.03390302,0.0033597588,0.0061086523,242.97787,-44.031284,-38.616596
633295769000.0,-2.4899697,9.52853668035217,0.2474780291035262,0.022296581,0.0009162979,0.0070249503,243.06628,-44.34295,-38.372574
633300757000.0,-2.4899697,9.531402591429728,0.2350591155981741,0.028099801,0.009468411,0.01160644,243.16121,-44.65005,-38.133625
633305666000.0,-2.4899697,9.534223112175466,0.2228368929843463,0.016798794,0.0018325958,0.0143553335,243.26591,-44.94768,-37.897
633310839000.0,-2.4899697,9.53719531706805,0.2099573742266907,0.023823744,-0.0009162979,0.010995574,243.37006,-45.243267,-37.666874
633315682000.0,-2.4899697,9.539977916777074,0.1978994756488198,0.028405234,-0.005497787,0.005497787,243.48116,-45.532124,-37.43943
633321525000.0,-2.4899697,9.5433350776484,0.1833518189503892,0.018325957,-0.010079277,0.007330383,243.59637,-45.81606,-37.214573
633325699000.0,-2.4899697,9.545733295939844,0.1729595685551728,0.016187929,-0.00580322,0.007941248,243.71498,-46.095383,-36.995872
633330704000.0,-2.4899697,9.548608974557164,0.1604983291617712,0.028405234,0.0027488936,0.004886922,243.8375,-46.370247,-36.781445
633335708000.0,-2.4899697,9.55148407861332,0.1480395795264902,0.023518313,-0.0036651916,0.008246681,243.96579,-46.639587,-36.567688
633340663000.0,-2.4899697,9.554331029172522,0.1357028280391166,0.023823744,-0.007941248,0.0125227375,244.09433,-46.906395,-36.35949
633345720000.0,-2.4899697,9.557236584970278,0.123112121223446,0.018020526,-0.008246681,0.017104227,244.22635,-47.16815,-36.153698
633350796000.0,-2.4899697,9.56015305743012,0.1104741090034847,0.0076358155,-0.012217305,0.014660766,244.36446,-47.42428,-35.951332
633355651000.0,-2.4899697,9.56294255187309,0.0983863333281671,0.022907447,-0.0018325958,0.017104227,244.49963,-47.681316,-35.751797
633360665000.0,-2.4899697,9.56582340154087,0.0859026861116805,0.0143553335,-0.0030543262,0.016798794,244.64343,-47.928055,-35.55532
633365675000.0,-2.4899697,9.568701952963998,0.0734289979276761,0.018020526,-0.0076358155,0.021685716,244.7867,-48.176464,-35.36118
633370817000.0,-2.4899697,9.571656346460552,0.0606266616717579,0.017715093,0.0021380284,0.014660766,244.93018,-48.41603,-35.175194
633375739000.0,-2.4899697,9.574484336501396,0.0483720722023628,0.014660766,0.011911872,0.014049901,245.07617,-48.654533,-34.98913
633380683000.0,-2.4899697,9.577324966887817,0.0360627080543153,0.014049901,0.0125227375,0.014049901,245.2254,-48.88786,-34.80811
633385747000.0,-2.4899697,9.580234544613708,0.0234545729318008,0.01740966,0.01160644,0.017715093,245.37402,-49.118248,-34.630447
633391050000.0,-2.4899697,9.583281442457393,0.0102513856184724,0.010995574,0.01740966,0.016798794,245.52336,-49.34227,-34.457973
633395741000.0,-2.4899697,9.585976708869747,-0.0014280697250733,0.014049901,0.015577064,0.007330383,245.67838,-49.56319,-34.28895
633400798000.0,-2.4899697,9.588882264667504,-0.014018776540744,0.013744468,0.018936822,0.011911872,245.83035,-49.782356,-34.120754
633405687000.0,-2.4899697,9.591691294189994,-0.0261912039921606,0.008552114,0.018325957,0.0106901415,245.98837,-49.993935,-33.9589
633410685000.0,-2.4899697,9.594562950879176,-0.0386350150787183,0.010995574,0.016187929,0.010995574,246.14708,-50.204586,-33.79856
633415689000.0,-2.4899697,9.597438054935331,-0.0510937647139992,0.0106901415,0.018936822,0.009468411,246.30676,-50.409954,-33.642372
633420700000.0,-2.4899697,9.600317180919625,-0.0635699426561242,0.01282817,0.01740966,0.009773844,246.47012,-50.6132,-33.487743
633425668000.0,-2.4899697,9.603171600773935,-0.075939060999065,0.009468411,0.02076942,0.008246681,246.63332,-50.8115,-33.337605
633430739000.0,-2.4899697,9.606085200427964,-0.0885646244284236,0.02321288,0.017715093,0.0076358155,246.80063,-51.00961,-33.18901
633435685000.0,-2.4899697,9.608926979936706,-0.1008789680927121,0.016493361,0.029626964,0.015271631,246.96294,-51.202866,-33.043232
633440696000.0,-2.4899697,9.611806105920998,-0.113355146034837,0.010079277,0.025350908,0.0143553335,247.13419,-51.392696,-32.900475
633445665000.0,-2.4899697,9.614661100336471,-0.1257267541358984,0.016493361,0.021991149,0.01863139,247.30136,-51.583477,-32.758247
633450667000.0,-2.4899697,9.617535055270302,-0.1381805242549383,0.016798794,0.03359759,0.018325957,247.46735,-51.768093,-32.62114
633455698000.0,-2.4899697,9.62042567247784,-0.1507064973594744,0.006414085,0.027794369,0.023518313,247.6402,-51.95155,-32.481804
633460674000.0,-2.4899697,9.623284688821451,-0.1630955337673797,0.018936822,0.020463986,0.026572637,247.81161,-52.13469,-32.346638
633465690000.0,-2.4899697,9.626166687611551,-0.1755841605001075,0.016187929,0.03481932,0.021991149,247.97961,-52.31072,-32.216206
633470698000.0,-2.4899697,9.62904408991236,-0.1880528691678707,0.0036651916,0.032375857,0.024740042,248.15535,-52.486835,-32.083
633475660000.0,-2.4899697,9.631895062399696,-0.2004070489620882,0.009773844,0.02076942,0.032375857,248.33069,-52.66244,-31.952585
633480622000.0,-2.491602133465753,9.634347628304877,-0.2118443974223095,0.004276057,0.03481932,0.026572637,248.5011,-52.829243,-31.829706
633485688000.0,-2.50154192665987,9.634832480459323,-0.2188749789624777,-0.005497787,0.032986723,0.03481932,248.67877,-52.998993,-31.700624
633490762000.0,-2.5114974163296204,9.635318098270549,-0.2259166628817066,0.003970624,0.03604105,0.029932396,248.84181,-53.20056,-31.557371
633495745000.0,-2.5212743585890536,9.635795006735924,-0.2328320572391203,-0.0036651916,0.024740042,0.034208454,249.00938,-53.399296,-31.410728
633500706000.0,-2.531008135540498,9.636269809645166,-0.2397169200541172,-0.010079277,0.023823744,0.01863139,249.17686,-53.589943,-31.274868
633505766000.0,-2.5409361563778914,9.636754087557028,-0.2467391748099899,-0.0030543262,0.021991149,0.013744468,249.3477,-53.781826,-31.136599
633510722000.0,-2.5506601230320656,9.63722841193078,-0.2536170986380739,-0.022602014,0.025961773,0.020463986,249.51857,-53.965004,-31.002508
633515747000.0,-2.560519471788568,9.637709340094244,-0.2605907804855562,-0.02076942,0.03145956,0.0290161,249.69128,-54.148323,-30.871613
633520727000.0,-2.570290527869639,9.63818596143833,-0.2675020114508222,-0.029626964,0.036651913,0.02565634,249.86476,-54.32321,-30.744856
633525662000.0,-2.5799732912752784,9.638658275963042,-0.274350791533872,-0.035124753,0.036957346,0.027488936,250.03787,-54.49934,-30.616802
633530667000.0,-2.5897933988427004,9.63913728998456,-0.2812967174337026,-0.027488936,0.034208454,0.029932396,250.21194,-54.67252,-30.49198
633535746000.0,-2.5997586988097203,9.63962338633127,-0.2883453403398444,-0.015882496,0.043982297,0.03604105,250.38266,-54.844097,-30.369076
633540747000.0,-2.609570958139326,9.6401020175244,-0.2952857150501446,-0.015882496,0.054367006,0.03634648,250.55568,-55.011536,-30.24907
633545765000.0,-2.6194165724796497,9.64058227573818,-0.3022496823159488,-0.015882496,0.06841691,0.042455133,250.72455,-55.18079,-30.129204
633550699000.0,-2.6290973738258354,9.641054494555794,-0.309097074601616,-0.02076942,0.08124508,0.048258353,250.89188,-55.346638,-30.01226
633555662000.0,-2.638835074896188,9.641529488879227,-0.3159847130113781,0.008246681,0.09712757,0.04886922,251.05502,-55.5146,-29.89867
633560921000.0,-2.6491535455649333,9.642032812503436,-0.3232831394463849,0.016187929,0.10934488,0.059253927,251.21503,-55.680237,-29.783684
633565701000.0,-2.6585321897551983,9.64249029242808,-0.3299168109351342,0.03268129,0.099265605,0.06352998,251.379,-55.84681,-29.67162
633570717000.0,-2.668373879976614,9.642970359227668,-0.3368780026061733,0.028405234,0.07238753,0.0711658,251.54446,-56.01229,-29.557417
633576717000.0,-2.680146236700796,9.643544601810904,-0.3452047869016745,0.036957346,0.05131268,0.082161374,251.7119,-56.180847,-29.442772
633580673000.0,-2.68790814390094,9.643923219087451,-0.3506949133471749,0.028405234,0.047036625,0.08735373,251.88353,-56.344208,-29.32885
633585718000.0,-2.697806733846523,9.644406061392855,-0.3576963511423089,0.027488936,0.03726278,0.109650314,252.06186,-56.514072,-29.20714
633590699000.0,-2.707579751987048,9.64488277844404,-0.3646089699049575,0.017104227,0.021685716,0.116980694,252.24536,-56.676315,-29.089434
633595660000.0,-2.7173135289384924,9.64535758135328,-0.3714938327199544,0.0061086523,0.011911872,0.12644911,252.42868,-56.841778,-28.967007
633600684000.0,-2.7271709156355404,9.645838413809646,-0.3784661267700541,-0.006414085,0.014966198,0.13041973,252.61351,-57.003407,-28.84617
633605736000.0,-2.7370832399973017,9.646321926064733,-0.3854772791468661,-0.019242255,0.013439035,0.13988814,252.80212,-57.164658,-28.722406
633610744000.0,-2.7469092337430854,9.64680122720754,-0.3924273684388445,-0.040317107,0.017104227,0.14446963,252.98889,-57.3203,-28.601921
633615737000.0,-2.7567057965970587,9.64727909274389,-0.3993566407700841,-0.061086524,0.028099801,0.14905111,253.17352,-57.474113,-28.481667
633620718000.0,-2.766478814737584,9.647755809795074,-0.4062692595327327,-0.07727446,0.03390302,0.1459968,253.35938,-57.62247,-28.36446
633625754000.0,-2.7763597461480805,9.648237790736603,-0.4132582071514233,-0.09254608,0.043066,0.14385876,253.54068,-57.767174,-28.249193
633630663000.0,-2.7859914960079157,9.64870761687679,-0.420070904502526,-0.12370021,0.042455133,0.14355333,253.72368,-57.905003,-28.136173
633635706000.0,-2.79588616183459,9.649190267768,-0.4270695667028947,-0.14294247,0.030543262,0.13316862,253.90874,-58.037037,-28.028517
633640697000.0,-2.805678800569656,9.649667941890156,-0.4339960634393692,-0.16737708,0.027488936,0.12492194,254.09123,-58.16263,-27.923126
633646588000.0,-2.817237292813348,9.650231752399796,-0.4421715778201688,-0.18203785,0.014966198,0.13041973,254.2801,-58.28587,-27.817148
633650761000.0,-2.8254249669150164,9.65063113811644,-0.4479628562976899,-0.18417588,-0.0015271631,0.13316862,254.47203,-58.40293,-27.71559
633655676000.0,-2.8350684891315754,9.651101538499208,-0.454783880433088,-0.2012801,-0.013133603,0.13133603,254.66602,-58.514557,-27.615149
633660687000.0,-2.844900369055721,9.651581126763308,-0.461738133117214,-0.20525073,-0.030543262,0.14752395,254.8648,-58.631172,-27.509224
633665676000.0,-2.8546890836718783,9.65205860947127,-0.4686618542589233,-0.226631,-0.046731193,0.15210545,255.06757,-58.73817,-27.408148
633670758000.0,-2.8646602698172607,9.652544992939273,-0.4757146405572129,-0.24740042,-0.07238753,0.15241088,255.2771,-58.846066,-27.303747
633675694000.0,-2.874344995282354,9.65301740317108,-0.4825648084376452,-0.25289822,-0.102319926,0.15577064,255.49164,-58.95348,-27.197714
633680656000.0,-2.880391078814584,9.652749088668266,-0.4854465892687557,-0.27030787,-0.12370021,0.16340645,255.71024,-59.056194,-27.091166
633685670000.0,-2.865396720662001,9.648226990121536,-0.4654541174480054,-0.29229903,-0.12583824,0.16890424,255.93103,-59.156387,-26.985537
633690680000.0,-2.8504143245023594,9.643708499152424,-0.4454775949466176,-0.3023783,-0.13103059,0.17073683,256.2093,-59.238266,-26.889193
633695731000.0,-2.835309317915064,9.639153030512707,-0.4253375919217653,-0.31642818,-0.13775012,0.17531833,256.48514,-59.317783,-26.792595
633700765000.0,-2.8202551497977715,9.634612894077875,-0.4052653735042032,-0.33078352,-0.1386664,0.1872302,256.75708,-59.39726,-26.695807
633705678000.0,-2.805562831966969,9.630181886866051,-0.3856756219973532,-0.3491095,-0.13408493,0.20005837,257.026,-59.474754,-26.599678
633710817000.0,-2.790194661534954,9.625547051518696,-0.3651847339465284,-0.3640757,-0.12980886,0.20219639,257.2924,-59.550106,-26.505394
633716116000.0,-2.774348011385265,9.620767913066535,-0.3440558731212082,-0.3717115,-0.121256754,0.21166481,257.5516,-59.628094,-26.408478
633720778000.0,-2.7604063086115627,9.61656328135037,-0.3254669414043479,-0.38362336,-0.10598512,0.20952678,257.80554,-59.70014,-26.317223
633725707000.0,-2.745666142808993,9.612117843828068,-0.3058133926200484,-0.40439278,-0.093767814,0.20372356,258.05472,-59.770424,-26.227
633730692000.0,-2.730758509105238,9.60762190021908,-0.2859365533646755,-0.43218717,-0.082161374,0.20616703,258.29636,-59.838722,-26.138319
633735742000.0,-2.715656493016178,9.60306733347377,-0.2658005376696638,-0.45753807,-0.06627888,0.20189096,258.53156,-59.900517,-26.056353
633740753000.0,-2.700671106358301,9.598547940610256,-0.2458200278384353,-0.4783075,-0.048258353,0.20616703,258.75916,-59.961086,-25.974346
633745731000.0,-2.6857844061421945,9.594058310262104,-0.2259710998919465,-0.4905248,-0.04886922,0.20861048,258.98575,-60.017105,-25.895634
633750703000.0,-2.6709156489155004,9.589574091280385,-0.2061460959245014,-0.5308419,-0.058643065,0.20586158,259.20737,-60.065403,-25.819637
633755735000.0,-2.6558674617946787,9.585035758634364,-0.1860818521666204,-0.5534439,-0.063224554,0.21013765,259.4245,-60.11617,-25.743128
633760747000.0,-2.6408790846385664,9.580515463876443,-0.1660973550055514,-0.5589417,-0.07666359,0.22235495,259.64447,-60.164436,-25.665442
633765714000.0,-2.626025279903049,9.576035754366748,-0.1462922876873092,-0.58062744,-0.10781772,0.23060162,259.86874,-60.2068,-25.587622
633770713000.0,-2.611075779223998,9.571527184236093,-0.1263596258141679,-0.59498274,-0.13469578,0.24373524,260.09186,-60.25311,-25.506115
633775749000.0,-2.596015630110234,9.566985244012452,-0.1062794327369245,-0.6258314,-0.16310102,0.24984388,260.32224,-60.29372,-25.42353
633780712000.0,-2.5811737873676592,9.562509142080376,-0.0864903147380447,-0.6377433,-0.17073683,0.27488935,260.54895,-60.34235,-25.333527
633785771000.0,-2.5660448567944805,9.55794645828542,-0.0663184130744677,-0.6606508,-0.17898351,0.30268374,260.78082,-60.38659,-25.240728
633790745000.0,-2.551170118571316,9.55346043551489,-0.0464854344473413,-0.68691796,-0.1881465,0.32284227,261.01093,-60.432228,-25.144514
633795742000.0,-2.5362265988887347,9.548953669173043,-0.0265607472338812,-0.7021896,-0.18509217,0.33750305,261.23495,-60.48084,-25.04469
633800731000.0,-2.521307003192038,9.544454117986438,-0.0066679586591459,-0.7287622,-0.17073683,0.3472769,261.45407,-60.526855,-24.943134
633805676000.0,-2.506518989417701,9.539994250153654,0.0130493874026031,-0.7684685,-0.13683382,0.3481932,261.663,-60.56919,-24.844124
633810713000.0,-2.491455849805702,9.535451408035607,0.033133567809687,-0.7791586,-0.09315695,0.3481932,261.86102,-60.613182,-24.746943
633815747000.0,-2.4764016816884094,9.530911271600775,0.0532057862272492,-0.8008443,-0.042455133,0.33658674,262.04492,-60.64622,-24.658215
633820768000.0,-2.461386390048178,9.526382859793213,0.0732261693568837,-0.82619524,-0.004581489,0.3231477,262.21725,-60.675888,-24.57457
633825702000.0,-2.4466312717544314,9.52193291279888,0.0928996547903861,-0.84635377,0.03176499,0.30115658,262.37436,-60.69754,-24.502327
633830741000.0,-2.431562151145961,9.517388266892029,0.1129918098571513,-0.87017757,0.057421334,0.2874121,262.52167,-60.713078,-24.435371
633835758000.0,-2.4165588214986715,9.51286346266208,0.1329962436674233,-0.88331115,0.07269296,0.25870144,262.66257,-60.717945,-24.382088
633840708000.0,-2.4017558552331577,9.50839908535727,0.1527335263783754,-0.89858276,0.07391469,0.23609942,262.7989,-60.716873,-24.333065
633845735000.0,-2.3867226206035133,9.503865262183275,0.1727778334870534,-0.9147707,0.06811147,0.23060162,262.93198,-60.710922,-24.28885
633850651000.0,-2.3720213312780047,9.499431549288236,0.1923795469834251,-0.9233228,0.07819075,0.22143865,263.06055,-60.697754,-24.254034
633855662000.0,-2.357035944620128,9.49491215642472,0.2123600568146535,-0.9266826,0.08032878,0.20738874,263.19244,-60.68073,-24.221643
633860791000.0,-2.3416976791704665,9.490286340021411,0.2328110715670724,-0.9334021,0.059864793,0.20525073,263.3261,-60.662918,-24.188068
633865681000.0,-2.32707414279908,9.485876076380904,0.2523091144875887,-0.92149025,0.03726278,0.19792034,263.45987,-60.643448,-24.160233
633870727000.0,-2.311984088702962,9.481325117213212,0.2724291808632379,-0.9251554,0.009162978,0.18509217,263.60043,-60.6192,-24.132767
633875678000.0,-2.2971781319392126,9.476859838014,0.2921704509040306,-0.9147707,-0.024129177,0.18234327,263.7473,-60.600304,-24.102644
633880676000.0,-2.282231621758396,9.472352169777748,0.3120991254473312,-0.9129381,-0.05955936,0.18967366,263.90167,-60.579494,-24.071075
633885770000.0,-2.232154945196729,9.477156269356152,0.3574654006493902,-0.91446525,-0.09101892,0.17684549,264.06506,-60.555035,-24.043661
633890708000.0,-2.175494725908063,9.484002702782174,0.4072791807435438,-0.91507614,-0.14477506,0.18173242,264.24142,-60.537582,-24.00493
633895730000.0,-2.117870663277913,9.490965600446309,0.4579403398429442,-0.9104946,-0.19425514,0.1881465,264.4752,-60.530674,-23.879791
633900693000.0,-2.0609235858519,9.497846695847956,0.5080063160696118,-0.9007208,-0.26419923,0.2012801,264.72556,-60.526073,-23.748056
633905667000.0,-2.003850290845455,9.504743042518884,0.5581832585945854,-0.8961393,-0.33108896,0.22785273,264.98322,-60.52489,-23.60987
633910664000.0,-1.946513086352652,9.511671278207388,0.6085922215614719,-0.8781188,-0.39675698,0.267559,265.25397,-60.532505,-23.461641
633915749000.0,-1.8881661412163884,9.518721524050102,0.6598889149148075,-0.8533788,-0.4370741,0.30940324,265.52927,-60.547443,-23.305285
633920732000.0,-1.8309895772804987,9.525630349032255,0.7101566480474861,-0.8436049,-0.45142943,0.3463606,265.80795,-60.5695,-23.13955
633925674000.0,-1.7742834606898572,9.532482328374378,0.7600107795228419,-0.80756384,-0.47342056,0.3744604,266.0926,-60.60626,-22.96444
633930704000.0,-1.7165676034557562,9.53945631787071,0.8107526413846469,-0.77640975,-0.46792278,0.39767328,266.36536,-60.64948,-22.786005
633935678000.0,-1.6594943084493112,9.546352664541638,0.8609295839096205,-0.75594574,-0.46395215,0.42210788,266.63745,-60.701862,-22.6018
633940669000.0,-1.6022259499094709,9.553272581355992,0.9112780198047036,-0.76083267,-0.44409904,0.43554693,266.89767,-60.756012,-22.420729
633945692000.0,-1.5445904129538266,9.56023686549915,0.9619492667494048,-0.7788532,-0.42943826,0.43982297,267.1526,-60.812737,-22.239937
633950784000.0,-1.4861631475391066,9.56729681669504,1.013316575019844,-0.8179486,-0.40408736,0.4352415,267.3942,-60.863686,-22.065264
633955657000.0,-1.4302487594075413,9.57405312898443,1.0624746451694616,-0.8885035,-0.3811799,0.43310347,267.62775,-60.905037,-21.89431
633960730000.0,-1.3720395061772044,9.581086737078843,1.1136502843791904,-0.9245446,-0.3817908,0.4184427,267.85883,-60.939922,-21.732286
633965676000.0,-1.3152874922845874,9.587944262337066,1.1635447672357484,-0.9957104,-0.38881573,0.3924809,268.08276,-60.95073,-21.5794
633970661000.0,-1.25808797969771,9.594855860277267,1.2138326760590283,-1.0720685,-0.43127087,0.36835176,268.31476,-60.94958,-21.430157
633975712000.0,-1.200131161628238,9.601858965833127,1.2647863826721448,-1.1343768,-0.49571714,0.33414328,268.55496,-60.928852,-21.291142
633980719000.0,-1.1426792138804958,9.608801066311884,1.315296224092037,-1.1979067,-0.5864306,0.3118467,268.81198,-60.890087,-21.151731
633985686000.0,-1.0856862391525075,9.615687707629636,1.3654025516999069,-1.2333369,-0.67011917,0.301462,269.08325,-60.839725,-21.015436
633990678000.0,-1.0284064062871734,9.622609010923014,1.4157610754402905,-1.2492194,-0.6942484,0.3115413,269.35843,-60.780552,-20.87931
633995658000.0,-0.9712642653277652,9.629513676468092,1.4659985450370674,-1.2675453,-0.70921457,0.30451632,269.65247,-60.708466,-20.7458
634000661000.0,-0.9138582148819984,9.636450231030746,1.5164680350757571,-1.2938126,-0.70096785,0.301462,269.9397,-60.634922,-20.611279
634005659000.0,-0.856509536063701,9.643379853198276,1.5668870858879442,-1.3213016,-0.689056,0.28802297,270.2266,-60.55435,-20.483004
634010833000.0,-0.7971413759584844,9.650553495674226,1.6190815974730297,-1.3610078,-0.62796944,0.27458394,270.49213,-60.466072,-20.364277
634015667000.0,-0.7416744865211795,9.657255735281636,1.667846241655925,-1.382999,-0.5674938,0.25320363,270.75165,-60.372337,-20.255005
634020796000.0,-0.6828226710631866,9.664366986201456,1.7195868002024852,-1.3817772,-0.4804455,0.24312437,270.98166,-60.276024,-20.157982
634025681000.0,-0.6267705910256949,9.671139936239149,1.7688659244957092,-1.3732251,-0.41813725,0.21044308,271.202,-60.16938,-20.078503
634030823000.0,-0.5677696093362821,9.678269211386294,1.8207376250311764,-1.3454307,-0.35705075,0.18020524,271.39496,-60.067123,-20.012085
634035705000.0,-0.5117519522752718,9.68503800198691,1.869986485788499,-1.3020593,-0.32650748,0.15790866,271.57816,-59.96683,-19.957075
634041136000.0,-0.4494348905181342,9.692567969572314,1.9247735736158276,-1.2476922,-0.3222314,0.13439035,271.7519,-59.87047,-19.915228
634045746000.0,-0.3965382499914531,9.6989596378781,1.9712785404513984,-1.1893547,-0.30970868,0.14080444,271.91077,-59.787495,-19.876492
634050737000.0,-0.3392698914516125,9.705879554692451,2.0216269763464814,-1.144456,-0.29779682,0.15577064,272.06757,-59.712097,-19.842808
634055656000.0,-0.2828276843473298,9.712699645017,2.0712490873799245,-1.1285735,-0.26633725,0.16982053,272.21216,-59.645576,-19.812017
634060868000.0,-0.2230234998733467,9.719925973695902,2.123826937086431,-1.0925325,-0.24556783,0.20372356,272.34985,-59.600895,-19.773012
634065713000.0,-0.1674303928556093,9.72664346457259,2.1727025475676323,-1.078788,-0.25137106,0.23548855,272.4826,-59.558308,-19.732222
634070708000.0,-0.1101161370137933,9.733568927303043,2.2230913348439176,-1.0491611,-0.25534168,0.27214047,272.6025,-59.535072,-19.684776
634075735000.0,-0.052434702756174,9.740538757362302,2.273802933169821,-1.0277808,-0.26450464,0.3231477,272.71808,-59.522392,-19.625135
634080809000.0,0.0057860247996566,9.74757375193574,2.32498866022485,-0.999681,-0.27214047,0.37812558,272.82785,-59.525513,-19.555948
634085758000.0,0.0414207096350318,9.711370295022409,2.364663228985804,-0.9975429,-0.29168814,0.42210788,272.93707,-59.535133,-19.475573
634090759000.0,0.0708492892520494,9.661388438893196,2.4015657308774547,-0.98349303,-0.3371976,0.47311515,273.0468,-59.564594,-19.37713
634095773000.0,0.1003543678762697,9.611276655923415,2.43856416008856,-0.9746355,-0.41538838,0.50946164,273.20306,-59.637978,-18.99967
634100717000.0,0.129447528769398,9.561864479018231,2.475046057579526,-0.96974856,-0.46211955,0.55863625,273.35132,-59.718437,-18.611431
634105666000.0,0.1585701123576044,9.512402330251293,2.5115648501933587,-0.9728029,-0.44532076,0.59956425,273.4962,-59.797066,-18.22207
634110883000.0,0.1892697524019916,9.460261689694184,2.5500612213928675,-0.9642508,-0.46089783,0.5708536,273.66138,-59.868675,-17.83687
634115655000.0,0.2173507725844367,9.412568544833436,2.585273926657206,-0.95539325,-0.4908302,0.5543602,273.81543,-59.942135,-17.44626
634120699000.0,0.247032387379125,9.362156930693118,2.622493726605513,-0.97402465,-0.4550946,0.5742133,273.95135,-60.005955,-17.067455
634125690000.0,0.2764021216059866,9.31227501828742,2.65932243825143,-1.0213667,-0.45631635,0.57726765,274.1062,-60.053146,-16.696882
634130675000.0,0.3057365485987545,9.26245307211583,2.696106875749906,-1.0919216,-0.48655418,0.5363397,274.25903,-60.080647,-16.340805
634135689000.0,0.3352416272229748,9.21234128914605,2.7331053049610112,-1.1328496,-0.4343252,0.50823987,274.3847,-60.101086,-15.997916
634140725000.0,0.3648761657055384,9.16200962998454,2.7702660727127317,-1.1753048,-0.38881573,0.4886922,274.52124,-60.094315,-15.665964
634145672000.0,0.3939869802157135,9.112567469962304,2.806770107277418,-1.2009611,-0.37690386,0.47403142,274.65256,-60.073887,-15.348942
634150735000.0,0.4237804012516983,9.061965962747308,2.84413010869262,-1.2089024,-0.39614612,0.42394048,274.78412,-60.035576,-15.054116
634156685000.0,0.4587934083945206,9.002499447256643,2.888035304904442,-1.2043208,-0.38820487,0.3903429,274.9021,-59.991356,-14.769775
634160661000.0,0.4821903355205477,8.962761822787588,2.917374306608342,-1.2336423,-0.4541783,0.36987892,275.0467,-59.92877,-14.4888
634165691000.0,0.5117895667690178,8.912490129860187,2.954490800212622,-1.2168436,-0.55771995,0.3643811,275.19864,-59.873924,-14.214095
634170882000.0,0.5423362087989994,8.860609342984214,2.992795316773221,-1.2003502,-0.6808093,0.38789943,275.3688,-59.811115,-13.931406
634175665000.0,0.570481958910616,8.812806260027601,3.028089191307868,-1.1710287,-0.8035932,0.4370741,275.56006,-59.756687,-13.635565
634180747000.0,0.6003871861878972,8.76201485973793,3.065589394189965,-1.151481,-0.8897252,0.4999932,275.76535,-59.707005,-13.324696
634185683000.0,0.6294332707689008,8.712682637811557,3.102012259484344,-1.1371256,-0.97066486,0.5500842,275.99265,-59.66594,-12.99541
634190666000.0,0.6587559286836375,8.662880680384669,3.138781938933673,-1.1291844,-0.9795224,0.59742624,276.2116,-59.633396,-12.655785
634195718000.0,0.6884846197904506,8.612389111265538,3.176060771078568,-1.169807,-0.95905846,0.61758476,276.43692,-59.592022,-12.310732
634200840000.0,0.7186252286283559,8.561197936081811,3.213856134943601,-1.2131784,-0.9260717,0.59589905,276.6568,-59.549828,-11.9721775
634205705000.0,0.7472535109392517,8.512575314592386,3.2497550894932674,-1.2663237,-0.85062987,0.59956425,276.85046,-59.497272,-11.637932
634210768000.0,0.7770469319752364,8.461973807377388,3.28711509090847,-1.3109168,-0.7993172,0.6151413,277.03955,-59.432144,-11.314374
634215737000.0,0.8062872063437548,8.412311771163422,3.323781464013772,-1.3240504,-0.84971356,0.57360244,277.23932,-59.353752,-11.007222
634220757000.0,0.8358275922020688,8.362140021959533,3.360824167372317,-1.2959507,-0.8857546,0.56138515,277.41266,-59.278225,-10.704072
634226821000.0,0.8715114367926695,8.301534148020814,3.4055705723855088,-1.2550226,-0.86193085,0.5842926,277.58105,-59.201,-10.410083
634230736000.0,0.8945494070387451,8.262406180265192,3.43445945359043,-1.2275337,-0.9086621,0.57604593,277.77936,-59.12244,-10.118334
634235820000.0,0.9244664033940574,8.211594791230816,3.471974414521674,-1.1759156,-0.9611965,0.57848936,277.9652,-59.06395,-9.826763
634240742000.0,0.9534301044288426,8.162402490517364,3.508293973472025,-1.1459832,-0.9602802,0.6032294,278.1443,-59.00753,-9.538765
634245760000.0,0.9829587212091252,8.112250730058179,3.545321918781424,-1.1496484,-0.9456194,0.6239988,278.33038,-58.954803,-9.251973
634250651000.0,1.011740001534427,8.063368254887617,3.5814127279699988,-1.1618657,-0.9242391,0.6728681,278.50415,-58.911446,-8.95943
634255730000.0,1.041627575194661,8.012606837715,3.618890793778376,-1.171945,-0.90041536,0.7254025,278.66736,-58.868576,-8.669521
634260857000.0,1.0717976067276442,7.961365690669515,3.656723052766277,-1.2021828,-0.8885035,0.7666359,278.8202,-58.81874,-8.377972
634265703000.0,1.1003140827972435,7.912932962254766,3.692481805849048,-1.196685,-0.8060367,0.8029824,278.9401,-58.77854,-8.0945835
634270769000.0,1.1301251574502753,7.862301471922715,3.729863944337971,-1.2098186,-0.7626653,0.82986045,279.05988,-58.72607,-7.8059597
634275687000.0,1.159065320328998,7.813149148698668,3.766153987190028,-1.2211196,-0.75900006,0.8717047,279.1595,-58.678093,-7.5170984
634280711000.0,1.1886292443433744,7.762937422005375,3.803226206646867,-1.2342533,-0.76052725,0.89858276,279.24597,-58.625477,-7.237008
634285694000.0,1.2179519022581111,7.713135464578487,3.839995886096197,-1.2400564,-0.7309003,0.91690874,279.3172,-58.572754,-6.9600616
634290743000.0,1.1324265598795795,7.419538732445726,3.8498764,-1.2479976,-0.66889745,0.9275989,279.37628,-58.515793,-6.68921
634295909000.0,1.0023648651458616,7.029353582530529,3.8498764,-1.2547172,-0.5647449,0.94042706,279.41302,-58.4577,-6.4300637
634300683000.0,0.967472347569376,6.758330516118874,3.923418607045857,-1.2910637,-0.4914411,0.9486737,279.47113,-58.18132,-6.034002
634305670000.0,1.070868311282228,6.62203568833891,4.120810957173784,-1.3289373,-0.46578476,0.9737192,279.50598,-57.903206,-5.6467395
634310749000.0,1.1894600144841958,6.515263785220562,4.318040659864536,-1.3539828,-0.4877759,1.0235047,279.55545,-57.545998,-5.277267
634315674000.0,1.3287128926536993,6.470211453898923,4.502345954888851,-1.3723087,-0.54702985,1.03786,279.60266,-57.180405,-4.9160247
634320823000.0,1.4731270644736842,6.428557510526316,4.692509489473684,-1.3414601,-0.60231316,1.0577132,279.6816,-56.758015,-4.493404
634325716000.0,1.593550896566612,6.467093104605263,4.837017967269737,-1.3213016,-0.61758476,1.0903945,279.75137,-56.329906,-4.0707245
634330658000.0,1.6970343962025316,6.501378834177215,4.978424201265823,-1.3045027,-0.66645396,1.0903945,279.89505,-55.840916,-3.5679255
634335732000.0,1.6062822367918654,6.48625349182403,5.074218246752438,-1.2776246,-0.6637051,1.0690142,280.01486,-55.36327,-3.0806856
634340655000.0,1.5384327909402546,6.4948101994613125,5.158466084524975,-1.251052,-0.6478226,1.0622946,280.19305,-54.84098,-2.5182319
634345753000.0,1.578281450244858,6.630295707672217,5.1983147022200455,-1.2461652,-0.59559363,1.0464121,280.35007,-54.323708,-1.9853867
634350704000.0,1.6169810799461313,6.7618745133121125,5.23701429151159,-1.2647965,-0.5644395,1.0366384,280.60654,-53.720936,-1.3951013
634355736000.0,1.693569765625887,6.812635451036049,5.1760262720408745,-1.2883148,-0.5705481,1.0250319,280.8376,-53.12878,-0.832269
634360652000.0,1.7826597418961112,6.830453334657962,5.078027167906141,-1.320996,-0.5821546,1.0198395,281.04056,-52.53997,-0.29420143
634365645000.0,1.9037229527421835,6.855246176832393,5.066410333162481,-1.3405437,-0.5852089,1.022283,281.35336,-51.897533,0.3615226
634370716000.0,2.048095700307534,6.885116472168119,5.116193881476167,-1.3613132,-0.6282749,1.0231993,281.6475,-51.26283,0.9962128
634375677000.0,2.045787383975026,6.892080098439126,5.039763872632674,-1.3658947,-0.6759224,1.0290025,282.05276,-50.583588,1.77551
634380659000.0,1.966350664099896,6.887115206243496,4.895785109469303,-1.3622295,-0.7431176,1.0677924,282.425,-49.922596,2.5341175
634385660000.0,2.0214027816960374,6.905892134066789,4.84199569428488,-1.3866642,-0.8008443,1.073901,282.9207,-49.18284,3.4671006
634390698000.0,2.1294451466848408,6.934077171356245,4.823205832927661,-1.3720033,-0.79412484,1.0858129,283.35773,-48.482456,4.355555
634395669000.0,2.1963960687681374,6.875905828680076,4.797911331832283,-1.3481796,-0.77549344,1.1038336,283.85254,-47.77625,5.336401
634400759000.0,2.245176126808766,6.773467604923447,4.768643195136596,-1.3203852,-0.7742717,1.1432343,284.29718,-47.1006,6.2711196
634405688000.0,2.249144698434309,6.72010862553608,4.776145609683458,-1.2733486,-0.7501425,1.1725558,284.76324,-46.405556,7.208562
634410773000.0,2.2325694676650785,6.686958207266849,4.801008542375766,-1.2464706,-0.71868294,1.2064588,285.17795,-45.73631,8.103401
634415604000.0,2.206138308785047,6.703353200747664,4.8458822732710285,-1.2339478,-0.6957755,1.248914,285.60556,-45.033283,9.013698
634420713000.0,2.153878900293725,6.829646816742323,4.941691097890521,-1.207986,-0.6612616,1.2956452,285.97943,-44.363857,9.878085
634425737000.0,2.1014146860107927,6.951409370983811,5.019599043329182,-1.2082914,-0.7113526,1.2895365,286.39597,-43.649845,10.755759
634430650000.0,2.0389145550850976,7.0451595673723535,4.925849010095475,-1.1655309,-0.6899723,1.2815952,286.7476,-42.97706,11.580087
634435731000.0,1.9742772326276463,7.142115551058531,4.828893195143213,-1.187522,-0.6554584,1.2592987,287.14572,-42.26456,12.406637
634440756000.0,1.982890756107178,7.208095056815127,4.891491230056457,-1.2202033,-0.6200282,1.2357804,287.5108,-41.588127,13.188233
634445735000.0,2.025621186432476,7.259371528586791,5.028228651716104,-1.2299771,-0.54611355,1.2321151,287.83453,-40.937683,13.918308
634450716000.0,2.12327301017038,7.153198576496287,5.213346745478375,-1.2974777,-0.5225952,1.2638801,288.19733,-40.2717,14.640743
634455664000.0,2.288886136880734,6.8509546764526,5.457626198165137,-1.3277156,-0.46609017,1.2623531,288.524,-39.64133,15.302632
634460684000.0,2.4165625172625846,6.541616890362822,5.67805654792234,-1.3692545,-0.410196,1.2263119,288.85196,-38.975243,15.964094
634465706000.0,2.306708969515945,6.216281468417816,5.737208322498463,-1.3988814,-0.419359,1.248914,289.14807,-38.324364,16.609049
634470658000.0,2.198386634103488,5.895480789510675,5.79553560001757,-1.4065173,-0.45356745,1.3026701,289.3843,-37.596447,17.263557
634475771000.0,2.254108211897204,5.822548825925926,5.707277395676493,-1.3952162,-0.52106804,1.3603969,289.60272,-36.889683,17.905054
634481876000.0,2.35133128287226,5.782775881481482,5.574700421980348,-1.3918564,-0.63255095,1.353372,289.8203,-36.20573,18.53573
634485775000.0,2.374870112779144,5.750454939478603,5.532160817196261,-1.3610078,-0.59773165,1.387275,289.96146,-35.479626,19.151096
634490741000.0,2.295333112995573,5.689632504889326,5.597661893084112,-1.3521502,-0.5852089,1.3750577,290.1223,-34.779583,19.761654
634495689000.0,2.225634703185716,5.652982155730355,5.637353067128137,-1.3625349,-0.54183745,1.3399329,290.27225,-34.08999,20.369083
634500685000.0,2.1955265035160862,5.716962080028318,5.569609539274758,-1.3680327,-0.45570546,1.3271047,290.3936,-33.425594,20.941519
634505736000.0,2.165086848485802,5.781646346967671,5.501120235994652,-1.3768903,-0.33933565,1.3179418,290.5007,-32.758366,21.474985
634510683000.0,2.11172982966392,5.815025396167021,5.423401263466346,-1.4010195,-0.25595254,1.3286319,290.58353,-32.107235,21.976194
634515725000.0,2.044671743153412,5.832907434311638,5.3384611854920845,-1.427592,-0.19730948,1.3368785,290.64178,-31.47626,22.434864
634520762000.0,2.239347945856798,5.807403986323411,5.455296616170555,-1.5042557,-0.21471913,1.3154984,290.72632,-30.85195,22.87854
634525752000.0,2.6921553191472247,5.739055839903459,5.771407295172969,-1.5641204,-0.24220806,1.3142766,290.78613,-30.242136,23.29875
634530643000.0,3.073990317159228,5.642067858021713,6.024443869752714,-1.6197093,-0.2779437,1.3093897,290.87244,-29.637657,23.714134
634535814000.0,3.27809048765581,5.442945684680338,6.109071068918375,-1.6520851,-0.25686884,1.3729197,290.92807,-29.035517,24.116913
634540610000.0,3.4303355604736945,5.238199157445156,6.145774339739856,-1.677436,-0.3295618,1.3234396,290.99896,-28.381823,24.577398
634545757000.0,3.478182376237624,4.955902794554456,6.054864990099009,-1.6664404,-0.3717115,1.317331,291.0247,-27.737167,25.02414
634551432000.0,3.4825537802788444,4.662720767043847,5.966900003152151,-1.6588045,-0.35796702,1.312444,291.03918,-27.05505,25.49171
634555730000.0,3.4035418372802586,4.471428459123056,5.921156308385532,-1.674687,-0.29535335,1.3396275,291.0372,-26.38867,25.94255
634560702000.0,3.321992126863227,4.3302445010101005,5.868446599199199,-1.6957619,-0.34300083,1.3469579,291.03052,-25.691715,26.426476
634565699000.0,3.2740888631449634,4.4652442606060605,5.816188683483484,-1.7229455,-0.3830125,1.3060299,291.0103,-25.014408,26.872723
634570761000.0,3.219608433117218,4.596598882045236,5.770198203860605,-1.7782288,-0.39522982,1.3200798,290.9518,-24.299269,27.324303
634575643000.0,3.01981985773963,4.589709661754954,5.897649336742061,-1.78617,-0.3378085,1.3341297,290.89243,-23.616686,27.74578
634580758000.0,2.810496104553157,4.582491644183305,6.031183245936786,-1.7950275,-0.2098322,1.3881912,290.8445,-22.945295,28.147688
634585740000.0,2.793545554788292,4.592191715970446,6.226717659761295,-1.8500054,-0.23335053,1.3695599,290.82086,-22.290318,28.550507
634590707000.0,3.172034859884437,4.63725017381832,6.560148883404376,-1.885741,-0.23365596,1.3561208,290.75314,-21.649834,28.907907
634595664000.0,3.501619215230725,4.755289236217798,6.8213009926583,-1.9355265,-0.32345316,1.4117095,290.68878,-20.986885,29.259336
634600843000.0,3.637351045427952,5.1952473632914975,6.783857804991978,-1.8664987,-0.4092797,1.4349225,290.6334,-20.372143,29.591856
634605703000.0,3.734172475638411,5.537310787003345,6.73677631092437,-1.8173242,-0.43493605,1.4556919,290.55164,-19.7149,29.954626
634610791000.0,3.483720708843926,5.08013686372685,6.549931268907563,-1.7266107,-0.43585235,1.4737124,290.46762,-19.102697,30.320799
634615742000.0,3.240012631524843,4.63527285151342,6.368117235294117,-1.6514742,-0.16798794,1.4538593,290.4472,-18.569256,30.617302
634620876000.0,3.0794853887280538,4.537712507433694,6.40252478553418,-1.8591684,-0.18753563,1.4004086,290.4643,-18.009642,30.974243
634625704000.0,2.9758540459936498,4.632707961299962,6.5493357980481886,-1.9480493,-0.15515977,1.3466524,290.4465,-17.516462,31.23306
634630654000.0,2.764361494846413,4.713436844229003,6.692580426063884,-2.0033326,-0.1740966,1.3487904,290.36948,-16.90949,31.505943
634635717000.0,2.4328323900398,4.777763295183182,6.831129867996735,-1.9871446,-0.21044308,1.3542882,290.30484,-16.32594,31.759464
634640681000.0,2.385493906015037,4.855244868317345,7.003682467461758,-1.9691241,-0.18875736,1.4052955,290.24747,-15.731133,31.980442
634645661000.0,2.5874584924812027,4.945922830982629,7.209768648431424,-1.9602666,-0.30634892,1.3628404,290.2364,-15.171603,32.231358
634650788000.0,2.685972813825805,5.008124985625155,7.34745643573746,-1.9388863,-0.31887165,1.3637567,290.2035,-14.620784,32.416386
634655831000.0,2.4127745710756177,4.963931214549538,7.23094539021712,-1.9404135,-0.22327125,1.38025,290.1803,-14.089628,32.592674
634660718000.0,2.1480274339905163,4.921104532168704,7.118038493636137,-1.9947804,-0.025961773,1.4498887,290.1432,-13.545464,32.744526
634665680000.0,2.3985632587951806,4.870671773493976,7.0654448260240965,-2.1056526,-0.1459968,1.3796391,290.16833,-13.025305,32.93975
634670712000.0,2.7750789201606425,4.817889235049289,7.026737704651333,-2.2214115,-0.06383542,1.3643675,290.11694,-12.489199,33.029472
634675780000.0,3.11789308448146,4.77201393766636,6.994178426718005,-2.2656991,-0.043676864,1.4141531,290.1016,-11.94007,33.146328
634680666000.0,3.070893216213275,4.803347115016322,7.029428215451578,-2.2592852,-0.0571159,1.3701707,290.1201,-11.412151,33.2369
634685655000.0,3.022902560709801,4.835340815752908,7.0654210922407295,-2.266921,0.14202617,1.4239268,290.0703,-10.82374,33.326244
634691406000.0,2.64647838868528,4.873082312274181,7.448105701443512,-2.2989914,0.07147124,1.3573426,290.0995,-10.276762,33.47702
634695768000.0,2.263727310545423,4.901969166176852,7.84168938750108,-2.316401,0.22632557,1.3536774,290.0603,-9.731518,33.512337
634700774000.0,1.936132464935765,4.902769282580182,8.193399938190637,-2.4034493,0.1731803,1.3332134,290.08905,-9.178244,33.607193
634705743000.0,1.7907759788518551,4.851466980244362,8.381508573533376,-2.44285,0.17623462,1.3185526,290.10556,-8.650217,33.640156
634710641000.0,1.7416320471369675,4.784354196060467,8.468942112230875,-2.4623978,0.11759156,1.321607,290.14203,-8.098754,33.624283
634715747000.0,2.337471746797984,4.600674324874026,7.886542349519011,-2.420248,0.043676864,1.2406673,290.21725,-7.588129,33.606564
634721100000.0,2.9457835350840336,4.415315414968487,7.295625722111344,-2.468201,0.24709499,1.2803736,290.23688,-7.0144796,33.50199
634725649000.0,3.083067904381753,4.425121397463985,7.249864277055822,-2.5341744,0.10903945,1.210735,290.34784,-6.496391,33.50589
634730779000.0,3.2378862852340937,4.4361798037515,7.198258162935174,-2.5149322,0.089186326,1.2156218,290.3842,-5.942558,33.51216
634735612000.0,3.2000489723970222,4.450163831712159,7.262639822908189,-2.5738807,0.27397305,1.2712106,290.42828,-5.37575,33.495663
634740751000.0,2.667596442789081,4.474588236277915,7.633890925330025,-2.6093109,0.13500121,1.2287555,290.52124,-4.8518305,33.57118
634745635000.0,2.4414150660479645,4.536857944555729,7.854090323660755,-2.6230555,0.19150625,1.2156218,290.55814,-4.3118587,33.53335
634750760000.0,2.9961315883763664,4.7127437722227326,7.709773751943397,-2.654515,0.2761111,1.2626585,290.5979,-3.7718642,33.52611
634755681000.0,3.5143606509955947,4.873594079154185,7.53051554815859,-2.676506,0.1282817,1.1600331,290.72058,-3.2457926,33.498592
634761135000.0,3.9423402115947135,4.970234442185022,6.918458970590308,-2.6584857,0.33444872,1.2272283,290.76334,-2.704114,33.351837
634765633000.0,4.2953017194008805,5.049935276969163,6.413686237568282,-2.728735,0.19058995,1.0567969,290.9389,-2.2301202,33.361534
634770759000.0,3.991566529610174,4.876543204810616,6.638247040116118,-2.71102,0.43004912,1.0677924,291.02283,-1.7537825,33.20877
634775625000.0,3.557811531766657,4.65751845053912,7.016172277771634,-2.7666087,0.3145956,0.9297369,291.22797,-1.3055292,33.1956
634780743000.0,3.1379481856573306,4.619221372620353,7.201768545300508,-2.7247643,0.39675698,0.8921687,291.39557,-0.8964118,33.117874
634785927000.0,2.7321886570616964,4.683549268484003,7.275992802053224,-2.7284296,0.3203988,0.8622363,291.61337,-0.49294594,33.11941
634790697000.0,2.2135360990632704,4.3372611943631885,7.505703235497124,-2.69697,0.28955013,0.78801614,291.8235,-0.078125425,33.022377
634795707000.0,1.5985115042399345,3.7774311149876745,7.825042776170911,-2.6410758,0.42241332,0.88361657,291.9896,0.34283912,32.902443
634800768000.0,1.350339044201572,3.3350851655216966,8.165911092279531,-2.6719246,0.2874121,0.7452556,292.26105,0.7343345,32.802643
634806927000.0,2.5634173952191235,3.296977820318725,8.654953067729084,-2.6462681,0.42210788,0.80939645,292.435,1.1365334,32.59001
634810659000.0,3.3389633661652667,3.230175985368236,8.32692756920297,-2.7311785,0.35124752,0.77457714,292.5881,1.6851599,32.37857
634815701000.0,4.44731188067982,3.0745355816565736,6.949745750976753,-2.7333164,0.4569272,0.7098254,292.73965,2.1998332,32.082676
634820648000.0,5.07566991278068,2.5416811839147013,6.093484949724615,-2.7207937,0.6374379,0.820392,292.85397,2.748173,31.851732
634825675000.0,4.664339808607541,1.13092129005084,6.355240541554865,-2.7644706,0.5900958,0.6010914,293.10608,3.2382965,31.665674
634830815000.0,4.243763573188815,-0.311550532996752,6.622880036682672,-2.7064385,0.55955255,0.63407815,293.2057,3.7487416,31.623457
634835657000.0,4.22579104602957,-0.901157537256438,6.9293632011162245,-2.71102,0.65576386,0.7189884,293.3695,4.2502995,31.564081
634840712000.0,4.6192203645941445,-0.6783723081856459,7.308571848918046,-2.737287,0.4914411,0.47219884,293.6306,4.688358,31.598064
634845659000.0,4.939322968223563,-0.8699841776961428,7.588291026449751,-2.6273315,0.49205196,0.43890667,293.54462,5.558584,31.476099
634850804000.0,5.184975185095776,-1.6198700202571503,7.756369036683285,-2.5476136,0.50426924,0.49388456,293.5161,6.3956633,31.401907
634855658000.0,5.263173884865901,-2.2494916439016603,7.83760424623244,-2.4859161,0.41263947,0.321926,293.6087,7.1112814,31.368013
634860824000.0,4.414126692624521,-2.446944468757982,7.454545676117497,-2.3698518,0.27122417,0.31673363,293.63367,7.80872,31.33815
634865655000.0,3.620137729070881,-2.631593055068646,7.096327334610472,-2.3463335,0.19700404,0.52534413,293.54276,8.682948,31.313036
634870683000.0,3.460317054314888,-2.52031286138834,6.85057431506917,-2.3851233,0.11636983,0.41263947,293.55896,9.471374,31.343842
634876733000.0,3.717953992720685,-2.1815680108448614,6.640647983547431,-2.2797492,0.090713486,0.4196644,293.47272,10.245339,31.361761
634880646000.0,3.751412116574171,-2.131255329743513,6.475974053247338,-2.1838431,0.05009095,0.39645153,293.3363,11.058602,31.282413
634885718000.0,3.3179146974051297,-2.670394931723414,6.159047466776661,-2.0497584,0.04428773,0.46120325,293.17844,11.834572,31.194431
634890593000.0,2.9012546188465578,-3.1885939773961303,5.854430528873556,-1.9520199,-0.032986723,0.32162055,293.1891,12.548343,31.219019
634895698000.0,2.8307269944449245,-3.5841142629114477,5.648447952397408,-1.7663169,-0.1328632,0.3323107,293.13055,13.2228985,31.235685
634900736000.0,3.0683194661684663,-3.850884697917927,5.54007241149028,-1.6453656,-0.19792034,0.33658674,293.1175,13.850559,31.272827
634905664000.0,3.347120131809872,-3.9839338687995127,5.330257593235832,-1.5048665,-0.20677789,0.31764993,292.93402,14.5483265,31.2255
634910650000.0,3.7835914118829983,-3.692953116697136,4.772544172760512,-1.3579534,-0.17287487,0.2959642,292.75314,15.203945,31.182903
634915700000.0,4.244263035900631,-3.472386302624406,4.32049785756561,-1.212873,-0.17470746,0.29871312,292.5401,15.898127,31.18586
634920735000.0,4.754956565220778,-3.4573659185421697,4.181559147963554,-1.1239921,-0.28038713,0.27550024,292.33856,16.550756,31.210249
634925653000.0,5.2537829360641695,-3.4426945682111985,4.045849004205279,-1.042747,-0.25381452,0.29016098,292.20743,17.182732,31.311665
634930679000.0,5.3231656375,-3.636279292857143,3.899128314285714,-1.0180069,-0.23732115,0.310625,292.06573,17.79239,31.44115
634935727000.0,5.195796391051912,-3.924039527985949,3.748172228727556,-0.9437868,-0.2284636,0.32925636,291.91962,18.361303,31.559765
634940685000.0,5.026202411310664,-3.671101589950511,4.394015998818646,-0.8881981,-0.38728857,0.39522982,291.703,18.87457,31.800035
634947044000.0,4.778290086063218,-2.980836149856322,5.764824938505747,-0.8356637,-0.4083634,0.40530908,291.51477,19.357777,32.00058
634950829000.0,4.621131682893435,-2.509856201842245,6.581418102228645,-0.9254609,-0.537256,0.41996986,291.2301,19.967281,32.238384
634955654000.0,4.378615519510154,-1.645233788668137,7.625291272913973,-1.0143417,-0.54305923,0.44440445,290.94995,20.558064,32.440434
634960625000.0,4.128761043203772,-0.7544487076549782,8.700751072183769,-1.2238685,-0.4352415,0.47861293,290.84833,21.02577,32.516476
634965678000.0,3.926911740443213,-0.8165297344252077,8.63418809357687,-1.3222178,-0.37293324,0.5030475,290.73727,21.480932,32.600433
634970766000.0,3.775062424099723,-1.833077286558172,7.423610982773546,-1.3182472,-0.2574797,0.48747048,290.65482,21.949232,32.64071
634975681000.0,3.695986252992409,-2.747381991634039,6.20343074718338,-1.2024882,-0.06872234,0.44104472,290.84576,22.08976,32.531578
634980665000.0,3.882866659480624,-3.4071846202237315,4.76559513359968,-0.990518,0.06658431,0.42546764,291.04224,22.205576,32.40659
634985629000.0,4.068997144594487,-4.064339565713144,3.333529325848981,-0.7828238,0.053145275,0.28252518,291.08563,22.655416,32.327038
634990675000.0,3.959453383691188,-4.685403623693055,2.1321708185399557,-0.63071835,0.29077184,0.15363261,291.1943,23.055313,32.152615
634995686000.0,3.717535429966393,-5.281238749253174,1.0524993177371171,-0.5009095,0.05131268,0.022907447,291.2738,23.376724,32.124496
635000791000.0,3.426348041932059,-5.715738080872419,0.58261310761243,-0.3173445,0.39736784,-0.10903945,291.3122,23.924212,32.054607
635005751000.0,3.1100416809978766,-6.009123851959081,0.5963655668287976,-0.14844026,0.3744604,-0.24617869,291.289,24.407455,32.154427
635010703000.0,2.160402933516808,-6.966101579770488,0.0060658671575098,0.111177474,0.15118915,-0.2828306,291.11044,25.007349,32.240917
635015680000.0,0.5485379354097693,-8.616689993195896,-1.2137238685162992,0.40194935,0.47036624,-0.63071835,291.14554,25.47113,32.26202
635020680000.0,-0.2688741395390795,-8.585006364120092,-1.388998099078159,0.6356053,0.35185838,-0.9138544,291.0656,26.063177,32.37252
635025727000.0,-0.3267838137867362,-6.93628371266474,-0.5612303275734725,0.9999864,0.25717425,-1.0595458,291.09518,26.496782,32.430466
635030726000.0,-0.3841427322658397,-5.303241403446332,0.2586648754683203,1.1475104,0.22449298,-1.138042,290.8662,27.295893,32.333202
635035676000.0,0.3999898521633658,-4.825146145787928,0.382424299971193,1.3716979,0.36163223,-1.2479976,290.70227,27.921482,32.25677
635040686000.0,1.5911874864664075,-4.879704727707761,0.1823758611613758,1.5076154,0.6765333,-1.2657127,290.5619,28.499157,32.15443
635045675000.0,4.443784327082342,-6.86744090671109,2.586904774092337,1.45783,1.3133603,-1.4941764,290.94702,28.43851,31.997976
635050641000.0,8.559025279809614,-10.326235088529272,6.9737788529287,1.3316863,1.8142698,-1.7345519,291.3732,28.362225,31.804342
635055638000.0,11.8362066,-13.077822772413793,10.568105537931034,1.3970488,2.6795604,-1.9437732,292.0514,28.335505,31.604017
635060639000.0,14.08422327761194,-14.961030270149251,13.185862386567162,1.7577647,2.879619,-1.9190332,292.69022,28.25897,31.444473
635065676000.0,15.63676779239507,-16.261626936437604,14.992756438814146,2.59465,2.8139508,-1.9804251,293.41208,28.046806,31.309105
635070747000.0,16.528783777491338,-17.008885746193506,16.029529190727462,3.3173037,2.8820622,-1.8075503,294.14368,27.787031,31.046679
635075778000.0,17.320125601265165,-17.723356501918488,16.826603374364826,3.415653,3.0631838,-1.3616186,294.7454,27.544323,30.792221
635080668000.0,16.60137318811573,-17.99046013771648,13.922455548999274,2.8047879,3.402214,-0.9224065,295.3802,27.288954,30.435001
635085665000.0,15.52067961821306,-18.1258674117984,11.211368562428408,1.8869628,3.526525,-0.69974613,295.9027,27.113184,30.083746
635090709000.0,11.509061907101948,-17.10221322661321,10.639597747613593,1.1551461,3.07815,-0.9468411,296.445,26.985477,29.781305
635095989000.0,7.487941575903434,-15.686895660323886,10.28350396551207,1.0036516,2.0781636,-1.5613716,296.82663,26.992104,29.667318
635100694000.0,5.940710650839707,-10.497929264574898,12.736101799895035,1.2257011,0.904386,-2.154827,297.19855,27.005388,29.7338
635105642000.0,4.313569605735493,-5.040967367408905,15.315369405533064,1.3845261,0.10048734,-2.1847596,297.67642,26.9871,29.605501
635110720000.0,3.237889950937371,-1.3964627067470126,17.03714,1.402852,-0.7892379,-2.0344868,298.04565,26.877466,29.844097
635115694000.0,3.267330569169757,-1.39155597973836,17.03714,1.8023579,-1.4025466,-1.6392568,298.25598,26.670742,30.171503
635120662000.0,3.681936625708337,-0.6118692527383,16.24992243387345,2.533869,-1.602605,-1.2070698,299.0597,25.664946,30.34341
635125660000.0,4.66982410429981,1.3205773380103196,14.291478732778131,2.8328876,-1.6584991,-1.1053606,299.77002,24.695045,30.603323
635130719000.0,5.426465834806832,2.5376886298438213,12.225342173440495,2.9196305,-1.9272798,-1.1410962,300.32956,23.660208,30.914017
635135707000.0,5.221410744734679,0.8492561604237832,9.860663897798888,2.7363708,-2.223244,-1.1447614,300.8481,22.663954,31.211685
635140969000.0,5.053884472178662,-0.8767920308483834,7.505913746365959,2.627026,-2.4275784,-1.2076806,301.30542,21.436548,31.82984
635145662000.0,5.576534674786362,-1.6568078005092062,7.331697067289226,2.705522,-2.122146,-1.2809844,301.82,20.218529,32.37371
635150703000.0,6.137940954638357,-2.494664074717646,7.144561699885473,2.8069258,-1.5558738,-1.2431108,302.06512,19.33012,32.97354
635155713000.0,6.064456679803138,-3.09326236705358,7.38368319338843,2.939789,-1.2541064,-1.1117748,302.32108,18.43743,33.541023
635160688000.0,5.772456979970285,-3.6064739704986537,7.768591953719008,2.919936,-1.3625349,-1.2144,302.6725,17.541586,34.072224
635165680000.0,5.54468086890286,-3.057691727643817,7.228562421977265,2.7824912,-1.6939293,-1.25319,302.86108,16.806702,34.603878
635170655000.0,5.364146764743369,-1.752921887392353,6.030471714088874,2.6551259,-1.7950275,-1.0503827,303.02332,16.120491,35.07255
635175681000.0,5.103563175401238,-0.3316902744361691,4.751823711738173,2.4288,-1.5167783,-0.80939645,303.17654,15.561859,35.43286
635180682000.0,4.621260870387077,1.3764633093674603,3.2848215689709432,2.257758,-1.0934488,-0.5360342,303.25455,15.0815115,35.74148
635185652000.0,3.926096134070841,2.977041766812138,2.245519777773267,2.0909917,-0.788627,-0.1908954,303.2997,14.491587,36.14043
635190693000.0,2.813865713386786,4.4175517975946414,1.9809362442606315,2.0173824,-0.5571091,0.17501289,303.28653,13.982872,36.41123
635195606000.0,1.6676576918798334,5.568374889559786,2.2666097292385485,1.9871446,-0.40103304,0.5039638,303.29254,13.363356,36.710835
635200751000.0,0.3584096030933965,6.330474418262939,3.5172348126710293,1.969735,-0.4266894,0.729984,303.21906,12.804076,36.97731
635205618000.0,-0.5005292483161834,6.970213188026193,5.080832110851263,1.9278907,-0.5766568,0.86132,303.27197,12.128174,37.129913
635210928000.0,-0.7098393647801684,7.512516682881198,7.516440693638914,1.8310685,-0.9410379,0.9398162,303.25067,11.493158,37.33753
635215610000.0,-0.710599220871635,7.849842205761655,9.430377786112937,1.7666223,-1.1756102,1.0015136,303.43054,10.743312,37.270596
635220719000.0,-0.0319373813525936,7.697243537754432,10.655181703873932,1.6829338,-1.5515977,1.031446,303.55606,10.0222435,37.337784
635226971000.0,0.8690137131059397,7.439659522120474,12.126132187599763,1.5711454,-1.4718798,1.0079277,303.92062,9.184304,37.070103
635230662000.0,2.425121358901117,6.257730559606822,12.589400906578174,1.396438,-1.2965615,0.979217,304.2399,8.389513,36.879456
635236450000.0,4.865314004217423,4.404301994169537,13.315870520625053,1.2647965,-0.82436264,0.90469146,304.60977,7.597865,36.548077
635240661000.0,6.248772709097364,3.735571726386793,13.527341337356884,0.906524,-0.2779437,0.80878556,304.98325,6.9040294,36.15831
635245744000.0,7.410983538315434,3.809020016206621,13.371803883287477,0.3943135,0.21655174,0.7470882,305.36328,6.282999,35.663525
635250753000.0,8.448954729996707,3.962830371485018,13.254171497530455,-0.10934488,0.52748215,0.66339964,305.50546,6.000062,35.337963
635255708000.0,8.960672688096805,4.505798643340468,13.308858822604543,-0.45753807,0.7892379,0.6032294,305.66833,5.803547,34.90702
635260656000.0,9.471667734853474,5.0479998560833055,13.363468890105368,-0.6994407,1.0329732,0.6267477,305.79736,5.6720757,34.605385
635265670000.0,9.528732364666851,5.520139258943876,13.868296269836884,-0.93828905,1.0488557,0.7122689,305.91827,5.6285334,34.305706
635270857000.0,9.405129180536356,5.977930226679568,14.568716225324854,-1.1456778,0.9034697,0.8885035,305.9959,5.6575384,33.991856
635275742000.0,8.408436091489929,5.56532151426036,15.146379350075428,-1.3359623,0.6817256,0.9129381,306.14215,5.6280518,33.784435
635280693000.0,6.759080012068507,4.534474107409708,15.672321940456118,-1.5650368,0.41080686,0.7351763,306.2821,5.658292,33.640175
635285682000.0,5.530087842625623,3.687926503005885,16.046412359800815,-1.7968601,0.18325958,0.54428095,306.4727,5.6614676,33.488388
635290681000.0,5.291690714929833,3.2804842866093256,16.0637502224536,-1.9645426,-0.005192355,0.48533243,306.66095,5.703894,33.409542
635295645000.0,5.05807658239873,2.7533015902811364,15.92770704020556,-2.064419,-0.15851954,0.46211955,306.82813,5.8777122,33.179993
635300766000.0,4.850519302085852,0.8926985524183797,14.141231948004837,-2.1398609,-0.3472769,0.42852196,307.00967,6.071816,33.029705
635306576000.0,4.61503642791717,-1.2182375245163244,12.114397289600968,-2.1569653,-0.6441574,0.46670106,307.1378,6.3050003,32.96272
635310653000.0,4.4358913,-2.4688437752860413,10.941458018306635,-2.110234,-0.8533788,0.5180137,307.27,6.531074,32.932518
635315750000.0,4.197259027272727,-3.788936980049927,9.738141886831704,-2.1453588,-1.0332786,0.4578435,307.41614,6.762637,32.98442
635320729000.0,4.243615414680852,-4.744742321941489,8.93729211462766,-2.2156084,-1.153619,0.42241332,307.23254,7.327782,33.148693
635325694000.0,4.530257541276596,-5.4107633997340425,8.460960666489362,-2.1804836,-1.2608259,0.37232238,307.0654,7.8507433,33.3573
635330624000.0,4.835563744458518,-5.701412534135529,8.172748051298289,-2.021353,-1.1982121,0.2611449,306.7749,8.500545,33.587082
635335890000.0,5.224153023432552,-4.892294635655478,8.422936411652945,-1.7815884,-1.1896601,0.17440203,306.47855,9.106226,33.85507
635340600000.0,5.537045258620689,-4.167892334482759,8.214919396551725,-1.6896533,-1.4141531,0.21227567,306.0615,9.7858925,34.23043
635345762000.0,5.817982807782701,-3.372696427220189,7.214971928953959,-1.6554449,-1.5995506,0.34422258,305.63495,10.412951,34.581097
635350729000.0,6.145202695678709,-2.6443610718377792,6.473743085973029,-1.6282613,-1.5876387,0.4120286,305.2987,10.904632,34.96222
635355662000.0,6.596281722147849,-2.002619725888375,6.2272772661974605,-1.6157386,-1.5549575,0.4709771,304.89957,11.402089,35.368908
635360669000.0,6.897389297868416,-1.5434086359499897,6.181372288788686,-1.5546521,-1.566564,0.5513059,304.52628,11.752225,35.902184
635365699000.0,6.759164660750154,-1.622394275425292,6.709588269522443,-1.4657712,-1.7040086,0.61391956,304.11887,12.09337,36.4413
635370675000.0,6.647381956981272,-1.7037499829223066,7.263735136658632,-1.4288138,-1.8060231,0.64934975,303.76422,12.374293,37.026268
635376355000.0,6.581819875023179,-1.804614534007046,7.974831009085852,-1.4581354,-1.883603,0.66614854,303.37433,12.652495,37.62129
635380777000.0,6.658284457472016,-1.817096370381567,8.439408571451915,-1.4975362,-1.992337,0.72418076,302.9599,12.887858,38.201603
635385679000.0,7.310358598660021,-1.5370880744750388,8.558315815507802,-1.5460999,-2.025629,0.8588765,302.5016,13.147703,38.753193
635390608000.0,7.966024335484924,-1.255537505212844,8.677877995424462,-1.5946637,-2.0011945,1.0509937,302.01743,13.469996,39.23129
635395718000.0,8.427247613793103,-1.4388987487774294,8.862454968025078,-1.6374242,-1.9620992,1.1679744,301.50314,13.807563,39.691723
635400819000.0,8.794780945812809,-1.8239335135691896,9.072474080161218,-1.6676621,-1.861001,1.2730432,300.9291,14.180556,40.096416
635405627000.0,9.160919892665474,-2.613368340679785,9.381974357423973,-1.6865989,-1.711339,1.3359623,300.39096,14.511099,40.521286
635410671000.0,9.567065660107334,-3.918219378819321,9.831326631842575,-1.7009543,-1.572978,1.3820826,299.82852,14.858587,40.89665
635415649000.0,9.820206288164387,-4.948648458296254,10.102582963999676,-1.6975945,-1.5317446,1.4217888,299.20358,15.250746,41.25734
635420688000.0,9.58986924035272,-5.143849232958498,9.809782454251271,-1.6716328,-1.5027285,1.4333953,298.58606,15.637624,41.56746
635425722000.0,9.35976074686514,-5.338856317628023,9.517272478844752,-1.629483,-1.45783,1.4639386,297.75995,16.212952,41.816917
635430655000.0,8.826131229256388,-5.326220573652981,8.60264562862475,-1.6594155,-1.4391985,1.5112807,296.9265,16.789366,42.04819
635435898000.0,8.162991681940856,-5.2493349315724,7.434943123743899,-1.717753,-1.3191634,1.5827519,296.09894,17.360535,42.221745
635440679000.0,7.256458164917452,-5.107701991568397,6.436020895931604,-1.7986927,-1.0806206,1.6615535,295.227,18.007196,42.340622
635446036000.0,6.1019400668533805,-4.916122542285771,5.3470429764642295,-1.88849,-0.7874053,1.7006488,294.38107,18.657984,42.399014
635450752000.0,5.264685189096467,-4.688590452190897,4.575387805731998,-1.933083,-0.41172317,1.7067575,293.5185,19.36424,42.391384
635455682000.0,4.470841484273098,-4.42397596764606,3.853711706632133,-1.9666806,-0.016798794,1.6679676,292.72635,20.066784,42.29803
635460609000.0,3.753711401296871,-4.11106131846631,3.1468194869749087,-1.9917262,0.40958515,1.5732834,291.99832,20.816622,42.095036
635465702000.0,3.217423718259562,-3.657279182464054,2.454687439798892,-2.0073032,0.8689558,1.4340062,291.3957,21.536173,41.796837
635470704000.0,2.7639631722388747,-3.213450257827992,1.8575891364768276,-2.0271564,1.3121386,1.2614367,290.9157,22.265259,41.407524
635475698000.0,2.683094225962647,-2.779699230082238,1.6811480573591575,-2.0460932,1.6548339,1.0619892,290.5777,22.947063,40.96099
635480666000.0,2.6026463034355545,-2.3482064175390054,1.5056255741680116,-2.0583105,1.921782,0.8472701,290.40726,23.557343,40.493298
635485790000.0,2.7811369280593583,-1.786562409765911,1.4472397997909918,-2.065641,2.087632,0.657291,290.3538,24.11924,40.00582
635490691000.0,3.144106862618873,-1.163627562911485,1.481574713313826,-2.0607538,2.1093178,0.5027421,290.39255,24.629675,39.529663
635495705000.0,3.618978639394234,-0.6460714012232793,1.8467376217163385,-2.058616,2.048842,0.35521814,290.5885,25.023289,39.117855
635500746000.0,4.153251331773614,-0.191471054173187,2.39507005997476,-2.0555615,1.9211712,0.20555615,290.82886,25.370764,38.75405
635505644000.0,4.538682976367766,-0.1212914010463164,2.854245940815722,-2.076331,1.7146988,0.080634214,291.16193,25.728138,38.422295
635510957000.0,4.855248107031404,-0.3273100189456844,3.2964321975508595,-2.0607538,1.4758505,-0.03481932,291.5083,26.041838,38.158947
635515610000.0,5.120136955288668,-0.5564710578433559,3.575705380217895,-2.0295997,1.3469579,-0.064751714,291.9738,26.26128,37.952904
635520673000.0,5.398823855151411,-0.8434770613056533,3.796159267187098,-2.0250182,1.0748174,-0.13255776,292.41003,26.445156,37.867832
635525781000.0,5.671017100921909,-1.1938705280911064,4.0019990396963125,-1.9953914,0.8341365,-0.18936823,292.85413,26.586416,37.821022
635530659000.0,5.904088734522777,-1.7106815072234274,4.148935615921909,-1.953547,0.6462954,-0.21288654,293.2652,26.709614,37.83462
635535670000.0,6.011713522897196,-2.311456243302181,4.270927804517133,-1.9150625,0.47342056,-0.20769419,293.6219,26.825762,37.915394
635540632000.0,5.905311519334112,-3.019261680101246,4.344946574902648,-1.8497,0.26511553,-0.1826487,293.93402,26.919579,38.04883
635545614000.0,5.8104877422192285,-3.738965545183332,4.38849174740641,-1.7357736,0.042455133,-0.15088372,294.155,27.024841,38.228695
635550684000.0,5.740396736541237,-4.491276160716004,4.365128078847079,-1.6224581,-0.1966986,-0.10842858,294.31665,27.117378,38.45107
635555656000.0,5.683863102268584,-5.286180886104922,4.285986715302816,-1.475545,-0.48899764,-0.036651913,294.30615,27.240473,38.70208
635561480000.0,5.661268176443184,-6.421570806785497,3.992254036185943,-1.321607,-0.77549344,0.03940081,294.22565,27.344849,38.98959
635565661000.0,5.659810673006023,-7.171302986128856,3.7620508419967145,-1.1866057,-1.0302242,0.11148291,293.9347,27.588768,39.25179
635570669000.0,5.694824901587881,-7.906600506698302,3.4381698445884283,-1.0274754,-1.2131784,0.16829337,293.57324,27.803381,39.544285
635575687000.0,5.729666599195238,-8.613309026154749,3.103230679025903,-0.90316427,-1.3399329,0.20891592,292.96576,28.180252,39.819485
635580654000.0,5.761567322206388,-8.992130528292396,2.660607772503982,-0.79045963,-1.3933836,0.24251351,292.31342,28.530455,40.100403
635585676000.0,5.793821284550256,-9.37514675211669,2.2130836660910385,-0.6747007,-1.3487904,0.25503623,291.47083,28.99209,40.352306
635590673000.0,5.822896231626056,-9.521025136001988,1.8266008445300843,-0.5522222,-1.2339478,0.2519819,290.6241,29.42441,40.585552
635595812000.0,5.851448048831426,-9.565892362506217,1.455427007906514,-0.4175264,-1.0690142,0.23487769,289.79913,29.823093,40.78791
635600745000.0,5.890247476270686,-9.53275227531521,1.1898220645291568,-0.27000242,-0.893085,0.22388211,288.86053,30.276869,40.963917
635605666000.0,5.9552379773640665,-9.323853595547677,1.13411583071316,-0.113926366,-0.732122,0.21410827,287.9668,30.689781,41.102573
635610781000.0,5.987864677531473,-9.03545765489874,1.2177038626528005,0.047036625,-0.6230826,0.2049453,287.0421,31.10736,41.228275
635615748000.0,5.92711380892173,-8.566807475643131,1.6733360795475276,0.18661933,-0.5946773,0.20830505,286.14276,31.490948,41.33103
635620716000.0,5.855421034438322,-8.096053990232514,2.135069991259688,0.24801129,-0.59712076,0.20311269,285.29993,31.837803,41.429462
635625693000.0,5.637331115939864,-7.597562708114669,2.678069196171444,0.3549127,-0.6374379,0.19425514,284.45908,32.144672,41.525867
635631347000.0,5.3676632933822885,-7.015700218095987,3.2829675934085145,0.4166101,-0.72265357,0.18295415,283.76215,32.358925,41.62074
635635625000.0,4.83042779744733,-6.338783627852085,3.55874843893697,0.453262,-0.74036866,0.18051068,283.07407,32.556538,41.707554
635640610000.0,4.20440653815893,-5.549996998033045,3.8801059693154993,0.44226643,-0.7498371,0.16615535,282.54572,32.676502,41.781944
635645706000.0,3.8653203628941055,-5.060838147819838,3.929959723526593,0.4437936,-0.71685034,0.16493362,282.0219,32.790665,41.847324
635650730000.0,3.708552593502636,-4.765745672113081,3.814689375658841,0.40866885,-0.63285637,0.16737708,281.5131,32.911198,41.90471
635655747000.0,3.6891961451640034,-4.532654865573311,3.713675507055416,0.3640757,-0.49327368,0.1685988,281.22842,32.950893,41.90506
635660747000.0,3.778690678385198,-4.349191310765349,3.624181067283432,0.30726522,-0.3100141,0.16615535,280.9809,32.999393,41.880146
635665637000.0,3.962345561515906,-4.21552598191754,3.5620241410165274,0.2742785,-0.11636983,0.14538592,280.80978,33.0285,41.839745
635670783000.0,4.30391426084059,-4.145460407206326,3.535749544784077,0.23640485,0.025961773,0.12644911,280.67685,33.068203,41.77436
635675707000.0,4.649945276861089,-4.105739309155794,3.498832246646201,0.20341812,0.12767084,0.0983493,280.61157,33.085663,41.71239
635680784000.0,5.108919909056024,-4.210221358572524,3.3980817337835765,0.19028452,0.20219639,0.057726767,280.58737,33.09868,41.63617
635685743000.0,5.557227019762087,-4.31227502866462,3.2996728716039905,0.19272798,0.28985557,0.015577064,280.60703,33.084602,41.580067
635690712000.0,6.163738229211362,-4.820238659486828,3.0372571454389425,0.2098322,0.36560285,-0.022602014,280.65356,33.061962,41.52095
635695736000.0,6.902808164163735,-5.658402068737664,2.640884455419205,0.23854288,0.46975538,-0.06627888,280.74442,33.026142,41.45066
635701465000.0,7.558904440134368,-6.44508002570583,2.3424826374310164,0.2706133,0.591623,-0.12858713,280.82907,32.97237,41.43012
635705775000.0,7.763584454530912,-6.775209065616252,2.355687790754219,0.33444872,0.7266242,-0.16646078,280.94952,32.904766,41.390884
635710818000.0,8.003074318243621,-7.161483021130929,2.3711387392945693,0.41691554,0.8002335,-0.19730948,280.85843,32.93314,41.402393
635715673000.0,8.169542723214827,-7.373394793967658,2.509982482702441,0.5216789,0.9071349,-0.20891592,280.82022,32.941044,41.385128
635720718000.0,8.318780734843438,-7.534337474483677,2.7001874159893404,0.5821546,0.9660834,-0.20463985,280.79376,32.93831,41.366665
635725684000.0,8.465681818242384,-7.692759942559506,2.887413917218824,0.7101309,0.9691377,-0.19486602,280.71027,32.951965,41.33632
635730678000.0,8.652778973288251,-7.772518670228233,3.2559782733389686,0.81153446,0.9095783,-0.17104226,280.62387,32.961887,41.304497
635735659000.0,8.894716627387997,-7.740260316348267,3.8769520065765,0.89858276,0.7626653,-0.12034045,280.50668,32.95891,41.283302
635740803000.0,9.104847524128688,-7.7128727530831105,4.46882553766756,0.96944314,0.5497787,-0.07086037,280.36313,32.944664,41.274696
635745676000.0,8.81552008956099,-7.759790647034182,4.42190752123827,1.0082331,0.3173445,-0.0125227375,280.16068,32.933655,41.287525
635750787000.0,8.512061743967829,-7.8090000367292225,4.3726980030831095,1.031446,0.10293079,0.03970624,280.02078,32.85532,41.314545
635755647000.0,7.980633541983914,-7.782195240214477,4.203242488900804,1.0302242,-0.040011674,0.06963864,279.8282,32.785126,41.3649
635760714000.0,7.304135745656836,-7.717147457908847,3.964733863217158,1.0158689,-0.07971791,0.0852157,279.5967,32.72447,41.42746
635765689000.0,6.5630305035800856,-7.58179883278016,3.847822825508111,1.0250319,-0.069027774,0.08827003,279.32556,32.690357,41.47244
635770677000.0,5.716850065355212,-7.350212726533656,3.887905028155883,1.0225884,-0.005192355,0.07452556,279.06064,32.66261,41.513466
635775639000.0,4.921278783833227,-7.073811433163156,4.043610621740055,1.0228939,0.09193522,0.030543262,278.79718,32.66855,41.503906
635780650000.0,4.242424617996171,-6.670582093873644,4.513194032641991,0.99112886,0.18417588,-0.027794369,278.55884,32.675068,41.489395
635785686000.0,3.7577866952147465,-6.243697092436212,4.9542719246163625,0.95447695,0.26083946,-0.10476339,278.41556,32.671318,41.402523
635790695000.0,3.5748438064469266,-5.786340006964497,5.34629232907473,0.8924741,0.301462,-0.18967366,278.3047,32.663776,41.32056
635795618000.0,3.4237789714101323,-5.316680095148973,5.691030733720555,0.84696466,0.31306845,-0.24007004,278.35626,32.607,41.16994
635801005000.0,3.3960334008712487,-4.706275920877703,5.874151881703775,0.84238315,0.29657507,-0.24862215,278.4205,32.54565,41.02747
635805541000.0,3.416459806908061,-4.329683410235663,5.952029472458784,0.86620694,0.29749137,-0.24831672,278.64874,32.397152,40.869778
635810598000.0,3.534019993830282,-4.20722467973096,5.873656048609285,0.8756753,0.32803464,-0.2706133,278.8857,32.246864,40.716454
635815538000.0,3.6870928833171854,-4.121472566614997,5.744529135322612,0.8857546,0.39920044,-0.3036,279.2363,32.01657,40.57414
635820585000.0,3.921224445485371,-4.102742045553187,5.505714796202287,0.88606006,0.46303585,-0.3399465,279.5964,31.78319,40.431946
635825564000.0,4.188812138275263,-4.133083267732706,5.279879419863084,0.88606006,0.5549711,-0.3747658,279.9864,31.52737,40.29792
635830620000.0,4.559868243230817,-4.296347949780321,5.077035458526617,0.8933904,0.6081163,-0.4251622,280.393,31.26199,40.16845
635835572000.0,4.896843658751696,-4.427286728241907,4.9065031195289786,0.91415983,0.63316184,-0.44257188,280.76593,31.00217,40.06818
635840594000.0,5.181179486431478,-4.4972053504555145,4.794633275314983,0.97097033,0.59681535,-0.43127087,281.13876,30.733372,39.973587
635845564000.0,5.426783245451887,-4.605048948815443,4.682587986516525,1.0442741,0.5357288,-0.41263947,281.43912,30.476976,39.92539
635850638000.0,5.568908968411817,-4.832449927464171,4.564149982987228,1.1395692,0.48349985,-0.38362336,281.72287,30.215092,39.87849
635855695000.0,5.659500667602407,-5.043646876253223,4.490885847665425,1.2461652,0.46639562,-0.36254853,281.94882,29.943588,39.876507
635860629000.0,5.573776551647092,-5.197047682860689,4.572097942404278,1.3341297,0.47678033,-0.33841935,282.1563,29.670898,39.872093
635865597000.0,5.484806882238099,-5.331611813545336,4.682659251423972,1.4214834,0.5009095,-0.32834008,282.2928,29.41219,39.886417
635870643000.0,5.372955845728087,-5.307296410566569,5.02793910103653,1.4862351,0.54519725,-0.32589662,282.42853,29.151484,39.88941
635875592000.0,5.270476382306633,-5.255829370734107,5.369114884077937,1.5030339,0.56596667,-0.34605515,282.54987,28.897373,39.86701
635880654000.0,5.218000996418028,-5.002992981283212,5.736443083428459,1.5121969,0.58123827,-0.364992,282.67563,28.63956,39.835445
635885582000.0,5.179962986133705,-4.734433160918739,6.101942123208614,1.5048665,0.58276546,-0.38820487,282.86734,28.352158,39.76668
635890619000.0,5.27711968875978,-4.2262280328453015,6.557832100712681,1.5189165,0.5897904,-0.40561453,283.06287,28.062477,39.69624
635895627000.0,5.373717021845224,-3.720948842574948,7.011097339414363,1.534799,0.55833083,-0.4370741,283.35852,27.709505,39.616226
635900992000.0,5.4600734862643305,-3.3240696035582955,7.175657144592257,1.5671748,0.5552765,-0.47219884,283.66248,27.35346,39.53192
635905711000.0,5.5236153367510274,-3.079677717802293,7.08767586565001,1.6032158,0.535118,-0.5018258,283.9575,26.995726,39.46298
635910627000.0,5.538695765053129,-2.9096871779811098,7.017317372845336,1.6319265,0.5158757,-0.50976706,284.4503,26.50959,39.39057
635915657000.0,5.529216956709957,-2.776983811688312,6.955705118614719,1.6667458,0.50762904,-0.52564955,284.94452,26.018993,39.323624
635920665000.0,5.5201215123445335,-2.669582495637646,6.731401817338036,1.6694947,0.48624873,-0.5531385,285.44974,25.50625,39.29108
635925677000.0,5.511211465862261,-2.576025937627622,6.415091771301281,1.6658295,0.47891834,-0.58032197,285.95395,24.997955,39.25505
635930671000.0,5.454335277610114,-2.5496842192903757,5.963468238580751,1.6423112,0.43188173,-0.59681535,286.4476,24.479958,39.235935
635935719000.0,5.345897104119087,-2.5940453206769982,5.3621288413539965,1.6264287,0.44012842,-0.61178154,286.9519,23.969084,39.204453
635940636000.0,5.228539979012705,-2.665043921287945,4.887798142488604,1.6151277,0.49663344,-0.6261369,287.40848,23.469812,39.200874
635945656000.0,5.097988381883425,-2.7629573878770244,4.50546917808166,1.6154331,0.5900958,-0.63438356,287.8702,22.981674,39.182354
635950954000.0,5.0278234,-2.815581,4.45879186264426,1.6481144,0.72326446,-0.6417139,288.24564,22.532171,39.17418
635956002000.0,5.0278234,-2.815581,4.7671187762705,1.6930131,0.81122905,-0.6444628,288.62546,22.089705,39.15083
635960597000.0,5.09229192480431,-2.7626248345532174,5.087520682118532,1.781283,0.8732319,-0.63499445,288.94165,21.671732,39.12648
635965580000.0,5.228125607298973,-2.6510474254955776,5.475616700721765,1.861001,0.8949176,-0.6197228,289.2596,21.256554,39.087643
635970651000.0,5.278850132686981,-2.4950159291056586,5.887191581381084,1.9501873,0.89552844,-0.5864306,289.61734,20.816994,39.005688
635975595000.0,5.24606086731302,-2.3029643708943413,6.304083718618916,2.0430388,0.9129381,-0.5580254,289.97134,20.372585,38.911312
635980538000.0,5.139139843725179,-2.083684795909452,6.620581855967037,2.1536055,0.9502009,-0.5222898,290.36536,19.869638,38.77947
635985592000.0,4.946919042533756,-1.8289922995631451,6.832024767384829,2.238821,0.98837996,-0.48808134,290.7446,19.369663,38.63899
635990529000.0,4.749106000147711,-1.5580205769571638,6.810142348227474,2.298686,1.0140363,-0.48197266,291.21198,18.80562,38.44916
635995570000.0,4.535176794202363,-1.2549542794313149,6.515989713321639,2.3420575,1.0506883,-0.47433686,291.66327,18.24715,38.242966
636000811000.0,4.34921817785439,-0.9413937484181708,6.252316697870615,2.3829854,1.1065824,-0.45814893,292.18396,17.630043,37.986774
636005668000.0,4.2454543468363415,-0.6536845762025958,6.087237649695802,2.4028385,1.1233811,-0.44593164,292.68924,17.023397,37.732395
636010542000.0,4.206148332766042,-0.4336254295404945,6.035715112924216,2.4178047,1.1120802,-0.42485678,293.19055,16.375196,37.47709
636015643000.0,4.303958437481229,-0.3504867843597957,6.226445021383522,2.4474316,1.0375546,-0.4288274,293.67728,15.731132,37.23689
636020550000.0,4.473814262045879,-0.2663695033592596,6.463841103770799,2.4807239,0.91782504,-0.47036624,294.17197,15.041837,37.008415
636025576000.0,4.805537288648223,-0.1715914547582947,6.819258526238063,2.5274549,0.7452556,-0.5308419,294.64755,14.352306,36.81691
636030570000.0,5.198687031750025,-0.1024902446754553,7.147612884472174,2.5647178,0.5332854,-0.5891795,295.126,13.628394,36.660862
636035638000.0,5.750612530270706,-0.0927216478997685,7.421133920599778,2.593123,0.3359759,-0.6420194,295.59647,12.901493,36.551125
636040591000.0,6.249907153726708,-0.0556041112511091,7.683777503992901,2.6083946,0.16890424,-0.6713409,296.06952,12.136625,36.4941
636045613000.0,6.668122157826087,0.0425483878012422,7.93982731552795,2.615725,0.087659165,-0.6762278,296.53265,11.379556,36.465584
636050675000.0,7.082336624679253,0.1560339282674455,8.206230587670804,2.6108382,0.116980694,-0.6591236,296.9538,10.613263,36.489883
636055669000.0,7.4016129889224995,0.4453779640659226,8.570405027850214,2.610227,0.25778514,-0.61727935,297.36163,9.866303,36.49823
636060647000.0,7.660087666056417,0.7394196639454512,8.96176048085186,2.5665503,0.45356745,-0.54183745,297.7418,9.117476,36.502758
636065648000.0,7.588510958658696,1.0659873462637772,9.512004544647862,2.5097399,0.68508536,-0.41508293,298.09048,8.406552,36.448536
636070861000.0,7.493125923416383,1.4046825743311573,10.102825783855844,2.4294112,0.8680395,-0.28130344,298.4481,7.6780686,36.3438
636075633000.0,7.0603638298244,1.6861880181116116,10.930535918267903,2.3558018,0.9783007,-0.16737708,298.76193,6.997385,36.19075
636080580000.0,6.611731374459869,1.9780169012595383,11.788600049646044,2.2650883,0.9944886,-0.09040806,299.1392,6.2936225,35.931545
636085646000.0,6.034199986002957,2.2236315884672253,12.05276267225234,2.1569653,0.94989544,-0.03145956,299.46423,5.6456656,35.66291
636090566000.0,5.449000103499261,2.4512093528831937,12.182806831936915,2.0705278,0.9275989,-0.05955936,299.77576,5.029044,35.392178
636095664000.0,4.987652290096998,2.7935708140230946,11.722778153810625,1.9801197,0.9651671,-0.109650314,300.2154,4.3861203,34.957905
636100750000.0,4.564694469182448,3.1625339675196305,11.11083956073903,1.8445076,0.9981538,-0.15271631,300.63687,3.7897053,34.54737
636105690000.0,4.442904049016296,3.374310119412311,10.734314522418304,1.7342464,1.0341948,-0.19517145,301.13556,3.1623716,34.045055
636110698000.0,4.471251959241746,3.512000138225112,10.46703371856793,1.6670512,1.026559,-0.26236662,301.63364,2.5640056,33.56529
636115645000.0,4.497680231086425,3.571045389606477,10.58504142346074,1.5781704,0.96852684,-0.3023783,302.14145,1.9313589,33.0896
636120673000.0,4.520346466446997,3.4259812939559406,11.722887479947278,1.5244142,0.88422745,-0.3286455,302.6466,1.3136644,32.63745
636125818000.0,4.553471482822823,3.4587149264964965,12.994399882782782,1.4645494,0.8426886,-0.3268129,303.12427,0.69502026,32.222473
636130651000.0,4.627601284984984,4.27414125055055,14.653051134134133,1.3582588,0.8597928,-0.41325033,303.62366,0.09718595,31.824207
636135754000.0,4.870812210779272,5.156250485927611,16.25449003085443,1.0998629,0.9260717,-0.5345071,304.1643,-0.41832712,31.362965
636140684000.0,5.888669898081487,6.108741258376186,17.090253741297467,0.6908886,0.82344633,-0.6988298,304.73273,-0.87407875,30.959408
636145759000.0,6.995410122491349,7.04548123183391,17.575395179930798,0.16340645,0.5119051,-0.8206975,305.44485,-1.370397,30.473349
636150769000.0,8.420415969953865,7.72339673644752,15.938252959630912,-0.45845437,0.09712757,-0.8142834,306.1445,-1.7265292,30.071661
636155717000.0,9.682803725903614,8.249192712437987,14.310367513111268,-1.0338894,0.054061573,-0.5290093,306.80096,-2.0598464,29.704895
636160683000.0,8.772755806024097,6.618690112331679,12.5113381070163,-1.3390167,0.3744604,-0.1554652,307.39954,-2.273957,29.37217
636165682000.0,7.856660447289157,4.977352517097804,10.700353813607371,-1.3939945,0.6976081,0.08827003,307.8695,-2.4549935,29.30562
636170738000.0,6.111971435594926,3.327353043336018,9.265424974612442,-1.2913691,0.8888089,0.21105394,308.2412,-2.5563898,29.193596
636175662000.0,4.213191581840144,1.722884198761828,7.964760635011073,-1.1612549,1.1059716,0.27122417,308.53595,-2.6193929,28.991564
636180711000.0,2.9544733776745917,1.2044861639858842,7.42252516391159,-1.1230757,1.2803736,0.25900686,308.64224,-2.4802914,28.797272
636185619000.0,1.889398635104012,0.9600428320022288,7.077685337277117,-1.097114,1.3710871,0.23457226,308.73193,-2.3680012,28.571148
636190686000.0,1.500807194060098,0.8769922291177498,7.084829271305031,-1.0228939,1.2641857,0.1994475,308.76855,-2.1289964,28.297764
636195654000.0,1.496651224248777,0.8853041947781272,7.284315952437106,-0.8707884,1.1664472,0.17837265,308.81085,-1.9271756,28.005556
636200820000.0,1.7217443630890052,0.805479672329843,7.339168248167539,-0.6747007,0.9095783,0.20219639,308.83466,-1.7508345,27.662111
636205680000.0,2.282213252513089,0.5959130576073299,7.158843418848168,-0.42638394,0.5039638,0.22968534,308.87085,-1.634609,27.397501
636211657000.0,2.4237019048766384,0.2500233359444873,6.464988785813415,-0.27152961,0.057421334,0.28588495,308.88806,-1.5515902,27.203135
636215678000.0,2.2121583582208943,-0.0320346694255975,5.733864957902853,0.04917465,-0.24984388,0.34574974,308.90067,-1.5731561,27.089508
636220726000.0,1.7219427550844943,-0.3489103429765787,5.004953624765293,0.34269542,-0.35918877,0.3943135,308.86185,-1.5965275,27.127283
636225710000.0,0.8870428455914616,-0.603625560836051,4.580428040023718,0.5366451,-0.36041048,0.40653083,308.81824,-1.672571,27.220217
636230665000.0,0.20058533386679,-0.6700466823414534,4.433616562288004,0.68783426,-0.25228736,0.37995818,308.72235,-1.76459,27.327417
636235884000.0,-0.2515021646623496,-0.3874920286175352,4.7983689800801725,0.7440339,-0.065973446,0.30879238,308.63617,-1.8828883,27.410357
636240614000.0,-0.4116551991880807,-0.0763010380731564,5.20221090303842,0.70524395,0.02321288,0.22388211,308.5483,-1.9877259,27.394724
636245894000.0,-0.2084957504227003,0.3554127811617978,5.765131957696493,0.62125,-0.038179077,0.14996742,308.48056,-2.1008666,27.368229
636250874000.0,0.0344922571587604,0.7976961916175126,6.257840709960954,0.537256,-0.017715093,0.080634214,308.48544,-2.2575758,27.21422
636255695000.0,1.0240913694392288,1.74126750229293,6.173456148018609,0.4129449,0.09468412,0.039095376,308.5067,-2.3870475,27.05094
636260643000.0,2.0397595726260693,2.709695389706737,6.086848636612112,0.27000242,0.069027774,0.03176499,308.59915,-2.5637875,26.909952
636265703000.0,2.576703011277185,3.0359716633050637,5.950332365043245,0.18478674,0.009773844,-0.020158553,308.72076,-2.7331574,26.746801
636270715000.0,2.794348806155009,2.943270622042153,5.785082949945419,0.11484267,-0.01863139,-0.079107046,308.8493,-2.8707993,26.583437
636275669000.0,2.9345245954152173,2.74258011038266,5.6262891625903135,0.051923547,0.03359759,-0.08827003,309.05115,-3.1253223,26.54806
636280800000.0,2.8249477905539204,2.164014893765052,5.477264711640354,0.053145275,0.12583824,-0.05497787,309.2587,-3.377844,26.507113
636285829000.0,2.7128450293343387,1.601705815640958,5.34909790769753,0.12156218,0.2669481,-0.049785517,309.44287,-3.6118417,26.474535
636290687000.0,2.3935016190156517,1.271834583412408,6.028141251042806,0.16737708,0.3817908,-0.06536258,309.6217,-3.8369608,26.422289
636295841000.0,2.0547004792909678,0.9218641571246464,6.748558993241561,0.19547687,0.42424592,-0.10323623,309.7451,-3.9938478,26.379604
636300776000.0,1.730295429903828,0.5867644183333962,7.438365271423722,0.18600847,0.41630468,-0.118202426,309.86493,-4.1490297,26.318682
636305736000.0,1.40424699120875,0.249967112476334,8.131666008968509,0.1777618,0.33536503,-0.15943582,310.00626,-4.3168707,26.265253
636312545000.0,0.9630106775367872,-0.1516012190282977,9.152885951937307,0.15302174,0.116675265,-0.22143865,310.16315,-4.4796567,26.25267
636315766000.0,0.8179752118885503,0.2673901433164998,10.331970792947322,0.109650314,0.0421497,-0.24220806,310.31824,-4.6326327,26.221449
636320697000.0,0.5959417188393556,0.908820260585111,12.137021196865476,0.115453534,-0.087659165,-0.27305678,310.45398,-4.681908,26.030788
636325691000.0,0.6858152124749628,1.513623654794249,13.442820128507684,0.14446963,-0.17134771,-0.29046643,310.5935,-4.72687,25.85159
636330775000.0,1.2699804588686168,2.0591664463460586,13.95456846048587,0.19028452,-0.21624629,-0.32253686,310.7505,-4.7832756,25.699724
636335644000.0,1.8879266642683608,2.562065256026911,14.30422593533919,0.22479841,-0.24648413,-0.34697145,311.05023,-4.9564457,25.383636
636340751000.0,2.6374160881891235,3.055631371239021,14.427617106241824,0.204029,-0.28344148,-0.3173445,311.34238,-5.120672,25.09361
636345654000.0,3.3321851564132787,3.480252197210764,14.436662774504027,0.1518,-0.30634892,-0.27855456,311.68622,-5.3425107,24.858221
636350668000.0,3.959410506462385,3.7490630685523474,14.078248443527794,0.064751714,-0.3145956,-0.21960606,312.0112,-5.5373693,24.640017
636355747000.0,4.534646451451995,3.954818225207428,13.664856712564204,-0.064446285,-0.33108896,-0.14385876,312.3467,-5.7417154,24.5273
636360606000.0,4.865585579039905,3.908854504148558,13.085713251284076,-0.20158553,-0.3475823,-0.06047566,312.6565,-5.9056516,24.423813
636365560000.0,5.160816413332008,3.821604538207828,12.471377037154776,-0.3371976,-0.37384954,0.01740966,312.93915,-6.042175,24.426807
636370577000.0,5.218094594228094,3.501801390611961,11.712441401947148,-0.4541783,-0.42058071,0.07666359,313.19757,-6.134609,24.441605
636375587000.0,5.249034563380282,3.154546216901408,10.952629887323942,-0.5540548,-0.4700608,0.13041973,313.3904,-6.1760235,24.532984
636380603000.0,5.119476359005095,2.636313850344621,10.180079706922385,-0.64812803,-0.53023106,0.18173242,313.56415,-6.1801157,24.639086
636385571000.0,4.971924042494043,2.107992896812947,9.428448090945196,-0.68477994,-0.5839872,0.22632557,313.67148,-6.1279235,24.80724
636390589000.0,4.699960598888007,1.4781828050833994,8.755696309769657,-0.68936145,-0.59864795,0.27366763,313.76086,-6.0551333,24.977861
636395562000.0,4.433184678509219,0.884090668988623,8.125502218124755,-0.67103547,-0.6200282,0.2864958,313.78992,-5.9190288,25.20258
636400587000.0,4.183977324252648,0.5065037433903491,7.759242998823067,-0.64904433,-0.61575216,0.31245756,313.79776,-5.779196,25.419777
636405803000.0,3.9252976108591606,0.1145647575355039,7.379062284817575,-0.5925393,-0.60048056,0.3136793,313.74136,-5.583512,25.656542
636410683000.0,3.6016389839811915,-0.2042621865893416,7.121061407742946,-0.5180137,-0.55955255,0.29932398,313.67712,-5.401687,25.878456
636415646000.0,3.2192161858307213,-0.4972874666374085,6.922400193019854,-0.4260785,-0.54367006,0.27214047,313.61383,-5.2445908,26.096521
636420828000.0,2.9236203910385647,-0.7037451870526218,6.778434227217239,-0.32620203,-0.50640726,0.21624629,313.51065,-5.0575814,26.290731
636425726000.0,2.689366350087857,-0.8555764875779155,6.669983185027282,-0.23396139,-0.50640726,0.17104226,313.41058,-4.8977556,26.486185
636430660000.0,2.521292695886917,-0.9237246930300776,6.604509400754597,-0.14477506,-0.50640726,0.10567969,313.31372,-4.743939,26.642529
636435679000.0,2.4140139579657776,-0.9135076807854182,6.5789668568073125,-0.055588737,-0.49296826,0.06780604,313.2203,-4.617822,26.791756
636440664000.0,2.3896571128889605,-0.8781439925255287,6.662212491235829,0.004886922,-0.46181414,0.027794369,313.13837,-4.4989824,26.914564
636445705000.0,2.412947286789419,-0.8276819125954813,6.80971704753558,0.05467244,-0.41905355,-0.015271631,313.06726,-4.4060874,27.026915
636450800000.0,2.450055654768285,-0.7774996550354666,6.96155270231715,0.10567969,-0.3848451,-0.043982297,313.00928,-4.3353915,27.118874
636455724000.0,2.5504037710040985,-0.7329004823463114,7.121366539959017,0.1386664,-0.3744604,-0.051923547,312.95682,-4.275736,27.203117
636460736000.0,2.6525452735576924,-0.6875042488942308,7.284036514423077,0.17562376,-0.34666604,-0.06047566,312.92236,-4.24423,27.262192
636465692000.0,2.777045785087858,-0.6355265960503403,7.4569306635269905,0.22082779,-0.34788775,-0.049480084,312.88397,-4.2213926,27.325394
636470731000.0,2.9183730235079945,-0.578231762118094,7.640274084248852,0.2657264,-0.3726278,-0.031154128,312.8452,-4.2075815,27.386072
636475678000.0,3.078664732579452,-0.5096006433881789,7.82188556282159,0.31795537,-0.39492437,-0.0076358155,312.80954,-4.2080936,27.450068
636480746000.0,3.482649141962334,-0.3014874575159744,8.025917686514209,0.3640757,-0.41813725,0.02687807,312.76453,-4.2137494,27.520647
636485626000.0,3.871647547208677,-0.1010943345766773,8.222381136320834,0.42210788,-0.43157628,0.029932396,312.7229,-4.2439723,27.596174
636490924000.0,4.153464791898679,0.0736482687612436,8.286602660807917,0.45875978,-0.40530908,0.010079277,312.6766,-4.277508,27.66563
636495792000.0,4.36003692131305,0.2182487870328631,8.29004559973414,0.45142943,-0.3933972,-0.013439035,312.63074,-4.312907,27.741343
636501058000.0,4.584189193023615,0.3762255732736533,8.284685144621083,0.43127087,-0.35888332,-0.03756821,312.60693,-4.3815136,27.843863
636505718000.0,4.790831782775119,0.5346515839234449,8.171031923444977,0.3643811,-0.3387248,-0.041233405,312.58313,-4.4339643,27.944315
636510709000.0,5.012152204545455,0.7043306009090908,8.04930590909091,0.35216382,-0.30848694,-0.05467244,312.58667,-4.52576,28.067278
636515699000.0,5.25632819015514,0.8811203785152965,7.88945308322459,0.29229903,-0.28771752,-0.044593163,312.58167,-4.582508,28.183704
636520698000.0,5.533982159634624,1.0685367227490212,7.674271392779469,0.2519819,-0.26419923,-0.01863139,312.57336,-4.6376667,28.287245
636525643000.0,5.8086368663911845,1.2539285655647383,7.461414129476584,0.20280726,-0.22693644,-0.007941248,312.57578,-4.702381,28.418407
636530736000.0,5.903333903661227,1.377159203087781,7.400385998941332,0.17837265,-0.18661933,0.01160644,312.56454,-4.755552,28.538866
636535708000.0,5.894932166740185,1.4611748177326862,7.425590771063079,0.17715092,-0.16554448,0.028405234,312.5489,-4.798823,28.650843
636540663000.0,5.846794805571456,1.549206039190994,7.5837436937607325,0.19822577,-0.14538592,0.040927973,312.53528,-4.866619,28.810274
636545643000.0,5.733046322457547,1.6447548600267123,7.961388467658844,0.21197024,-0.11453723,0.04337143,312.51788,-4.9294114,28.957516
636550768000.0,5.625878055708829,1.7264673721455857,8.417810260505094,0.22571471,-0.11759156,0.039095376,312.52023,-5.0122423,29.104927
636555848000.0,5.5432800803268245,1.7677663598365874,9.032132870861629,0.2134974,-0.13591751,0.027488936,312.5229,-5.0903144,29.244867
636560627000.0,5.495329902016472,1.8154617763987504,9.577756231752344,0.1863139,-0.18570304,0.015882496,312.56543,-5.189583,29.3513
636565704000.0,5.490726813026602,1.8799037245290164,10.107100891508091,0.1591304,-0.25473082,0.012217305,312.60898,-5.2830834,29.465586
636570671000.0,5.496252479735318,1.947418754121864,10.564451275709953,0.12461651,-0.31887165,0.005192355,312.6885,-5.377973,29.54687
636575689000.0,5.527168451061483,2.0269165839904417,10.87360914428821,0.09437868,-0.3735441,0.013744468,312.76425,-5.462034,29.64233
636580722000.0,5.548571482469659,2.091344282469659,11.149032933538818,0.03634648,-0.41874814,0.0125227375,312.8729,-5.547173,29.716364
636585685000.0,5.498212473126565,2.040985273126565,11.162766991523792,-0.026267206,-0.42943826,0.0106901415,312.97717,-5.6190643,29.793163
636590841000.0,5.443886179836512,1.9821396743698911,11.157524129427792,-0.08368854,-0.42394048,-0.002443461,313.10834,-5.69567,29.861782
636595668000.0,5.365161361035423,1.836498636282357,10.881987263623978,-0.1432479,-0.40744713,-0.0106901415,313.23572,-5.7530026,29.927416
636600695000.0,5.283174689373297,1.6848231652929155,10.59503391280654,-0.160963,-0.34880406,-0.032070424,313.36298,-5.807735,29.973326
636606415000.0,5.228105303704392,1.5489486181877263,10.16949218856188,-0.19730948,-0.267559,-0.042760566,313.48563,-5.841405,30.005966
636610659000.0,5.197917661962678,1.4583854959520934,9.82610723674682,-0.21960606,-0.17898351,-0.059864793,313.6126,-5.877005,30.017305
636615697000.0,5.19786171103159,1.3069362473223098,9.319098192991117,-0.21624629,-0.11881329,-0.07086037,313.70834,-5.8913,30.030611
636620685000.0,5.229299036500493,1.1183119457263904,8.72964675041132,-0.20738874,-0.06811147,-0.0729984,313.8025,-5.902709,30.020597
636625668000.0,5.257667,0.94810385,8.197746,-0.20189096,-0.03573562,-0.08002335,313.87912,-5.905158,30.0312
636630747000.0,5.257667,0.94810385,8.197746,-0.1908954,0.0009162979,-0.081855945,313.95175,-5.9110317,30.02564
636635699000.0,5.2694715296141705,0.9254784861651226,8.11314685055482,-0.17989981,0.02443461,-0.07422013,313.97125,-5.8907514,30.07802
636640733000.0,5.3283654860836815,0.8125983260612848,7.691073393362517,-0.1704314,0.05589417,-0.07269296,313.99075,-5.874516,30.115803
636645700000.0,5.369016952336816,0.7233727404210196,7.35271113266829,-0.15760323,0.08979719,-0.06627888,314.00446,-5.8605127,30.145277
636650712000.0,5.35393599354332,0.7045215419291493,7.262225458644254,-0.15699236,0.10842858,-0.050701816,314.01346,-5.844695,30.16948
636655644000.0,5.339095752368235,0.6859712404602938,7.1731840890739145,-0.13133603,0.1414153,-0.03970624,313.9879,-5.8164587,30.213324
636660687000.0,5.315480944797111,0.6768198853463842,7.131764210510311,-0.11362094,0.15302174,-0.028710667,313.9572,-5.7848945,30.257565
636665686000.0,5.288183972517343,0.6722703820488454,7.1135660072982985,-0.09621128,0.16982053,-0.027488936,313.9246,-5.75999,30.290358
636670716000.0,5.249088980439906,0.6759228439120188,7.1059904,-0.0720821,0.18784106,-0.023823744,313.8922,-5.740663,30.33648
636675662000.0,5.202577930950511,0.685225053809898,7.1059904,-0.055588737,0.1872302,-0.018020526,313.8585,-5.7234907,30.382442
636680657000.0,5.178523464181144,0.7148227407788406,7.100931928362288,-0.021991149,0.1872302,-0.019547688,313.82596,-5.721199,30.422382
636685695000.0,5.173814561721648,0.7619122914971697,7.091514123443295,-0.004581489,0.19547687,-0.01282817,313.7882,-5.716731,30.459997
636690679000.0,5.18122243988847,0.8125882179711333,7.106329940839757,0.011911872,0.20250183,-0.01282817,313.75983,-5.724973,30.493374
636695678000.0,5.200852759389864,0.8675531453714942,7.14559070282926,0.018936822,0.19883664,-0.014049901,313.7293,-5.7336926,30.527124
636700869000.0,5.218228206774353,0.921637030542278,7.191282347255645,0.03726278,0.20097467,-0.0009162979,313.7008,-5.751525,30.554415
636705692000.0,5.20680846048294,0.944476463503379,7.278833391008735,0.04886922,0.18448131,0.008857546,313.67432,-5.769242,30.58752
636710661000.0,5.195043020026372,0.9680072829899456,7.369034746266688,0.07819075,0.17989981,0.01863139,313.65378,-5.801794,30.614594
636715680000.0,5.083631325150906,0.9889931748490944,7.57309594945674,0.090713486,0.16249016,0.03573562,313.6283,-5.8293934,30.65012
636720700000.0,4.913383832997988,1.008339467002012,7.843944201207243,0.10873401,0.13194689,0.04734206,313.6017,-5.8635764,30.69037
636725767000.0,4.749668138274799,1.0273292171685993,8.100009912905648,0.13897185,0.1282817,0.048563786,313.58047,-5.9063907,30.717295
636730662000.0,4.632344743972637,1.042972350020856,8.260352096104112,0.16371189,0.1255328,0.04734206,313.55692,-5.9492903,30.752253
636735655000.0,4.5126724849837325,1.0589286651038623,8.42390439859848,0.18509217,0.13316862,0.04153884,313.5619,-6.0083084,30.735806
636740682000.0,4.411983434252528,1.0884663632558964,8.609001961251995,0.18295415,0.13652839,0.03726278,313.56674,-6.0656714,30.72177
636746288000.0,4.307255172415322,1.126549385635751,8.823218465064727,0.17684549,0.14446963,0.02565634,313.57513,-6.127213,30.704256
636750799000.0,4.243169511018633,1.1630453504587157,8.995155467038684,0.18295415,0.14263703,0.01740966,313.60034,-6.195982,30.654703
636755685000.0,4.190061699423059,1.2073017522935778,9.181032345502697,0.16401732,0.14508049,0.010079277,313.62833,-6.2569737,30.602606
636760642000.0,4.157928253551226,1.2561336292269012,9.330964570440871,0.12522738,0.14782938,-0.0012217305,313.6801,-6.324013,30.523182
636765682000.0,4.162262146700189,1.3124748737272156,9.417643791056838,0.10720685,0.1328632,-0.0067195175,313.7326,-6.390106,30.449833
636770717000.0,4.1713306147598255,1.370144157379913,9.490013778165938,0.07819075,0.12858713,-0.013133603,313.8048,-6.452956,30.350748
636775716000.0,4.205540405017865,1.4347622752362048,9.48621263302898,0.04886922,0.12797627,-0.016493361,313.87772,-6.510323,30.256891
636780719000.0,4.239777568582771,1.4994320979277491,9.482408446367607,0.022907447,0.124311075,-0.018020526,313.963,-6.567351,30.156452
636785725000.0,4.260700119234361,1.5198463135387488,9.432318960084034,0.0070249503,0.11911872,-0.013133603,314.0468,-6.6181593,30.05898
636790711000.0,4.274075541419235,1.5153878705135386,9.356525475210084,-0.020463986,0.10934488,-0.014966198,314.13318,-6.6600647,29.965708
636795701000.0,4.280833,1.4897679189197195,9.27149836703861,-0.028710667,0.101098195,-0.0106901415,314.22723,-6.7106256,29.880196
636800761000.0,4.280833,1.4419170673348474,9.175796314110793,-0.0421497,0.08582657,-0.011911872,314.32382,-6.7534437,29.801006
636805737000.0,4.276088358034971,1.3912724893838466,9.065017893005828,-0.050701816,0.0693332,-0.0125227375,314.41043,-6.79447,29.730684
636810687000.0,4.266220300166528,1.336999253018318,8.936735716694422,-0.058643065,0.055283304,-0.011911872,314.49704,-6.831774,29.665482
636816189000.0,4.2514162637527,1.2658399921887984,8.818688931693536,-0.080634214,0.050701816,-0.0106901415,314.57556,-6.8550463,29.612833
636820699000.0,4.237059892637527,1.201235909921888,8.736139329316936,-0.07788532,0.04153884,-0.014660766,314.65594,-6.8829446,29.566177
636825683000.0,4.222306699756058,1.130052292242641,8.648378453488371,-0.083383106,0.03573562,-0.005497787,314.72083,-6.8940315,29.530258
636830737000.0,4.214435314620264,1.059209784924378,8.581471720930233,-0.08032878,0.030848695,0.0033597588,314.78705,-6.908628,29.49703
636835653000.0,4.206778858481054,0.9903016396975116,8.51639188372093,-0.07452556,0.02321288,0.004581489,314.83228,-6.9125724,29.470955
636840698000.0,4.198254771564589,0.949366415422503,8.446918412066282,-0.082161374,0.022602014,0.008552114,314.87347,-6.912599,29.445175
636845697000.0,4.18948906190607,0.9230689935457292,8.376791911013457,-0.06536258,0.027488936,0.011301007,314.9146,-6.920412,29.42037
636850676000.0,4.187336379005311,0.8938966606798648,8.323227446161274,-0.06291912,0.025961773,0.013133603,314.93976,-6.910274,29.40516
636855677000.0,4.191961446760019,0.8615204812824723,8.286225841622405,-0.057421334,0.037873644,0.01863139,314.96198,-6.904599,29.385296
636860665000.0,4.202689696702855,0.8447710136710896,8.270819956976277,-0.06688975,0.031154128,0.019242255,314.98132,-6.8895698,29.37515
636865677000.0,4.221989725733816,0.8495959957378367,8.285294701648573,-0.06352998,0.029626964,0.014049901,315.0001,-6.8796816,29.360434
636870732000.0,4.232949,0.848268283906941,8.29148019948087,-0.06261369,0.021685716,0.023518313,315.00662,-6.8598313,29.353498
636875711000.0,4.232949,0.8391002609882715,8.286896092289945,-0.054061573,0.015882496,0.02076942,315.0189,-6.845808,29.345882
636880656000.0,4.24055054108584,0.8301415772157007,8.274815277696257,-0.051923547,0.010995574,0.023823744,315.0277,-6.8290076,29.343641
636885677000.0,4.26259984079237,0.82132183891416,8.248356486427,-0.04153884,-0.002443461,0.02687807,315.03806,-6.817307,29.345367
636890671000.0,4.282513256997986,0.8129083736570119,8.228157256997985,-0.03390302,-0.009162978,0.027794369,315.0465,-6.801061,29.34549
636895732000.0,4.2926127589775644,0.8061752821108564,8.238256758977565,-0.024740042,-0.011911872,0.028099801,315.05457,-6.787973,29.348284
636900677000.0,4.302480776620129,0.7995965155240675,8.248124776620129,-0.01038471,-0.016187929,0.032070424,315.05597,-6.776167,29.358011
636905647000.0,4.308158774574348,0.7962792232855226,8.262228273759158,0.009162978,-0.020158553,0.041233405,315.05566,-6.7675376,29.368385
636910804000.0,4.303062651759364,0.8013754472077185,8.287709419977299,0.018020526,-0.022602014,0.037873644,315.0582,-6.761298,29.378931
636915606000.0,4.294918156337145,0.8057188143004856,8.309426403806988,0.03726278,-0.025961773,0.03848451,315.04922,-6.757924,29.387636
636920695000.0,4.279647409149303,0.8095364811655961,8.328515136769544,0.043676864,-0.027488936,0.028099801,315.04498,-6.755687,29.39579
636925650000.0,4.264778760629798,0.8132536238884537,8.347101238524205,0.050701816,-0.014966198,0.028710667,315.03708,-6.756697,29.397219
636931441000.0,4.257315745877621,0.8314819592071244,8.368429289859236,0.049785517,-0.019547688,0.025961773,315.0345,-6.759164,29.403305
636935616000.0,4.253487123355358,0.8467967851192186,8.38374401982189,0.061086524,-0.016493361,0.022296581,315.03113,-6.7663217,29.403656
636940720000.0,4.257623577285852,0.8606175659287777,8.408607235803657,0.071776666,-0.014049901,0.025045475,315.02676,-6.774219,29.398905
636945666000.0,4.26522172499198,0.8720147874879692,8.435200911453322,0.064751714,-0.0106901415,0.017715093,315.02673,-6.782207,29.39265
636950792000.0,4.2795824912507054,0.8847668761954681,8.456321,0.058337633,-0.022602014,0.010079277,315.03113,-6.7947497,29.387642
636955696000.0,4.313666892831224,0.8999155540440288,8.456321,0.06811147,-0.022907447,0.014966198,315.03314,-6.808528,29.378834
636960601000.0,4.347758244738327,0.9150673209378276,8.456321,0.06841691,-0.014660766,0.016187929,315.04025,-6.8238072,29.369373
636965750000.0,4.370829287883298,0.9354322094336112,8.4697032878833,0.06505715,-0.0106901415,0.0067195175,315.04944,-6.8409743,29.361153
636970750000.0,4.3886485793390895,0.956815377787288,8.487522579339089,0.046120327,0.006414085,0.0143553335,315.05164,-6.8513107,29.347805
636975728000.0,4.405796862656621,0.9784648132175908,8.50443793497666,0.04153884,0.00030543262,0.019242255,315.0551,-6.864444,29.340445
636980720000.0,4.413627119834575,1.0058706111374989,8.508353124887398,0.047036625,0.007330383,0.010995574,315.0591,-6.8759303,29.324688
636985738000.0,4.421498159601998,1.03341914758824,8.512288706412251,0.042455133,0.01863139,0.009162978,315.06387,-6.886569,29.311895
636990702000.0,4.456243613373311,1.0565755653493245,8.545540802832166,0.0421497,0.023823744,0.015271631,315.06866,-6.8993344,29.299143
636995689000.0,4.50800233918792,1.077279055675168,8.597299348493607,0.019242255,0.01038471,0.004581489,315.07986,-6.9076505,29.288118
637001736000.0,4.567512930052347,1.1015407233158845,8.659512733158843,0.02321288,0.01282817,0.010079277,315.08612,-6.924216,29.270634
637005718000.0,4.557695333484939,1.10481325550502,8.6922380550502,0.008552114,0.018325957,0.013439035,315.09692,-6.9319806,29.255913
637010748000.0,4.545293899347807,1.1089470668840642,8.733576168840642,0.0033597588,0.0012217305,0.0036651916,315.11072,-6.9471736,29.250431
637015694000.0,4.532799633778317,1.1059546132686084,8.746594799285328,-0.010995574,-0.010995574,0.006414085,315.1188,-6.9539037,29.24291
637020788000.0,4.519643121763754,1.096087255016181,8.733438218581444,-0.003970624,-0.022907447,0.0012217305,315.1333,-6.966912,29.239563
637025656000.0,4.5070703105178,1.086657671197411,8.720865341693635,-0.013133603,-0.030848695,0.008246681,315.14587,-6.97246,29.234049
637030778000.0,4.485627117382139,1.0796005484093525,8.676214226140283,-0.022602014,-0.03176499,0.0070249503,315.16284,-6.981297,29.229382
637035715000.0,4.458443955643925,1.075070013568417,8.608256203526254,-0.022907447,-0.039095376,0.007330383,315.17746,-6.9887395,29.229078
637040736000.0,4.449764509738033,1.0680077426964751,8.555926475654918,-0.02565634,-0.03390302,0.00580322,315.19012,-6.9938426,29.224874
637045688000.0,4.462773510862707,1.0582509918529694,8.523403972843232,-0.030543262,-0.032070424,0.008857546,315.20154,-6.9975305,29.22381
637050682000.0,4.475892846811137,1.0484114898916472,8.490605632972157,-0.03390302,-0.02321288,0.0067195175,315.2155,-7.002488,29.221527
637055626000.0,4.48643500013318,1.0483615235727604,8.457515999467283,-0.035430185,-0.0143553335,0.0015271631,315.2293,-7.006652,29.218641
637060740000.0,4.495131706072982,1.0570582749178727,8.42272917570807,-0.03268129,-0.017104227,0.00061086525,315.2424,-7.0107265,29.216621
637065587000.0,4.500154181787347,1.0592462778203804,8.396025555227844,-0.032375857,-0.0067195175,-0.00061086525,315.24768,-7.014618,29.21352
637075650000.0,4.493048273211915,1.0308222725188023,8.374707903701518,-0.015577064,0.0021380284,-0.0015271631,315.25327,-7.023302,29.211552
637080639000.0,4.482107765855566,1.0176574178239333,8.37013,-0.015271631,0.002443461,-0.0033597588,315.2594,-7.0258026,29.210632
637085739000.0,4.465129645580951,1.0049238608586075,8.37013,-0.010995574,0.0027488936,0.0036651916,315.26248,-7.0322165,29.20759
637090607000.0,4.450507487446996,0.9914753586598918,8.369227473826582,-0.01985312,-0.0033597588,-0.0036651916,315.26743,-7.038664,29.208605
637095684000.0,4.439843374777015,0.973701757120924,8.365672682994589,-0.0033597588,-0.003970624,0.004581489,315.2647,-7.0490847,29.208902
637100749000.0,4.429204467809621,0.955970165276356,8.362126294268167,-0.00061086525,-0.0076358155,-0.0015271631,315.27087,-7.059197,29.213005
637105660000.0,4.4244847,0.9460729158175448,8.358522023403916,-0.0030543262,-0.008552114,-0.005497787,315.2734,-7.0703325,29.216824
637110735000.0,4.4244847,0.9422039252109536,8.354652951998089,0.009468411,-0.01282817,0.0036651916,315.27393,-7.0845337,29.222788
637115889000.0,4.423887556296505,0.93852705,8.352468851464632,0.013439035,-0.014049901,0.002443461,315.27692,-7.094576,29.227789
637120740000.0,4.415136063530188,0.93852705,8.374347469153244,0.024129177,-0.005497787,0.0076358155,315.2745,-7.106909,29.231714
637125762000.0,4.406076076584723,0.93852705,8.396997318263164,0.0106901415,0.0009162979,-0.00030543262,315.27463,-7.117961,29.236883
637130667000.0,4.405331,0.934191769782324,8.433542060667138,0.01740966,-0.0027488936,0.004886922,315.2688,-7.133643,29.243143
637135699000.0,4.405331,0.9293353294316234,8.472393380630859,0.018325957,0.00030543262,0.00580322,315.26627,-7.1458726,29.245136
637140689000.0,4.418841874807941,0.9397589639542744,8.486282925573105,0.010079277,0.00030543262,-0.0012217305,315.26917,-7.1547813,29.2467
637145635000.0,4.433397480732592,0.9514034638928154,8.497927653493948,0.021685716,0.005192355,-0.0027488936,315.26953,-7.1676683,29.246265
637155726000.0,4.461731405165563,0.9757738755231788,8.516620554701987,0.013439035,0.0015271631,-0.0027488936,315.27197,-7.1734858,29.245564
637160707000.0,4.474367751346579,0.9884101777218544,8.520832303576158,0.00580322,0.0021380284,-0.009468411,315.2766,-7.183215,29.242008
637165702000.0,4.490184666409597,0.9959879,8.526653735389889,0.010995574,0.0067195175,0.0033597588,315.27908,-7.193618,29.242682
637170796000.0,4.511086217052271,0.9959879,8.535014530248501,0.011301007,0.010079277,0.00030543262,315.28876,-7.203838,29.242529
637175776000.0,4.531526002891541,0.9959879,8.542512,0.01282817,0.007330383,0.005192355,315.2955,-7.214243,29.246706
637180731000.0,4.551929332570139,0.9959879,8.542512,-0.0015271631,-0.0018325958,0.0009162979,315.30615,-7.222197,29.25115
637185827000.0,4.565053411629198,0.9980434255805348,8.538400970302526,0.004886922,0.0033597588,0.0027488936,315.31018,-7.228853,29.25245
637190746000.0,4.551978674132667,1.0067599172448884,8.520968077990563,0.007941248,-0.0015271631,0.0027488936,315.31702,-7.2319064,29.258776
637195870000.0,4.538760691444947,1.0154643042775258,8.503882188981095,0.0015271631,-0.0070249503,0.008246681,315.3223,-7.2299376,29.267529
637200792000.0,4.530695500307981,1.019496899846009,8.49984950919668,0.009773844,-0.0070249503,0.004581489,315.3304,-7.2336545,29.27545
637205712000.0,4.522633586371803,1.0235278568140986,8.495818468046883,0.00061086525,-0.0033597588,0.007330383,315.33868,-7.2339,29.285582
637210740000.0,4.54251967203382,1.0278992960048314,8.491446937563877,0.002443461,-0.004886922,0.0015271631,315.351,-7.240527,29.296324
637215747000.0,4.573705889928459,1.0323544699897798,8.486991670537954,-0.0070249503,-0.0106901415,-0.0076358155,315.36334,-7.242084,29.306889
637225737000.0,4.5872903,1.0201566689195576,8.477981636827678,-0.002443461,-0.014660766,-0.0033597588,315.37503,-7.244865,29.315104
637230645000.0,4.5893624571298455,1.0234302367068109,8.477546222042303,0.0015271631,-0.0067195175,0.0030543262,315.3885,-7.246162,29.320969
637245725000.0,4.573180967722905,1.0534488,8.490972662649588,-0.005497787,0.007330383,0.00580322,315.3964,-7.2448525,29.327938
637250694000.0,4.556953211439466,1.0530471039084843,8.495431408960915,-0.00580322,0.011911872,0.007941248,315.40143,-7.245671,29.337736
637261045000.0,4.520478805325908,1.0440981053259075,8.513782,0.0012217305,0.022602014,0.0027488936,315.4141,-7.248038,29.343239
637265705000.0,4.523979306384815,1.0475986063848144,8.513782,-0.002443461,0.026572637,0.0061086523,315.42407,-7.2489786,29.34699
637270615000.0,4.527667602564907,1.051286902564907,8.513782,-0.01282817,0.024740042,0.00061086525,315.44104,-7.2488227,29.345407
637275640000.0,4.523506787464124,1.0576639270192705,8.50113657492825,-0.015577064,0.029321533,0.005192355,315.45303,-7.247843,29.34142
637280674000.0,4.508682132175072,1.0675469961459616,8.471487264350145,-0.018325957,0.023518313,0.002443461,315.4696,-7.246243,29.34032
637285629000.0,4.496536360624562,1.0703210684015614,8.467727657992194,-0.023823744,0.022296581,0.008246681,315.47784,-7.240974,29.33369
637290871000.0,4.486487051546392,1.065296387628866,8.49285106185567,-0.02321288,0.022296581,0.008552114,315.4889,-7.237907,29.328089
637295715000.0,4.494401966672506,1.052645189428046,8.491748489971096,-0.019242255,0.012217305,0.01282817,315.49615,-7.2355967,29.323334
637300754000.0,4.519762829526145,1.0315110929140754,8.466387538845582,-0.014049901,0.008552114,0.0061086523,315.50656,-7.2354174,29.316484
637305770000.0,4.538541894972021,1.011683879888087,8.445015153839917,-0.004581489,0.0070249503,0.010079277,315.51727,-7.23295,29.312252
637310709000.0,4.534706049120103,0.9963404964804152,8.437343301921986,-0.011911872,0.003970624,0.013133603,315.53058,-7.228843,29.309187
637315603000.0,4.530905152258535,0.9811369090341416,8.42974134944449,-0.0012217305,0.002443461,0.014049901,315.53723,-7.2238636,29.312635
637320759000.0,4.5298295,0.9647962466875,8.42759,0.006414085,0.011301007,0.008246681,315.54462,-7.2171607,29.313684
637326532000.0,4.5298295,0.9463672671666667,8.42759,0.00580322,0.009468411,0.01160644,315.54926,-7.2098846,29.318447
637330684000.0,4.524758004579517,0.9486700143630308,8.424209120732723,0.007941248,0.0009162979,0.011301007,315.5503,-7.2044425,29.320429
637340672000.0,4.495656160221751,0.9987093340975978,8.409797745465744,0.004581489,0.009773844,0.011911872,315.5492,-7.197082,29.318165
637345723000.0,4.482413489836425,1.0053307038601054,8.413108499486688,0.006414085,0.02076942,0.0125227375,315.54736,-7.1877136,29.31963
637350731000.0,4.469283556498529,1.0118957048045991,8.416391068510027,0.017104227,0.027183503,0.011301007,315.55014,-7.1854763,29.316135
637355727000.0,4.44619720589391,1.0246242500982317,8.444091296660117,0.011301007,0.028405234,0.018325957,315.54984,-7.1785197,29.311472
637360750000.0,4.413119566689588,1.0435257793614932,8.496069971709234,0.008246681,0.027488936,0.02107485,315.5511,-7.175774,29.305542
637365638000.0,4.399286577461904,1.0534488,8.525124166393576,0.01038471,0.028710667,0.014966198,315.5556,-7.1742725,29.294147
637370741000.0,4.4072942237915775,1.0534488,8.529128052269376,0.00580322,0.034208454,0.016798794,315.55652,-7.169007,29.28253
637375878000.0,4.415573864479141,1.0534488,8.533156960234203,0.0125227375,0.034208454,0.004581489,315.56943,-7.1764493,29.261843
637380656000.0,4.42673702406278,1.0534488,8.536878104090428,0.004581489,0.03481932,0.0143553335,315.5744,-7.1757717,29.240965
637385715000.0,4.438556702659185,1.0534488,8.5408180929495,-0.002443461,0.03023783,0.010995574,315.58832,-7.177656,29.221634
637390700000.0,4.4436383,1.0495101320892792,8.536604111233078,0.0067195175,0.032986723,0.0070249503,315.59897,-7.180441,29.200945
637396517000.0,4.4436383,1.0413566690157336,8.524374150750091,-0.00061086525,0.027183503,0.008857546,315.60947,-7.1771874,29.184536
637401143000.0,4.4436383,1.0348725844054154,8.514648210025614,-0.009773844,0.01160644,0.0033597588,315.62747,-7.1768517,29.175608
637405541000.0,4.45502646372315,1.0229069362768497,8.521373871320606,-0.004276057,0.007941248,0.010995574,315.64026,-7.176395,29.165777
637410542000.0,4.469314523627685,1.0086188763723152,8.530898946201273,-0.007941248,0.014049901,0.00061086525,315.6608,-7.174882,29.156696
637415576000.0,4.492166412200208,1.0055647,8.52105653806048,-0.0067195175,0.013439035,0.011301007,315.6733,-7.170618,29.155634
637420534000.0,4.516922290406674,1.0055647,8.50620321793535,-0.0061086523,0.004276057,0.009468411,315.69318,-7.1687207,29.1543
637425648000.0,4.488509083415634,1.0055647,8.508173034938974,-0.0067195175,0.004581489,0.0036651916,315.70593,-7.1589146,29.14937
637430548000.0,4.453531858035964,1.0055647,8.512545279418616,-0.009468411,-0.0012217305,0.0076358155,315.7167,-7.148008,29.149055
637435596000.0,4.447097891141364,0.9986454454671008,8.496483863667752,-0.0012217305,-0.00061086525,0.012217305,315.72614,-7.1371884,29.149168
637440550000.0,4.451778069872743,0.9892849902633916,8.473082725658479,-0.008552114,-0.008246681,0.008246681,315.7376,-7.1229396,29.152939
637445589000.0,4.453215,0.9953882335997868,8.462905559641175,0.0061086523,-0.006414085,0.004886922,315.75473,-7.1180725,29.152498
637450916000.0,4.453215,1.008981522595257,8.458374368682833,-0.003970624,-0.0106901415,0.010995574,315.7705,-7.104856,29.155981
637455599000.0,4.443832596826425,1.008104660880829,8.44928401392487,0.00580322,-0.0076358155,0.013744468,315.78094,-7.101473,29.156487
637460597000.0,4.423165672603627,0.9926043867875648,8.433783416126943,0.004886922,-0.0015271631,0.01160644,315.79095,-7.0930576,29.157238
637465601000.0,4.410207887718296,0.9887611438713888,8.42524015244002,0.00580322,0.0009162979,0.01282817,315.80554,-7.087732,29.16086
637470602000.0,4.402391039856373,0.9926695473967684,8.42133207540395,-0.0033597588,0.00061086525,0.013439035,315.8207,-7.080314,29.163235
637475621000.0,4.3957543,0.9972706701264946,8.418655331485011,-0.00061086525,0.003970624,0.00580322,315.83878,-7.074745,29.163721
