timestamp,acc_x,acc_y,acc_z,gyro_x,gyro_y,gyro_z,ori_azimuth,ori_pitch,ori_roll
2318294309000.0,0.3157789293828997,-9.193556109293674,0.7473326805070631,6.015801,-0.96669424,-8.615032,269.54404,14.973698,-63.823357
2318299108000.0,0.3304233416622413,-9.203319258098771,0.7278067774190121,-2.6041186,-3.1083877,8.485834,231.00691,11.295996,-65.95823
2318304077000.0,0.3455865182857144,-9.213428257142851,0.7075891878285714,-8.140085,0.73914695,0.03970624,270.82086,16.527449,-63.795
2318309166000.0,0.3611158815050452,-9.223781385767388,0.686883348942326,-1.1771374,0.7360926,0.035124753,266.16733,14.573201,-64.291
2318314032000.0,0.3759647479670739,-9.233680840254909,0.6670848399974508,-1.1722504,0.74128497,0.033292156,267.49448,16.127186,-64.22787
2318320071000.0,0.3943930884036113,-9.24596666139139,0.642513694186086,-1.16492,0.754724,0.028405234,268.81757,16.948265,-64.13621
2318324101000.0,0.4066908549144982,-9.254165346468396,0.6261166553353159,-1.1808025,0.77396625,0.023518313,270.13867,17.761309,-64.01655
2318329196000.0,0.422238527463622,-9.264530681571957,0.6053864039842803,-1.1902709,0.7825184,0.03023783,271.44574,18.561539,-63.869198
2318334113000.0,0.4372430232288902,-9.274533891131169,0.5853803890886882,-1.2110404,0.7800749,0.039095376,272.74167,19.355738,-63.693977
2318339091000.0,0.4524336638470527,-9.28466119989378,0.565126180801062,-1.2140946,0.77182823,0.044898596,274.01715,20.139328,-63.49182
2318344089000.0,0.4676853355645248,-9.294829196919803,0.5447905976308018,-1.2073752,0.7834347,0.061391957,275.2701,20.910126,-63.269676
2318349173000.0,0.4831994410090283,-9.305172153478487,0.524105102465215,-1.2464706,0.76174897,0.064446285,276.47888,21.679062,-63.012207
2318354106000.0,0.4982527616537441,-9.315207913648427,0.5040339876635156,-1.2403619,0.75869465,0.058337633,277.67114,22.433931,-62.736298
2318359090000.0,0.5134617116016995,-9.325347428890066,0.4837553669110992,-1.2351695,0.7467828,0.06627888,278.81055,23.179955,-62.43537
2318364093000.0,0.5287286410939991,-9.33552559798194,0.4633994400201806,-1.2425,0.7315111,0.07238753,279.9162,23.921467,-62.1088
2318369143000.0,0.5441389936696761,-9.345799384492826,0.4428522821550716,-1.2321151,0.713796,0.08124508,280.9765,24.651497,-61.761307
2318374117000.0,0.5593174280679767,-9.355918555602758,0.4226143488439723,-1.2406673,0.6908886,0.09621128,281.9874,25.373417,-61.393986
2318379042000.0,0.5743463362729688,-9.365938040467336,0.4025757839953266,-1.2388347,0.67103547,0.10629055,282.95383,26.086447,-61.00707
2318384101000.0,0.5897841528433352,-9.376230136696757,0.3819920074330324,-1.2174544,0.6038403,0.10720685,283.84546,26.79115,-60.596
2318389871000.0,0.6073916249941583,-9.387968700690385,0.3585153537930961,-1.1194105,0.50243664,0.102319926,284.6717,27.484127,-60.164642
2318394093000.0,0.6202752900584175,-9.39655799309612,0.3413371160690387,-0.93615097,0.46395215,0.10354166,285.4596,28.163832,-59.72076
2318399102000.0,0.63556052888051,-9.40674836866702,0.3209567767133298,-0.86376345,0.3930918,0.09193522,286.14713,28.845022,-59.246326
2318404107000.0,0.6508335614827404,-9.416930606585234,0.3005927123341476,-0.729984,0.32803464,0.09285152,286.78406,29.504972,-58.762398
2318409091000.0,0.6660425114306958,-9.427070121826867,0.2803140915817312,-0.6105598,0.17531833,0.07147124,287.31512,30.168392,-58.246555
2318414095000.0,0.6813124924779608,-9.437250325331917,0.2599540959466808,-0.3210097,-0.03023783,0.012217305,287.7647,30.824146,-57.704098
2318419086000.0,0.6965428033106745,-9.447404081465743,0.2396469939853425,0.07086037,-0.03268129,0.015882496,288.21024,31.455572,-57.171566
2318424084000.0,0.7117944750281466,-9.457572078491769,0.2193114108150823,0.08002335,0.0033597588,0.016493361,288.55966,32.108047,-56.60453
2318429044000.0,0.7269301876569305,-9.46766276781731,0.1991304399218268,0.027794369,-0.009162978,0.016798794,288.86676,32.74256,-56.031822
2318434034000.0,0.7421574469346788,-9.47781448953797,0.1788274067046202,0.03481932,-0.018325957,0.02076942,289.17734,33.371593,-55.46085
2318439046000.0,0.7574518404216676,-9.488010968348378,0.1584348611165161,0.03176499,-0.015271631,0.0125227375,289.47388,34.005657,-54.88458
2318444105000.0,0.772889656992034,-9.4983030645778,0.1378510845542219,0.029626964,-0.016187929,0.0076358155,289.74866,34.63576,-54.30794
2318449066000.0,0.7880284211757834,-9.508395788316516,0.1176660449168348,0.024740042,-0.013439035,0.014966198,290.01233,35.263214,-53.731804
2318454112000.0,0.8034265675315986,-9.51866143717472,0.0971351620282527,0.03023783,-0.009162978,0.01985312,290.26385,35.89033,-53.152996
2318459472000.0,0.8197829021465747,-9.529565891768454,0.0753266934823154,0.01740966,-0.013439035,0.018325957,290.49985,36.515945,-52.573837
2318464098000.0,0.833899395416888,-9.53897708709506,0.0565046831290493,0.022296581,-0.016187929,0.010079277,290.72662,37.138573,-51.99459
2318469085000.0,0.8491175000297398,-9.549122705576208,0.0362138561442379,0.021991149,-0.015577064,0.011301007,290.94067,37.757034,-51.41796
2318474063000.0,0.8643081406479023,-9.55925001433882,0.0159596478566117,0.012217305,-0.011301007,0.01282817,291.1447,38.374977,-50.839973
2318479045000.0,0.8795109874859267,-9.569385460754116,-0.0043108354075411,0.016187929,-0.008552114,0.014049901,291.33774,38.98893,-50.263344
2318484040000.0,0.8947535045385024,-9.579547354540628,-0.0246342123454062,0.014966198,-0.014049901,0.010995574,291.51047,39.609573,-49.676716
2318489017000.0,0.9099410936016996,-9.589672628890067,-0.0448843518889006,0.017104227,-0.014966198,0.0106901415,291.67636,40.225464,-49.09314
2318494111000.0,0.9108532623700808,-9.595961,-0.05746084,0.013439035,-0.019547688,0.004581489,291.81357,40.841248,-48.504414
2318499108000.0,0.8895974572843564,-9.595961,-0.05746084,-0.0012217305,-0.02076942,0.006414085,291.94302,41.45203,-47.919773
2318504031000.0,0.8701418088738643,-9.59932997781534,-0.0561132479592224,0.010079277,-0.01740966,0.007941248,292.06403,42.072998,-47.32231
2318509039000.0,0.860008571096556,-9.62466307225861,-0.0459800033042467,0.01038471,-0.01160644,0.01038471,292.1774,42.690933,-46.727657
2318514041000.0,0.8545661778269656,-9.642729787797132,-0.0405376063407756,0.006414085,-0.016493361,0.010079277,292.27344,43.311947,-46.126694
2318519180000.0,0.8640388320854585,-9.637993361755363,-0.0500102670285824,0.0018325958,-0.023518313,0.003970624,292.36395,43.930492,-45.527264
2318524061000.0,0.8747247323072277,-9.634268,-0.0542255105643245,-0.004886922,-0.019547688,-0.0027488936,292.4412,44.55577,-44.91876
2318529094000.0,0.8941328699738272,-9.634268,-0.0348173901236158,-0.0033597588,-0.022296581,-0.00030543262,292.50623,45.176277,-44.3134
2318534068000.0,0.912410209752132,-9.634268,-0.0187180223594833,-0.00580322,-0.022907447,0.0036651916,292.5617,45.804916,-43.698486
2318539031000.0,0.9266328494668596,-9.634268,-0.0163475823245224,0.0018325958,-0.013439035,0.0027488936,292.6142,46.429787,-43.086334
2318544131000.0,0.9412480947912822,-9.634268,-0.0139117080190015,-0.0106901415,-0.0106901415,0.002443461,292.6409,47.062187,-42.46343
2318549187000.0,0.955737247803102,-9.634268,-0.0114968490996459,-0.004581489,-0.019242255,0.008246681,292.6615,47.687744,-41.84564
2318554060000.0,0.964830816778889,-9.637503555104466,-0.009576807,0.0021380284,-0.01038471,0.008552114,292.66858,48.32174,-41.2173
2318559085000.0,0.9505352913555798,-9.656564122982472,-0.009576807,-0.0012217305,-0.010079277,0.011301007,292.66418,48.94875,-40.594944
2318564049000.0,0.9403020977590222,-9.673166693913188,-0.009576807,0.004886922,-0.00580322,0.012217305,292.63916,49.588394,-39.95567
2318569168000.0,0.9525315317811408,-9.677243249958424,-0.009576807,0.004886922,-0.014966198,0.011301007,292.60538,50.22281,-39.321064
2318575568000.0,0.9672575,-9.681681179877096,-0.009576807,0.0036651916,-0.004581489,0.012217305,292.54706,50.86898,-38.670155
2318579047000.0,0.9672575,-9.674740573065304,-0.009576807,0.008857546,-0.0033597588,0.009773844,292.47925,51.509888,-38.023163
2318584005000.0,0.9672575,-9.664849360483284,-0.009576807,0.010995574,-0.004886922,0.012217305,292.37637,52.16814,-37.352932
2318589031000.0,0.9637019893640152,-9.652331616597207,-0.0024657805303497,0.014049901,-0.0033597588,0.008552114,292.27335,52.8214,-36.687027
2318594112000.0,0.959293607338286,-9.639106654647582,0.0063509899655734,0.002443461,-0.004276057,0.006414085,292.1668,53.466785,-36.02889
2318599129000.0,0.9480653162462908,-9.631062810724885,0.0256024297441712,0.005192355,0.00061086525,0.005497787,292.00836,54.13373,-35.338936
2318604055000.0,0.9330667790801188,-9.626063202628233,0.050599965411615,0.0033597588,0.0033597588,0.007330383,291.84833,54.792625,-34.656925
2318614036000.0,0.9454861593946972,-9.64949451875938,0.0657288033306653,-0.0036651916,-0.0033597588,0.004886922,291.6076,55.487144,-33.92345
2318619144000.0,0.937560635642836,-9.66396443453957,0.0635232415445719,0.0033597588,0.009468411,0.009773844,291.37622,56.16779,-33.202698
2318624081000.0,0.9236504674757282,-9.677874893203883,0.0588865139805825,-0.004276057,0.0067195175,0.007941248,291.03198,56.89883,-32.40762
2318629049000.0,0.9130366754027618,-9.672646634637514,0.0954815339010356,-0.0009162979,0.003970624,0.0070249503,290.55673,57.701103,-31.505663
2318634055000.0,0.9038419236248562,-9.65885421173763,0.1506501117759877,0.00030543262,0.002443461,0.008246681,290.0946,58.483562,-30.618914
2318639032000.0,0.911249188921146,-9.650663897384304,0.0014277561693973,-0.0012217305,-0.003970624,0.010995574,289.58978,59.299,-29.677073
2318645166000.0,0.9337629671581872,-9.645035921529177,-0.3475361444418894,0.01038471,-0.002443461,0.004581489,289.1026,60.09217,-28.750298
2318649071000.0,0.951165879437076,-9.636261551888223,-0.3480743130201478,0.01160644,0.00580322,0.0018325958,288.63705,60.850574,-27.85342
2318654141000.0,0.9757454211501468,-9.62151353427154,-0.2055130172825757,0.007330383,-0.0021380284,0.0036651916,288.1796,61.586533,-26.97182
2318659094000.0,0.9732575588255836,-9.61774476042706,0.0352359940451007,0.017104227,-0.0021380284,0.01160644,287.7345,62.34136,-26.072094
2318664082000.0,0.949425425379166,-9.622511281680303,0.3593528894671722,0.0143553335,-0.00030543262,0.007941248,287.29706,63.077183,-25.187067
2318669080000.0,0.9408739576936952,-9.627037956706053,0.3033896285126725,0.0106901415,0.004276057,0.009773844,286.86847,63.76863,-24.335945
2318674117000.0,0.945224849873726,-9.631388939749256,-0.0751382546531974,0.02076942,-0.007941248,0.012217305,286.44366,64.43757,-23.499744
2318679054000.0,0.9496432093947288,-9.637346606273177,-0.2778915125443431,0.014049901,-0.005192355,0.009162978,286.0371,65.04166,-22.715607
2318684033000.0,0.9544215575408358,-9.646902953301934,-0.1297633836155927,0.016493361,0.0061086523,0.012217305,285.63745,65.62061,-21.948473
2318689002000.0,0.9477513019096044,-9.654839514218455,-0.0641925615386064,0.013439035,0.005192355,0.016493361,285.22592,66.2382,-21.148838
2318694079000.0,0.9157032700564972,-9.659417897363465,-0.178649835913371,0.0125227375,0.0036651916,0.004886922,284.82388,66.83675,-20.362679
2318699112000.0,0.8897615808953157,-9.662116508009351,-0.2681506,0.014966198,0.0061086523,0.01160644,284.4213,67.392006,-19.605556
2318704052000.0,0.8856651493081652,-9.658020016538227,-0.2681506,0.009468411,0.0125227375,0.012217305,284.02625,67.93159,-18.859627
2318709000000.0,0.8815620838237077,-9.65391689107282,-0.2681506,0.01038471,0.014049901,0.011911872,283.63275,68.456665,-18.128708
2318714915000.0,0.8767348078938414,-9.666415447686289,-0.2378308281201089,0.007941248,0.018936822,0.015271631,283.2459,68.961586,-17.415224
2318719103000.0,0.8733231339911535,-9.676650683140524,-0.2139490894266757,0.006414085,0.02443461,0.014966198,282.8636,69.447105,-16.716143
2318724061000.0,0.8762991363283859,-9.665317875139149,-0.1842789055398886,0.013439035,0.015577064,0.013439035,282.48404,69.91116,-16.033438
2318729041000.0,0.8851474876085343,-9.634348557884971,-0.153309754593692,0.007330383,0.008246681,0.011911872,282.10947,70.358574,-15.365824
2318734024000.0,0.8963456893950851,-9.613213083175804,-0.1473814478260869,0.008246681,0.0143553335,0.014966198,281.7427,70.77728,-14.722408
2318739035000.0,0.911465200452636,-9.60817313915144,-0.182660340289855,0.008246681,0.008857546,0.0143553335,281.3732,71.1803,-14.090381
2318744051000.0,0.9338235599585996,-9.601408529565296,-0.1825342281198811,0.008552114,0.008552114,0.0067195175,281.01184,71.560844,-13.475568
2318749051000.0,0.9639908041310412,-9.592789593375937,-0.1437477732553325,0.005497787,-0.00061086525,0.0067195175,280.648,71.923485,-12.874935
2318759018000.0,0.974826276236091,-9.59217653284954,-0.1380913456729559,0.007941248,-0.00061086525,0.008857546,280.27838,72.27389,-12.277463
2318764051000.0,0.9687513170940172,-9.595214075854702,-0.1465067283974359,0.005497787,0.011301007,0.0061086523,279.91187,72.61002,-11.692008
2318769142000.0,0.9767650397764628,-9.591207130834976,-0.1104449512228796,0.0027488936,0.004276057,0.00580322,279.5384,72.92692,-11.111472
2318774059000.0,0.984504869756739,-9.5873371350263,-0.0756156920660749,0.00580322,0.008857546,0.010079277,279.17755,73.22786,-10.550169
2318779038000.0,0.9704483378660532,-9.605539361231532,-0.0542674436264708,0.0106901415,0.017715093,0.003970624,278.8183,73.515045,-9.998378
2318784540000.0,0.947139654941166,-9.633509848889677,-0.0356205021542953,-0.0009162979,0.014049901,0.010079277,278.45728,73.78712,-9.463057
2318789037000.0,0.9429970815968934,-9.641609943360486,-0.0130853392831975,0.010995574,0.013439035,0.0067195175,278.11194,74.03836,-8.938061
2318794172000.0,0.952312670984088,-9.636952063553704,0.0195191613177685,0.008552114,0.02443461,0.0018325958,277.76978,74.280464,-8.426635
2318799041000.0,0.9526568824132564,-9.632593362080016,0.03998183082221,-0.0033597588,0.015577064,0.007941248,277.43115,74.50515,-7.936745
2318804039000.0,0.9395107880161128,-9.62821124672709,0.0443638569496475,0.0027488936,0.0143553335,0.007330383,277.0993,74.71472,-7.455875
2318809082000.0,0.9319022629685156,-9.628381011394303,0.0486220348953523,0.0070249503,0.024740042,-0.00580322,276.7723,74.912224,-6.9853463
2318814028000.0,0.9461052358695652,-9.646134704347826,0.0521727764521739,-0.00580322,0.025350908,0.0018325958,276.4416,75.09777,-6.5302525
2318819061000.0,0.960558038661919,-9.664200684257873,0.0557859754524737,-0.003970624,0.025961773,0.0036651916,276.11975,75.26829,-6.0865846
2318824057000.0,0.9650853665871733,-9.676919357550464,0.0770100543241631,-0.0009162979,0.02687807,0.0033597588,275.79825,75.430176,-5.654387
2318829039000.0,0.9610216907844308,-9.685046878885956,0.1135831620083468,-0.008552114,0.023823744,0.007941248,275.4757,75.58327,-5.233515
2318834068000.0,0.9563475888138756,-9.6983945385304,0.1429855461469601,-0.0143553335,0.0290161,0.010079277,275.1559,75.72652,-4.8185034
2318839024000.0,0.9492662393621784,-9.733801193360687,0.1394448806639313,-0.009162978,0.024129177,0.0106901415,274.83264,75.85885,-4.4130287
2318844051000.0,0.942083442006714,-9.769715086385675,0.1358534913614323,-0.004276057,0.025350908,0.014966198,274.52542,75.98077,-4.0279765
2318849095000.0,0.9429913426245212,-9.789728954022989,0.1296110143678161,0.008246681,0.028405234,0.01863139,274.2175,76.09076,-3.651467
2318854289000.0,0.9520666991379312,-9.79426624137931,0.1205356720689655,0.015882496,0.032070424,0.020158553,273.91016,76.19263,-3.2842267
2318859029000.0,0.9561429660410096,-9.795535402523658,0.11492168,0.018020526,0.030848695,0.026267206,273.60284,76.28704,-2.9309428
2318864019000.0,0.9511178891219768,-9.790510771608831,0.11492168,0.016493361,0.026572637,0.017715093,273.29678,76.37427,-2.5822415
2318869087000.0,0.9464380054195658,-9.795826222902171,0.1099241427797803,0.018020526,0.03390302,0.02321288,272.99905,76.457245,-2.2465944
2318874118000.0,0.9423990347765948,-9.816021076117028,0.0978072224159611,0.040927973,0.040317107,0.018020526,272.7011,76.52927,-1.913143
2318879233000.0,0.9387813167394072,-9.835889517548646,0.0854284592507728,0.048563786,0.02565634,0.020158553,272.3942,76.59665,-1.5910528
2318884035000.0,0.9429627855155482,-9.844252193126025,0.0728840441898527,0.058643065,0.025045475,0.022296581,272.09348,76.65171,-1.2763792
2318888998000.0,0.9472844493089652,-9.852895249954535,0.0599190437843244,0.059864793,0.038789943,0.027794369,271.79758,76.70753,-0.9723515
2318894173000.0,0.9517850372038128,-9.863736943985474,0.0316925787745801,0.07391469,0.029932396,0.033292156,271.49512,76.752266,-0.6746486
2318899025000.0,0.9560035351520654,-9.874283161325463,0.0021631495195642,0.09254608,0.020158553,0.03176499,271.19644,76.7912,-0.3843956
2318904033000.0,0.96035766493872,-9.885168457376306,-0.0283157007914661,0.095294975,0.027488936,0.032375857,270.90137,76.830345,-0.10304027
2318909029000.0,0.964701361507036,-9.896027670449389,-0.0587215187135724,0.093767814,0.028099801,0.03268129,270.60193,76.861984,0.17316946
2318914010000.0,0.978886130512382,-9.895150115416078,-0.076614454,0.109650314,0.03145956,0.035124753,270.31412,76.88833,0.44192103
2318919149000.0,1.0081656661337102,-9.876850429538187,-0.076614454,0.129198,0.04795292,0.03359759,270.03033,76.91099,0.7044186
2318924076000.0,1.036237328326021,-9.85930566356808,-0.076614454,0.124311075,0.058337633,0.03481932,269.7279,76.93808,0.9681553
2318929158000.0,1.0533241854053104,-9.835629563390189,-0.0892173764276419,0.13439035,0.064751714,0.03481932,269.42935,76.95275,1.225366
2318934125000.0,1.0658706859152454,-9.810536475030773,-0.1059460551283629,0.1459968,0.0720821,0.040011674,269.1338,76.96629,1.4737332
2318939032000.0,1.083774641227994,-9.782176756135634,-0.1093355554973549,0.14172074,0.07727446,0.03145956,268.8405,76.97684,1.727369
2318944178000.0,1.1094179745728905,-9.747985823519208,-0.0965138798994016,0.15607607,0.07391469,0.03970624,268.54584,76.97773,1.9687933
2318949093000.0,1.1263662471205933,-9.721691343361949,-0.0892720566397199,0.17104226,0.0729984,0.04337143,268.25327,76.97848,2.2111428
2318954059000.0,1.102585070955913,-9.729618567630636,-0.1090897199983332,0.17348573,0.07727446,0.046731193,267.96118,76.9776,2.4451916
2318959003000.0,1.0789092483706977,-9.73751067330611,-0.1288195886340528,0.18325958,0.08827003,0.036957346,267.6778,76.96621,2.6789768
2318964027000.0,1.0754886762276423,-9.739613,-0.1340753,0.19425514,0.10598512,0.039095376,267.39706,76.953575,2.9022136
2318970133000.0,1.0802428177560974,-9.739613,-0.1340753,0.19761491,0.11026118,0.04184427,267.1167,76.93892,3.1226673
2318974046000.0,1.0863066985291154,-9.739613,-0.1340753,0.20280726,0.111177474,0.0421497,266.83893,76.92492,3.3334773
2318979103000.0,1.1009439776747936,-9.739613,-0.1340753,0.2012801,0.0983493,0.037873644,266.5591,76.911224,3.5402641
2318984005000.0,1.1139563839511557,-9.741644125672336,-0.1239193457546881,0.22510384,0.105068825,0.03634648,266.27936,76.88628,3.7418802
2318989029000.0,1.1244478456170954,-9.748638214348016,-0.0889477802108591,0.226631,0.09865474,0.03940081,265.993,76.86786,3.9399297
2318994081000.0,1.134997778805059,-9.75567128281727,-0.0537813094450501,0.23090707,0.09040806,0.040317107,265.70746,76.84071,4.135908
2318999274000.0,1.1452896367067236,-9.76724063203893,-0.0241831252043897,0.23762658,0.07513642,0.03726278,265.419,76.81268,4.328093
2319004082000.0,1.1544355805740392,-9.780959834343031,-0.0013182493009236,0.2510656,0.06627888,0.03268129,265.13098,76.78204,4.515773
2319009025000.0,1.1517569338751386,-9.780460186922792,0.009576807,0.26297748,0.07422013,0.027183503,264.84338,76.74143,4.700085
2319014019000.0,1.13850613801256,-9.76720911433321,0.009576807,0.2648101,0.0693332,0.028710667,264.55078,76.70117,4.8803234
2319019034000.0,1.1333040888396566,-9.753904734422598,0.025781263550263,0.28130344,0.0711658,0.03023783,264.26105,76.648674,5.0596943
2319024271000.0,1.1425635186559586,-9.740015783070248,0.0720784479221822,0.2773328,0.084910266,0.027183503,263.9748,76.60211,5.234854
2319029034000.0,1.1475808587632388,-9.729218012299285,0.1028909659241544,0.27947086,0.07849618,0.032375857,263.68204,76.55238,5.4000196
2319034034000.0,1.1394011525794328,-9.725128073795696,0.0906213955449265,0.2843578,0.0842994,0.03481932,263.3984,76.50397,5.5608625
2319040143000.0,1.1297370601443737,-9.720459,0.0762883140081528,0.2932153,0.08155051,0.036957346,263.12006,76.44963,5.718221
2319044138000.0,1.1264878613333331,-9.720459,0.07303911384,0.30207285,0.08368854,0.04153884,262.84576,76.39644,5.869502
2319049113000.0,1.1224416125010617,-9.720459,0.068992863317707,0.301462,0.079107046,0.05222898,262.5656,76.34849,6.012002
2319054103000.0,1.1280708032666396,-9.725515374438546,0.0746220569624336,0.32375857,0.089491755,0.04917465,262.29236,76.29318,6.1522827
2319059080000.0,1.142667700040833,-9.735246842180482,0.0892189608495304,0.35185838,0.08582657,0.04734206,262.0146,76.2401,6.2867274
2319064008000.0,1.1492168,-9.759954951571942,0.0980282898621595,0.3680463,0.092240654,0.04520403,261.74625,76.18845,6.415021
2319069155000.0,1.1492168,-9.79880468245906,0.1023449438556791,0.37659842,0.09712757,0.045814894,261.47787,76.13395,6.5400343
2319074064000.0,1.148067480457699,-9.820057402288494,0.0984489569856744,0.38423425,0.09132435,0.04520403,261.20276,76.07128,6.666549
2319079055000.0,1.1437609835841067,-9.798524917920531,0.0726099541594738,0.40439278,0.08582657,0.04153884,260.93097,76.00548,6.7901216
2319084155000.0,1.138695654508103,-9.77673956813513,0.0485922916612645,0.4297437,0.0842994,0.043676864,260.6588,75.94038,6.9087157
2319089045000.0,1.124443032732253,-9.758923790915317,0.059281766178498,0.43799037,0.079107046,0.042760566,260.38623,75.876175,7.0265265
2319094068000.0,1.109802762961272,-9.74062345370159,0.0702619769147074,0.44623706,0.058643065,0.044593163,260.10394,75.811424,7.1398597
2319099080000.0,1.093421938733085,-9.728058243381057,0.076614454,0.46883908,0.042455133,0.053450707,259.8228,75.74475,7.2485037
2319104112000.0,1.0745200138066289,-9.723332663463424,0.076614454,0.49021935,0.02107485,0.063224554,259.53622,75.67956,7.354946
2319109585000.0,1.059420480124805,-9.716853804836193,0.0712067700463338,0.4999932,-0.005192355,0.07086037,259.25107,75.61704,7.45106
2319114094000.0,1.0526838512324492,-9.71011703525741,0.0611018189700468,0.5216789,-0.018325957,0.081855945,258.9647,75.55123,7.541493
2319119085000.0,1.0452270947893916,-9.702660123088924,0.0499166757405616,0.5314528,-0.029321533,0.08307768,258.6641,75.485985,7.631215
2319124132000.0,1.0550498832816464,-9.67894954468565,0.0404321051435015,0.5491679,-0.022602014,0.08857546,258.3661,75.41896,7.7139792
2319129064000.0,1.0683661442345644,-9.652317393572034,0.0315545922796729,0.5684101,-0.026572637,0.09865474,258.0638,75.353226,7.794085
2319134046000.0,1.0786642728486646,-9.61959731871291,0.0378232356027448,0.57543504,-0.019242255,0.109650314,257.76434,75.29259,7.865288
2319139029000.0,1.0875146427299702,-9.58419556194362,0.0510987996661721,0.5873469,-0.029626964,0.10445796,257.4615,75.22828,7.937491
2319144109000.0,1.1020466877956292,-9.531212646442471,0.0471701452198383,0.6010914,-0.021685716,0.11759156,257.15714,75.164024,8.004598
2319149088000.0,1.1210798729867275,-9.464596597644944,0.028136947110468,0.6059783,-0.027183503,0.116980694,256.8499,75.09939,8.076291
2319154049000.0,1.1378505014014326,-9.420176164330943,0.0243451517912384,0.6243043,-0.024740042,0.12003502,256.54153,75.02673,8.141562
2319159037000.0,1.1527271997508566,-9.395381667081905,0.0342629574222983,0.623388,-0.01985312,0.11636983,256.23566,74.959724,8.207052
2319164019000.0,1.169610642183908,-9.352819845210728,0.0545327583674329,0.6258314,-0.0009162979,0.11728613,255.93768,74.889984,8.2734
2319169128000.0,1.1883570019252874,-9.296580717049808,0.0826522426809387,0.6230826,-0.004581489,0.116675265,255.63788,74.82422,8.340249
2319174069000.0,1.1971009,-9.24073229377848,0.095768064,0.6249151,0.0030543262,0.12064589,255.34776,74.75752,8.40004
2319179062000.0,1.1971009,-9.18292298409746,0.095768064,0.6261369,0.004276057,0.12583824,255.05756,74.69487,8.45841
2319184199000.0,1.1971009,-9.14384094807025,0.1098311455654813,0.6386596,0.0015271631,0.1151481,254.77185,74.620476,8.522128
2319189035000.0,1.1971009,-9.138819875650476,0.144977947865568,0.6536258,0.0070249503,0.106595986,254.4912,74.54953,8.58138
2319194084000.0,1.1837642558740131,-9.145799160165527,0.1723318861338033,0.65118235,-0.01160644,0.10629055,254.21005,74.481186,8.640548
2319199060000.0,1.1582006421718138,-9.164058857000535,0.1905915944087669,0.66798115,-0.016798794,0.09132435,253.9385,74.40418,8.703227
2319205121000.0,1.1262294790442615,-9.187443057971016,0.2150711482373678,0.6765333,-0.017104227,0.07849618,253.66373,74.32645,8.764223
2319209144000.0,1.0998201307481394,-9.210079721014491,0.245253280273208,0.6808093,-0.019242255,0.07452556,253.3902,74.24809,8.825531
2319214001000.0,1.0679359138268705,-9.237409144927536,0.281692409106933,0.6914995,-0.015577064,0.0720821,253.11865,74.16885,8.874792
2319219138000.0,1.0341222958483756,-9.26329552527076,0.3198203973646209,0.69913524,-0.004276057,0.0729984,252.85153,74.092445,8.9223
2319224050000.0,1.0017748294567643,-9.287556177840813,0.3562112748891181,0.6936375,0.007941248,0.07666359,252.58853,74.01987,8.967874
2319229060000.0,0.9758249011510272,-9.32025153587282,0.3840816505584804,0.6740898,0.023823744,0.07513642,252.32645,73.94685,9.007198
2319234074000.0,0.9559970337514194,-9.359907529472489,0.4039095024300609,0.66798115,0.048563786,0.067500606,252.07329,73.874695,9.044464
2319239028000.0,0.9343040796940764,-9.386733760911923,0.4228425129598597,0.66737026,0.058337633,0.07269296,251.82057,73.80721,9.072364
2319244184000.0,0.9102501190120812,-9.405976833008577,0.4420857106410756,0.65026605,0.08093964,0.06658431,251.58241,73.74494,9.101827
2319249065000.0,0.8847561618663776,-9.406269266653528,0.45010993,0.6637051,0.09560041,0.06780604,251.34097,73.67945,9.121104
2319254075000.0,0.8563881180547892,-9.392085457035869,0.45010993,0.66675943,0.12522738,0.07269296,251.11295,73.62275,9.137506
2319259102000.0,0.842759,-9.38032157993885,0.4426857533948121,0.65148777,0.14172074,0.07544186,250.88501,73.56929,9.145787
2319264086000.0,0.842759,-9.370906347272909,0.4285628159137982,0.6575964,0.15668693,0.071776666,250.6676,73.51225,9.151947
2319269079000.0,0.8269264744552058,-9.343951772464353,0.4213795,0.6627888,0.18387043,0.07971791,250.45302,73.46371,9.144744
2319274105000.0,0.7945528888619855,-9.298628360505784,0.4213795,0.6588182,0.19425514,0.0842994,250.2408,73.41701,9.139211
2319279101000.0,0.7623725399515738,-9.253575482243743,0.4213795,0.6545421,0.2180789,0.08277224,250.0367,73.37167,9.130008
2319284046000.0,0.7495050558110883,-9.224498637577002,0.4113228662546201,0.64751714,0.23854288,0.087964594,249.83612,73.33179,9.116928
2319289097000.0,0.7544714230390144,-9.20959974332649,0.3914573765995893,0.6423248,0.25259277,0.09407325,249.64273,73.29431,9.1026125
2319294967000.0,0.767020736486276,-9.171952039711892,0.3586818864045162,0.63071835,0.27091873,0.09712757,249.45477,73.261696,9.0783
2319299072000.0,0.7785000609314775,-9.13751423019272,0.3318968453104925,0.6291912,0.29901853,0.098043874,249.2752,73.23021,9.051359
2319304109000.0,0.8002515275973637,-9.129581124825243,0.3185268501697623,0.6273586,0.3304781,0.106901415,249.10121,73.20721,9.015553
2319309075000.0,0.8287466825584182,-9.153327074895149,0.3232760501018574,0.6221663,0.3475823,0.11148291,248.9331,73.18619,8.980074
2319314087000.0,0.8516339214820157,-9.187191303705038,0.3411425618606328,0.6133087,0.36346483,0.110872045,248.77719,73.17239,8.936757
2319319074000.0,0.8688554130893357,-9.23024503272334,0.3712801901559542,0.61453044,0.3848451,0.10720685,248.62897,73.15856,8.89211
2319324085000.0,0.889799301880474,-9.262227546110251,0.3897380455332302,0.59742624,0.41783184,0.108123146,248.4874,73.150024,8.846869
2319329109000.0,0.919545134997424,-9.26718528418341,0.3798227661020092,0.57635134,0.45540005,0.10720685,248.35495,73.14215,8.801978
2319334000000.0,0.9458700263605752,-9.273286095467784,0.3867128143820531,0.57848936,0.4908302,0.099571034,248.22913,73.12635,8.75617
2319339088000.0,0.9680427644748816,-9.282154903622134,0.4266237337267928,0.5742133,0.52839845,0.098043874,248.11536,73.11856,8.7069025
2319344077000.0,0.992424283207593,-9.288900669749331,0.4723144122243854,0.56596667,0.5448918,0.08246681,248.01144,73.10943,8.664665
2319349222000.0,1.032395636699927,-9.284903455098563,0.556254237863227,0.5842926,0.5546656,0.07238753,247.91692,73.09585,8.619981
2319354011000.0,1.06960123667559,-9.281182821286608,0.6343859822722479,0.6038403,0.5412266,0.044898596,247.82495,73.07044,8.585548
2319359040000.0,1.151268247676615,-9.25525035851908,0.7891079129958444,0.6047566,0.52778757,0.042455133,247.73557,73.047935,8.547017
2319365141000.0,1.274878886936154,-9.211103734567436,1.0186704958367965,0.61636305,0.48533243,0.0143553335,247.6391,73.01103,8.526845
2319369194000.0,1.353829156992738,-9.179311747714651,1.1585244186928665,0.6249151,0.46089783,-0.0015271631,247.551,72.95588,8.509728
2319374090000.0,1.4059046944895344,-9.107207324647588,1.1545186081161898,0.6236934,0.4184427,-0.02076942,247.44937,72.89715,8.505853
2319379098000.0,1.4591715024519436,-9.03345345399402,1.1504211613498505,0.6230826,0.38789943,-0.03573562,247.36356,72.779785,8.52897
2319384094000.0,1.4810744785859706,-8.958681501573201,1.1117390958726634,0.62858033,0.37568212,-0.055283304,247.27422,72.660515,8.55964
2319389102000.0,1.4899511423653526,-8.88322967406996,1.058479066851749,0.6282749,0.37598756,-0.063224554,247.18164,72.545105,8.5916195
2319394083000.0,1.530750297325499,-8.841090151858982,1.0106582127798602,0.6560693,0.40408736,-0.0711658,247.10178,72.412964,8.637686
2319399062000.0,1.598378796839226,-8.82659854310607,0.967182756012562,0.6914995,0.42638394,-0.076052725,247.02219,72.281166,8.684217
2319404127000.0,1.6692538438386857,-8.81766415309933,1.0021745460418223,0.72173727,0.44073927,-0.08857546,246.95383,72.15059,8.729841
2319409036000.0,1.739474265888723,-8.81327529079537,1.094338798426998,0.75991637,0.42852196,-0.09621128,246.88547,72.01202,8.774767
2319414035000.0,1.787409745831622,-8.818826818480494,1.2349479055852155,0.8173377,0.38362336,-0.09040806,246.81537,71.86649,8.825014
2319419128000.0,1.8024327363039012,-8.838857367864478,1.4452699290657085,0.8533788,0.31520647,-0.086132,246.73706,71.71841,8.879545
2319424121000.0,1.8255108283901136,-8.840115144288578,1.6554761171008685,0.88361657,0.22021692,-0.08674286,246.6495,71.53787,8.947704
2319429060000.0,1.857107231329325,-8.822060151159462,1.867623535375513,0.8784242,0.098043874,-0.09407325,246.5368,71.3606,9.022905
2319434703000.0,1.844263997517472,-8.815706732450193,2.0746997456138523,0.88056225,-0.04520403,-0.096516706,246.40292,71.14343,9.106071
2319439026000.0,1.7881247448315427,-8.824343713987691,2.1999334527380827,0.8723156,-0.19730948,-0.09896017,246.23547,70.93396,9.200212
2319444082000.0,1.7304948229577464,-8.83900798243579,2.327078347058824,0.8881981,-0.32620203,-0.10598512,246.05382,70.679985,9.3075075
2319449110000.0,1.6826218894366196,-8.85895502071251,2.4308030294117646,0.8894198,-0.46181414,-0.11209377,245.83156,70.43741,9.42613
2319454143000.0,1.630948947140082,-8.878973317073172,2.528913658536585,0.91751957,-0.5299256,-0.11484267,245.60321,70.17153,9.534648
2319459042000.0,1.524619128761062,-8.899226500000001,2.53904025,0.9578367,-0.6462954,-0.11759156,245.32889,69.908066,9.658022
2319464065000.0,1.424660075635496,-8.929562359823805,2.5355695844819675,0.97524637,-0.711658,-0.13683382,245.06189,69.632126,9.773561
2319469127000.0,1.362377918858401,-9.00074206047536,2.473287474158025,1.006095,-0.7189884,-0.1704314,244.78574,69.34773,9.896324
2319474062000.0,1.3013244171806937,-9.068915604112217,2.4129282069698554,1.0106765,-0.66675943,-0.1957823,244.50594,69.0764,10.003905
2319479046000.0,1.2139967301272,-9.043964774350933,2.379660549747342,0.9950995,-0.56291234,-0.20891592,244.24612,68.80703,10.110596
2319484010000.0,1.1270194752047396,-9.019114068304583,2.3465263903467504,0.9944886,-0.43768495,-0.19975294,243.99844,68.55931,10.194162
2319489037000.0,1.0505709336354083,-8.990872949566588,2.330768927685842,0.9877691,-0.31673363,-0.18906279,243.78398,68.322044,10.269478
2319494098000.0,0.9784266467297084,-8.9611663286052,2.322281239401103,0.9966267,-0.16157386,-0.17592919,243.6163,68.0888,10.324923
2319499199000.0,0.913812015397982,-8.917962486173392,2.360838419693573,1.0085385,0.00030543262,-0.17654006,243.4797,67.87189,10.349166
2319504460000.0,0.8573281765442825,-8.856771905269058,2.4596851585762334,1.028697,0.18387043,-0.16584991,243.39186,67.65899,10.34933
2319509013000.0,0.82360536,-8.796018015277632,2.6041860702033506,1.0708468,0.3640757,-0.16584991,243.3497,67.44567,10.321179
2319514020000.0,0.82360536,-8.710129580075861,2.907322226583079,1.0873401,0.47861293,-0.16615535,243.33974,67.23911,10.27947
2319519402000.0,0.8404581358605913,-8.632154326310527,3.1575598822596773,1.1169671,0.5381723,-0.183565,243.36942,67.00048,10.225491
2319524140000.0,0.8750245653097176,-8.580304661834024,3.289344341803552,1.1404854,0.54550266,-0.20219639,243.41599,66.762856,10.167307
2319529047000.0,0.9108239467590344,-8.526605568633052,3.4258294289672904,1.1533136,0.4841107,-0.20586158,243.49234,66.472824,10.113739
2319538382000.0,0.9729978808836024,-8.43576322982158,3.684999834069669,1.1808025,0.34300083,-0.21166481,243.55038,66.17501,10.074718
2319539243000.0,0.9614886235344096,-8.460282919286321,3.7075179362786743,1.2137892,0.32284227,-0.20311269,243.62277,65.87863,10.027787
2319544114000.0,0.8963764370676053,-8.599000001031678,3.834911288032529,1.2055426,0.28191432,-0.18967366,243.67944,65.526855,10.013271
2319549163000.0,0.8288848687097948,-8.742786193955578,3.9669599501153057,1.1258247,0.28069258,-0.18142697,243.74084,65.19199,9.996146
2319554674000.0,0.7481428463600731,-8.898453728159568,4.1046588166361815,1.026559,0.18020524,-0.1853976,243.7645,64.87106,9.994642
2319559087000.0,0.3800351323700026,-8.968394454577128,3.939010379165578,0.95386606,0.079107046,-0.18692477,243.78653,64.57132,9.99127
2319564067000.0,-0.0353685421531225,-9.04732144699939,3.752078763801063,0.9147707,-0.116980694,-0.1337795,243.75935,64.29216,9.97018
2319569095000.0,-0.2649475020543987,-8.98596266842682,3.6049545125435887,0.88606006,-0.19822577,-0.060170226,243.73358,64.03679,9.943416
2319574444000.0,-0.3772299987426522,-8.822642568596194,3.4773607445053303,0.890947,-0.13561209,0.025045475,243.68668,63.79534,9.906081
2319579115000.0,-0.41180268,-8.679596889158498,3.4380736,0.92149025,-0.019242255,0.10629055,243.58789,63.636528,9.774108
2319584083000.0,-0.41180268,-8.527208564204601,3.4380736,0.95111716,0.10354166,0.1777618,243.49834,63.487003,9.617075
2319589091000.0,-0.4330346124143033,-8.415980176325524,3.5208781732182493,0.96883225,0.22266038,0.22876903,243.42072,63.351063,9.4222145
2319594165000.0,-0.4729793009831484,-8.340084981915332,3.676662527875052,0.98746365,0.29993483,0.25778514,243.35773,63.213028,9.209003
2319599050000.0,-0.4968667756571959,-8.25889972005733,3.82108382871596,1.0283916,0.310625,0.24495697,243.30547,63.04835,8.996516
2319604058000.0,-0.3876906994275356,-8.101200962515808,3.918129166006239,1.0842859,0.3145956,0.22296582,243.26804,62.877434,8.775097
2319609003000.0,-0.2798880442846303,-7.945486035190962,4.013953685355366,1.1517864,0.3268129,0.204029,243.25351,62.654964,8.550697
2319614027000.0,-0.0584690453357314,-7.718621506922462,4.234701640303757,1.2250903,0.32498032,0.19425514,243.23634,62.416313,8.335337
2319620195000.0,0.2673352904916066,-7.406982592006395,4.565227848840927,1.280679,0.31245756,0.18692477,243.22017,62.164883,8.128436
2319624034000.0,0.4328411644428364,-7.254451998986975,4.739521537916064,1.310306,0.26908615,0.19639318,243.20932,61.859375,7.952195
2319629078000.0,0.5289626459008683,-7.188914717547034,4.8662270825253255,1.3231341,0.20219639,0.20250183,243.18915,61.546432,7.787141
2319634315000.0,0.6266050749984644,-7.1251445,4.991451658161855,1.3368785,0.13652839,0.22174409,243.1922,61.127346,7.6859074
2319639033000.0,0.685582154338145,-7.1251445,5.019205517759521,1.3393221,0.10903945,0.22540927,243.18802,60.71384,7.5932918
2319644320000.0,0.7516719844502457,-7.1251445,5.050306546944103,1.348485,0.12461651,0.20586158,243.18533,60.26351,7.526622
2319649138000.0,0.7939280345267838,-7.092782386936269,5.089862868812196,1.3347405,0.14660765,0.18081611,243.17702,59.826633,7.4650803
2319654119000.0,0.814127919492907,-7.01703253488249,5.145412883358035,1.3072516,0.18875736,0.18875736,243.17532,59.399944,7.396947
2319659091000.0,0.7816171899675979,-6.981492,5.193575017427095,1.2886202,0.22999077,0.20005837,243.17473,58.966206,7.346045
2319664111000.0,0.7016245472493213,-6.981492,5.235676371310973,1.2519683,0.2724459,0.20647246,243.18408,58.55341,7.2896867
2319669069000.0,0.6265765440432262,-6.974459600158145,5.257197699525567,1.2351695,0.30115658,0.22113322,243.19868,58.12867,7.227783
2319674369000.0,0.5596853241345985,-6.943243754963978,5.212603568441399,1.2125676,0.35094208,0.23396139,243.22754,57.723873,7.1571555
2319679449000.0,0.4953827119786982,-6.913874225254437,5.167994343952663,1.2113458,0.4034765,0.2593123,243.25406,57.317223,7.057265
2319684094000.0,0.4322097921404339,-6.899835807581854,5.083763654682446,1.2235631,0.45540005,0.29871312,243.28711,56.922157,6.945824
2319690001000.0,0.3518734223913214,-6.88198329236292,4.976648330351085,1.2403619,0.48472157,0.36957347,243.30669,56.537617,6.8030314
2319694085000.0,0.3099125914968783,-6.865158115227653,4.927503331757271,1.241889,0.51923543,0.43982297,243.33215,56.16295,6.6454816
2319699291000.0,0.27195244040201,-6.838586031658291,4.893339184673367,1.2455542,0.57360244,0.48747048,243.35985,55.792393,6.4723897
2319704012000.0,0.2375287228993452,-6.814489449535556,4.862357828856403,1.2229522,0.6291912,0.5305365,243.36392,55.452194,6.267751
2319709096000.0,0.1824568021609369,-6.732562080430676,4.880956860502455,1.2272283,0.65209866,0.550695,243.3671,55.110542,6.0586343
2319714080000.0,0.1238526819947109,-6.637893758859085,4.912512952002267,1.217149,0.6310238,0.5702427,243.36404,54.78699,5.84287
2319719085000.0,0.0895401526079846,-6.589030842972583,4.9224787,1.2223413,0.5684101,0.5852089,243.3416,54.462246,5.6200604
2319724112000.0,0.0663835322058682,-6.561242921702742,4.9224787,1.2241739,0.4746423,0.5870415,243.30399,54.14687,5.409964
2319729052000.0,0.0518306227095732,-6.575871778191073,4.911218273061864,1.2525792,0.38453966,0.6026186,243.24954,53.809406,5.193452
2319734089000.0,0.0423869315700861,-6.61836855669538,4.8923309036021925,1.2803736,0.30024028,0.589485,243.17789,53.476032,5.0031376
2319739089000.0,0.0422245070631518,-6.650437791367324,4.89592333221321,1.3182472,0.2648101,0.5757405,243.0874,53.130203,4.813614
2319744129000.0,0.0492156867792584,-6.674906940266512,4.916896857126304,1.3445144,0.24220806,0.57635134,242.97992,52.786133,4.640552
2319749243000.0,0.0563095147689745,-6.699735358415412,4.938178326651217,1.3588698,0.18478674,0.5870415,242.84688,52.44436,4.478927
2319754091000.0,0.0235282039148148,-6.83610211728395,5.073969665308642,1.3628404,0.16126843,0.59559363,242.7172,52.104755,4.3202357
2319759086000.0,-0.0186553494066137,-7.000617772045855,5.23848562840388,1.3552046,0.089491755,0.59773165,242.5635,51.771446,4.1832547
2319764134000.0,-0.068113133148799,-7.147710331392326,5.38015896630966,1.3625349,0.03481932,0.58184916,242.40576,51.433628,4.050138
2319769108000.0,-0.1225984610371217,-7.276493847873557,5.4990358595196005,1.3662001,0.0061086523,0.5552765,242.24065,51.105854,3.93086
2319774087000.0,-0.1938130641241685,-7.37346734599879,5.615786549808506,1.3921618,0.0125227375,0.5360342,242.06656,50.76445,3.803553
2319779101000.0,-0.2760855777383592,-7.450900343983068,5.731936097319089,1.4404203,0.042455133,0.50732356,241.8996,50.422153,3.6887388
2319784085000.0,-0.3338064055418831,-7.49316028420381,5.8595951335065175,1.4636332,0.06291912,0.4990769,241.725,50.079113,3.561181
2319789086000.0,-0.3774611378415823,-7.514987636678517,5.994924673265883,1.4828753,0.09560041,0.48808134,241.5672,49.73058,3.4367182
2319794113000.0,-0.437529139989754,-7.536579539812647,6.111603369964871,1.4654657,0.13225232,0.49205196,241.41187,49.381737,3.2890053
2319799048000.0,-0.5170823765420082,-7.557332543911007,6.201533198858313,1.4428637,0.1160644,0.4709771,241.26022,49.03621,3.1572938
2319803980000.0,-0.5965872524641394,-7.578072932201405,6.291408359162763,1.4315627,0.037873644,0.43585235,241.10301,48.675293,3.0247724
2319808977000.0,-0.6259803277223893,-7.556927618220885,6.359059374946282,1.4300356,-0.048258353,0.40103304,240.94595,48.32585,2.905857
2319813937000.0,-0.6310835645079502,-7.516101723936399,6.415194979587452,1.4352279,-0.14538592,0.3735441,240.77676,47.98529,2.8136454
2319818967000.0,-0.5826918216742963,-7.413259914171618,6.36146692929775,1.4446963,-0.21044308,0.3652974,240.60117,47.63247,2.71247
2319823957000.0,-0.5221826695266387,-7.296896244160904,6.282339682292783,1.4459181,-0.22052236,0.35002577,240.42545,47.288273,2.6298652
2319828958000.0,-0.4490421800804991,-7.181003529563292,6.314444263191789,1.4553864,-0.2275473,0.3463606,240.23631,46.92704,2.5533602
2319833964000.0,-0.3718572562245925,-7.065226103481586,6.381981036305091,1.46852,-0.2284636,0.34238997,240.05212,46.572845,2.4837341
2319838920000.0,-0.3274521836677692,-6.9952572750826905,6.417474206357956,1.4483615,-0.22021692,0.34422258,239.8652,46.22296,2.4237938
2319843989000.0,-0.2917705686604189,-6.937274649531422,6.44423535008269,1.4352279,-0.18936823,0.3475823,239.68634,45.875957,2.3623934
2319848960000.0,-0.2212376249180054,-6.863911085854371,6.493418538806592,1.4401149,-0.16340645,0.36102137,239.50629,45.504234,2.3093946
2319853977000.0,-0.1260060383634466,-6.778703992854162,6.558576891727519,1.4321736,-0.13927728,0.40011674,239.32953,45.1493,2.2469053
2319858969000.0,-0.073967360598163,-6.745420199167623,6.625981924942594,1.4150693,-0.089186326,0.42730024,239.16412,44.78615,2.1794925
2319863976000.0,-0.0418531735040183,-6.736244675258324,6.694798234500573,1.4104879,-0.033292156,0.44623706,239.0014,44.430992,2.1022112
2319869075000.0,-0.0371896708689362,-6.718396558366284,6.77649371820812,1.391551,0.011301007,0.46395215,238.8468,44.068073,2.0259094
2319874017000.0,-0.0508829619905487,-6.69557442238403,6.863217834940689,1.3753631,0.02565634,0.46761733,238.69875,43.714516,1.946225
2319878974000.0,-0.0520984096532625,-6.6336681342943855,6.939733445599393,1.3738359,0.022907447,0.47678033,238.54956,43.351833,1.8592205
2319883994000.0,-0.0416766518752438,-6.53466128495556,7.007474770767397,1.3710871,-0.0018325958,0.4578435,238.40625,43.002476,1.7817441
2319888964000.0,-0.0413910798319222,-6.431723121897249,7.047879171733692,1.3720033,-0.028099801,0.4382958,238.26309,42.638935,1.6979672
2319894037000.0,-0.0460652314352511,-6.324217691148739,7.075924164325572,1.3741413,-0.06414085,0.4098906,238.12155,42.284397,1.6298912
2319898975000.0,-0.0721764199804878,-6.168211081463414,7.081978424390244,1.3695599,-0.099571034,0.39064834,237.97913,41.911854,1.5694901
2319904059000.0,-0.1138439302682071,-5.972373791638853,7.073644754214805,1.3921618,-0.14660765,0.3979787,237.83072,41.540012,1.5221021
2319908982000.0,-0.1560706079127326,-5.793890922926025,7.048490808616738,1.4104879,-0.16126843,0.3830125,237.6874,41.14957,1.4798875
2319914007000.0,-0.2045954930305252,-5.643904921917683,6.973497992364103,1.4248432,-0.14905111,0.37843102,237.53967,40.763435,1.4406589
2319919093000.0,-0.2520243271951417,-5.485094083886639,6.907905050477733,1.427592,-0.12339478,0.38026363,237.39653,40.346416,1.395964
2319924067000.0,-0.2828810376226721,-5.265240061862348,6.938761692437248,1.4257594,-0.111177474,0.36957347,237.25984,39.93616,1.3569131
2319929070000.0,-0.3139176524736842,-5.044104221052631,6.969798238421053,1.427592,-0.13469578,0.36560285,237.11542,39.51159,1.3092254
2319934036000.0,-0.3099433508708581,-4.885579202283347,6.994026395390824,1.4391985,-0.14446963,0.3659083,236.97995,39.09422,1.2595838
2319939006000.0,-0.2846689584749363,-4.764262167342821,7.014245786852166,1.450805,-0.16187929,0.37904188,236.83974,38.6858,1.217554
2319944911000.0,-0.2575216613997583,-4.6986134186541495,7.04808717919881,1.4737124,-0.15607607,0.36560285,236.725,38.23009,1.1696725
2319949140000.0,-0.2387000603996654,-4.668498764290361,7.074437555813738,1.4749341,-0.12095132,0.35979962,236.61014,37.787052,1.1177143
2319954100000.0,-0.2384738159219176,-4.654328,7.098344360675635,1.4776831,-0.10354166,0.34422258,236.49998,37.318233,1.0739913
2319959033000.0,-0.2528085092090624,-4.654328,7.117457428087388,1.4789047,-0.11362094,0.33078352,236.39444,36.859432,1.0317361
2319964049000.0,-0.2707874857903592,-4.656770791621098,7.108045188214016,1.4737124,-0.12522738,0.31490102,236.29294,36.39359,0.9914693
2319969099000.0,-0.2911302512063599,-4.66083942542273,7.079565133953058,1.4761559,-0.1469131,0.31337386,236.19022,35.935265,0.9580948
2319974050000.0,-0.3179656523120478,-4.6696589125511165,7.079971315759672,1.4697418,-0.14508049,0.29993483,236.091,35.481014,0.9224192
2319979063000.0,-0.3683048873733878,-4.694828514312676,7.175616012708399,1.4731015,-0.10842858,0.2919936,235.99564,35.033295,0.8850824
2319984000000.0,-0.4096066484152542,-4.719169775021186,7.245337974293785,1.502423,-0.098043874,0.2724459,235.88947,34.58405,0.85163116
2319989091000.0,-0.4337089524576271,-4.7432721006355925,7.262553895480226,1.5372424,-0.098043874,0.26267207,235.78989,34.142178,0.8140221
2319995355000.0,-0.4633645864237288,-4.772927761144068,7.283736478531074,1.5641204,-0.10751228,0.25961772,235.68884,33.69175,0.770349
2319999305000.0,-0.4640289023165554,-4.797147871457449,7.274863448958965,1.5909985,-0.11789699,0.29932398,235.58209,33.241676,0.72409785
2320004111000.0,-0.4547250663007883,-4.829711314513847,7.251603846775824,1.6099354,-0.16890424,0.2968805,235.4807,32.796146,0.69933313
2320009090000.0,-0.4316121118338295,-4.8597376268049866,7.235441573827688,1.6490307,-0.16737708,0.26633725,235.37198,32.34107,0.65579695
2320015154000.0,-0.3883863818301079,-4.892156838267584,7.224635207620022,1.6722436,-0.18295415,0.26725355,235.2488,31.895761,0.626381
2320019023000.0,-0.371864820627511,-4.9065862957719535,7.22743504046298,1.6801848,-0.2180789,0.2510656,235.1256,31.453093,0.60777795
2320024093000.0,-0.3672202466845227,-4.915875492156112,7.246013287736751,1.6960673,-0.23487769,0.23182335,235.00684,31.012129,0.5908347
2320029083000.0,-0.3362608290432367,-4.90864978211495,7.258067215245702,1.7229455,-0.24098633,0.2312125,234.87201,30.573048,0.5857689
2320034141000.0,-0.2353277056815419,-4.858183211651329,7.253861759194304,1.740966,-0.24678956,0.23151793,234.74341,30.142555,0.5888332
2320039442000.0,-0.1334924234837787,-4.802116816882653,7.254306004826168,1.7632625,-0.21471913,0.22266038,234.61127,29.703484,0.58537877
2320044107000.0,-0.1215139259147377,-4.690317458986504,7.350133835284654,1.7620409,-0.19822577,0.23762658,234.47456,29.277014,0.5849868
2320049099000.0,-0.1086957780337831,-4.570681361533649,7.452678857717401,1.7571539,-0.18661933,0.22143865,234.3508,28.834738,0.5978787
2320054037000.0,-0.0756102069627382,-4.459122837142124,7.586530803435604,1.7681495,-0.17959438,0.20861048,234.22821,28.399042,0.6063016
2320059010000.0,-0.0349081620922997,-4.349227527262627,7.733058138278779,1.7681495,-0.1695151,0.21838433,234.10976,27.978321,0.6112272
2320064031000.0,-0.0249844958877519,-4.284684879335909,7.868548095019317,1.7660115,-0.15882497,0.24709499,233.99457,27.521416,0.61411494
2320069099000.0,-0.0655276772393233,-4.294820561825206,7.985109713689046,1.7705929,-0.13805555,0.26847526,233.88507,27.07368,0.612893
2320074056000.0,-0.0797409084698316,-4.2419331868356345,8.070318865708341,1.7718146,-0.11728613,0.24281894,233.7843,26.588211,0.6176728
2320079045000.0,-0.0661853887630035,-4.119933405674296,8.124540859608475,1.758681,-0.108123146,0.23335053,233.67886,26.117687,0.6167677
2320084898000.0,-0.1182891301139333,-4.014965336552733,8.159439,1.7534887,-0.09987647,0.24312437,233.57231,25.638393,0.6030801
2320089034000.0,-0.213514644084875,-3.973562969248458,8.159439,1.7327193,-0.06414085,0.26725355,233.4722,25.179264,0.5812069
2320094089000.0,-0.3107447977839518,-3.878174051385857,8.209682981874712,1.7095064,-0.051923547,0.2678644,233.3779,24.69575,0.5645182
2320099097000.0,-0.383715286796322,-3.72906041243633,8.32072528603559,1.6948457,-0.03268129,0.29565877,233.27823,24.22792,0.5327624
2320104053000.0,-0.4559280950122378,-3.5814950780445853,8.43061459502547,1.6939293,0.027488936,0.30024028,233.1799,23.755325,0.47209862
2320109026000.0,-0.5059585591398386,-3.4557113646965014,8.538433272301406,1.6624697,0.06658431,0.3268129,233.07074,23.307606,0.40889096
2320114021000.0,-0.5250300944483206,-3.360353713046945,8.643326529801655,1.6685784,0.07086037,0.33353242,232.97067,22.860838,0.34396186
2320119060000.0,-0.550314232223936,-3.278774764530604,8.74175132847227,1.6722436,0.09254608,0.33261612,232.87814,22.372065,0.24568434
2320124253000.0,-0.5851823090513918,-3.2160122823108743,8.83240819059805,1.672549,0.11575896,0.3475823,232.78133,21.894464,0.14714889
2320129022000.0,-0.6172034641428872,-3.158374254637874,8.915663067447241,1.6679676,0.13164146,0.35460728,232.68527,21.395277,0.045408808
2320134108000.0,-0.648571991864,-3.10961218688,8.9900701128,1.6643023,0.13591751,0.40744713,232.57497,20.90788,-0.061724436
2320139081000.0,-0.677147282515,-3.0715117463,9.0519834655,1.6798794,0.12370021,0.39553526,232.48083,20.428116,-0.15864414
2320144078000.0,-0.6732777321118631,-3.038748951910828,9.062560595342356,1.6869044,0.12675454,0.39736784,232.3638,19.927055,-0.27424765
2320149079000.0,-0.6446788257752787,-3.0101500804140127,9.033961624303345,1.6792686,0.1301143,0.40530908,232.24805,19.438213,-0.38175148
2320154027000.0,-0.6136863229631111,-2.984409857992602,9.02660409227232,1.6597209,0.11881329,0.4111123,232.12328,18.93885,-0.49215952
2320159098000.0,-0.5797017361661502,-2.9601351640008,9.03631366570029,1.6588045,0.12308934,0.4120286,232.00069,18.449001,-0.60348016
2320164053000.0,-0.5287233681809281,-2.9003809980419035,9.048285492069708,1.6490307,0.14477506,0.4098906,231.86636,17.964361,-0.71096766
2320169070000.0,-0.4628671140101821,-2.8110045724006265,9.062397830722537,1.6505579,0.17440203,0.4196644,231.7312,17.489025,-0.818786
2320174133000.0,-0.4170660602057311,-2.7538067940484936,9.09933140191036,1.6423112,0.19394971,0.4370741,231.58443,17.012115,-0.9258463
2320179056000.0,-0.391085189952241,-2.7278259870958856,9.155623067413666,1.6331482,0.18997909,0.42730024,231.44505,16.547684,-1.028672
2320184088000.0,-0.3648982973686991,-2.69648086348938,9.202331159040472,1.6279559,0.1872302,0.42394048,231.29008,16.063444,-1.1279377
2320189093000.0,-0.3395723415301701,-2.6559594039628025,9.22765710430096,1.6316211,0.18906279,0.42760566,231.13852,15.592121,-1.2229134
2320194091000.0,-0.3272493939530975,-2.6041387775341835,9.254721819761668,1.6358972,0.19883664,0.4343252,230.97859,15.113512,-1.3141874
2320199188000.0,-0.3309781350423955,-2.537021321121381,9.28455217676266,1.6175711,0.20372356,0.42485678,230.82446,14.652911,-1.3998351
2320204022000.0,-0.3345144768955771,-2.473367056985716,9.31284331777557,1.6337591,0.19456059,0.4260785,230.66336,14.17067,-1.487306
2320209091000.0,-0.3477262496959495,-2.402728585176223,9.3307715446081,1.6548339,0.20830505,0.410196,230.51393,13.704539,-1.576794
2320213995000.0,-0.36254939327091,-2.333553911720147,9.34559472945818,1.6487253,0.19975294,0.39492437,230.36423,13.253411,-1.654128
2320219066000.0,-0.4027285972540885,-2.2954104330594336,9.30109751559633,1.6676621,0.17989981,0.36926803,230.22134,12.771507,-1.7341723
2320224379000.0,-0.4473793544284005,-2.2588780161787,9.2483282146789,1.6798794,0.17256944,0.36102137,230.08037,12.305242,-1.811862
2320229108000.0,-0.4903589040572198,-2.196672486431015,9.188712369648597,1.6878207,0.17501289,0.35430184,229.94057,11.821802,-1.8894912
2320234094000.0,-0.5398561204851249,-2.0927283153933867,9.109516786151136,1.6887369,0.16737708,0.3567453,229.80179,11.348992,-1.958857
2320239081000.0,-0.5740077974791586,-2.003955021330784,9.044102705544931,1.679574,0.16310102,0.35705075,229.66344,10.87087,-2.0431938
2320244079000.0,-0.5923117693277247,-1.9307391568718928,8.992851703632887,1.6835446,0.1695151,0.35369098,229.5279,10.400643,-2.1247332
2320249146000.0,-0.6108684370661568,-1.856512509170172,8.940893154875718,1.6969837,0.18142697,0.35002577,229.38493,9.915059,-2.2141707
2320254117000.0,-0.61291564,-1.7646470956611755,8.86669815041858,1.6954565,0.1881465,0.33292156,229.24918,9.444703,-2.2994642
2320259105000.0,-0.61291564,-1.6700462564857323,8.7892972678909,1.700038,0.18203785,0.3191771,229.11589,8.980466,-2.3809147
2320264087000.0,-0.5548561059458208,-1.5408680351701782,8.697461226904377,1.706452,0.18875736,0.30848694,228.98012,8.497937,-2.473563
2320270573000.0,-0.4398013739337809,-1.349110198541329,8.568025055105348,1.706452,0.1881465,0.29932398,228.84964,8.027894,-2.5582302
2320274093000.0,-0.3846964737237965,-1.2574852856525862,8.507453424734015,1.7220291,0.1872302,0.29260445,228.7158,7.534101,-2.6452613
2320279049000.0,-0.409695241472664,-1.3024830822184768,8.55745091846624,1.7330247,0.19761491,0.2846632,228.58786,7.053721,-2.7312834
2320284094000.0,-0.4303900694828323,-1.3401867694828324,8.610165125658925,1.7293595,0.21533,0.2687807,228.47078,6.539546,-2.8058693
2320289025000.0,-0.4270261144465023,-1.3368228144465024,8.67071617580852,1.7489072,0.22082779,0.25167647,228.35864,6.0278625,-2.876214
2320294024000.0,-0.4236157694400912,-1.3334124694400913,8.732102243481977,1.765706,0.23609942,0.24404067,228.24481,5.5250254,-2.9625401
2320299127000.0,-0.4178663988442211,-1.296045188442211,8.784650914572863,1.7983873,0.26267207,0.24007004,228.13705,5.023852,-3.0497973
2320304123000.0,-0.4082491641185929,-1.1998728411859296,8.818311401809044,1.8072448,0.27947086,0.23304509,228.03424,4.5363474,-3.1349218
2320309041000.0,-0.4084651021941005,-1.1271615621267297,8.86746942006555,1.8329011,0.3023783,0.23396139,227.92763,4.033984,-3.229968
2320314091000.0,-0.4260772162691187,-1.0919373523670797,8.946723708120903,1.8527542,0.30909783,0.2312125,227.82558,3.5424674,-3.3213453
2320319086000.0,-0.4490679596661021,-1.0505515706427937,9.012431540850068,1.8533652,0.30940324,0.22540927,227.72388,3.031797,-3.4175427
2320324192000.0,-0.5003373637309461,-0.9756193425276232,9.01637542035648,1.8668042,0.31795537,0.21930063,227.62466,2.523798,-3.5141861
2320329027000.0,-0.5488856537140092,-0.9046641284781032,9.02010997919187,1.8805487,0.31795537,0.22174409,227.51974,2.0083356,-3.6124234
2320334026000.0,-0.6417910870139193,-0.7645054954083866,8.901948308675479,1.8829921,0.31581733,0.22174409,227.41866,1.5044208,-3.7085373
2320340146000.0,-0.7803248707134728,-0.5541393756500044,8.68645123085004,1.8930714,0.33322698,0.22693644,227.31694,1.0060935,-3.8065827
2320344069000.0,-0.819745852024048,-0.472979103990982,8.61526661292585,1.9043725,0.33964106,0.23182335,227.21088,0.48994288,-3.912719
2320349088000.0,-0.810113395270541,-0.4344492417735471,8.605634457915832,1.917506,0.34880406,0.23304509,227.10591,-0.017441208,-4.020527
2320354088000.0,-0.7920104053919971,-0.3691466173981531,8.583977024081117,1.926669,0.3390302,0.20066923,227.00414,-0.5654709,-4.1506076
2320359048000.0,-0.7619083961940973,-0.2659397537370994,8.545274565272498,1.93797,0.33322698,0.18142697,226.90001,-1.1046804,-4.2794614
2320364034000.0,-0.7449559344846642,-0.1719035506871143,8.486128486137977,1.9706513,0.35155296,0.16401732,226.80043,-1.6606451,-4.4148955
2320369142000.0,-0.7855071876927328,-0.1178352130763562,8.337439908446164,2.0027218,0.364992,0.12950343,226.71274,-2.2057807,-4.542861
2320374187000.0,-0.8224652267881916,-0.0700780040409743,8.19964622003549,2.0341814,0.3885103,0.119729586,226.61833,-2.7833977,-4.6757464
2320379044000.0,-0.7999545478867559,-0.1301064576060654,8.237163979028876,2.0638082,0.39858958,0.106595986,226.536,-3.3551571,-4.804194
2320384002000.0,-0.7769757655121794,-0.1913831866107436,8.275461909662848,2.0851886,0.40866885,0.083383106,226.45042,-3.944921,-4.9491835
2320389028000.0,-0.7898049576350606,-0.2037042370672546,8.253291412256523,2.1035144,0.4034765,0.06078109,226.36969,-4.528149,-5.087845
2320394147000.0,-0.834846937045204,-0.1721748655898566,8.176720409408306,2.116648,0.4343252,0.052534413,226.29156,-5.102124,-5.234815
2320399094000.0,-0.8546487056004864,-0.1550448835998783,8.13797284889024,2.1319196,0.45478916,0.04795292,226.21321,-5.6658607,-5.376032
2320404102000.0,-0.835205849826695,-0.1599055975433262,8.15741558285193,2.1508565,0.46578476,0.04734206,226.13623,-6.221575,-5.5187535
2320409152000.0,-0.8398249800205339,-0.1242841443626283,8.15685125852156,2.1740694,0.48716503,0.040011674,226.05446,-6.78893,-5.680278
2320414021000.0,-0.8781243640554415,-0.0333231590190965,8.128126658008213,2.2146919,0.49266282,0.037873644,225.97215,-7.354045,-5.835321
2320419078000.0,-0.8787712643783209,0.0334526716758767,8.122994253188097,2.2406538,0.46914452,0.0076358155,225.89012,-7.919154,-5.9854307
2320424049000.0,-0.8313420077789585,0.065072162648645,8.148289861550213,2.2852468,0.46883908,-0.019242255,225.80734,-8.488496,-6.1389327
2320429043000.0,-0.7836933038044633,0.0968379518093783,8.173702508534804,2.307849,0.47219884,-0.04795292,225.72726,-9.076461,-6.296259
2320434033000.0,-0.6924002107188182,0.0806990165932591,8.27586517008218,2.3380868,0.4886922,-0.070249505,225.65303,-9.665398,-6.4532504
2320439028000.0,-0.5431144124144388,0.0010799184485592,8.479889330333924,2.3518312,0.52198434,-0.09712757,225.58783,-10.241866,-6.6127086
2320444889000.0,-0.5161381649898932,0.0898167892604678,8.458944763788622,2.3924537,0.49174652,-0.11026118,225.52615,-10.840784,-6.749354
2320449274000.0,-0.5767710022408317,0.2555465271077101,8.301299180960632,2.4055874,0.47678033,-0.12736541,225.47115,-11.421753,-6.896594
2320454047000.0,-0.6401295890877796,0.4066763916006884,8.180109151462995,2.4135287,0.47433686,-0.13988814,225.4166,-11.992618,-7.0171866
2320459028000.0,-0.702914526746988,0.5274166889156626,8.117324445783133,2.4410176,0.4896085,-0.15577064,225.3678,-12.560052,-7.13606
2320464021000.0,-0.729002474226202,0.6105853047226008,8.097545213354097,2.483778,0.48472157,-0.18325958,225.32243,-13.176914,-7.2675514
2320469084000.0,-0.7101247874829667,0.6483407077769127,8.130580869476349,2.5097399,0.52320606,-0.21380283,225.27869,-13.783036,-7.412461
2320474043000.0,-0.7211138762675585,0.7052208800477784,8.131522862685141,2.5573874,0.41905355,-0.23518312,225.24156,-14.431185,-7.5301557
2320479050000.0,-0.776098372361204,0.7922796679216436,8.085702473196369,2.6120598,0.40042216,-0.27305678,225.2093,-15.072849,-7.680945
2320484014000.0,-0.7989461892657489,0.8568605083854819,8.073701164163538,2.6416867,0.3903429,-0.29901853,225.17981,-15.724863,-7.804123
2320489027000.0,-0.7488747160930329,0.8718819409261577,8.138794352211097,2.6823094,0.38515055,-0.31031954,225.1581,-16.380625,-7.921329
2320494082000.0,-0.6996395352950019,0.9426586518602028,8.192916812100714,2.7159069,0.34025195,-0.33383787,225.14456,-17.059366,-8.04218
2320499098000.0,-0.6527034755159714,1.0979087717249154,8.229021456069146,2.751337,0.33383787,-0.34880406,225.12941,-17.73537,-8.16831
2320504066000.0,-0.606216564634348,1.2516732445095828,8.264780601052237,2.7974575,0.34238997,-0.36835176,225.12097,-18.418827,-8.282408
2320509033000.0,-0.6658038738328685,1.321059234739588,8.221112586219304,2.8200593,0.25320363,-0.40775254,225.13203,-19.089928,-8.36792
2320514448000.0,-0.7730938986417198,1.3630422163443374,8.141811111900692,2.8634307,0.27885997,-0.43463063,225.13393,-19.765293,-8.484195
2320519115000.0,-0.8763556989702628,1.3766629296891542,8.080391485583677,2.8774807,0.3109304,-0.44104472,225.14311,-20.47256,-8.570377
2320524111000.0,-0.9960736483341353,1.3720584456933884,8.020532616677894,2.8823676,0.30970868,-0.44440445,225.15993,-21.173336,-8.6536665
2320529033000.0,-1.2305548696324953,1.5113905411992263,7.64411443524178,2.8597655,0.30787608,-0.464563,225.17274,-21.87966,-8.774154
2320534031000.0,-1.6240282200193423,1.8446856030947776,6.838651352882011,2.864958,0.3830125,-0.46700647,225.1736,-22.580362,-8.909317
2320539025000.0,-1.8217192120418848,2.051873419267016,6.377812420418848,2.87687,0.33200526,-0.50243664,225.19771,-23.272907,-9.045196
2320544139000.0,-1.6627402137172775,2.031360013947644,6.541919877172775,2.864958,0.2864958,-0.5403103,225.21442,-23.944424,-9.198426
2320549453000.0,-1.5385717459527015,1.9791048203999229,6.690776100307633,2.8872545,0.30573806,-0.5705481,225.17477,-24.78737,-9.457875
2320554051000.0,-1.4666067249182848,1.9071397551624687,6.800840250124976,2.9147434,0.3203988,-0.6035349,225.15425,-25.601515,-9.698431
2320559015000.0,-1.294411017070218,1.678735371125908,7.10976446349879,2.9272664,0.45051312,-0.63346726,225.13646,-26.386591,-9.951848
2320564035000.0,-0.9548942160209848,1.184010977865214,7.754845960068605,2.963002,0.37018433,-0.6398814,225.14706,-27.164934,-10.148084
2320569060000.0,-0.8048932206372265,1.1253415650009684,7.977964653883402,2.9465084,0.3100141,-0.6844745,225.16638,-27.890842,-10.380719
2320574083000.0,-0.9539672116986248,1.754247335580089,7.535401676157273,2.9605584,0.36713,-0.73548174,225.1831,-28.616758,-10.618017
2320579004000.0,-1.1076508168436874,2.2778224631462924,7.176830269138276,2.9681942,0.4251622,-0.75747293,225.24284,-29.18129,-10.782224
2320584129000.0,-1.2846969203006011,2.617161037795591,6.970276336272545,2.9669726,0.50579643,-0.7693848,225.3009,-29.733181,-10.968476
2320588995000.0,-1.4447225350782824,2.8754302060320813,6.772436969167227,2.9767463,0.3943135,-0.82650065,225.35869,-30.448128,-11.161451
2320594095000.0,-1.5948459900778025,3.006788149553357,6.56132592027663,2.9724703,0.4260785,-0.8918633,225.38715,-31.14049,-11.406914
2320599060000.0,-1.7475182322297491,3.16151773667589,6.373057382892854,2.9483411,0.49968776,-0.95417154,225.39621,-31.918156,-11.682563
2320604111000.0,-1.9228977617212095,3.401510789714722,6.234599742934835,2.9074132,0.571159,-0.9627236,225.40224,-32.66784,-11.958155
2320609095000.0,-2.0445417457795743,3.603225589460594,6.153012548810819,2.8542678,0.57726765,-0.9801333,225.3811,-33.46161,-12.287369
2320614086000.0,-1.8922246962692368,3.618085781843619,6.364770600606249,2.8026497,0.65026605,-1.0051788,225.34084,-34.21745,-12.639517
2320619108000.0,-1.7389615781284005,3.633038273558216,6.577843919804135,2.7559185,0.71868294,-1.0057896,225.22661,-35.027325,-13.005137
2320624074000.0,-1.780066642213236,3.8611382502021896,6.602434354827892,2.6963592,0.6786713,-1.0543534,225.14087,-35.780586,-13.357752
2320629083000.0,-1.9598544188578757,4.2443701756978,6.49361534897919,2.6288586,0.679893,-1.0598512,225.03064,-36.491096,-13.712513
2320634073000.0,-2.1673135808059385,4.53981270678685,6.434994677306469,2.5851817,0.7538077,-1.0839803,224.97777,-37.150505,-14.08145
2320639091000.0,-2.398955403364504,4.76682169579678,6.416463294736334,2.5231788,0.7812967,-1.0705414,224.92447,-37.76802,-14.422885
2320644103000.0,-2.670192671152648,4.992380515264798,6.375623354080997,2.482251,0.79290307,-1.0522153,224.77696,-38.48157,-14.8094845
2320649086000.0,-2.982387659595016,5.215377009501557,6.311202219376947,2.4324653,0.81183994,-1.035722,224.62415,-39.147373,-15.185194
2320654059000.0,-3.170519362254405,5.390272393174061,6.233904937745595,2.3564126,0.8344419,-0.9981538,224.3834,-39.85885,-15.603072
2320659030000.0,-3.258345849414261,5.52640314334471,6.14607845058574,2.277611,0.8677341,-0.97494096,224.1466,-40.51985,-16.006067
2320664041000.0,-3.358786010998644,5.642149205134092,6.034335586663884,2.2101104,0.8744536,-0.9434814,223.79852,-41.237617,-16.458717
2320669121000.0,-3.480627078305333,5.723376936742148,5.882034186267348,2.1337523,0.8735373,-0.91507614,223.4612,-41.88854,-16.887005
2320674222000.0,-3.5982039584333303,5.790347978093501,5.735063016204281,2.0589213,0.8436049,-0.86834496,223.10992,-42.543285,-17.331598
2320679054000.0,-3.704818464413939,5.839212824709609,5.6017948141499465,1.992337,0.83260936,-0.8228355,222.76709,-43.142258,-17.749735
2320684025000.0,-3.804761183043478,5.872435502608695,5.41433089847826,1.9272798,0.82558435,-0.7742717,222.41539,-43.73267,-18.186775
2320689026000.0,-3.889046049068323,5.877393429813664,5.14164474689441,1.8438967,0.8173377,-0.7483099,222.07748,-44.267635,-18.593647
2320694079000.0,-4.318276407188894,5.886299296139954,4.905092679991501,1.7611245,0.806953,-0.7351763,221.72263,-44.79637,-19.026228
2320699999000.0,-5.318133295637085,5.902361242736738,4.684240788497769,1.6688838,0.8002335,-0.7483099,221.38336,-45.268627,-19.436283
2320704012000.0,-5.995907905999008,5.9132491805227,4.534531558672711,1.5723672,0.806953,-0.77396625,221.03044,-45.730213,-19.877775
2320709092000.0,-7.594620659259259,7.372722447407408,5.672732977777779,1.4602734,0.7425067,-0.8491027,220.72075,-46.12635,-20.29771
2320714116000.0,-9.621929836363636,9.687002262857144,7.598213963636365,1.4019357,0.41905355,-0.852157,220.47342,-46.49228,-20.643013
2320719072000.0,-11.672004119891517,11.838982385298792,9.414319204526326,1.457219,-0.14355333,-0.8750645,220.2623,-46.766663,-21.137512
2320724062000.0,-13.776958130926774,13.899245260076686,11.17515081305527,1.6169603,-0.4972443,-0.9138544,220.09065,-47.024223,-21.59517
2320729096000.0,-15.51468603959359,15.602135983240808,12.361409135225726,1.7660115,-1.1392636,-0.93187493,220.08705,-47.214565,-22.02159
2320734207000.0,-16.719521176285745,16.78646287776265,12.710042292552634,1.7336355,-1.464244,-0.94897914,220.10939,-47.3751,-22.42071
2320739083000.0,-16.789334669249353,17.564599631425477,12.400043326418396,1.3136657,-1.4700472,-0.9636399,220.16647,-47.41124,-22.871569
2320744080000.0,-15.820506584187289,18.02309800716488,11.46311144663834,0.58459806,-1.1343768,-0.9486737,220.22856,-47.363457,-23.281115
2320749074000.0,-14.8108104024953,18.45913284566741,10.435352797897796,-0.4016439,-0.5766568,-0.91782504,220.21786,-47.17947,-23.755472
2320754107000.0,-13.418602260297384,18.698033037771324,8.573582787557683,-1.3304645,-0.11178834,-0.8668178,220.15143,-46.849804,-24.224554
2320759041000.0,-12.05377909844471,18.932234020851137,6.748434122543155,-1.7647897,0.26053402,-0.79504114,220.06006,-46.577766,-24.610128
2320764086000.0,-10.456476866173846,17.868198598691478,5.836095775554423,-1.790446,0.6093381,-0.7473936,219.85414,-46.197105,-25.049591
2320769060000.0,-8.81723893448891,16.40300333180389,5.241113198699974,-1.7498235,0.92087936,-0.7360926,219.56001,-45.74672,-25.524952
2320774128000.0,-7.062173134242306,14.548259084924036,4.86473436404363,-1.8478674,1.2247849,-0.78038037,219.28345,-45.451504,-25.92401
2320779060000.0,-5.235972655395403,12.239058546941957,4.81873438585898,-2.0564778,1.5738943,-0.8350528,218.91306,-45.141933,-26.378723
2320784090000.0,-3.824846697149357,10.3266783573612,4.9239752100305685,-2.2473733,1.8038851,-0.86284715,218.53906,-44.822884,-26.788996
2320789051000.0,-3.2473034198478707,9.239140541764414,5.302249255847018,-2.3173172,1.8118263,-0.8790351,218.13866,-44.48243,-27.225311
2320794080000.0,-2.661843806554347,8.136695938935096,5.685708271450913,-2.270586,1.670411,-0.83108217,217.71313,-44.086742,-27.61193
2320799172000.0,-2.9258519162291394,7.286640853656479,6.683558902306394,-2.1664336,1.5647314,-0.7199047,217.27238,-43.70546,-27.990206
2320804106000.0,-3.865043349624977,6.675280367419839,8.136647344834053,-2.1365013,1.3570372,-0.64812803,216.89703,-43.327744,-28.318542
2320809057000.0,-4.541115486293078,6.382599115561847,9.009722522503171,-2.146275,1.1527027,-0.5870415,216.64938,-42.862698,-28.583525
2320814056000.0,-4.830895456809528,6.560206269833056,9.028417894269255,-2.2678373,1.0106765,-0.49327368,216.41885,-42.407684,-28.795883
2320819107000.0,-5.022139758380512,6.582898369450239,8.843255940867103,-2.4559836,0.9773844,-0.39584067,216.2501,-41.744648,-29.074429
2320824120000.0,-5.032868676281288,6.328979500595947,8.299655317759237,-2.6325238,1.0198395,-0.2782491,216.07767,-41.086575,-29.313692
2320829014000.0,-5.043342908119786,6.081088229067342,7.768958838706793,-2.7104092,1.0567969,-0.2134974,215.89732,-40.421368,-29.553476
2320834038000.0,-5.089686235273085,5.832786351926343,6.929957722284795,-2.6801713,1.071763,-0.06261369,215.66948,-39.78784,-29.753565
2320839494000.0,-5.15974684490927,5.566556766872262,5.855698097506034,-2.5271494,1.1481212,0.17898351,215.38423,-39.20191,-29.94081
2320844073000.0,-5.130164880721892,5.486633471442401,5.135988085935555,-2.25562,1.1746938,0.24923302,215.08473,-38.654617,-30.168648
2320849083000.0,-4.990823692781081,5.572892285575992,4.568670540644447,-2.1838431,0.9260717,0.18997909,214.81085,-38.124172,-30.336983
2320854077000.0,-4.851927506638086,5.658875622458858,4.003164787913152,-2.0002782,0.43890667,0.060170226,214.5578,-37.694736,-30.514334
2320859034000.0,-4.783197347315436,5.515983541610738,3.695072691275168,-1.758681,0.09315695,-0.014966198,214.3338,-37.29774,-30.674156
2320864083000.0,-4.773363503355705,5.171796897986577,3.60165068590604,-1.5048665,-0.10934488,-0.009162978,214.20166,-36.94013,-30.778223
2320869088000.0,-4.784126839547163,4.715409070467156,3.646874489260784,-1.2611313,-0.29046643,0.010995574,214.16425,-36.668938,-30.812706
2320874119000.0,-4.809998038911759,4.172112668158224,3.7934782975120815,-1.0598512,-0.45051312,0.065973446,214.15622,-36.456203,-30.804659
2320879041000.0,-4.84274877051282,3.654349932692308,4.040545387099359,-0.82863873,-0.54244834,0.09193522,214.20009,-36.25529,-30.780539
2320884068000.0,-4.890968495673077,3.152864388221154,4.498633128575721,-0.655153,-0.46914452,0.096516706,214.23088,-36.095787,-30.7543
2320889031000.0,-4.872177581499177,2.757648632125206,4.987271374843492,-0.59559363,-0.22449298,0.1328632,214.26173,-35.882465,-30.761232
2320894093000.0,-4.720434874794069,2.5539940313014826,5.558303210873147,-0.5726862,0.1685988,0.17012598,214.23613,-35.70356,-30.817158
2320899082000.0,-4.570880476581548,2.353276369604613,6.121100095494233,-0.5852089,0.5833763,0.23823744,214.17665,-35.44345,-30.920923
2320904148000.0,-4.162345357532559,2.2465138772439284,6.999122105420627,-0.6374379,0.9120218,0.28038713,214.04233,-35.184402,-31.089499
2320909314000.0,-3.722636476117565,2.146382122967265,7.922075010383668,-0.70432764,1.138042,0.2724459,213.83327,-34.924343,-31.321365
2320914100000.0,-3.606715782332506,2.237210994937965,7.807278606947891,-0.7351763,1.3136657,0.23609942,213.59883,-34.616688,-31.575863
2320919105000.0,-3.630503317816377,2.423546689561621,7.204660875765096,-0.7031059,1.3713925,0.21410827,213.34186,-34.31118,-31.85117
2320924061000.0,-3.693601559031521,2.6660078027957974,6.663117807254454,-0.5766568,1.3631458,0.1994475,213.11716,-34.00588,-32.06704
2320929122000.0,-3.897305259981727,3.11769888533577,6.304421963910461,-0.49846604,1.4199562,0.2049453,212.87126,-33.69837,-32.306396
2320934216000.0,-4.088784357548259,3.579766340801848,5.976845428279162,-0.31612277,1.4865406,0.23182335,212.62605,-33.47435,-32.537674
2320939086000.0,-4.081089420079195,4.126107302854314,6.13459176691965,-0.17959438,1.5540411,0.28252518,212.3642,-33.26395,-32.773766
2320944130000.0,-4.073119550552714,4.691968455337403,6.297974217043392,-0.13469578,1.6493362,0.37323865,212.1111,-33.08847,-32.986008
2320949064000.0,-4.086931227636747,5.289461486253472,6.73114565890411,-0.15790866,1.6865989,0.47158796,211.84248,-32.940136,-33.1883
2320954045000.0,-4.114348819819906,5.920066679049717,7.338902715068493,-0.21013765,1.6484199,0.5571091,211.55217,-32.81005,-33.379215
2320959034000.0,-4.226453681309198,6.48505656029257,7.715957193611871,-0.2648101,1.5506815,0.6215554,211.26106,-32.754547,-33.48181
2320964089000.0,-4.420056031761734,6.994536242306882,7.878990625889287,-0.33353242,1.4104879,0.6386596,210.98314,-32.6898,-33.56139
2320969076000.0,-4.645561045151746,7.390842750916205,7.8136596208150415,-0.34300083,1.2809844,0.6239988,210.73996,-32.679672,-33.538906
2320974153000.0,-4.896139292231342,7.729587236113762,7.609484707959535,-0.29352075,1.1985176,0.62980205,210.51236,-32.67167,-33.49549
2320979064000.0,-5.137940327518797,7.977550218664308,7.577970637682442,-0.22021692,1.1123856,0.655153,210.31047,-32.701115,-33.402718
2320984086000.0,-5.384688934436091,8.160484287129588,7.6928365048208756,-0.13652839,0.9868528,0.6973027,210.1341,-32.744404,-33.28647
2320989065000.0,-5.652919443722211,8.308313295151388,7.730624217044251,-0.059864793,0.89827734,0.7367035,209.92342,-32.8523,-33.187546
2320994074000.0,-5.988091540334533,8.364175894558544,7.557959861486343,0.027794369,0.9224065,0.78984874,209.70712,-32.985847,-33.080402
2320999077000.0,-6.367288614048368,8.29014358820291,7.386595108100669,0.12858713,1.0888673,0.8622363,209.44655,-33.151897,-32.989643
2321004048000.0,-6.816581443649233,8.004655324577271,7.21811026645694,0.22571471,1.3344351,0.93431836,209.15608,-33.339558,-32.915813
2321009001000.0,-7.136134049015866,7.659635528790922,7.113900639706769,0.29229903,1.566564,1.0158689,208.76888,-33.561523,-32.907394
2321014026000.0,-7.198958306647921,7.186036545310303,7.1380641378991765,0.27763826,1.7507398,1.0931433,208.32889,-33.79149,-32.92864
2321019092000.0,-7.085953072181913,6.559005909469669,7.123307111706186,0.22479841,1.8301523,1.1520919,207.80788,-33.98901,-33.047146
2321024897000.0,-6.582789098062682,5.523569592243249,7.0235058791158655,0.1826487,1.9801197,1.1774428,207.22679,-34.186695,-33.207508
2321029113000.0,-6.217355968883237,4.771562785451417,6.951023192362929,0.17562376,2.097406,1.2049317,206.64305,-34.317947,-33.396667
2321034088000.0,-6.023748664210855,4.183602712317111,6.856356704171422,0.14263703,2.2165246,1.1969905,206.03578,-34.426964,-33.615463
2321039072000.0,-5.939550042897167,3.732891633018574,6.757299380938052,0.105068825,2.309376,1.1685852,205.41463,-34.52908,-33.847225
2321044071000.0,-5.96186748275093,3.483153188280669,6.709125593903345,0.09621128,2.3399193,1.1242975,204.90848,-34.46875,-34.091885
2321049141000.0,-6.020529832936803,3.298141019414498,6.677538174572491,0.07452556,2.2843306,1.0650436,204.41846,-34.38739,-34.345104
2321054085000.0,-6.191980831924337,3.315576918757265,6.525565280524146,0.05131268,2.1713204,1.0009027,203.94034,-34.264503,-34.62593
2321059157000.0,-6.443497736922752,3.464433820965867,6.289447359864736,0.022907447,2.0100522,0.9279043,203.50992,-34.12187,-34.896877
2321064033000.0,-6.804778332611442,3.746389430644288,6.215876612813571,-0.013439035,1.8435913,0.8539896,203.10692,-33.94642,-35.175426
2321069093000.0,-7.228933677314564,4.096208297996752,6.202758327666486,-0.04550946,1.6533068,0.77671516,202.7716,-33.751717,-35.42924
2321074082000.0,-7.744340941558441,4.571992597402597,6.121009850649351,-0.08032878,1.4230106,0.69027776,202.46663,-33.555138,-35.68137
2321079066000.0,-8.359301917027416,5.182033786435786,5.968499553391053,-0.10567969,1.1615603,0.58093286,202.24275,-33.335674,-35.90554
2321084076000.0,-8.842202485733896,5.765954187204628,5.419191807853712,-0.11911872,0.9621128,0.48349985,202.00615,-33.141396,-36.134674
2321089098000.0,-9.214737488773409,6.32711416106481,4.542084268036081,-0.12614368,0.9236283,0.42943826,201.81184,-32.93245,-36.354214
2321095084000.0,-9.487852412593629,6.808220713545766,3.6400265192332095,-0.118202426,1.02717,0.4147775,201.52757,-32.800205,-36.60993
2321099125000.0,-9.59348221340612,7.0465023031293645,3.0971376124095467,-0.13347405,1.2302825,0.44776422,201.23227,-32.66167,-36.877163
2321104108000.0,-9.723735442173416,7.340329860886125,2.427695537996699,-0.14813483,1.4172074,0.4886922,200.79337,-32.635223,-37.212654
2321109088000.0,-9.734997799441825,7.694003360408046,1.8832429680492733,-0.16371189,1.4978416,0.5555819,200.31697,-32.616344,-37.55205
2321114092000.0,-9.53668606736599,8.155194364546242,1.5557975043980368,-0.204029,1.4480561,0.6426302,199.81273,-32.600895,-37.885715
2321119095000.0,-9.126689199403703,8.486987203308015,1.5161838900972526,-0.24373524,1.3869696,0.75686204,199.15585,-32.69805,-38.25253
2321124092000.0,-8.185685318378647,8.493781590899411,2.1990060087882446,-0.27885997,1.1585059,0.8042041,198.5486,-32.789482,-38.563873
2321129103000.0,-7.242045044651096,8.500595014197488,2.8837411772414283,-0.36377025,0.84299403,0.870483,197.90956,-32.978966,-38.772667
2321134083000.0,-6.423732593725179,8.34503515835981,3.4653958456910243,-0.45265114,0.50823987,0.8933904,197.33626,-33.15783,-38.925434
2321139062000.0,-5.742007043685465,8.004172086735505,3.934082383796664,-0.48716503,0.24098633,0.8527679,196.8306,-33.327427,-39.024742
2321144087000.0,-5.206015983455735,7.701288446743605,4.271395100823178,-0.48197266,0.013744468,0.7684685,196.54706,-33.532043,-38.871338
2321149307000.0,-4.842914872972319,7.4390488915826,4.44891095119845,-0.3866777,-0.14844026,0.6814202,196.33386,-33.733604,-38.688892
2321154406000.0,-4.497902809840098,7.182157563755638,4.60803021094711,-0.2764165,-0.2312125,0.5861252,196.27711,-33.890285,-38.41995
2321159029000.0,-4.418032609249693,6.931655029930299,4.408354368290283,-0.1853976,-0.2312125,0.4978552,196.26561,-34.04138,-38.155796
2321164565000.0,-4.322388778302583,6.631680548585486,4.169244382361623,-0.110872045,-0.12644911,0.41722095,196.32784,-34.159256,-37.876225
2321169077000.0,-4.280847174183865,6.335352170919324,3.821548202410882,-0.08155051,0.03268129,0.33841935,196.40002,-34.266438,-37.629395
2321174078000.0,-4.262875850806754,5.966939854033771,3.31835081945591,-0.07849618,0.23090707,0.25992316,196.45755,-34.36493,-37.431232
2321179034000.0,-4.188693583392824,5.527675960172835,2.655616214766109,-0.10720685,0.41050145,0.1872302,196.47124,-34.436787,-37.304432
2321184028000.0,-4.026965478113846,4.970612757467594,1.7346650097313543,-0.12858713,0.5488624,0.11026118,196.46791,-34.492516,-37.227074
2321188999000.0,-3.8652771395306496,4.520211119057253,0.9829363295751568,-0.15790866,0.6227771,0.04062254,196.38335,-34.528046,-37.243607
2321194078000.0,-3.697992059558972,4.3676864782520735,0.7024877490835525,-0.172264,0.6386596,-0.027183503,196.2992,-34.54567,-37.29061
2321199062000.0,-3.563589454095514,4.287875934732272,0.5428358434761216,-0.15943582,0.5842926,-0.07269296,196.1308,-34.562405,-37.427837
2321204107000.0,-3.500661073704776,4.378772451736614,0.6651965360738061,-0.121256754,0.46822822,-0.10781772,195.98865,-34.568363,-37.566433
2321209002000.0,-3.439603705615051,4.466966396382055,0.7839191505962373,-0.06658431,0.26450464,-0.13103059,195.86798,-34.58688,-37.68929
2321214080000.0,-3.3937248700342617,4.553068743037864,0.9855554658877274,0.012217305,0.12461651,-0.13622294,195.76451,-34.613186,-37.804302
2321219072000.0,-3.364325660686989,4.632866847579724,1.2543488134410965,0.09743301,-0.15974127,-0.14966199,195.759,-34.644188,-37.855736
2321224102000.0,-3.345034972796173,4.701733107652686,1.5129895662104489,0.129198,-0.462425,-0.19394971,195.81628,-34.689594,-37.848804
2321229099000.0,-3.355599013200883,4.736946698233996,1.7348353339514349,0.18112154,-0.7492262,-0.258396,195.95169,-34.748077,-37.795063
2321234276000.0,-3.366543587380427,4.773428739146431,1.964672344076527,0.21899518,-1.0128145,-0.34208453,196.19952,-34.797455,-37.664875
2321239088000.0,-3.661137100669368,4.983315152607011,2.355913860216664,0.25961772,-1.2788464,-0.43310347,196.53812,-34.843876,-37.491783
2321244075000.0,-4.199556970054606,5.345065957054783,2.906953158728202,0.29138273,-1.5121969,-0.5155703,196.9514,-34.88266,-37.287857
2321249109000.0,-4.702373842501595,5.690621541895341,3.38701630968411,0.2996294,-1.7137824,-0.60903263,197.47153,-34.89187,-37.031433
2321254105000.0,-5.091673831525207,5.9806882019463945,3.657999533008935,0.2761111,-1.8860464,-0.7031059,198.05621,-34.88889,-36.75033
2321259055000.0,-5.477389393107849,6.268084112125079,3.92648771464582,0.21044308,-2.0011945,-0.8246681,198.70596,-34.82459,-36.469234
2321264084000.0,-5.911959507947339,6.683935986272778,4.218061790053786,0.102319926,-2.0726657,-0.95478237,199.39928,-34.734257,-36.182247
2321269105000.0,-6.359730127510637,7.139426579754355,4.515288827085173,-0.055283304,-2.087021,-1.0876455,200.1223,-34.60463,-35.90715
2321274074000.0,-6.754086434966698,7.659203595623216,4.753094175547098,-0.24465153,-2.014939,-1.1939361,200.83852,-34.42542,-35.670258
2321279045000.0,-7.014539599310181,8.368844195052331,4.836137150618459,-0.43799037,-1.8371773,-1.2327261,201.53015,-34.21179,-35.463192
2321284006000.0,-7.274468818442753,9.07705723342848,4.91901307082144,-0.6264423,-1.5564847,-1.1921035,202.14558,-33.98289,-35.303402
2321289083000.0,-7.467197548308393,10.03876396763175,5.048920464118413,-0.7996226,-1.2461652,-1.087951,202.68791,-33.733746,-35.180435
2321294095000.0,-7.631149785783995,11.073224300097593,5.19335459749512,-0.91415983,-0.95814216,-0.92179567,203.12767,-33.48872,-35.090275
2321299141000.0,-7.703771011388801,11.713722517557736,5.284726634704208,-0.95264435,-0.6805039,-0.700357,203.43646,-33.352966,-34.991207
2321304090000.0,-7.557580588737741,11.398851199304016,5.24724199123695,-0.89644474,-0.46211955,-0.43463063,203.63013,-33.258568,-34.901474
2321309007000.0,-7.412335426447327,11.086015824106294,5.209999721701993,-0.75808376,-0.38637227,-0.1853976,203.73999,-33.365593,-34.69921
2321314165000.0,-7.105855514170535,10.406891001628797,5.133888452455412,-0.56779927,-0.24281894,-0.024129177,203.7392,-33.522194,-34.53091
2321319116000.0,-6.76218631873931,9.642323381464289,5.048936405057415,-0.47616947,-0.055283304,0.018936822,203.68102,-33.703022,-34.370583
2321324086000.0,-6.408102880170172,8.942674540518396,5.0281751538485775,-0.33261612,0.15974127,0.06627888,203.56064,-33.91565,-34.2305
2321329109000.0,-6.029119963909241,8.393149476167967,5.157029449058536,-0.25534168,0.34055737,0.08277224,203.40681,-34.127083,-34.125523
2321334059000.0,-5.655644862278422,7.85161074064445,5.284011085787442,-0.21197024,0.43982297,0.08857546,203.24174,-34.271824,-34.06886
2321339087000.0,-5.198060954355204,7.388268216742081,5.383026738687782,-0.21288654,0.44868052,0.093767814,203.05669,-34.42082,-34.02964
2321344115000.0,-4.715605381536846,6.952501824757595,5.472514250646412,-0.2180789,0.39950588,0.096516706,202.86658,-34.57276,-33.999374
2321349866000.0,-4.403315416342384,6.624303596138196,5.423820740105053,-0.24465153,0.3032946,0.118202426,202.73474,-34.656307,-33.928085
2321354103000.0,-4.454347992150625,6.582276674964859,5.210684625508619,-0.25900686,0.17989981,0.13072516,202.6274,-34.736553,-33.844467
2321359086000.0,-4.514365770119109,6.532850158984981,4.960022067322631,-0.25809056,0.06627888,0.13836098,202.59915,-34.780266,-33.67912
2321364128000.0,-4.6416556417256105,6.544418155545175,4.702066997297478,-0.26358834,-0.010079277,0.13591751,202.59335,-34.819195,-33.501442
2321369091000.0,-4.812922426397972,6.5983355569865205,4.445166836847725,-0.27458394,-0.07269296,0.12858713,202.61221,-34.857056,-33.30862
2321374956000.0,-5.015316077839317,6.662052171827038,4.141576379253971,-0.29901853,-0.12461651,0.11362094,202.62526,-34.887215,-33.151764
2321379064000.0,-5.29747772978293,6.768365293005524,3.90173977812184,-0.34300083,-0.15668693,0.09193522,202.65256,-34.90776,-32.992702
2321384201000.0,-5.722340482922275,6.932951727495526,3.5878771515210457,-0.4098906,-0.17745635,0.07941248,202.691,-34.91694,-32.830284
2321389304000.0,-6.1323669572798085,7.093968577505778,3.295896905435248,-0.46578476,-0.17989981,0.06383542,202.69888,-34.921047,-32.736073
2321394094000.0,-6.33654321851408,7.207836098348027,3.319455808884704,-0.5421429,-0.19058995,0.051923547,202.7155,-34.90503,-32.63958
2321399177000.0,-6.5532087583582985,7.32866879322092,3.3444557893092526,-0.6084218,-0.20891592,0.05467244,202.67348,-34.873165,-32.6332
2321404084000.0,-6.743398422025446,7.38112032346056,3.4247285978015265,-0.66767573,-0.24587326,0.0711658,202.6374,-34.82775,-32.621086
2321409103000.0,-6.929302539613232,7.40558137139949,3.532357259816794,-0.72234815,-0.26419923,0.095294975,202.59813,-34.77225,-32.607944
2321414100000.0,-7.003171216656152,7.4062544027760255,3.6276098499684544,-0.7266242,-0.301462,0.11362094,202.55724,-34.70852,-32.607018
2321419913000.0,-7.038294206182965,7.396219367697161,3.732978818548896,-0.72265357,-0.267559,0.19272798,202.48232,-34.6523,-32.601772
2321424053000.0,-7.022713259793608,7.320539574251077,3.815317827452159,-0.72509706,-0.23579398,0.21013765,202.42548,-34.56306,-32.616737
2321429060000.0,-6.969866810319607,7.171608087446148,3.921011027392045,-0.73761976,-0.12675454,0.22388211,202.32408,-34.488087,-32.641735
2321434085000.0,-6.845867670414081,6.884748633614813,4.071692053372673,-0.752586,-0.005192355,0.22937989,202.22235,-34.400387,-32.674236
2321439086000.0,-6.65096019534032,6.460825326889816,4.266599375806287,-0.75869465,0.09040806,0.22296582,202.10146,-34.313667,-32.7247
2321444042000.0,-6.432234158480968,6.055980705893703,4.489734959349237,-0.7489208,0.13744467,0.22724187,201.97841,-34.204445,-32.78411
2321449095000.0,-6.186074440501667,5.6570322188388005,4.744382981669882,-0.70738196,0.14385876,0.23945917,201.8429,-34.10292,-32.854942
2321454012000.0,-5.943025960040712,5.280448713801527,5.011130150636132,-0.6246097,0.11453723,0.26297748,201.74211,-33.955784,-32.91704
2321459101000.0,-5.680122418839694,4.928257126656489,5.348440206870229,-0.5494733,0.05131268,0.28221974,201.64522,-33.820225,-32.97211
2321464033000.0,-5.472450968125548,4.654532682844332,5.6740425631153135,-0.45540005,-0.036957346,0.31612277,201.61452,-33.64478,-32.979916
2321469107000.0,-5.382455845209084,4.550327491305195,6.0056044013061705,-0.35796702,-0.1337795,0.3408628,201.5946,-33.49258,-32.972435
2321474073000.0,-5.359029177210023,4.524501363456044,6.369810185699127,-0.2660318,-0.2275473,0.3735441,201.65813,-33.30059,-32.900055
2321479074000.0,-5.546678568002612,4.747335081356623,6.866299146110522,-0.17501289,-0.29810223,0.42760566,201.71877,-33.14518,-32.807903
2321484057000.0,-5.7336525560688925,4.969366758280956,7.361001103665007,-0.08032878,-0.33841935,0.47433686,201.80522,-33.001442,-32.67628
2321489657000.0,-5.8748442315550005,5.106734647220983,7.704594079400482,0.007941248,-0.35430184,0.5558874,201.87164,-32.898445,-32.52421
2321494062000.0,-5.972696891337319,5.193296807449371,7.934171644303684,0.087964594,-0.34666604,0.623388,201.92723,-32.825047,-32.36854
2321499089000.0,-6.045181488724036,5.243856019287834,8.152931513353115,0.17806722,-0.30543262,0.7067711,201.9712,-32.78269,-32.179493
2321504063000.0,-6.084174635720864,5.253604255141717,8.333275530747978,0.2489276,-0.23915374,0.7693848,201.99142,-32.76527,-31.996403
2321509038000.0,-6.067822046329064,5.27940275020041,8.38398405406198,0.2919936,-0.19150625,0.8020661,201.99591,-32.765415,-31.808752
2321514028000.0,-6.01175994025809,5.316777455059145,8.341937120832926,0.29901853,-0.070554934,0.806953,201.95969,-32.780476,-31.652628
2321519074000.0,-5.906740945901479,5.364770344706689,8.182504003427676,0.30024028,0.061086524,0.7965683,201.90573,-32.79752,-31.504936
2321524221000.0,-5.757094050572912,5.422698214180786,7.917001268338067,0.27550024,0.22602014,0.7583892,201.82497,-32.806587,-31.401413
2321529035000.0,-5.610534506054003,5.489362954675509,7.643805475888205,0.22327125,0.40011674,0.68203104,201.72049,-32.812477,-31.32683
2321534032000.0,-5.45184796557082,5.570973078105164,7.335500281099005,0.16523905,0.5693264,0.6041457,201.59433,-32.804363,-31.29872
2321539029000.0,-5.283681368214152,5.62839069996256,7.042219442100337,0.10476339,0.7021896,0.5198463,201.4604,-32.797146,-31.300951
2321544074000.0,-5.09827195179708,5.646479603182329,6.770888396471359,0.05589417,0.78984874,0.45020768,201.3193,-32.76828,-31.343332
2321549083000.0,-4.925999463802021,5.644432319487547,6.509779210941354,0.01160644,0.82436264,0.37507126,201.18552,-32.74482,-31.400322
2321554104000.0,-4.788252462027533,5.583211438688629,6.272548487626323,-0.015882496,0.81061816,0.31215215,201.06088,-32.703983,-31.476036
2321559020000.0,-4.653386048818334,5.523270819288613,6.040278773263308,-0.034513887,0.73364913,0.26908615,200.9536,-32.67179,-31.53247
2321564096000.0,-4.5153804188937565,5.422255926067908,5.823343561007667,-0.043982297,0.64934975,0.23396139,200.86705,-32.626053,-31.593441
2321569073000.0,-4.380515938800658,5.309143652519167,5.618871356736035,-0.040927973,0.53878313,0.20830505,200.81252,-32.573837,-31.63695
2321574219000.0,-4.279166922958923,5.140099341545935,5.434114708411454,-0.04734206,0.42119157,0.18142697,200.77768,-32.527695,-31.65871
2321579050000.0,-4.212138136015,4.942956211385717,5.280343204397477,-0.04184427,0.30482176,0.16523905,200.77048,-32.48328,-31.658833
2321584089000.0,-4.1688886625322255,4.7537174040676025,5.159297096333429,-0.05375614,0.19211712,0.14660765,200.78986,-32.432922,-31.636047
2321589097000.0,-4.230711425522773,4.630072021541106,5.193642996075623,-0.0729984,0.076052725,0.12950343,200.83788,-32.381123,-31.58988
2321594081000.0,-4.29223791329132,4.507019188771126,5.2278242988541965,-0.052839845,-0.027794369,0.10567969,200.89738,-32.32072,-31.54263
2321599096000.0,-4.381486136262896,4.40202297019488,5.321590482078716,-0.051618114,-0.13255776,0.0852157,200.98347,-32.25175,-31.472849
2321604074000.0,-4.509003493504012,4.324601707393962,5.499204028868934,-0.04734206,-0.22602014,0.054367006,201.0957,-32.184593,-31.38975
2321608998000.0,-4.631983260259179,4.2670420575692125,5.700245776045553,-0.053450707,-0.27122417,0.042455133,201.1969,-32.091038,-31.316513
2321614087000.0,-4.751599490820734,4.252688139878264,5.968185972629098,-0.049785517,-0.34513888,0.032070424,201.32788,-31.999126,-31.222645
2321619086000.0,-4.883220573936094,4.2731757311362655,6.22014514950566,-0.04520403,-0.40378192,0.012217305,201.45412,-31.885517,-31.145647
2321624161000.0,-5.05384045232125,4.384600813884511,6.446477605624015,-0.058948494,-0.43554693,-0.00030543262,201.58693,-31.772223,-31.06027
2321629090000.0,-5.219551857357788,4.492820367158618,6.666298822610689,-0.058643065,-0.4456262,0.0015271631,201.7258,-31.645775,-30.974422
2321634068000.0,-5.3462313874032015,4.5992353681982445,6.813880795508518,-0.058643065,-0.4092797,-0.008246681,201.86339,-31.516956,-30.897928
2321639216000.0,-5.432769666060919,4.706135860547238,6.885147613226639,-0.06047566,-0.36743546,-0.009773844,201.99475,-31.39437,-30.82049
2321644077000.0,-5.484701955038209,4.8038026267815885,6.91912459098987,-0.051923547,-0.30634892,-0.005192355,202.09843,-31.270704,-30.761007
2321649150000.0,-5.514920608867958,4.903092785587346,6.927758472765239,-0.057421334,-0.22418754,0.004276057,202.18494,-31.148806,-30.71674
2321654013000.0,-5.531267390410959,4.996498315390814,6.936359125725222,-0.052839845,-0.1386664,0.019242255,202.24348,-31.045656,-30.686613
2321659090000.0,-5.516575386986301,5.0895491704673645,6.946153982181708,-0.035124753,-0.052534413,0.023518313,202.28357,-30.947912,-30.676552
2321663998000.0,-5.478989809820733,5.1620082810113015,6.949994266533516,-0.021991149,0.022296581,0.034513887,202.29942,-30.87053,-30.676985
2321669074000.0,-5.384266823070927,5.195161375828137,6.940521918404131,-0.0106901415,0.060170226,0.05681047,202.30032,-30.802004,-30.686243
2321674951000.0,-5.28937503369019,5.223904622503824,6.9381526383220455,-0.013744468,0.064446285,0.06994407,202.28596,-30.752947,-30.693182
2321684116000.0,-5.180707475573519,5.243081171881145,6.957329254446144,0.010079277,0.017715093,0.098043874,202.26436,-30.720276,-30.690828
2321689084000.0,-5.11931484536862,5.2480903,6.956513569376182,0.007941248,-0.015577064,0.11026118,202.24507,-30.695847,-30.676582
2321694073000.0,-5.055338858128544,5.2480903,6.945223717013233,0.0070249503,-0.06291912,0.12003502,202.23132,-30.682005,-30.644827
2321699507000.0,-4.985936002575143,5.248567675482322,6.927640837625239,0.018936822,-0.10781772,0.12370021,202.22604,-30.68233,-30.591682
2321704106000.0,-4.931232388432558,5.255861528781982,6.836468147387596,0.02076942,-0.12461651,0.13683382,202.21971,-30.68357,-30.532503
2321709237000.0,-4.870200806748365,5.263999115492258,6.734748844580608,0.02443461,-0.15393804,0.13683382,202.23026,-30.696642,-30.453074
2321714086000.0,-4.852102684940739,5.296356419629715,6.662996010155705,0.018936822,-0.17531833,0.14263703,202.23776,-30.71107,-30.370539
2321719071000.0,-4.863197350987683,5.348131450615849,6.607522564071578,0.027183503,-0.18387043,0.14172074,202.25044,-30.72827,-30.287548
2321724472000.0,-4.875048807366639,5.405405966299746,6.547356948433531,0.026572637,-0.15943582,0.15057829,202.25018,-30.755367,-30.197025
2321729107000.0,-4.882565906096529,5.473059854868756,6.494737257324302,0.021991149,-0.13744467,0.1518,202.25478,-30.781607,-30.107891
2321734050000.0,-4.890582522929721,5.545209406367485,6.4386209394919565,0.0143553335,-0.08827003,0.1469131,202.24287,-30.81585,-30.030794
2321739086000.0,-4.899964854662176,5.590278922374237,6.38744991157651,0.008552114,-0.03145956,0.14202617,202.2257,-30.84887,-29.962551
2321745090000.0,-4.912067381961693,5.622552412755209,6.330971450845436,-0.004886922,0.016798794,0.13988814,202.20207,-30.87719,-29.905956
2321749133000.0,-4.920217035171543,5.644284878046727,6.292939735866133,-0.013133603,0.061086524,0.13255776,202.1707,-30.91485,-29.86376
2321754132000.0,-4.925930657381926,5.688287603291187,6.2202499229453325,-0.023518313,0.10048734,0.13500121,202.13005,-30.94903,-29.831509
2321759056000.0,-4.930314830234288,5.736513596225363,6.141334628486426,-0.03359759,0.13408493,0.12308934,202.08891,-30.97668,-29.812775
2321764082000.0,-4.939448776814144,5.745803383358472,6.082893912703201,-0.04337143,0.1572978,0.10842858,202.03513,-31.00576,-29.800215
2321769120000.0,-4.951577506410256,5.729631884615385,6.038422058974359,-0.0571159,0.16035213,0.103847094,201.98073,-31.030115,-29.79168
2321774049000.0,-4.962881892952721,5.717354,5.9973220254237285,-0.05497787,0.15974127,0.09285152,201.91882,-31.063414,-29.790812
2321779094000.0,-4.972459592179602,5.717354,5.963799853107345,-0.058643065,0.14813483,0.08277224,201.8611,-31.09029,-29.789146
2321784084000.0,-4.984049294625524,5.712216756718096,5.927345513436191,-0.06536258,0.12889257,0.074830994,201.80573,-31.108988,-29.790949
2321789089000.0,-5.003639315673853,5.687729230407683,5.878370460815368,-0.06566802,0.09468412,0.06078109,201.76114,-31.124866,-29.789751
2321794107000.0,-5.021079637110872,5.663804046894648,5.836186125778255,-0.06994407,0.0720821,0.05497787,201.71738,-31.137625,-29.790314
2321799085000.0,-5.032045703159024,5.641871609446404,5.814253993681951,-0.061391957,0.0693332,0.04428773,201.6823,-31.149721,-29.79118
2321804094000.0,-5.043080059293053,5.619802589924858,5.792185281413893,-0.06536258,0.0580322,0.032070424,201.65125,-31.15061,-29.790787
2321809094000.0,-5.056190689568238,5.618150995573201,5.765964020863524,-0.064446285,0.044593163,0.025961773,201.62306,-31.153591,-29.790333
2321814740000.0,-5.07229112017866,5.6288845039007445,5.73376315964268,-0.070249505,0.03573562,0.011911872,201.60205,-31.15057,-29.792036
2321819074000.0,-5.093924896845754,5.63896966169844,5.716520601802427,-0.06841691,0.03848451,0.008246681,201.5753,-31.14597,-29.796782
2321824342000.0,-5.124527503154246,5.65208533830156,5.699033398197574,-0.06963864,0.03940081,0.005497787,201.55441,-31.137241,-29.80151
2321829048000.0,-5.167165122289099,5.659893,5.671385648972962,-0.056505036,0.029626964,-0.009162978,201.53458,-31.132584,-29.810213
2321834089000.0,-5.245573935320532,5.659893,5.616038194879144,-0.040011674,0.029321533,-0.01038471,201.5102,-31.130222,-29.819557
2321839002000.0,-5.314877769758395,5.6619656203112205,5.57266508984439,-0.043066,0.010079277,-0.01160644,201.48914,-31.127941,-29.831923
2321844059000.0,-5.359499789312039,5.671881647665848,5.567707076167077,-0.03573562,0.009468411,-0.01282817,201.46516,-31.13152,-29.848515
2321849107000.0,-5.399953021173214,5.686231203336665,5.570282849803952,-0.030848695,-0.011301007,-0.01160644,201.43454,-31.129189,-29.868286
2321854059000.0,-5.429121584193127,5.71175355320981,5.592159214961175,-0.029932396,-0.03481932,-0.014660766,201.4064,-31.126593,-29.887964
2321859007000.0,-5.458266586176674,5.737255287291458,5.614017909387253,-0.01863139,-0.056505036,-0.013133603,201.3739,-31.128408,-29.908327
2321864032000.0,-5.474153553376588,5.754779581394499,5.636078116366627,-0.013133603,-0.074830994,-0.017104227,201.34793,-31.127583,-29.925356
2321869091000.0,-5.483008259636297,5.768061871936398,5.658215390551037,-0.009773844,-0.0983493,-0.025350908,201.32822,-31.128332,-29.936611
2321874246000.0,-5.505628567960657,5.798109816720729,5.666881594538035,-0.0067195175,-0.1151481,-0.0290161,201.30684,-31.129257,-29.944048
2321879060000.0,-5.539396584283771,5.8415256793973,5.66205752024694,-0.0030543262,-0.12492194,-0.03023783,201.29033,-31.130169,-29.948809
2321884502000.0,-5.569978072459499,5.885693987039764,5.687667065979381,-0.004886922,-0.14080444,-0.03359759,201.27815,-31.1308,-29.947908
2321889030000.0,-5.59126611880216,5.919754683357879,5.725985460481099,0.005497787,-0.1469131,-0.032986723,201.26535,-31.135515,-29.94673
2321894072000.0,-5.612153746674279,5.9546329932343705,5.753375322694833,0.0061086523,-0.13439035,-0.04337143,201.25146,-31.13857,-29.95041
2321899208000.0,-5.630875490550957,5.987395922837568,5.767416655038538,0.0106901415,-0.13255776,-0.041233405,201.23755,-31.146963,-29.94821
2321904036000.0,-5.634361456951564,6.015287457087561,5.776940551417512,0.008857546,-0.14019357,-0.0421497,201.22731,-31.155,-29.949337
2321909033000.0,-5.619342332817241,6.040318982142484,5.781946856428497,0.004581489,-0.118202426,-0.043982297,201.21075,-31.16341,-29.957506
2321914021000.0,-5.600886591613492,6.050317321549681,5.797737763609844,0.007330383,-0.09193522,-0.043982297,201.19838,-31.174109,-29.966114
2321919081000.0,-5.57879971467639,6.045899992288058,5.824241923682771,0.0076358155,-0.07849618,-0.047647487,201.18585,-31.181995,-29.977621
2321924169000.0,-5.545121468978732,6.042965,5.838684844567925,0.0027488936,-0.057421334,-0.048563786,201.16649,-31.191647,-29.989151
2321929082000.0,-5.491029706112282,6.042965,5.829669644893658,-0.003970624,-0.036651913,-0.041233405,201.14355,-31.20132,-30.002745
2321934012000.0,-5.429944238311892,6.03390204775651,5.829495814182617,-0.010079277,-0.019547688,-0.038179077,201.12285,-31.209196,-30.016323
2321939090000.0,-5.343475633668026,5.993210914695116,5.860014163978663,-0.009773844,-0.0067195175,-0.02687807,201.0951,-31.21923,-30.030811
2321944089000.0,-5.268930195598006,5.9561613302325584,5.877248210465116,-0.014660766,0.0021380284,-0.02076942,201.07402,-31.23167,-30.043024
2321949155000.0,-5.215202591408269,5.9248202005167965,5.8682936954780365,-0.007330383,0.00061086525,-0.020463986,201.05144,-31.247429,-30.054636
2321954231000.0,-5.163552788280233,5.895351418959979,5.858629034829412,-0.004886922,0.005192355,-0.009773844,201.03087,-31.26383,-30.055424
2321959034000.0,-5.123620798888792,5.8753855493532425,5.8466494296727145,-0.0070249503,0.018325957,-0.015271631,201.01353,-31.277693,-30.060566
2321964053000.0,-5.081892992360448,5.854521776803543,5.8341310789999135,-0.008246681,0.016493361,-0.0076358155,201.00226,-31.295435,-30.055872
2321969061000.0,-5.048748287145148,5.843726373347167,5.820721460020749,-0.006414085,0.0125227375,-0.01038471,200.9933,-31.31032,-30.056387
2321974029000.0,-5.017338138772046,5.834752018466472,5.8072599276997074,-0.0106901415,0.009468411,-0.011301007,200.98236,-31.324657,-30.055088
2321979061000.0,-4.986694263995344,5.797742152077364,5.825520703223496,-0.008857546,0.01038471,-0.00580322,200.9714,-31.344143,-30.048359
2321984109000.0,-4.956392839425144,5.750125698782235,5.855822082593123,-0.005497787,0.010079277,-0.012217305,200.9649,-31.360527,-30.043047
2321989026000.0,-4.951106952606159,5.731667876836386,5.872951263151539,-0.0061086523,0.004886922,-0.01282817,200.95425,-31.385075,-30.033472
2321994065000.0,-4.970530375910647,5.741379487079895,5.877807118977661,-0.012217305,0.0036651916,-0.011911872,200.94455,-31.407782,-30.02573
2322000424000.0,-4.987565863109756,5.742270878170731,5.906851810243903,-0.01282817,0.004886922,-0.005192355,200.93883,-31.426188,-30.013138
2322004085000.0,-4.994691977286585,5.738707876890244,5.931793340081301,-0.011301007,-0.006414085,-0.01038471,200.939,-31.441462,-29.99955
2322009019000.0,-5.013512193860308,5.729297828163725,5.959212953060458,-0.0027488936,-0.018936822,-0.02107485,200.93903,-31.454866,-29.986303
2322014027000.0,-5.040527279102516,5.715790332557266,5.981725445737889,-0.016798794,-0.025961773,-0.014049901,200.93697,-31.465324,-29.969915
2322019100000.0,-5.069870255414855,5.703972344244944,5.9893740163674165,-0.008552114,-0.03756821,-0.016798794,200.94402,-31.477634,-29.953897
2322024079000.0,-5.101412422736723,5.69496026955207,5.975855904328104,0.00061086525,-0.043066,-0.02321288,200.95032,-31.487453,-29.937523
2322029003000.0,-5.127848383621408,5.684366490462307,5.963512660308205,-0.010079277,-0.04734206,-0.024740042,200.96024,-31.487137,-29.92289
2322034114000.0,-5.1431382243023736,5.669076915868389,5.953319610578926,-0.01160644,-0.04795292,-0.021380283,200.97064,-31.490993,-29.908438
2322038995000.0,-5.157410633519143,5.656076670162828,5.948469083379786,-0.021991149,-0.04550946,-0.015882496,200.97583,-31.487593,-29.90052
2322044087000.0,-5.171717532624322,5.645346271747103,5.95204580815608,-0.017104227,-0.04153884,-0.021991149,200.98277,-31.48627,-29.8945
2322049111000.0,-5.185833373375385,5.634759170089482,5.955574768343846,-0.011301007,-0.034208454,-0.022602014,200.98344,-31.48177,-29.891722
2322054128000.0,-5.196693401004304,5.622066227642276,5.974965566331898,-0.022296581,-0.034513887,-0.021380283,200.98573,-31.47411,-29.889002
2322059086000.0,-5.205776428550933,5.608441804878049,6.002214743816356,-0.026267206,-0.030543262,-0.022602014,200.98633,-31.469193,-29.88957
2322064082000.0,-5.205090267204535,5.595392815054514,6.011888121351941,-0.022296581,-0.025350908,-0.029932396,200.99403,-31.456833,-29.897636
2322069819000.0,-5.195505999476668,5.581016238325338,6.007095962468382,-0.021685716,-0.022296581,-0.023823744,200.99776,-31.445341,-29.903942
2322074037000.0,-5.1906295,5.568719788967865,6.010884681279407,-0.025350908,-0.019547688,-0.021685716,201.00177,-31.426752,-29.911121
2322079051000.0,-5.1906295,5.549491307278006,6.034920157903694,-0.015577064,-0.025350908,-0.02076942,201.00523,-31.412846,-29.916182
2322084000000.0,-5.185899019750116,5.532555781002639,6.05821821702623,-0.02107485,-0.028710667,-0.023518313,201.00276,-31.393248,-29.918371
2322089089000.0,-5.16698824677945,5.521209593667546,6.080910907636194,-0.020463986,-0.039095376,-0.017715093,201.0001,-31.379473,-29.916199
2322094064000.0,-5.148501098905789,5.510117575197889,6.103095253437839,-0.01038471,-0.029932396,-0.025350908,201.00125,-31.362623,-29.923433
2322099113000.0,-5.145839585487444,5.488097391802068,6.1285692697562775,-0.0030543262,-0.036957346,-0.018325957,201.00195,-31.349329,-29.921263
2322104289000.0,-5.150416035339734,5.460640030649926,6.156026869830133,-0.004886922,-0.04520403,-0.007941248,201.0019,-31.336088,-29.92172
2322109095000.0,-5.163875846389875,5.446892242465628,6.176706788855504,-0.0061086523,-0.0421497,-0.008246681,201.00377,-31.325987,-29.920889
2322114094000.0,-5.185670630692889,5.442533194573431,6.1941425252663205,-0.01282817,-0.038179077,-0.021685716,201.00763,-31.314137,-29.919157
2322119066000.0,-5.19899233943662,5.442053971830986,6.215482671830986,-0.0021380284,-0.029932396,-0.004886922,201.00508,-31.302687,-29.91355
2322124074000.0,-5.195280792121962,5.449477221482742,6.245175011592632,0.003970624,-0.021380283,-0.002443461,201.00859,-31.284754,-29.913961
2322129059000.0,-5.1915862906516015,5.456866378733942,6.274730984777898,0.00030543262,-0.004276057,0.0061086523,200.99916,-31.268953,-29.916992
2322134097000.0,-5.197352513067916,5.441972379578455,6.2823853,0.002443461,0.004276057,-0.0012217305,200.9932,-31.254187,-29.922544
2322139009000.0,-5.206165814426229,5.419939011147541,6.2823853,-0.0018325958,0.013439035,0.0030543262,200.97838,-31.240889,-29.928877
2322144077000.0,-5.20170516714878,5.4082033234454165,6.2823853,-0.00030543262,0.027488936,0.00580322,200.95908,-31.232162,-29.93521
2322149156000.0,-5.188262404025795,5.403722293228927,6.2823853,0.00030543262,0.027794369,0.007941248,200.93999,-31.223045,-29.940023
2322154053000.0,-5.177207804840647,5.395551687371825,6.280462882531178,0.0036651916,0.030848695,0.0125227375,200.91791,-31.210344,-29.95117
2322159032000.0,-5.168397987538106,5.382337030411086,6.276058042872979,0.007330383,0.03176499,0.010995574,200.89746,-31.197502,-29.962626
2322164021000.0,-5.161899,5.37748634977169,6.267910875799087,0.0036651916,0.034513887,0.017104227,200.88266,-31.180586,-29.970882
2322169103000.0,-5.161899,5.396400000485767,6.2489973238317305,0.008857546,0.046120327,0.015882496,200.86824,-31.1656,-29.982975
2322174036000.0,-5.157984519905493,5.4167676383933845,6.230586940342588,0.0009162979,0.035430185,0.01038471,200.86142,-31.14221,-29.988447
2322179056000.0,-5.139053219255759,5.44516419401457,6.211655738531207,-0.0125227375,0.034513887,0.020463986,200.84648,-31.121738,-29.996456
2322184015000.0,-5.126194209860788,5.469224188188146,6.193591271672643,-0.0027488936,0.042455133,0.023518313,200.83258,-31.106844,-30.005157
2322189086000.0,-5.141559575174013,5.47434588749209,6.1782263876819234,0.0067195175,0.038789943,0.020463986,200.82005,-31.08999,-30.010534
2322194086000.0,-5.154459344043766,5.482207465772847,6.163189844968408,-0.002443461,0.03970624,0.0125227375,200.81248,-31.077837,-30.019732
2322199149000.0,-5.161931618901217,5.4971519374634,6.148245061180459,-0.0027488936,0.03023783,0.02107485,200.8041,-31.072462,-30.023403
2322204144000.0,-5.169303535336724,5.511895693357991,6.133500997380182,0.00061086525,0.040011674,0.014660766,200.79576,-31.063131,-30.03913
2322209542000.0,-5.171476,5.51267582029013,6.100637203963212,-0.0061086523,0.038179077,0.014049901,200.78775,-31.054068,-30.047525
2322214087000.0,-5.171476,5.508548993040675,6.067621939575234,-0.0070249503,0.03970624,0.006414085,200.78065,-31.04516,-30.061111
2322219106000.0,-5.186383161503879,5.51163301059591,6.040119043794076,-0.011911872,0.030543262,0.01282817,200.7722,-31.036766,-30.069674
2322229092000.0,-5.235565201146288,5.530788797489083,6.007971941921397,-0.0125227375,0.034208454,0.014049901,200.76419,-31.027353,-30.083567
2322234094000.0,-5.256483663438865,5.546477712467249,6.018431145764192,-0.004581489,0.032986723,0.01282817,200.754,-31.020945,-30.095337
2322239093000.0,-5.2735482427460205,5.560852176917511,6.019608456874096,-0.009773844,0.029932396,0.018325957,200.73668,-31.010918,-30.108942
2322244085000.0,-5.286520534497106,5.573824333212735,6.01096023227207,-0.008246681,0.02687807,0.013744468,200.72269,-31.002619,-30.124048
2322249134000.0,-5.291849508251933,5.5860279281644285,6.00190781490639,-0.009468411,0.029932396,0.021380283,200.70619,-30.995567,-30.140476
2322254083000.0,-5.277382042368743,5.5956731404151405,5.992262753724053,-0.010079277,0.025350908,0.011301007,200.69771,-30.985525,-30.158007
2322259049000.0,-5.273180059377263,5.605400014192615,5.991440105865315,-0.008246681,0.021380283,0.017715093,200.68181,-30.981508,-30.175062
2322264088000.0,-5.293147885279818,5.615383875018103,6.011408088145236,-0.004886922,0.022907447,0.017104227,200.67024,-30.975061,-30.194912
2322269064000.0,-5.303230810945601,5.625065725979395,6.0238113,-0.014049901,0.02687807,0.021380283,200.65396,-30.973776,-30.210659
2322274076000.0,-5.296931359406785,5.634515018400157,6.0238113,-0.009773844,0.02443461,0.019547688,200.64055,-30.97527,-30.226171
2322279119000.0,-5.290592944779841,5.644022756165103,6.0238113,-0.007941248,0.021685716,0.01740966,200.62955,-30.969572,-30.241737
2322284024000.0,-5.2879726910989815,5.647165552010077,6.019085743151044,-0.0070249503,0.027794369,0.016798794,200.61737,-30.96478,-30.258598
2322289028000.0,-5.293002848252336,5.637105027605752,6.003995324215388,-0.019242255,0.02321288,0.02443461,200.60622,-30.958576,-30.271093
2322294065000.0,-5.2959743,5.6338579400744,5.996428927811971,-0.0067195175,0.025045475,0.022296581,200.59712,-30.958736,-30.285288
2322299095000.0,-5.2959743,5.640374316131214,5.999687013777478,-0.008246681,0.017715093,0.02443461,200.58757,-30.954973,-30.294167
2322304107000.0,-5.2959743,5.646867373148462,6.002933440588435,-0.005497787,0.021380283,0.02321288,200.57567,-30.95329,-30.309153
2322309101000.0,-5.291319631888287,5.650316,6.002330390245936,-0.013744468,0.011301007,0.028099801,200.56578,-30.950201,-30.317724
2322314086000.0,-5.281369580200083,5.650316,5.997355416350563,-0.020158553,0.013744468,0.029932396,200.55388,-30.947544,-30.330572
2322319140000.0,-5.266349612529551,5.652410261229314,5.982515651300236,-0.027488936,0.005497787,0.03481932,200.55176,-30.94207,-30.33796
2322325194000.0,-5.243505661702128,5.656979146808511,5.955102814893617,-0.014049901,0.009162978,0.030848695,200.54857,-30.939001,-30.34971
2322329383000.0,-5.228610413763374,5.6605455792874215,5.93762,-0.01282817,0.016187929,0.036957346,200.54008,-30.936552,-30.356089
2322334092000.0,-5.223926017762543,5.669914469118106,5.93762,-0.03573562,0.00580322,0.035430185,200.53737,-30.929811,-30.361208
2322339084000.0,-5.21997780526358,5.678737702206532,5.937002197961967,-0.022602014,0.0036651916,0.028099801,200.52126,-30.942661,-30.367035
2322344117000.0,-5.227712665690444,5.6748703325684025,5.929267377918639,-0.013133603,0.0027488936,0.032375857,200.50449,-30.95098,-30.369122
2322349040000.0,-5.235278474925781,5.671087487202118,5.921701608184225,-0.026267206,0.0061086523,0.030848695,200.48923,-30.956844,-30.371433
2322354105000.0,-5.224583609090909,5.67225592,5.910108607272727,-0.029626964,-0.004886922,0.025350908,200.47723,-30.96695,-30.370287
2322359099000.0,-5.2010816242260445,5.676956218810811,5.896007318191646,-0.01863139,-0.0012217305,0.034208454,200.45851,-30.979338,-30.371195
2322369121000.0,-5.170209799699344,5.6722401990707,5.978221131058674,-0.013439035,0.0009162979,0.0290161,200.45016,-30.984274,-30.376793
2322374068000.0,-5.160279424470319,5.666230747470891,6.015854092441305,-0.013133603,-0.00061086525,0.029932396,200.43805,-30.992985,-30.37984
2322379068000.0,-5.155709516090857,5.657090644397786,6.020424048539797,-0.009162978,-0.0061086523,0.03145956,200.42198,-31.003925,-30.37356
2322383997000.0,-5.149834966287959,5.649072404565725,6.0238113,-0.014966198,-0.0012217305,0.029932396,200.41034,-31.00879,-30.3633
2322389085000.0,-5.1394870072308345,5.643898722170312,6.0238113,-0.02076942,-0.00061086525,0.029321533,200.4002,-31.014898,-30.350864
2322394822000.0,-5.139639610996917,5.64289651356629,6.025968436091127,-0.008246681,0.00061086525,0.029932396,200.3924,-31.022804,-30.34157
2322399156000.0,-5.150304235354573,5.64645123987667,6.029523199520384,-0.01160644,0.0027488936,0.02687807,200.38553,-31.025011,-30.333736
2322404191000.0,-5.160585619806815,5.649659303046386,6.033716348476808,-0.01038471,0.009773844,0.025350908,200.386,-31.028706,-30.328697
2322409092000.0,-5.140657210126314,5.639694994161978,6.038698502919011,-0.014660766,0.007941248,0.025350908,200.38809,-31.030212,-30.32258
2322414079000.0,-5.125746694938752,5.630443595859842,6.042965,-0.01160644,0.013133603,0.03176499,200.38393,-31.034134,-30.320099
2322419096000.0,-5.139434181910549,5.625881274883676,6.042965,-0.01740966,0.014966198,0.022907447,200.3848,-31.032564,-30.319199
2322424207000.0,-5.150464218190174,5.621275722393048,6.042655315925802,-0.015271631,0.02076942,0.027794369,200.37778,-31.034794,-30.31071
2322429084000.0,-5.127048546390374,5.617373144385026,6.038752656417112,-0.01740966,0.01740966,0.029932396,200.37526,-31.032936,-30.302858
2322434118000.0,-5.102879079127674,5.613344934893048,6.0347243628008025,-0.017715093,0.025961773,0.02443461,200.36865,-31.029963,-30.302528
2322439028000.0,-5.098007048869512,5.60886268253067,6.042825982358309,-0.0061086523,0.02321288,0.021685716,200.36365,-31.030254,-30.298279
2322444088000.0,-5.102920322721282,5.603949613890298,6.057565547399372,-0.015577064,0.01985312,0.017104227,200.35902,-31.024555,-30.297308
2322449070000.0,-5.104438,5.5993761191787215,6.049895231983202,-0.021380283,0.013744468,0.018325957,200.3638,-31.020227,-30.290949
2322454089000.0,-5.104438,5.5948901683621095,6.0319518034437705,-0.0143553335,0.0143553335,0.015577064,200.3699,-31.015652,-30.287052
2322459029000.0,-5.097298913707194,5.5857159634039375,6.030950336596063,-0.013439035,0.012217305,0.013439035,200.37265,-31.011452,-30.28201
2322464853000.0,-5.081685681048801,5.5701028394326775,6.046563460567323,-0.019242255,0.004276057,0.013744468,200.37633,-31.007553,-30.27604
2322469087000.0,-5.085482233044719,5.5582596593460325,6.050586753804624,-0.015577064,0.003970624,0.011301007,200.37897,-31.00547,-30.273787
2322474081000.0,-5.109841273077315,5.543644133584598,6.045714996669044,-0.013439035,0.00030543262,0.013744468,200.38225,-31.002882,-30.268269
2322479116000.0,-5.125761090788263,5.533224309211737,6.042965,-0.005192355,-0.0030543262,0.0067195175,200.38614,-31.004509,-30.26473
2322484119000.0,-5.130659539801656,5.528325860198344,6.042965,-0.0018325958,-0.00030543262,0.011911872,200.38553,-31.00811,-30.259457
2322489068000.0,-5.141169504725236,5.519816396779839,6.050966295852293,-0.0036651916,-0.0012217305,0.0012217305,200.38974,-31.005154,-30.26184
2322494109000.0,-5.15806752957648,5.5071431428071405,6.06786387959398,-0.00580322,-0.009773844,0.0106901415,200.38806,-31.007303,-30.258833
2322499085000.0,-5.171476,5.498077059527592,6.084242126893338,0.0036651916,-0.008857546,0.0027488936,200.39314,-31.005531,-30.264141
2322504129000.0,-5.171476,5.503193719627157,6.099591840059316,0.008246681,-0.00580322,0.0067195175,200.3936,-31.005953,-30.264389
2322509008000.0,-5.1756369990463895,5.508050975543856,6.111389504509785,0.0030543262,-0.0076358155,0.007941248,200.40468,-30.993784,-30.267332
2322514095000.0,-5.190154833167775,5.512890169365252,6.11622879939406,0.016187929,-0.010995574,0.004581489,200.41518,-30.987312,-30.270695
2322519070000.0,-5.195903872319703,5.5162406,6.116352498894643,0.013133603,-0.010995574,0.0021380284,200.42639,-30.979603,-30.276207
2322524099000.0,-5.181012675620313,5.5162406,6.105184169397851,0.005192355,-0.016493361,0.00030543262,200.43967,-30.973696,-30.280003
2322529027000.0,-5.16642054650228,5.5162406,6.094240139220839,0.018936822,-0.016798794,-0.0012217305,200.44931,-30.974117,-30.288221
2322534573000.0,-5.172747166055994,5.527088728297632,6.076384791178128,0.014660766,-0.021991149,-0.007941248,200.46248,-30.967674,-30.295048
2322539043000.0,-5.184812680430289,5.539154200676438,6.060297452677565,0.025045475,-0.021991149,-0.008246681,200.47298,-30.968887,-30.301931
2322544073000.0,-5.182505157765319,5.55309531395692,6.066082223261533,0.015271631,-0.022907447,-0.005497787,200.49039,-30.96449,-30.30684
2322549112000.0,-5.168265658453821,5.567334763706108,6.08981463951018,0.017715093,-0.016187929,-0.003970624,200.50616,-30.965343,-30.313496
2322554150000.0,-5.159184106932004,5.5628416576343644,6.094995828817182,0.02107485,-0.0076358155,-0.00580322,200.51811,-30.968887,-30.324772
2322559031000.0,-5.154425976567589,5.543808838070032,6.085479419035017,0.018936822,-0.012217305,-0.01160644,200.53166,-30.971397,-30.334616
2322564028000.0,-5.149760351945727,5.543079496410063,6.076148398143786,0.021380283,-0.018325957,-0.01038471,200.54164,-30.982141,-30.341028
2322569059000.0,-5.145220316489211,5.55669898652596,6.067068848676152,0.022907447,-0.008552114,-0.004581489,200.54944,-30.991932,-30.349886
2322574066000.0,-5.132415378656503,5.566190524268699,6.0621185,0.016187929,-0.010995574,-0.006414085,200.55627,-31.000744,-30.355865
2322579057000.0,-5.109643673654121,5.570744865269176,6.0621185,0.01038471,-0.013133603,-0.007941248,200.55943,-31.01095,-30.36283
2322584079000.0,-5.1001239083881575,5.5737014,6.063872802796053,0.014049901,-0.013133603,-0.02076942,200.56927,-31.02164,-30.372194
2322589086000.0,-5.1149114405427625,5.5737014,6.068801980180921,0.015882496,-0.018020526,-0.016187929,200.57611,-31.033129,-30.376926
2322594089000.0,-5.118340604834639,5.5737014,6.0716953,0.018020526,-0.022296581,-0.007941248,200.58597,-31.052065,-30.383493
2322599256000.0,-5.105195808991898,5.5737014,6.0716953,0.015271631,-0.02443461,-0.006414085,200.59679,-31.069614,-30.389381
2322604274000.0,-5.092430067645105,5.5737014,6.0716953,0.013439035,-0.025350908,-0.010079277,200.60864,-31.083729,-30.394419
2322609071000.0,-5.085284,5.5737014,6.06380441694125,0.0076358155,-0.028710667,-0.014049901,200.62091,-31.096287,-30.39791
2322614108000.0,-5.085284,5.5737014,6.043811269070563,0.017104227,-0.032070424,-0.009773844,200.63193,-31.112556,-30.400124
2322619087000.0,-5.089162268823681,5.577579587832372,6.02563166483091,0.026572637,-0.033292156,-0.01740966,200.6376,-31.132462,-30.399874
2322624356000.0,-5.097846756045091,5.586263893692453,6.008263143791412,0.029932396,-0.03145956,-0.025045475,200.64227,-31.153414,-30.398743
2322629097000.0,-5.105625882213307,5.5922610402875295,5.995081,0.023823744,-0.03359759,-0.019242255,200.6475,-31.173695,-30.39597
2322634090000.0,-5.11361927290204,5.588264219742561,5.995081,0.021685716,-0.030848695,-0.019547688,200.65498,-31.192976,-30.3969
2322639036000.0,-5.1215374203778,5.584305021982615,5.995081,0.024129177,-0.025350908,-0.014660766,200.65962,-31.213541,-30.398224
2322644090000.0,-5.120787509254658,5.586081949301242,6.017512096684783,0.014966198,-0.027183503,-0.016187929,200.66692,-31.229464,-30.399443
2322650232000.0,-5.1162206842857145,5.590648869642857,6.05404664875,0.02076942,-0.023823744,-0.013133603,200.66959,-31.250626,-30.401281
2322654090000.0,-5.11612636261343,5.592151064428312,6.075918817876588,0.0143553335,-0.02443461,-0.013439035,200.67027,-31.266788,-30.404305
2322659091000.0,-5.127979252433591,5.588200018643788,6.099624556261343,0.014660766,-0.017715093,-0.0076358155,200.6665,-31.286983,-30.407997
2322664052000.0,-5.139737338096023,5.584280574905131,6.1231406866606175,0.022907447,-0.01740966,-0.014660766,200.66632,-31.307312,-30.408758
2322669098000.0,-5.142745,5.598597148568524,6.116900745129596,0.011301007,-0.017715093,-0.007941248,200.65996,-31.325974,-30.407475
2322674288000.0,-5.142745,5.619647289174996,6.100060720565814,0.018325957,-0.015271631,-0.01282817,200.6581,-31.34721,-30.409973
2322679051000.0,-5.140822003965769,5.631162,6.081234220622,0.022602014,-0.008857546,-0.0012217305,200.65099,-31.363665,-30.408821
2322684159000.0,-5.135716669380088,5.631162,6.055708080776456,0.016493361,-0.002443461,-0.004581489,200.64873,-31.375696,-30.41159
2322689083000.0,-5.135225724499955,5.629104361444474,6.0511956831387455,0.014966198,-0.011911872,-0.007330383,200.648,-31.396643,-30.413227
2322694099000.0,-5.1395734692732375,5.624756798262286,6.068586208254141,0.010995574,-0.002443461,-0.003970624,200.64162,-31.415636,-30.419933
2322699075000.0,-5.145729126735016,5.623574817823344,6.078287945970032,0.015577064,0.007330383,-0.002443461,200.63945,-31.435406,-30.426235
2322704108000.0,-5.15713315851735,5.631177505678234,6.0668841920347,0.014660766,0.0021380284,-0.010995574,200.64029,-31.451462,-30.432196
2322709000000.0,-5.168217705205048,5.638567203470032,6.055799915410095,0.011911872,0.011301007,-0.0106901415,200.63174,-31.467932,-30.439892
2322714081000.0,-5.171476,5.629779386004869,6.041581743226263,0.010995574,0.0021380284,-0.010995574,200.63045,-31.482723,-30.443594
2322719876000.0,-5.171476,5.612345051362602,6.024147499607319,-0.002443461,-0.004581489,-0.00580322,200.62543,-31.49466,-30.44869
2322724144000.0,-5.174562766956522,5.603203679652174,6.017321283072463,-0.0033597588,-0.005497787,-0.004886922,200.61766,-31.510685,-30.455864
2322729104000.0,-5.190297981863354,5.607137421763976,6.033056580132505,0.019547688,-0.0030543262,0.00030543262,200.60825,-31.5304,-30.460493
2322734028000.0,-5.205918989565217,5.611042612521739,6.048677669391304,0.008246681,-0.0033597588,0.004581489,200.59735,-31.539473,-30.465393
2322739083000.0,-5.195017195290525,5.5972427952905255,6.0436822171743145,0.0125227375,-0.005497787,0.0021380284,200.58702,-31.556723,-30.470556
2322744149000.0,-5.175521869083019,5.577747469083019,6.031985021449811,0.00580322,-0.011301007,0.00061086525,200.57645,-31.569363,-30.473839
2322749150000.0,-5.161899,5.561901224058478,6.031593127403465,0.010995574,-0.0070249503,-0.004276057,200.56552,-31.580809,-30.479393
