timestamp,acc_x,acc_y,acc_z,gyro_x,gyro_y,gyro_z,ori_azimuth,ori_pitch,ori_roll
696683100000.0,2.285339357475641,9.615114,-0.2593950612830123,-1.1343768,0.71929383,0.037873644,109.99614,165.98541,-3.4849048
696688112000.0,2.287731586112288,9.615114,-0.2627441876191781,-1.1343768,0.74281216,0.028099801,110.01243,165.97765,-3.4845846
696693110000.0,2.290117132546039,9.615114,-0.2660839588538464,-1.1768318,0.74067414,0.03145956,110.68112,167.15402,-3.0248744
696698113000.0,2.292505065480825,9.615114,-0.2694270711961923,-1.1704178,0.73792523,0.037873644,111.31899,168.31227,-2.5456152
696703065000.0,2.294868656105061,9.615114,-0.2727361042402253,-1.1701124,0.7464773,0.031154128,111.92428,169.48041,-2.0515199
696708041000.0,2.297243701934262,9.615114,-0.2760611746011114,-1.183246,0.7339546,0.030848695,112.50188,170.6469,-1.5542827
696713054000.0,2.299636407871116,9.615114,-0.2794109691588128,-1.1701124,0.7275405,0.030848695,113.04874,171.80185,-1.0431237
696718194000.0,2.302089730934237,9.615114,-0.2828456278515288,-1.1499538,0.7296785,0.024740042,113.56426,172.95483,-0.5246277
696723170000.0,2.304464776763438,9.615114,-0.286170698212415,-1.1597277,0.75991637,0.038179077,114.057045,174.109,0.006528378
696728061000.0,2.306799252075058,9.615114,-0.2894389697427795,-1.1826351,0.7858781,0.04337143,114.516884,175.25732,0.5436903
696733078000.0,2.309193867212739,9.615114,-0.2927914371866231,-1.2195925,0.8191703,0.061391957,114.95657,176.40848,1.0960768
696738063000.0,2.311573208743801,9.615114,-0.2961225215413292,-1.5757269,0.7770206,0.06261369,115.363785,177.65352,1.6387693
696743207000.0,2.3140284410077503,9.615114,-0.2995598531201874,-1.255328,0.7669413,0.06169739,115.74907,178.711,2.2031004
696748142000.0,2.3163839175284706,9.615114,-0.3028575263981161,-1.2434162,0.7687739,0.06872234,116.10861,179.95428,2.7620473
696753075000.0,2.3187384394487776,9.615114,-0.3061538632329736,-1.2391402,0.75533485,0.07422013,116.440926,-178.89647,3.3153465
696758052000.0,2.3211139625781856,9.615114,-0.3094796018153953,-1.2434162,0.7480045,0.089491755,116.75199,-177.75316,3.8717377
696763040000.0,2.3234947360098683,9.615114,-0.3128126908347081,-1.2412782,0.73426,0.10293079,117.03888,-176.61787,4.4224687
696768202000.0,2.32595855967754,9.615114,-0.3162620504012061,-1.2504412,0.70280045,0.105374254,117.302734,-175.48329,4.965252
696773114000.0,2.328303058293504,9.615114,-0.3195443545838172,-1.2024882,0.64568454,0.11453723,117.54952,-174.37134,5.495689
696778060000.0,2.3306637851164997,9.615114,-0.3228493782986369,-1.0922271,0.59681535,0.11148291,117.77133,-173.27965,6.0171156
696783081000.0,2.3330603094550075,9.615114,-0.3262045186286227,-0.97402465,0.5342017,0.10048734,117.97412,-172.20926,6.515602
696788063000.0,2.335438219085449,9.615114,-0.3295335983187221,-0.82619524,0.4831944,0.09285152,118.15801,-171.184,7.0001125
696793134000.0,2.3378586084343,9.615114,-0.3329221497254853,-0.68752885,0.44318274,0.08093964,118.32051,-170.19443,7.4654126
696798153000.0,2.340254178172394,9.615114,-0.3362759536124,-0.5580254,0.39706242,0.04917465,118.46002,-169.24817,7.908676
696803063000.0,2.342597722187944,9.615114,-0.33955692135194,-0.43554693,0.15332718,0.022907447,118.59467,-168.34381,8.279842
696808049000.0,2.344977541019213,9.615114,-0.3428886739281816,0.055283304,0.10903945,0.009468411,118.70016,-167.58429,8.687797
696813055000.0,2.347366905854619,9.615114,-0.3462337909351342,0.12705997,0.14019357,0.013744468,118.79974,-166.74445,9.0432415
696818213000.0,2.3498288203214632,9.615114,-0.3496804776154901,0.07269296,0.16035213,0.013439035,118.885635,-166.01028,9.376819
696823108000.0,2.3521652048339106,9.615114,-0.3529514220319968,0.062002823,0.1563815,0.0061086523,118.945206,-165.30708,9.703821
696828058000.0,2.3545278408577337,9.615114,-0.3562591186329587,0.064751714,0.16035213,0.008857546,118.99395,-164.59573,10.033618
696833046000.0,2.3569086142894164,9.615114,-0.3595922076522714,0.070554934,0.16157386,0.0015271631,119.0273,-163.88441,10.354383
696838038000.0,2.359291296921927,9.615114,-0.3629279695577263,0.0580322,0.15424347,0.008857546,119.05538,-163.17288,10.669346
696843204000.0,2.361757029790426,9.615114,-0.3663800020103666,0.05681047,0.15302174,0.007330383,119.06826,-162.46863,10.978924
696848713000.0,2.364386476629869,9.615114,-0.3700612344496997,0.0571159,0.15699236,-0.0036651916,119.071144,-161.76468,11.281536
696853056000.0,2.366459391428144,9.615114,-0.3729633205785841,0.0580322,0.16554448,0.004886922,119.06956,-161.06529,11.580501
696858042000.0,2.3688392102594134,9.615114,-0.3762950731548257,0.06169739,0.16432275,0.0009162979,119.05337,-160.3692,11.86941
696863040000.0,2.3712247566931643,9.615114,-0.3796348443894939,0.067500606,0.16829337,0.0030543262,119.03156,-159.67886,12.157046
696868138000.0,2.373658033147599,9.615114,-0.3830414377777169,0.053450707,0.16707164,0.005192355,119.00147,-158.98792,12.436155
696873198000.0,2.376073172194174,9.615114,-0.386422638747589,0.061391957,0.1704314,0.0018325958,118.96213,-158.30878,12.710698
696878055000.0,2.3783914192987616,9.615114,-0.389668190745745,0.04795292,0.17440203,0.00580322,118.91834,-157.62488,12.9795885
696883042000.0,2.380771715430237,9.615114,-0.3930006115435221,0.03726278,0.17745635,0.011301007,118.86715,-156.94844,13.242422
696888037000.0,2.383155829963368,9.615114,-0.3963383781135837,0.040317107,0.17134771,0.004886922,118.8082,-156.2763,13.496417
696893130000.0,2.3855867199167684,9.615114,-0.3997416303941289,0.034208454,0.16768251,-0.002443461,118.74397,-155.60393,13.74578
696898139000.0,2.3879775166527946,9.615114,-0.4030887520656881,0.03359759,0.160963,0.0030543262,118.677155,-154.93948,13.987042
696903176000.0,2.390381677794612,9.615114,-0.4064545839402427,0.030848695,0.15057829,0.0027488936,118.602776,-154.27698,14.218329
696908043000.0,2.3927046979012685,9.615114,-0.4097068181537541,0.024740042,0.13622294,0.009773844,118.52863,-153.61972,14.442137
696913040000.0,2.395089767034813,9.615114,-0.4130459211668868,0.030543262,0.13500121,-0.00030543262,118.44536,-152.96907,14.65802
696918833000.0,2.397854767132996,9.615114,-0.4169169285223155,0.032375857,0.12522738,-0.002443461,118.36538,-152.3224,14.863865
696923112000.0,2.3998971347180342,9.615114,-0.4197762484729248,0.02321288,0.121256754,-0.003970624,118.27888,-151.67923,15.06345
696928067000.0,2.4022621572428915,9.615114,-0.4230872861815645,0.022602014,0.112704635,0.004276057,118.193405,-151.04532,15.254528
696938039000.0,2.40702179490543,9.615114,-0.4297507913340477,0.025350908,0.10445796,-0.002443461,118.101585,-150.4143,15.436411
696943225000.0,2.409497073778065,9.615114,-0.4332161882173989,0.017104227,0.11148291,0.0033597588,118.01162,-149.78792,15.617136
696948140000.0,2.4118430042946497,9.615114,-0.4365004970646166,0.014049901,0.10445796,0.0030543262,117.91981,-149.16866,15.784824
696953051000.0,2.4141870256104063,9.615114,-0.4397821330256921,0.016187929,0.09315695,0.006414085,117.828224,-148.55562,15.949001
696958040000.0,2.416568276342296,9.615114,-0.4431158902665404,0.022907447,0.09101892,-0.004581489,117.731155,-147.94789,16.105885
696963040000.0,2.418954777376461,9.615114,-0.4464569979442797,0.023518313,0.08674286,0.003970624,117.64077,-147.3476,16.257793
696968259000.0,2.421445807155922,9.615114,-0.449944446138304,0.019547688,0.09132435,0.005192355,117.5438,-146.75253,16.403135
696973122000.0,2.4237669180617507,9.615114,-0.4531940074656732,0.014049901,0.077579886,-0.004276057,117.44953,-146.16347,16.53764
696978065000.0,2.426126212984126,9.615114,-0.4564970265158863,0.018020526,0.06414085,0.0036651916,117.358536,-145.58423,16.671383
696983046000.0,2.428503645314361,9.615114,-0.4598254379844502,0.021380283,0.06872234,0.011301007,117.2642,-145.00899,16.799646
696988289000.0,2.4310061302987864,9.615114,-0.4633289234953276,0.024129177,0.063224554,0.009468411,117.17372,-144.44112,16.917536
696993238000.0,2.4333682890224027,9.615114,-0.4666359518747539,0.018936822,0.057726767,0.01038471,117.085144,-143.87973,17.03368
696998120000.0,2.435698468632161,9.615114,-0.4698982094112985,0.015882496,0.055283304,0.0143553335,116.99773,-143.32648,17.145037
697003045000.0,2.438049172150813,9.615114,-0.4731892004738718,0.019547688,0.061086524,0.005192355,116.90748,-142.77905,17.250471
697008041000.0,2.440433763984151,9.615114,-0.4765276352654689,0.0290161,0.058643065,0.0012217305,116.82217,-142.2401,17.350954
697013054000.0,2.441862171698416,9.61466694028474,-0.4809266225766994,0.025350908,0.05009095,-0.0036651916,116.73556,-141.70432,17.44542
697018248000.0,2.44111410082314,9.61317078811911,-0.4879086456201123,0.021685716,0.058337633,0.0030543262,116.64895,-141.17865,17.540462
697028058000.0,2.4397012060818124,9.61034497896531,-0.5010957164818528,0.028099801,0.06261369,0.013439035,116.54822,-140.66032,17.639587
697033048000.0,2.43898251650391,9.60890758980349,-0.5078035129752356,0.02565634,0.06536258,0.0106901415,116.44605,-140.14474,17.734606
697038044000.0,2.438262962770202,9.607468472318027,-0.514519374955384,0.02321288,0.06352998,0.002443461,116.34646,-139.63812,17.82623
697043242000.0,2.4375143157910566,9.605971167936636,-0.521506774989974,0.030543262,0.054367006,0.0015271631,116.25038,-139.14072,17.913687
697048171000.0,2.4368044117971723,9.60455135006517,-0.5281325723679066,0.026267206,0.058337633,0.004581489,116.15272,-138.64592,17.99871
697053053000.0,2.4361012770237616,9.603145070728896,-0.5346951900995087,0.02321288,0.056505036,0.01160644,116.06063,-138.1605,18.077492
697058058000.0,2.435380427056346,9.601703360757972,-0.5414231503098055,0.025045475,0.0571159,0.0067195175,115.96722,-137.68094,18.15213
697063043000.0,2.4346624576082814,9.600267411865852,-0.548124225564217,0.02107485,0.045814894,-0.009773844,115.87779,-137.20526,18.219471
697068240000.0,2.433913954655103,9.5987703955384,-0.5551102813510127,0.00061086525,0.047036625,-0.0036651916,115.79141,-136.73471,18.289648
697073127000.0,2.433210099751854,9.597362675932423,-0.5616796203215861,-0.0067195175,0.047647487,-0.0036651916,115.70511,-136.27052,18.349602
697078073000.0,2.432497747316523,9.595937961143974,-0.5683282699120212,-0.0033597588,0.048258353,0.0021380284,115.62335,-135.81212,18.409172
697083050000.0,2.431780930076198,9.594504316683375,-0.5750185911840786,-0.004276057,0.047036625,-0.0027488936,115.54208,-135.35622,18.463238
697088041000.0,2.431062096472328,9.593066639467615,-0.5817277319252556,-0.010079277,0.044593163,-0.004581489,115.465225,-134.90784,18.516148
697093247000.0,2.430312297285442,9.591567030654703,-0.5887258859421998,-0.005192355,0.04550946,-0.0015271631,115.390396,-134.46875,18.566708
697098158000.0,2.429604985758973,9.590152397754162,-0.5953274868598356,-0.0015271631,0.041233405,-0.0030543262,115.31862,-134.03378,18.6118
697103052000.0,2.428900122673952,9.588742661770604,-0.6019062355649689,-0.008552114,0.051618114,-0.008552114,115.24572,-133.60394,18.657024
697108046000.0,2.42818085699218,9.58730412039302,-0.6086194090495288,-0.014660766,0.04642576,-0.0027488936,115.18193,-133.18321,18.698296
697113042000.0,2.427461303258472,9.58586500290756,-0.6153352710296771,-0.01863139,0.03970624,-0.00061086525,115.11705,-132.76671,18.736866
697118171000.0,2.4267225940710846,9.584387574248044,-0.6222299179664628,-0.012217305,0.04795292,-0.004581489,115.05254,-132.35786,18.774864
697123123000.0,2.426009377479948,9.582961131135953,-0.6288866330436635,-0.014049901,0.043676864,0.00030543262,114.997375,-131.95406,18.809746
697128080000.0,2.425295440758973,9.58153324775416,-0.6355500693598356,-0.019547688,0.046731193,0.0027488936,114.94008,-131.55661,18.843912
697133052000.0,2.424579343648486,9.580101043563264,-0.6422336693929216,-0.021380283,0.039095376,-0.002443461,114.88863,-131.16573,18.87287
697138068000.0,2.423856909395428,9.578656164998998,-0.6489764163289553,-0.021991149,0.032375857,0.0036651916,114.84155,-130.7822,18.903791
697143264000.0,2.4231085504682173,9.577159436725486,-0.6559611278679567,-0.022602014,0.031154128,-0.0018325958,114.79474,-130.40225,18.92876
697148105000.0,2.4224113207594744,9.575764967600762,-0.662468631439994,-0.015577064,0.03176499,0.0021380284,114.7547,-130.03262,18.95483
697153059000.0,2.4216978161164024,9.57433794838079,-0.6691280350127833,-0.021685716,0.03023783,-0.0027488936,114.715744,-129.66385,18.975475
697158042000.0,2.4209801347202724,9.572902575596553,-0.6758264217716061,-0.02107485,0.02076942,-0.002443461,114.683044,-129.30602,18.995565
697163041000.0,2.4202601489086626,9.571462593949269,-0.6825463164951373,-0.027183503,0.02687807,0.004581489,114.64994,-128.9515,19.017044
697168180000.0,2.4195199994616,9.56998228475035,-0.6894544059098656,-0.028405234,0.016798794,0.002443461,114.62449,-128.60318,19.031
697173756000.0,2.418716910666733,9.568376095979549,-0.6969499316106877,-0.02687807,0.011911872,-0.0012217305,114.59993,-128.26093,19.04686
697178068000.0,2.4180958706948066,9.567134007389212,-0.7027463280995588,-0.028099801,0.004581489,0.003970624,114.582436,-127.92476,19.061218
697183048000.0,2.417378621376579,9.565699498766794,-0.709440682114999,-0.0290161,-0.0030543262,-0.0009162979,114.56668,-127.592896,19.070478
697188069000.0,2.4166554669936837,9.564253179932823,-0.716190150290004,-0.025961773,-0.0061086523,0.0018325958,114.556465,-127.26957,19.081457
697193269000.0,2.4159065319626025,9.562755299443554,-0.7231802388201825,-0.03756821,-0.010995574,0.002443461,114.55023,-126.94725,19.088469
697198140000.0,2.4152049814748344,9.561352188700624,-0.7297280698260478,-0.03970624,-0.018020526,0.0027488936,114.548386,-126.63408,19.094526
697203137000.0,2.41448528371516,9.55991278316122,-0.7364452760539903,-0.036957346,-0.017104227,0.005192355,114.54882,-126.325455,19.10104
697208045000.0,2.4137784042665933,9.558499014422498,-0.7430428442282434,-0.03634648,-0.027488936,0.0070249503,114.55656,-126.021454,19.104141
697213050000.0,2.410584260778268,9.559038576844852,-0.7438238840418567,-0.03940081,-0.02443461,0.0015271631,114.5624,-125.72204,19.10761
697218271000.0,2.403588072249901,9.5625366893724,-0.7358282407548811,-0.043982297,-0.039095376,0.002443461,114.57936,-125.42925,19.108507
697223226000.0,2.396948326193962,9.565856579733248,-0.7282399602555581,-0.043676864,-0.046731193,0.0018325958,114.588554,-125.14881,19.098385
697228101000.0,2.3904157808816104,9.56912286944246,-0.7207741948803414,-0.04642576,-0.05009095,-0.007330383,114.601845,-124.870415,19.084766
697233076000.0,2.383749234639775,9.57245615996622,-0.713155285599992,-0.042760566,-0.05467244,-0.004276057,114.6216,-124.600586,19.07281
697238076000.0,2.377049188165568,9.575806200693616,-0.7054980903433594,-0.043982297,-0.06047566,-0.005497787,114.64289,-124.331795,19.05699
697243844000.0,2.369320014552923,9.57967080767674,-0.6966647498953081,-0.044898596,-0.062002823,-0.004581489,114.667435,-124.0697,19.042501
697248156000.0,2.3635418944735678,9.582559882800046,-0.6900611847059882,-0.04795292,-0.071776666,-0.00061086525,114.69833,-123.81202,19.026688
697253098000.0,2.356919568538461,9.585871063055004,-0.6824928129143326,-0.040011674,-0.07513642,0.0009162979,114.73001,-123.56122,19.011324
697258079000.0,2.350244982240856,9.589208373627637,-0.6748647149996752,-0.043676864,-0.07422013,-0.0070249503,114.76461,-123.31084,18.994036
697263072000.0,2.3435543158317134,9.592553724298014,-0.6672182398164019,-0.04550946,-0.0711658,-0.002443461,114.80373,-123.06973,18.980352
697268287000.0,2.336566167359116,9.59604781677669,-0.6592317851637342,-0.046731193,-0.076358154,-0.005497787,114.84476,-122.829895,18.962036
697273141000.0,2.3300617622419555,9.599300036314846,-0.6517981800085952,-0.05131268,-0.08124508,0.00061086525,114.888916,-122.595795,18.947943
697283070000.0,2.316756809953476,9.60595254719131,-0.6365925216679743,-0.046120327,-0.09040806,-0.0009162979,114.93621,-122.36631,18.93022
697288074000.0,2.3100514034420896,9.609305267951289,-0.6289292006551364,-0.042760566,-0.092240654,0.005192355,114.98674,-122.14221,18.916662
697293211000.0,2.3031677756944897,9.612747099794614,-0.6210621982484721,-0.045814894,-0.092240654,0.0021380284,115.03972,-121.920334,18.899794
697298161000.0,2.2965347296850247,9.616063640114737,-0.6134815749444058,-0.054061573,-0.0888809,0.0036651916,115.0956,-121.70419,18.886225
697303084000.0,2.2899378639265207,9.619362090214931,-0.6059423004947254,-0.046731193,-0.0888809,0.0067195175,115.15401,-121.49486,18.872229
697308075000.0,2.2832498775359675,9.62270610086902,-0.5982988881895548,-0.049480084,-0.087659165,0.0015271631,115.212074,-121.284424,18.857452
697313382000.0,2.2761384482082443,9.626261834097075,-0.590171541144165,-0.04642576,-0.09621128,0.0070249503,115.276375,-121.083496,18.845407
697318299000.0,2.2695496225055094,9.629556264148398,-0.5826414553287925,-0.05131268,-0.09773844,0.002443461,115.338135,-120.88152,18.83082
697323152000.0,2.263046557397644,9.63280781367841,-0.575209381612705,-0.038179077,-0.08857546,0.0061086523,115.40271,-120.690704,18.820452
697328100000.0,2.2564161914067693,9.63612301398224,-0.5676318211867414,-0.044898596,-0.08827003,0.0076358155,115.47088,-120.49713,18.807526
697333075000.0,2.249749645164933,9.639456304506,-0.5600129119063919,-0.028099801,-0.0870483,0.008246681,115.53817,-120.315994,18.796904
697338080000.0,2.2430428986442523,9.642809695274122,-0.5523480594545027,-0.040317107,-0.09285152,0.008246681,115.60894,-120.13094,18.786121
697343301000.0,2.2360467101158856,9.646307807801673,-0.544352416167527,-0.038179077,-0.09162979,0.0021380284,115.67822,-119.9554,18.775236
697348158000.0,2.2295382849708414,9.649562037364264,-0.5369142166952342,-0.03481932,-0.089186326,0.01160644,115.75207,-119.78395,18.76831
697353082000.0,2.2229400792030423,9.652861157472604,-0.5293734108065025,-0.045814894,-0.09285152,0.01038471,115.82661,-119.610344,18.756844
697358077000.0,2.2162467327753097,9.656207848159273,-0.5217238727451264,-0.029932396,-0.083383106,0.00580322,115.89888,-119.44795,18.749115
697363078000.0,2.209545346291808,9.659558558894814,-0.5140651460494425,-0.030848695,-0.093462385,0.007330383,115.97949,-119.28392,18.740452
697368213000.0,2.202664398562798,9.662999050721847,-0.506201206520881,-0.037873644,-0.08979719,0.009773844,116.054474,-119.12473,18.73381
697373243000.0,2.195924151809746,9.66636919169361,-0.4984980680927086,-0.03268129,-0.07971791,0.008246681,116.13138,-118.970825,18.726505
697378076000.0,2.1894478868877774,9.669607341060711,-0.4910966231576475,-0.032070424,-0.05955936,0.0106901415,116.206345,-118.81894,18.722757
697383096000.0,2.182721040227673,9.672970781951015,-0.4834087991199884,-0.035124753,-0.064751714,0.004886922,116.28561,-118.66873,18.715113
697388078000.0,2.176045113920774,9.676308762531797,-0.4757791697662797,-0.028710667,-0.065973446,0.008552114,116.360634,-118.52612,18.713528
697393305000.0,2.1690408853366385,9.679810895108217,-0.467774337844996,-0.027794369,-0.054367006,0.0076358155,116.43347,-118.38285,18.710304
697398180000.0,2.162508340024287,9.683077184817426,-0.4603085724697793,-0.032070424,-0.0580322,0.004581489,116.51215,-118.243164,18.706032
697403078000.0,2.1559449744981536,9.686358884713984,-0.452807583996382,-0.02687807,-0.048258353,0.0036651916,116.585,-118.10887,18.704985
697408081000.0,2.149240907996062,9.689710935465817,-0.4451457944225955,-0.023823744,-0.04184427,0.004276057,116.66067,-117.975914,18.703083
697413077000.0,2.145773764241796,9.692961751896512,-0.4371193122124092,-0.023823744,-0.03634648,0.003970624,116.734634,-117.84594,18.701876
697418262000.0,2.147260699520882,9.696183434650244,-0.4281976944308273,-0.02107485,-0.030543262,0.0027488936,116.80767,-117.719925,18.701511
697423127000.0,2.1486558663738724,9.699206286452927,-0.4198266875827278,-0.018020526,-0.028099801,0.004276057,116.84034,-117.53755,18.669456
697428131000.0,2.150090895136948,9.702315505449972,-0.4112165091103968,-0.011301007,-0.022602014,0.0015271631,116.871216,-117.35918,18.637531
697433125000.0,2.1515230561367087,9.705418510979795,-0.4026235372297373,-0.005192355,-0.014049901,0.007941248,116.90289,-117.18713,18.609735
697438132000.0,2.152958945228779,9.708529594017008,-0.3940081967799049,-0.0036651916,-0.0036651916,0.009162978,116.93282,-117.01756,18.581236
697443183000.0,2.154407452479438,9.71166801630999,-0.3853171473267188,0.01160644,-0.00030543262,0.009468411,116.9641,-116.85664,18.554972
697448105000.0,2.155818965583326,9.714726284875828,-0.3768480629060928,0.01985312,0.0030543262,0.008552114,116.99374,-116.69797,18.530247
697453129000.0,2.157259729873034,9.717847930807316,-0.3682034712504192,0.011301007,0.00030543262,0.007941248,117.02543,-116.54237,18.50594
697458082000.0,2.158680133043201,9.720925461121537,-0.359681046395612,0.022907447,0.016493361,0.009468411,117.0521,-116.395935,18.484566
697463073000.0,2.160111433713966,9.724026602611197,-0.3510932364924539,0.024129177,0.024740042,0.0143553335,117.083244,-116.24939,18.463427
697468313000.0,2.161614141691288,9.72728245943464,-0.3420769824566797,0.035430185,0.025350908,0.007941248,117.112175,-116.1082,18.440893
697473203000.0,2.163016477952568,9.730320844905377,-0.3336629591294019,0.04153884,0.032375857,0.011911872,117.139534,-115.972336,18.424253
697478086000.0,2.164416806779526,9.733354880949054,-0.325260980416294,0.031154128,0.03481932,0.014966198,117.168434,-115.83682,18.40569
697483046000.0,2.165839217384013,9.73643676069033,-0.3167265109473169,0.03726278,0.03481932,0.011301007,117.19685,-115.70799,18.387177
697488045000.0,2.167272812265432,9.739542872953765,-0.3081249357708217,0.03359759,0.03726278,0.007941248,117.225266,-115.578674,18.370384
697493310000.0,2.1687826896510423,9.74281426344526,-0.2990656652558692,0.03023783,0.03268129,0.019547688,117.2578,-115.45569,18.35642
697498735000.0,2.170338451249701,9.74618506941228,-0.2897310892741755,0.026572637,0.03848451,0.01282817,117.28565,-115.330086,18.338078
697503117000.0,2.171595105134553,9.748907810748223,-0.282191160803801,0.040011674,0.04062254,0.008857546,117.31819,-115.21277,18.323254
697508046000.0,2.1730086256727623,9.751970428741116,-0.273710031769005,0.05222898,0.053450707,0.0125227375,117.34707,-115.097305,18.310461
697513037000.0,2.174439926343528,9.755071570230776,-0.2651222218658468,0.06291912,0.050701816,0.02443461,117.38113,-114.98756,18.298061
697518305000.0,2.175950664058133,9.758344824762435,-0.2560577893733929,0.061086524,0.06078109,0.027794369,117.408264,-114.87911,18.286829
697523133000.0,2.177335220186856,9.761344686736406,-0.2477504469144773,0.076358154,0.060170226,0.030848695,117.441216,-114.78071,18.277882
697528097000.0,2.1787587778966704,9.76442905186457,-0.2392090948088317,0.09193522,0.06566802,0.033292156,117.47062,-114.6848,18.27126
697533046000.0,2.1801780339615107,9.767504096791903,-0.2306935525906931,0.0888809,0.07238753,0.03268129,117.500626,-114.59034,18.264868
697538042000.0,2.1816107685139343,9.770608345015171,-0.2220971393916992,0.09560041,0.07727446,0.03726278,117.53104,-114.50429,18.261036
697543300000.0,2.183118638465224,9.773875386079611,-0.2130499134909167,0.09987647,0.07391469,0.045814894,117.56296,-114.41987,18.258158
697548163000.0,2.184513231765552,9.776896995188851,-0.2046823479611514,0.108123146,0.065973446,0.04550946,117.595184,-114.33838,18.254253
697553053000.0,2.1859155680268305,9.779935380659586,-0.1962683246338736,0.10567969,0.071776666,0.051618114,117.626396,-114.260735,18.255384
697558048000.0,2.1873480158029226,9.783039007536134,-0.1876736320940469,0.108123146,0.07452556,0.04550946,117.660385,-114.18449,18.252272
697563038000.0,2.188779029697357,9.78613952767907,-0.1790875428500559,0.10934488,0.059253927,0.044898596,117.69956,-114.111755,18.251446
697570536000.0,2.1909292786313186,9.790798385400862,-0.1661860404148966,0.10598512,0.06352998,0.045814894,117.73254,-114.03926,18.251213
697573110000.0,2.191667440908728,9.792397731863373,-0.1617570637186975,0.103847094,0.064446285,0.05100725,117.771805,-113.96962,18.250635
697578121000.0,2.1931044771061248,9.79551130028747,-0.1531348406321967,0.113926366,0.07269296,0.04917465,117.8078,-113.90181,18.24938
697583053000.0,2.194518857973329,9.79857578232053,-0.1446485496198993,0.11026118,0.071776666,0.05100725,117.847466,-113.8346,18.250002
697588044000.0,2.195950158644095,9.80167692381019,-0.1360607397167411,0.10720685,0.0711658,0.049480084,117.88479,-113.76964,18.249918
697593349000.0,2.197471507082968,9.804973168170566,-0.1269326428351034,0.10720685,0.0720821,0.054367006,117.92314,-113.70785,18.25222
697598233000.0,2.1988721226862573,9.808007825560969,-0.1185289434628283,0.112399206,0.07452556,0.05375614,117.9612,-113.6463,18.252718
697603091000.0,2.200265282104927,9.811026327936595,-0.1101699812288988,0.12034045,0.0720821,0.048563786,118.00095,-113.58669,18.253048
697608077000.0,2.201695148894035,9.814124362692644,-0.1015907746215762,0.116675265,0.059253927,0.047036625,118.04377,-113.527954,18.25367
697613055000.0,2.2018273682617333,9.814093322394497,-0.0944726140428501,0.1160644,0.052839845,0.051618114,118.08598,-113.47267,18.254917
697618346000.0,2.1990450068268723,9.807010958397813,-0.0901725979052843,0.12858713,0.051618114,0.054061573,118.130554,-113.41952,18.254696
697623230000.0,2.1964766731946925,9.80047339163164,-0.086203352239839,0.13561209,0.051618114,0.054367006,118.13447,-113.33467,18.255304
697628149000.0,2.193889934223216,9.79388897498078,-0.0822056619391991,0.13988814,0.042760566,0.055588737,118.142525,-113.254326,18.256123
697633092000.0,2.1912905744476503,9.787272432694706,-0.0781884667458542,0.14508049,0.04550946,0.063224554,118.1486,-113.17883,18.25966
697638452000.0,2.1884719282010323,9.78009770749678,-0.0738323740417619,0.17562376,0.062002823,0.06627888,118.15384,-113.109566,18.26263
697643350000.0,2.185896232433134,9.773541400776734,-0.0698517505222387,0.1853976,0.05497787,0.067500606,118.16637,-113.04068,18.265713
697648149000.0,2.183372597482104,9.767117612301949,-0.0659515846851232,0.19853121,0.060170226,0.06780604,118.17147,-112.97965,18.271328
697653081000.0,2.180779022241746,9.760515794265348,-0.0619433292342681,0.20219639,0.064751714,0.070554934,118.17982,-112.921,18.277348
697658073000.0,2.1781538949911643,9.75383366214071,-0.0578863115516508,0.20952678,0.0580322,0.07819075,118.19103,-112.86776,18.284296
697663081000.0,2.17552035387119,9.74713011292593,-0.0538162906072302,0.21227567,0.06963864,0.082161374,118.1962,-112.81547,18.292463
697668344000.0,2.1727527167077665,9.740085228836994,-0.0495390301778201,0.21410827,0.06811147,0.07727446,118.20771,-112.765175,18.298788
697673236000.0,2.17018017614089,9.733536953525752,-0.0455632828814732,0.22785273,0.071776666,0.07452556,118.21542,-112.71991,18.307785
697678079000.0,2.16763340304903,9.727054268053074,-0.0416273580743987,0.23396139,0.07360926,0.08124508,118.22506,-112.67586,18.317675
697683081000.0,2.165003017130078,9.720358750247096,-0.0375622133531543,0.24007004,0.07696902,0.08246681,118.233215,-112.63324,18.325487
697688091000.0,2.1623684242764294,9.713652523896048,-0.0334905670010083,0.24678956,0.067500606,0.08827003,118.24599,-112.59534,18.335535
697693354000.0,2.1596007871130056,9.706607639807114,-0.0292133065715982,0.26511553,0.06078109,0.086437434,118.2571,-112.559746,18.34402
697698270000.0,2.1570156257420403,9.700027238860656,-0.0252180543825464,0.2602286,0.059253927,0.08827003,118.27065,-112.52452,18.354668
697703059000.0,2.1544972494593813,9.69361683606721,-0.0213260155840579,0.2648101,0.05009095,0.092240654,118.288895,-112.49465,18.364277
697708109000.0,2.1518416219322503,9.686857066990804,-0.0172218610774038,0.2837469,0.04550946,0.095294975,118.30678,-112.467255,18.374168
697713071000.0,2.149232270686781,9.680215091910188,-0.0131892245106676,0.29016098,0.040317107,0.10293079,118.328545,-112.44127,18.385633
697718343000.0,2.1464599007218235,9.673158160708043,-0.0089046497464932,0.2919936,0.04062254,0.109650314,118.35054,-112.41868,18.397556
697723208000.0,2.143901558559548,9.66664602673642,-0.0049508454544392,0.3115413,0.035124753,0.10873401,118.376114,-112.400444,18.408543
697728080000.0,2.141339535329413,9.660124522787855,-0.0009913522353463,0.3042109,0.03359759,0.11881329,118.401955,-112.382835,18.424488
697733090000.0,2.1387049424757643,9.653418296436808,0.0030802941167996,0.30909783,0.03390302,0.13072516,118.42921,-112.370895,18.440212
697738076000.0,2.136082970426205,9.646744195720974,0.0071324355762407,0.32253686,0.03634648,0.13347405,118.456566,-112.35969,18.455938
697743395000.0,2.1332858847199065,9.639624351816538,0.0114552074219621,0.32589662,0.030848695,0.14202617,118.4876,-112.35212,18.475784
697748124000.0,2.1307990604474707,9.633294263111129,0.0152984839886884,0.32498032,0.022907447,0.13316862,118.51784,-112.34269,18.491161
697753098000.0,2.128183398799956,9.626636225212902,0.0193408730017771,0.32436943,0.015271631,0.1414153,118.55149,-112.3401,18.512997
697758120000.0,2.1255424955442628,9.619913936044249,0.0234222718002755,0.34972036,0.0009162979,0.1432479,118.58859,-112.33795,18.529308
697763055000.0,2.1229473427033936,9.613308102303243,0.0274329653627187,0.35124752,-0.010995574,0.14477506,118.62785,-112.333984,18.547176
697768042000.0,2.120324844786997,9.606632663019278,0.0314859195260225,0.3622431,-0.019547688,0.16279559,118.671585,-112.33988,18.56914
697773112000.0,2.1176586999231253,9.599846122580194,0.0356063281099308,0.35308012,-0.030543262,0.14263703,118.717094,-112.334076,18.579645
697778071000.0,2.1150509262781663,9.593208163203975,0.0396365265650789,0.37140608,-0.03176499,0.14508049,118.76483,-112.34392,18.601185
697783098000.0,2.112407393688288,9.586479181194653,0.0437219888828908,0.39370266,-0.04550946,0.1441642,118.81786,-112.34729,18.614424
697788055000.0,2.1098006717770037,9.579843898954705,0.0477505619303135,0.38881573,-0.06566802,0.1563815,118.87404,-112.35295,18.631271
697793090000.0,2.1071529322524283,9.573104208400308,0.0518425258790271,0.39522982,-0.07360926,0.15760323,118.92969,-112.36084,18.644451
697798079000.0,2.104529382602358,9.566426091980071,0.0558971054500564,0.42577308,-0.07391469,0.17379116,118.99052,-112.37806,18.66417
697803051000.0,2.101914772688517,9.559770731218114,0.0599378690554196,0.43493605,-0.07666359,0.18753563,119.05404,-112.39248,18.682636
697808081000.0,2.099269662498128,9.553037733504388,0.0640257694848197,0.45631635,-0.08460484,0.17898351,119.1184,-112.41165,18.698679
697813052000.0,2.0987766984106635,9.548440969535216,0.0569676793418825,0.47403142,-0.08552113,0.18020524,119.18264,-112.43688,18.721134
697818075000.0,2.104557708463441,9.549886201926832,0.0169823334005988,0.4981606,-0.0870483,0.19028452,119.24901,-112.46601,18.742758
697823758000.0,2.111098317687,9.551521331467256,-0.0282569102753547,0.49357912,-0.098043874,0.2171626,119.287735,-112.47522,18.759443
697828119000.0,2.116117426753328,9.552776091264157,-0.0629724375797422,0.5036584,-0.112399206,0.20250183,119.32566,-112.48261,18.766832
697833095000.0,2.1218443441378825,9.554207800676997,-0.1025836423187085,0.50762904,-0.1282817,0.18753563,119.36877,-112.4944,18.78056
697838063000.0,2.1275620542597617,9.555637208306209,-0.1421311634487697,0.5149594,-0.15760323,0.18692477,119.419754,-112.50791,18.79227
697843071000.0,2.133325800695021,9.557078124853534,-0.1819971026233563,0.50976706,-0.1777618,0.20952678,119.47294,-112.52185,18.80576
697848172000.0,2.139196581558892,9.558545799635464,-0.2226033637514646,0.5006041,-0.19792034,0.20647246,119.53261,-112.52973,18.810022
697853093000.0,2.144860199012548,9.5599616842859,-0.2617767436792084,0.49968776,-0.22174409,0.18295415,119.59893,-112.53827,18.813244
697858079000.0,2.1505986254754488,9.561396270928263,-0.3014675529293061,0.5213735,-0.24098633,0.17959438,119.670425,-112.552734,18.820179
697863056000.0,2.1563266937678387,9.562828268064054,-0.3410867181193855,0.52626044,-0.26145032,0.18234327,119.74752,-112.56012,18.820768
697868069000.0,2.162096194742271,9.56427062322614,-0.3809924595495378,0.5467244,-0.2706133,0.20219639,119.82717,-112.576385,18.824799
697873165000.0,2.1679612210669683,9.565736859393308,-0.4215589184220805,0.56382865,-0.27580565,0.23548855,119.91198,-112.59658,18.832443
697878079000.0,2.173616782165784,9.567150729983076,-0.4606765751920323,0.5876524,-0.2669481,0.20616703,119.99167,-112.61034,18.828451
697883107000.0,2.179403546757733,9.568597400989454,-0.5007017233888817,0.59406644,-0.24251351,0.20738874,120.07162,-112.63884,18.842777
697888063000.0,2.1851074459855986,9.570023355943237,-0.5401537191055852,0.62888575,-0.24007004,0.21930063,120.15335,-112.67051,18.851015
697893733000.0,2.1916330934073085,9.571654745085276,-0.5852894769170682,0.6569856,-0.22510384,0.24190263,120.22416,-112.70449,18.864834
697898184000.0,2.1967557841787424,9.572935399947925,-0.6207214448216378,0.67073005,-0.2284636,0.28588495,120.301094,-112.74901,18.886768
697903160000.0,2.202482701563298,9.57436710936076,-0.6603326495606041,0.66156703,-0.21319197,0.2779437,120.36531,-112.78645,18.902308
697908079000.0,2.2081440172012856,9.575782418565293,-0.6994901085861216,0.66339964,-0.19822577,0.2687807,120.43264,-112.83696,18.928991
697913057000.0,2.21387323640151,9.577214703424032,-0.7391172342273142,0.6630942,-0.19150625,0.29840767,120.499214,-112.89207,18.964201
697918073000.0,2.219646190099446,9.57865792175498,-0.779046857010806,0.66431594,-0.19394971,0.3182608,120.56207,-112.94222,18.993996
697923272000.0,2.2256297599310986,9.580153793386277,-0.8204332423480016,0.63407815,-0.18967366,0.30176744,120.6198,-112.98469,19.022137
697928073000.0,2.231155268444613,9.581535151282385,-0.858651368142169,0.61666846,-0.1863139,0.26908615,120.67805,-113.029106,19.050335
697933095000.0,2.2369351275895566,9.582980095951047,-0.8986287536323396,0.59681535,-0.18112154,0.25961772,120.73428,-113.069016,19.080185
697938088000.0,2.242681610407298,9.58441669665408,-0.9383752860402292,0.5833763,-0.18600847,0.28924468,120.79238,-113.10801,19.110958
697943082000.0,2.248429244132875,9.585853585080068,-0.9781297788992318,0.5488624,-0.19517145,0.25137106,120.844376,-113.12155,19.119955
697948191000.0,2.254309232259421,9.587323561645618,-1.0187997236362454,0.5323691,-0.21197024,0.22571471,120.902405,-113.14514,19.139307
697953070000.0,2.2599245115840283,9.58872736193204,-1.0576387646172374,0.5525276,-0.22785273,0.204029,120.96004,-113.1606,19.148407
697958068000.0,2.265676748940943,9.590165401249838,-1.0974250992806929,0.5552765,-0.2434298,0.19547687,121.02118,-113.167534,19.152882
697963558000.0,2.27199523295244,9.591745000260383,-1.141127975891811,0.5540548,-0.2648101,0.17867808,121.08608,-113.169754,19.14766
697968057000.0,2.2771731672999307,9.593039465824765,-1.1769420454498112,0.5522222,-0.28893927,0.16218472,121.155205,-113.17024,19.139074
697973164000.0,2.283050853610808,9.594508866944407,-1.2175960692845984,0.5338962,-0.32559118,0.1563815,121.23328,-113.16649,19.126833
697978055000.0,2.288679943829429,9.595916119906262,-1.256530635678948,0.5198463,-0.3549127,0.1572978,121.3149,-113.160866,19.111147
697983086000.0,2.294470161144883,9.5973636540815,-1.2965796652291368,0.5235115,-0.40591997,0.16157386,121.412766,-113.154755,19.091442
697988096000.0,2.300236209395812,9.59880514607473,-1.3364615253059495,0.5403103,-0.4550946,0.15760323,121.517365,-113.14699,19.068407
697993069000.0,2.3059596740568638,9.600235992318709,-1.3760488486915767,0.5705481,-0.4801401,0.16798794,121.630104,-113.14659,19.049362
697998334000.0,2.312019203805594,9.601750853664887,-1.4179606238022393,0.61453044,-0.49327368,0.1881465,121.75303,-113.152626,19.030123
698003052000.0,2.317449186968844,9.603108330555918,-1.4555180321540164,0.66248333,-0.5039638,0.20525073,121.88175,-113.16591,19.012001
698008070000.0,2.323224442482449,9.60455212433277,-1.4954635758397343,0.7131852,-0.5103779,0.22113322,122.01295,-113.191,18.998985
698013055000.0,2.3214278837469187,9.580879149219392,-1.5431238330649135,0.76174897,-0.49571714,0.24953845,122.1416,-113.23007,18.995201
698018075000.0,2.3029929902831103,9.501633047478895,-1.6087233196115631,0.82894415,-0.47800204,0.32345316,122.27404,-113.294266,19.008461
698023187000.0,2.284220246182117,9.420934626742362,-1.6755250278240084,0.8546005,-0.44684792,0.31673363,122.416664,-113.43199,19.011177
698028092000.0,2.26620766601479,9.34350392374692,-1.7396217372884142,0.9147707,-0.42485678,0.30726522,122.55815,-113.60072,19.033205
698033253000.0,2.2472549797266,9.262031985284231,-1.807063759214163,0.979217,-0.40561453,0.30207285,122.68766,-113.771484,19.055443
698038090000.0,2.229492115247628,9.185674735459774,-1.8702718700560244,1.0054842,-0.39920044,0.3109304,122.811554,-113.944496,19.078524
698043075000.0,2.211185751917532,9.106981146380818,-1.9354139896646,1.0363328,-0.39920044,0.31520647,122.92776,-114.124344,19.098667
698048141000.0,2.192581933135131,9.027008885142305,-2.0016145870441475,1.0613784,-0.408058,0.37843102,123.04692,-114.32045,19.136116
698053089000.0,2.1744114445178155,8.94889938087697,-2.0662732044610443,1.0693196,-0.41050145,0.3643811,123.15544,-114.49937,19.152546
698058085000.0,2.1560646860028383,8.87003214496153,-2.131559067964443,1.0852021,-0.40011674,0.36041048,123.26563,-114.69741,19.1879
698063076000.0,2.1377362889355345,8.79124383942631,-2.196779593333831,1.1120802,-0.40775254,0.35888332,123.37797,-114.89299,19.216938
698068072000.0,2.119389530420557,8.712376603510869,-2.26206545683723,1.1142182,-0.41325033,0.33200526,123.48135,-115.07723,19.23741
698073190000.0,2.100594752582356,8.63158346631807,-2.328945570810488,1.1218541,-0.42455134,0.32162055,123.58707,-115.26744,19.259495
698078058000.0,2.0827180471278104,8.554736848136251,-2.392558778083215,1.1383474,-0.43249258,0.32742378,123.68972,-115.45428,19.277248
698083081000.0,2.0642721367953984,8.475443388167625,-2.458197467510271,1.1475104,-0.43860126,0.33628133,123.791725,-115.63664,19.291132
698088092000.0,2.045870293937402,8.396339361111526,-2.523679345415702,1.1658363,-0.47586402,0.40011674,123.90781,-115.83404,19.317228
698093076000.0,2.02756760289684,8.317661558108613,-2.588808397397475,1.1957687,-0.50976706,0.4156938,124.01847,-116.02367,19.331108
698098151000.0,2.0089307335086275,8.237547222185702,-2.6551266034182417,1.2153164,-0.50243664,0.41263947,124.12926,-116.22119,19.356268
698103068000.0,1.9908740858668856,8.159927086277733,-2.719380124404273,1.273654,-0.46609017,0.4016439,124.23923,-116.42986,19.381678
698108045000.0,1.9725971008530665,8.081359785807127,-2.7844177029984314,1.3093897,-0.40317106,0.4016439,124.33732,-116.63618,19.410978
698113045000.0,1.9542356531799503,8.00242940558751,-2.8497558370090386,1.3090842,-0.36071593,0.37507126,124.42456,-116.835144,19.430157
698118042000.0,1.9358852223754388,7.923546383596026,-2.91505476813924,1.29198,-0.3454443,0.30970868,124.495285,-117.025894,19.440613
698123103000.0,1.917299765040711,7.84365305273773,-2.981190027384776,1.3014483,-0.36132678,0.27397305,124.56089,-117.21898,19.451572
698128107000.0,1.8989236282094568,7.764659528213939,-3.0465804319025924,1.3213016,-0.398895,0.267559,124.6228,-117.40026,19.451199
698133077000.0,1.88067234922238,7.686202730275641,-3.111526537109136,1.3503176,-0.43004912,0.23915374,124.67959,-117.57061,19.433664
698138086000.0,1.8622778509434528,7.607130275371629,-3.176982279760962,1.3939945,-0.48838675,0.29779682,124.761055,-117.76184,19.431015
698143074000.0,1.8439604707447523,7.52838932806454,-3.242163602249944,1.4327844,-0.5546656,0.27275133,124.839775,-117.93251,19.393944
698148127000.0,1.8254043917263012,7.448622285814596,-3.308194320481064,1.4819591,-0.5910121,0.24007004,124.92922,-118.12178,19.367163
698153231000.0,1.806661025941585,7.368050153686412,-3.374891487679092,1.5238034,-0.6395759,0.21899518,125.036606,-118.31213,19.328526
698158083000.0,1.7888430771195936,7.291456112721297,-3.4382956129229854,1.5577064,-0.66614854,0.1872302,125.14026,-118.49979,19.276678
698163074000.0,1.7705146800522895,7.212667807186076,-3.5035161382923734,1.5592335,-0.6795876,0.18417588,125.251434,-118.6885,19.223312
698168056000.0,1.752219333590797,7.13402157633525,-3.5686190550205423,1.5555683,-0.70707655,0.19242255,125.36846,-118.8768,19.160503
698173146000.0,1.7335273798595652,7.0536704492716815,-3.6351332754433408,1.5512923,-0.7165449,0.19853121,125.48024,-119.06195,19.097124
698178058000.0,1.7154890936654963,6.97612924374393,-3.699321458295361,1.5262468,-0.7464773,0.21166481,125.603874,-119.24252,19.033007
698183073000.0,1.6970725616493612,6.896962072383656,-3.764855606708001,1.520749,-0.7629707,0.2489276,125.72657,-119.429634,18.977633
698188094000.0,1.6786339958960186,6.8177001845671175,-3.830468160881453,1.5234979,-0.77396625,0.28405234,125.85414,-119.61275,18.922852
698193076000.0,1.660338649434526,6.739053953716292,-3.895571077609621,1.5289958,-0.7696902,0.3277292,125.98423,-119.80116,18.88022
698198154000.0,1.6416907631777096,6.65889225956525,-3.961928486510794,1.5522085,-0.7556403,0.3747658,126.11606,-119.99823,18.84761
698203069000.0,1.6236414601150368,6.581303695809368,-4.026155872243221,1.5809193,-0.74464476,0.4465425,126.25275,-120.20708,18.832853
698208075000.0,1.6052579787047134,6.502278599133488,-4.091572412014641,1.613906,-0.68661255,0.5558874,126.38002,-120.43379,18.84676
698213062000.0,1.603065695517241,6.420195733563219,-4.18670443045977,1.6285667,-0.63804877,0.66889745,126.51344,-120.67233,18.879572
698218567000.0,1.6990126252586206,6.309099455114942,-4.474545536063218,1.6410894,-0.5873469,0.6536258,126.6252,-120.90936,18.912792
698223124000.0,1.7914827516591116,6.211853947089755,-4.700008677425204,1.65911,-0.54550266,0.6612616,126.674644,-121.37922,18.95064
698228129000.0,2.047872974596555,6.042375662592929,-4.795611664505893,1.6701056,-0.5180137,0.6542367,126.707726,-121.836334,18.978529
698233043000.0,2.299601557116953,5.875978801450589,-4.889476415457842,1.674687,-0.5525276,0.6398814,126.72611,-122.28726,18.972841
698238090000.0,2.700807186071817,5.7012985218716,-4.903325,1.6756034,-0.6249151,0.6215554,126.742355,-122.731064,18.957561
698243039000.0,3.117689082154516,5.529388356147987,-4.903325,1.6963727,-0.713796,0.59742624,126.7658,-123.17038,18.9255
698248117000.0,3.5163738123484234,5.253026564238076,-4.864758478021423,1.7348573,-0.8023715,0.5842926,126.818375,-123.649445,18.916725
698253150000.0,3.896285463823767,4.926692306487469,-4.806310629446241,1.7837266,-0.88239485,0.537256,126.87864,-124.11989,18.87826
698258043000.0,4.041853763294246,4.8325450526588485,-4.7884035,1.8197676,-0.93767816,0.49510628,126.95393,-124.64565,18.912117
698263045000.0,4.0853981261703485,4.841253925234069,-4.7884035,1.8429805,-0.9999864,0.49510628,127.04595,-125.17219,18.927975
698268047000.0,4.082166785373609,4.886483761346052,-4.795571660784314,1.8655825,-1.035722,0.49968776,127.12407,-125.74405,19.006264
698273138000.0,4.0253240302066775,4.974331542872284,-4.811074254901961,1.8817704,-1.0864239,0.50732356,127.21752,-126.31328,19.068989
698278063000.0,3.910985678410487,4.994276356001639,-4.805619054741909,1.8930714,-1.1319333,0.5158757,127.257965,-126.84441,19.115961
698283042000.0,3.754712389758296,4.969858654649734,-4.78608484266694,1.9107865,-1.1643091,0.5140431,127.30234,-127.37403,19.151842
698288668000.0,3.553411643478261,4.940799565217391,-4.818799430434782,1.92392,-1.2208142,0.5311473,127.28471,-127.83867,19.144625
698293053000.0,3.3870745692336035,4.917589682663964,-4.865219033971997,1.9355265,-1.244638,0.5335908,127.259544,-128.29979,19.129608
698298087000.0,3.1929738090867663,4.811454166450966,-4.92845505649836,1.9428569,-1.2455542,0.5992588,127.133644,-128.6796,19.068298
698303104000.0,2.9959170506379875,4.614397316551221,-5.002898749252643,1.9092593,-1.2858714,0.5879578,127.008286,-129.03941,18.976824
698308105000.0,2.800675871286656,4.519246498261534,-5.092029076989206,1.9007072,-1.2996159,0.54825157,126.68531,-129.27788,18.808147
698313065000.0,2.6101093453529467,4.687126555573598,-5.219073396026364,1.9077321,-1.3292428,0.56291234,126.387,-129.52338,18.64013
698318069000.0,2.4379564726394336,4.859766414531713,-5.363403957505022,1.9068159,-1.3435981,0.5726862,126.06614,-129.74695,18.404358
698323113000.0,2.3593960158136422,5.049235760097579,-5.585221638476992,1.892766,-1.3316863,0.60231316,125.75529,-129.98105,18.177765
698328058000.0,2.290026499980425,5.223259333268083,-5.797259195713027,1.8848248,-1.3267993,0.61361414,125.43776,-130.16336,17.869467
698333049000.0,2.3040612877263387,5.270041959087795,-5.951641812068122,1.8790215,-1.3249667,0.63132924,125.12824,-130.35754,17.575584
698338220000.0,2.3288246878063776,5.319380049108319,-6.118952538408152,1.8716911,-1.31672,0.6444628,124.83728,-130.53796,17.236418
698343064000.0,2.4796138161556707,5.376435245453747,-6.367550890898708,1.8671097,-1.3384057,0.64996064,124.557724,-130.73006,16.901546
698348084000.0,2.635881657673724,5.435563462971097,-6.6251817186242645,1.8664987,-1.3640621,0.64812803,124.34259,-130.9552,16.559258
698353067000.0,2.73036385,5.569724822033899,-6.764959066949153,1.8839084,-1.3811663,0.655153,124.13282,-131.19464,16.225054
698358250000.0,2.809544845882353,5.733035829511466,-6.873832916909272,1.890017,-1.3909402,0.6768387,123.92926,-131.44087,15.897438
698363048000.0,2.808848241385532,5.595616374165615,-6.852895593541404,1.9000963,-1.4037683,0.7431176,123.83283,-131.78676,15.610934
698368026000.0,2.787346658127368,5.371999728666787,-6.796991432166697,1.9013181,-1.4141531,0.68416905,123.71382,-132.12297,15.30503
698373103000.0,2.774538995318352,5.204340034644194,-6.839176160580524,1.9138408,-1.4376713,0.6722572,123.69598,-132.50195,15.028552
698378061000.0,2.769599048793175,5.090723327819393,-6.962672193060757,1.9172006,-1.4660766,0.655153,123.662605,-132.87206,14.739663
698383050000.0,2.7361284384121425,4.995319334695466,-7.056140501187001,1.892766,-1.4746287,0.6383542,123.67606,-133.28027,14.459949
698388050000.0,2.684880773496789,4.9114594884218725,-7.130682873243822,1.8945986,-1.4816537,0.61850107,123.683266,-133.69263,14.174384
698393048000.0,2.6166144737894435,4.8517258134274615,-7.150746763015256,1.9230038,-1.4721853,0.61666846,123.71621,-134.14633,13.893574
698398167000.0,2.532995926513788,4.809916588297167,-7.127519415720648,1.9190332,-1.464244,0.6169739,123.73846,-134.58722,13.610548
698403077000.0,2.461439886082025,4.750363615706807,-7.103680093411867,1.9092593,-1.4883732,0.6059783,123.763214,-135.04716,13.310358
698408080000.0,2.3987269427465097,4.666746066884817,-7.07754929562609,1.9040669,-1.5015068,0.59986967,123.77577,-135.50462,13.017991
698413069000.0,2.391373787022271,4.6351743,-7.073124975987535,1.8903224,-1.5082263,0.6001751,123.803795,-135.95097,12.705931
698418048000.0,2.4175947863073963,4.6351743,-7.081865491613968,1.8713857,-1.5152513,0.5821546,123.8204,-136.38947,12.390055
698423117000.0,2.464766020326952,4.648998854140675,-7.128310421832652,1.8515326,-1.5286902,0.57818395,123.860596,-136.83224,12.068786
698428206000.0,2.538148218111422,4.680448633318993,-7.222659212045601,1.8319849,-1.5564847,0.56779927,123.89083,-137.2648,11.742216
698433072000.0,2.654356006315201,4.715869230700447,-7.305687061400894,1.8170186,-1.5619824,0.5571091,123.952705,-137.7055,11.425782
698438073000.0,2.806031128492921,4.75601846609538,-7.38598553219076,1.8228219,-1.5635096,0.5534439,124.009254,-138.14235,11.107675
698443075000.0,2.9103761961639822,4.776806665963885,-7.441702275646657,1.8359555,-1.5622878,0.52748215,124.0846,-138.59465,10.798026
698448121000.0,2.952828201551976,4.7720898257296245,-7.465286723084431,1.844813,-1.6215417,0.50488013,124.162605,-139.04236,10.478609
698453081000.0,3.016036374302939,4.8108625104316936,-7.493356843707611,1.8362609,-1.6468927,0.4709771,124.25823,-139.50989,10.190396
698458074000.0,3.113842734966089,4.9189641049090325,-7.52939072645064,1.8225164,-1.6624697,0.44776422,124.351395,-139.97124,9.892261
698463070000.0,3.1820931306581985,5.011440018764434,-7.57310324191686,1.8234328,-1.6914859,0.42852196,124.46807,-140.44177,9.590277
698468074000.0,3.223596235392609,5.089834718648961,-7.623829606581986,1.8212948,-1.7037032,0.39950588,124.56787,-140.899,9.285517
698473089000.0,3.292187696427129,5.161427815401696,-7.582306621921679,1.8167132,-1.7003434,0.3915646,124.69528,-141.34938,8.993385
698478065000.0,3.393190753350828,5.2239537564594265,-7.428397154016956,1.8298469,-1.7046194,0.36835176,124.80753,-141.79478,8.692148
698483071000.0,3.3914767767407983,5.279272231038166,-7.343250431776246,1.8545868,-1.7125608,0.34391713,124.93628,-142.23459,8.395222
698488066000.0,3.2706901869088085,5.325728593085365,-7.338604698552976,1.8545868,-1.7284433,0.3203988,125.05363,-142.66312,8.095154
698493068000.0,3.175332585715718,5.376755934577189,-7.2697579375263315,1.8503108,-1.7214183,0.30176744,125.19512,-143.0695,7.814044
698498090000.0,3.117439539973919,5.434649030695155,-7.105727297020764,1.8661933,-1.7296649,0.27305678,125.32661,-143.47324,7.5237203
698503063000.0,3.0363432566411754,5.4663821128396055,-6.980604494676998,1.8680259,-1.7510452,0.24709499,125.45925,-143.84454,7.2052393
698508079000.0,2.9203345027671563,5.461548522016503,-6.908099168615416,1.8606955,-1.7574593,0.20952678,125.57381,-144.2103,6.886285
698513038000.0,2.8312042764193794,5.494696664307343,-6.8779125920514765,1.8573358,-1.7641789,0.17195857,125.70529,-144.53432,6.5480843
698518068000.0,2.7765055014383044,5.581303002498108,-6.905261931945496,1.8555032,-1.740966,0.1386664,125.81811,-144.85094,6.2158413
698523085000.0,2.752875689946381,5.733465988884306,-6.927122199206022,1.8600847,-1.7629571,0.10720685,125.94997,-145.142,5.8422427
698528091000.0,2.797366682707775,6.030072572881006,-6.937009126634358,1.885741,-1.758681,0.06780604,126.057144,-145.43375,5.480485
698533030000.0,2.8594624878847785,6.272522066873764,-6.912147604574979,1.9236146,-1.7482964,0.052839845,126.18268,-145.70544,5.1013665
698538071000.0,2.9548978760896167,6.43158082576485,-6.825801296441683,1.9446895,-1.7098118,0.0421497,126.28817,-145.97601,4.7323227
698543620000.0,3.017398320477034,6.6410361037808565,-6.812686679762525,1.9639318,-1.7489072,0.025045475,126.4231,-146.19131,4.345094
698548103000.0,2.99503981907093,6.869093051588377,-6.942366034610978,1.9795089,-1.7644843,0.0030543262,126.53878,-146.41013,3.978874
698553054000.0,2.9614695879059574,7.080477336321977,-7.078939368200837,1.9856175,-1.6853772,0.003970624,126.68589,-146.58722,3.6421337
698558080000.0,2.908723675632596,7.209944652918908,-7.203611506276151,2.01555,-1.715615,-0.008552114,126.83943,-146.77403,3.2792025
698563052000.0,2.9109774335790948,7.248351406980868,-7.212079176854877,2.0320432,-1.6988163,0.007941248,127.000916,-146.90881,2.9357357
698568064000.0,3.0319267930564626,7.091565101502567,-6.9701805982267855,2.0323486,-1.5726726,0.014049901,127.1396,-147.04866,2.617962
698573113000.0,3.101637046609509,6.956342654364771,-6.751102098363211,2.0482311,-1.5491543,0.014966198,127.317345,-147.17902,2.2696445
698578065000.0,2.939921053156664,6.9239995907638345,-6.644831522213562,2.0665572,-1.541213,0.0106901415,127.47289,-147.31248,1.9577909
698583076000.0,2.7920042618134184,6.882031296986994,-6.5311840755123045,2.037541,-1.539075,-0.008552114,127.66706,-147.44424,1.6692594
698588072000.0,2.756188219706185,6.774583264162066,-6.374489236062506,2.0305161,-1.4953982,-0.039095376,127.84453,-147.58698,1.3984166
698593520000.0,2.716112875946969,6.67779145435606,-6.225214996401514,2.0522017,-1.5271631,-0.051923547,128.05222,-147.70554,1.0789262
698598097000.0,2.6708308765065425,6.828731544430097,-6.345966981775137,2.0845776,-1.5015068,-0.06963864,128.23015,-147.82599,0.7879589
698603089000.0,2.621443124440427,6.993357484925965,-6.477667639626377,2.1105394,-1.4483615,-0.099265605,128.432,-147.94392,0.48268482
698608076000.0,2.503622963348224,7.065407665943416,-6.747971665624335,2.160325,-1.4019357,-0.11881329,128.62277,-148.07852,0.1907889
698613371000.0,2.341819432397362,7.09237488355669,-7.109332832184642,2.2397375,-1.4101825,-0.11759156,128.80592,-148.2291,-0.09374865
698618073000.0,2.2529900496049406,7.048815747234584,-7.483037318354373,2.2461514,-1.3750577,-0.113926366,129.00148,-148.33662,-0.37583297
698623124000.0,2.1695212080737445,6.987312356516211,-7.895988701907183,2.2739458,-1.3231341,-0.12156218,129.18599,-148.47488,-0.64700586
698628054000.0,2.165110043627032,6.879788677844311,-7.945742825491873,2.3133466,-1.2751812,-0.111177474,129.3855,-148.65308,-0.9271123
698633045000.0,2.216219762189906,6.736681465868263,-7.741303951240376,2.357329,-1.2327261,-0.09254608,129.57027,-148.8411,-1.1866509
698638049000.0,2.212964584918033,6.5866713157923495,-7.560794737814207,2.4150558,-1.2513574,-0.089491755,129.76328,-149.11726,-1.4619443
698643077000.0,2.1866519344262296,6.433180717213115,-7.389762418032786,2.424524,-1.2684617,-0.08399397,129.94633,-149.38931,-1.7161895
698648096000.0,2.2334375192195326,6.29173616172788,-7.270884856896911,2.4178047,-1.3341297,-0.10720685,130.16682,-149.67255,-1.9891129
698653144000.0,2.3494544011894822,6.160586551377295,-7.200266002055509,2.363743,-1.2324207,-0.08399397,130.36928,-149.94022,-2.2103815
698658045000.0,2.3042175527190643,6.022921059347425,-7.132390389287913,2.3878722,-1.1887437,-0.06352998,130.60223,-150.23726,-2.4710736
698663042000.0,2.1519997857377384,5.875613693422943,-7.063646774112456,2.3722951,-1.1667526,-0.045814894,130.81996,-150.50269,-2.7021544
698668043000.0,2.0096231377326896,5.722904753097606,-7.063145527154536,2.3744333,-1.1633929,-0.047647487,131.05798,-150.79605,-2.913181
698673133000.0,1.8703901056239536,5.564467235713582,-7.10155474836994,2.3695462,-1.1472049,-0.04642576,131.2881,-151.07672,-3.1070518
698678050000.0,1.6042435361469711,5.372797842701092,-7.220332345680238,2.3490822,-1.1450669,-0.054367006,131.52693,-151.36336,-3.3323464
698683344000.0,1.231674369533267,5.141200641151936,-7.401582030069513,2.3258693,-1.0845913,-0.04062254,131.7524,-151.64163,-3.5296295
698688060000.0,1.2024254397683398,5.060584190733591,-7.374363085328186,2.2992969,-1.0125091,-0.05009095,131.96869,-151.95221,-3.7445936
698693083000.0,1.3556534608204631,5.0512976528185325,-7.230421796129344,2.2837198,-1.1102476,-0.09621128,132.18529,-152.25342,-3.984509
698698094000.0,1.518528591572673,5.028190513232462,-7.229204464988538,2.2278256,-1.162782,-0.13164146,132.37048,-152.58907,-4.2502527
698703072000.0,1.689024703558001,4.993217016176066,-7.3516118188078865,2.1270328,-1.1258247,-0.16798794,132.535,-152.9023,-4.5173497
698708046000.0,1.819622704221776,4.799459606242726,-7.56065123325574,2.074193,-1.0458013,-0.19181168,132.72675,-153.2029,-4.7637568
698713070000.0,1.8756223632631468,4.300553654449264,-7.937376014125489,1.9874501,-0.9315695,-0.23060162,132.88734,-153.46121,-4.9917293
698718072000.0,1.7781756125275163,3.873424488292976,-8.28329558405043,1.8750509,-0.8060367,-0.25900686,133.05205,-153.72757,-5.1651206
698723092000.0,1.4991698994996998,3.52707266740044,-8.595974426355815,1.7217237,-0.73426,-0.29901853,133.19,-153.95302,-5.3247633
698728086000.0,1.04773626494045,3.090512518601872,-9.096293531567415,1.5567901,-0.6795876,-0.310625,133.26451,-154.29929,-5.4376187
698733043000.0,0.4000868032434774,2.551592483977295,-9.810126212905796,1.3726143,-0.58246,-0.26725355,133.32661,-154.58745,-5.516997
698738037000.0,-0.2559307187524725,2.22669248486658,-10.403709231479754,1.1985176,-0.45540005,-0.23915374,133.32835,-154.93288,-5.6197095
698743083000.0,-0.9232227071870686,2.172587764433663,-10.845564730826649,1.0247264,-0.44715336,-0.23884831,133.33607,-155.21735,-5.724239
698748085000.0,-1.5516565639658624,2.0964015152776314,-11.319999316510378,0.8054258,-0.32284227,-0.1863139,133.2423,-155.61194,-5.8569803
698753075000.0,-2.105519171804868,1.9705235996733748,-11.87386145116426,0.6423248,-0.19853121,-0.16310102,133.14084,-155.96373,-5.9888315
698758061000.0,-2.44417150402945,1.8806576675654163,-12.32913901114317,0.5354234,-0.12950343,-0.17745635,133.01886,-156.30219,-6.215529
698763040000.0,-2.4726360175405437,1.8427049168341456,-12.642249799124466,0.44929138,-0.11056661,-0.18448131,132.89542,-156.59103,-6.415829
698768024000.0,-2.4380421441481483,1.7088144804444445,-12.869270312592594,0.41813725,-0.09987647,-0.21930063,132.73862,-156.91739,-6.6912756
698773117000.0,-2.302556979212963,1.4197793738888889,-12.964109989351853,0.39095375,-0.102319926,-0.23701571,132.58185,-157.21236,-6.9578233
698778038000.0,-2.3003391307619347,1.1301863723195278,-13.062277029191696,0.398895,-0.10720685,-0.23518312,132.41728,-157.54294,-7.2161007
698783045000.0,-2.719765690388871,0.8017197533691643,-13.183557344082622,0.4007276,-0.25717425,-0.13133603,132.2914,-157.85149,-7.498276
698788037000.0,-3.115658261199522,0.5531793201692577,-13.19005429325729,0.42577308,0.041233405,-0.1282817,132.0714,-158.23799,-7.644592
698793042000.0,-3.468390597001196,0.4605870595768558,-12.969596266856776,0.5198463,0.18387043,-0.14172074,131.90942,-158.6294,-7.856848
698798078000.0,-3.8570467590219226,0.3344937875885329,-12.771374345699831,0.5222898,0.29016098,-0.12889257,131.70187,-159.05411,-8.0592165
698803086000.0,-4.409713058291175,0.0469276057485478,-12.690496600149896,0.50243664,0.39064834,-0.11575896,131.4802,-159.48428,-8.222283
698808272000.0,-4.957024013592815,-0.2287939254970059,-12.608807068862276,0.48502702,0.45204028,-0.12492194,131.26515,-159.90108,-8.43831
698813048000.0,-5.157873259820359,-0.2150996654251497,-12.558594721556886,0.4560109,0.48930305,-0.13133603,131.04782,-160.29556,-8.627694
698818322000.0,-5.361716549069172,-0.2088856104150298,-12.49727026712212,0.41447207,0.5510005,-0.15302174,130.80762,-160.70831,-8.9051075
698823086000.0,-5.346131881810418,-0.3023931908625107,-12.3764892382579,0.3839288,0.6062838,-0.18203785,130.55783,-161.10583,-9.1672945
698828072000.0,-5.329820976908625,-0.4002581774517506,-12.250079874295476,0.35430184,0.64599,-0.21685717,130.308,-161.49559,-9.433681
698833048000.0,-5.091793540125786,-0.5439867041090147,-11.895313348008386,0.301462,0.6545421,-0.23884831,130.05025,-161.86139,-9.68754
698838073000.0,-4.74877534672956,-0.7104514698322851,-11.431230368448638,0.2012801,0.6719518,-0.23915374,129.78418,-162.19733,-9.922574
698843070000.0,-4.281659226617375,-1.1170456489249927,-11.07903172263839,0.09621128,0.6762278,-0.21655174,129.53477,-162.53094,-10.149591
698848110000.0,-3.774523433641405,-1.5960071113240588,-10.755028220352177,-0.018325957,0.7516697,-0.21655174,129.2712,-162.8277,-10.349021
698853094000.0,-3.176110332876988,-1.7027762920877794,-10.44053279796658,-0.13775012,0.8045095,-0.19792034,129.03667,-163.08498,-10.516127
698858080000.0,-2.541623312301188,-1.6739359912220655,-10.128095703342058,-0.26358834,0.81031275,-0.13103059,128.81326,-163.3015,-10.669402
698863072000.0,-2.0667886218583256,-1.6339160180036798,-10.075273445538178,-0.38820487,0.7800749,-0.086437434,128.55675,-163.55028,-10.737166
698868168000.0,-1.6402638295124197,-1.5890186640386386,-10.115680928150876,-0.44868052,0.79168135,-0.106595986,128.29988,-163.77766,-10.793624
698873103000.0,-1.4595877948845914,-1.7716554791640673,-10.118101913287584,-0.571159,0.7669413,-0.093462385,128.08774,-163.931,-10.760411
698878056000.0,-1.4497242800686214,-2.121812340767311,-10.09344299750468,-0.6618725,0.6588182,-0.008246681,127.89946,-164.07181,-10.746148
698883047000.0,-1.4460979,-2.2505496,-9.884732471639952,-0.7171558,0.6414085,0.014049901,127.70264,-164.17932,-10.644738
698888037000.0,-1.4460979,-2.2505496,-9.57046553267571,-0.7675522,0.67347896,-0.06505715,127.50884,-164.26366,-10.56358
698893044000.0,-1.1346758757921176,-1.948660948435085,-8.975728985123649,-0.80939645,0.6771441,-0.07971791,127.31746,-164.38005,-10.497105
698898099000.0,-0.6763823292503864,-1.5043968629443585,-8.24620048724884,-0.8472701,0.6114761,-0.04886922,127.122696,-164.48523,-10.446429
698903620000.0,-0.3404301584690937,-1.6443348837924656,-8.151442957461306,-0.8784242,0.50854534,-0.034513887,126.93015,-164.57411,-10.413612
698908052000.0,-0.1379794732149323,-2.012051448145624,-8.362157313150977,-0.88056225,0.25809056,0.016187929,126.77532,-164.65797,-10.437163
698913040000.0,0.656693296728905,-1.2555881194715788,-8.430897529072471,-0.9428705,0.05222898,-0.065973446,126.65596,-164.62346,-10.410222
698918042000.0,1.895607273810866,0.4156087458182154,-8.368505385245138,-0.93645644,0.06261369,-0.44868052,126.46971,-164.62418,-10.413228
698923081000.0,2.5056321650599878,2.611946509450642,-9.568813678804462,-0.95081174,-0.07147124,-0.43157628,126.36649,-164.65494,-10.458723
698928061000.0,2.2245566569564303,5.492971004714796,-12.505049875394654,-1.196685,-0.28069258,-0.14263703,126.23819,-164.63141,-10.530909
698933042000.0,-0.4203317779416164,6.37563157487297,-14.646664719936236,-1.5241088,-0.25167647,0.36865717,126.384476,-164.24564,-10.299447
698938103000.0,-5.38449740647604,5.347064128424828,-16.056719727209327,-1.7287487,-0.003970624,0.8775079,126.61048,-163.81493,-10.040336
698943038000.0,-9.094991070874402,2.3258650198209603,-17.048785255990598,-1.4404203,0.050396383,0.5671884,126.99754,-163.12128,-9.820518
698948097000.0,-11.784902130156434,-2.76043262871869,-17.68840543566326,-0.6059783,0.12186762,-0.08399397,127.3985,-162.54257,-9.520958
698953094000.0,-12.452629909478985,-7.362330776970228,-18.24467328415061,0.5546656,0.27672195,-0.5888741,127.37945,-162.5415,-9.923274
698958046000.0,-8.575004143279335,-10.959646133187391,-18.623611858581437,1.4388931,0.24129178,-0.8512407,127.260666,-162.72458,-10.359028
698963041000.0,-5.927840036404243,-13.514200523171414,-18.877710314349525,1.6337591,0.12095132,-0.8414669,126.55056,-163.89705,-11.309225
698968036000.0,-4.733557967488235,-14.834396912259711,-18.98454681829784,1.6120734,0.4538729,-0.6221663,125.826836,-165.17479,-12.065134
698973614000.0,-3.4665052096913374,-16.278374301028876,-18.93137977729837,1.4388931,1.0934488,-0.05009095,125.11267,-166.72131,-12.309333
698978069000.0,-3.2257818796216395,-17.080785401261203,-16.89231114636575,1.31672,1.1792754,0.08857546,124.381714,-168.20546,-12.603873
698983073000.0,-3.0952904117468045,-17.714287875836884,-14.51720319902617,1.3115277,1.2452488,0.28130344,123.77495,-169.74484,-12.508779
698988076000.0,-3.7222683713227833,-16.897758994826535,-11.683652799959424,1.2382239,0.89827734,0.301462,123.2122,-171.15645,-12.501218
698993060000.0,-4.297596459644669,-16.04856442724196,-9.129378840101522,0.98563105,0.6032294,0.22418754,122.64225,-172.49011,-12.516939
698998169000.0,-4.6609450529610825,-15.013710495205864,-7.744973832487309,0.6536258,0.4343252,0.160963,122.1079,-173.7268,-12.592023
699003160000.0,-4.99127904329232,-13.919611218694186,-6.46980673258583,0.38087448,0.3481932,0.076358154,121.525826,-174.74724,-12.887102
699008052000.0,-5.014522547836872,-11.832338792419131,-6.162991734768803,0.1554652,0.22357668,-0.0021380284,120.93219,-175.67383,-13.236701
699013245000.0,-5.012938166637706,-9.573137731885318,-5.841785814769765,-0.0106901415,0.17134771,-0.08246681,120.35427,-176.42953,-13.622811
699018043000.0,-4.70243860030891,-6.973811482112174,-5.597821664678057,-0.01863139,0.16920967,-0.15515977,119.7548,-177.1692,-14.023319
699023482000.0,-4.340358148033838,-4.025516161448359,-5.295080324904713,0.24007004,0.08124508,-0.22510384,119.259766,-177.72792,-14.408633
699028065000.0,-3.862976899749,-1.512124871674259,-4.593289203179325,0.67103547,-0.15515977,-0.35643986,118.72206,-178.34724,-14.833494
699033053000.0,-3.343409440345821,1.2233749654178672,-3.829480755619597,1.1410962,-0.49205196,-0.5045747,118.33165,-178.75034,-15.236523
699038043000.0,-2.488264869659118,3.729350872592473,-4.0192065740510925,1.5763378,-0.42119157,-0.5656612,117.92282,-179.26988,-15.585138
699043150000.0,-1.534447674474172,6.240018580062857,-4.436994362100089,1.779145,-0.06169739,-0.4978552,117.50409,-179.8585,-15.939718
699048085000.0,-0.870717055101219,8.098524348824553,-4.769268643262952,1.7583756,0.2003638,-0.3924809,117.34626,179.79048,-16.138174
699053148000.0,-0.6965678136525904,8.890111835002177,-4.969803945058772,1.7027869,0.32895094,-0.29657507,117.2072,179.40448,-16.27279
699058044000.0,-0.8138297615574477,8.480237239395388,-5.630496163493734,1.6530013,0.34147367,-0.26328292,117.33736,179.4268,-16.170563
699063044000.0,-1.22152887186071,6.876926036869798,-6.775718492011863,1.6420058,0.34574974,-0.19761491,117.50491,179.47311,-16.036287
699068071000.0,-1.7156545313104572,4.948651336320131,-7.847861098584666,1.6859881,0.33322698,-0.12492194,117.73827,179.62233,-15.868511
699073137000.0,-2.3380992139496994,2.537913296181652,-8.811168452377558,1.767844,0.31490102,-0.028710667,117.99424,179.77785,-15.703339
699078078000.0,-2.712279853375212,0.4677022665171003,-9.467975665171004,1.7449366,0.28985557,0.0711658,118.094315,179.79773,-15.640035
699083074000.0,-2.802923901874564,-1.2783876781234418,-9.78284421876558,1.6710218,0.21624629,0.15485434,118.220505,179.82126,-15.595804
699088032000.0,-2.956878741639128,-2.743986117250496,-10.163916313284863,1.5968018,0.1469131,0.22052236,118.15655,179.58487,-15.667034
699093074000.0,-3.198515222953451,-3.879221433386838,-10.642630195826646,1.5357152,0.09132435,0.27152961,118.114105,179.37544,-15.751638
699098085000.0,-3.473594718886928,-4.933099341864812,-11.03432725542519,1.5125023,0.08246681,0.35979962,118.00048,178.92677,-15.836856
699103120000.0,-3.82406140671789,-5.834299777177863,-11.249614152424463,1.5485435,0.063224554,0.40653083,117.8855,178.48709,-15.939917
699108032000.0,-3.9642901802156496,-6.4324708752596695,-11.11071625101395,1.629483,0.013439035,0.40408736,117.690025,177.88213,-16.072151
699113057000.0,-3.7881533175190425,-6.599086980957562,-10.41568925897715,1.7577647,-0.019547688,0.36285394,117.49129,177.26617,-16.203642
699118030000.0,-3.465994514912281,-6.485331263157894,-9.750197221291868,1.9010127,-0.025350908,0.2742785,117.197014,176.5133,-16.383677
699123062000.0,-2.87994583508772,-5.880067736842105,-9.116111801435409,2.0347922,0.03726278,0.17715092,116.882675,175.73982,-16.54856
699128039000.0,-2.455247561584469,-5.313572685263261,-8.479187545543681,2.123673,0.118202426,0.11942416,116.53258,174.91216,-16.699825
699133098000.0,-2.3032356482302188,-4.795781877537014,-7.81413514560251,2.1474967,0.20066923,0.08674286,116.157135,174.07535,-16.828821
699138132000.0,-2.2838288010331755,-4.603290360094787,-7.190375306464455,2.117259,0.25717425,0.0888809,115.87279,173.28752,-16.868382
699143068000.0,-2.5213045332796207,-5.042396452227488,-6.652694533914692,2.0491474,0.32620203,0.105068825,115.58177,172.5145,-16.881996
699148138000.0,-2.8639668707329577,-5.578014091235264,-6.119445208918503,2.0039434,0.39920044,0.12889257,115.334274,171.80923,-16.876265
699153102000.0,-3.5316121490517687,-6.386985798052281,-5.661352735315223,1.9779817,0.43493605,0.14080444,115.08541,171.12782,-16.86462
699158066000.0,-4.170545126253864,-7.198894832585502,-5.320934625446205,1.9269744,0.4896085,0.14844026,114.7798,170.39133,-16.87574
699163071000.0,-4.734506420251272,-8.02571943523781,-5.3065966903081065,1.9000963,0.56046885,0.1853976,114.48512,169.66902,-16.877392
699168068000.0,-5.168366378539755,-8.715669076605504,-5.43282086674312,1.824349,0.67073005,0.22449298,114.113335,168.84218,-16.938225
699173174000.0,-5.231920346750765,-9.022223479357798,-5.974898888302753,1.717753,0.79534656,0.16982053,113.72785,168.03828,-16.972555
699178060000.0,-5.29273599279052,-9.3155695059633,-6.493620630045871,1.5916094,0.9978484,0.10629055,113.33678,167.10909,-16.98925
699183077000.0,-5.039144315024875,-9.191888048203426,-7.331980291332228,1.5070046,1.246776,0.03604105,112.945915,166.20842,-16.953896
699188058000.0,-4.611961364477612,-8.833265409950247,-8.334014146467663,1.4306464,1.5164729,-0.035430185,112.56061,165.35013,-16.853308
699193070000.0,-4.044106650557184,-7.941655536637341,-8.437904922189638,1.3396275,1.7806722,-0.115453534,112.131996,164.5259,-16.689302
699198115000.0,-3.444301866246334,-6.935683670899316,-8.35761594173998,1.2208142,1.9501873,-0.17837265,111.71409,163.74637,-16.479795
699203090000.0,-2.8332328826057367,-5.719504554370443,-7.80359301225085,1.1701124,1.9358319,-0.22602014,111.374794,163.05879,-16.169443
699208081000.0,-2.2151372519397183,-4.441487160175012,-7.125081969567331,1.2428054,1.7999145,-0.24556783,111.0404,162.38637,-15.857643
699213044000.0,-1.7428559170457385,-3.4886039630925603,-6.743618315629425,1.4434745,1.67316,-0.24129178,110.82122,161.83057,-15.489699
699218070000.0,-1.317787086003499,-2.6424764653003416,-6.466922548554527,1.7015651,1.5906931,-0.21074851,110.60081,161.25226,-15.16212
699223075000.0,-0.9621980100943396,-2.047268267924528,-6.284101878301886,1.9263636,1.5882497,-0.160963,110.514854,160.76486,-14.798911
699228127000.0,-0.7418504612719584,-1.952833667534157,-6.289348190208197,2.0769417,1.6493362,-0.11056661,110.43731,160.24004,-14.456765
699233075000.0,-0.6069989136289771,-2.2704438813509547,-6.435546641116006,2.147802,1.7858646,-0.089491755,110.48695,159.77907,-14.034026
699238057000.0,-0.5556207498443465,-3.017762902202643,-6.729803606167401,2.1502457,1.967597,-0.053145275,110.565544,159.31161,-13.601938
699243067000.0,-0.4972557561954533,-3.826691292814215,-6.981865139012281,2.0815234,2.1288655,-0.010079277,110.70303,158.84663,-13.111735
699248148000.0,-0.4294431750492117,-4.720969597700549,-7.181064591150597,1.9703459,2.2504275,0.03634648,110.86582,158.40707,-12.601708
699253099000.0,-0.3520007445933957,-5.610675987875801,-7.36762220542139,1.8597792,2.2892175,0.065973446,111.023186,157.88043,-12.045159
699258084000.0,-0.2108266256185313,-6.608306422079842,-7.51350212508625,1.7571539,2.293799,0.08582657,111.20068,157.39615,-11.483967
699263200000.0,-0.0481602799767087,-7.590274474961927,-7.659467269730359,1.7088956,2.2525656,0.100792766,111.333954,156.79327,-10.911288
699268078000.0,0.2113014270912837,-8.280777376870017,-7.776643445597061,1.6618589,2.1682663,0.09865474,111.46628,156.23102,-10.364002
699274058000.0,0.5482768649276175,-9.086471929765574,-7.910075678415989,1.611768,1.9859229,0.084910266,111.52849,155.54776,-9.833994
699278070000.0,0.9466011898290838,-9.255131808349676,-7.906487173550014,1.5027285,1.9398025,0.09132435,111.60698,154.90997,-9.307794
699283073000.0,1.4433151971775473,-9.465452190342766,-7.902012275782199,1.4471397,1.815186,0.11575896,111.62713,154.1662,-8.808384
699288071000.0,1.656906185630143,-9.525511115980946,-7.725163335123431,1.3518448,1.7128662,0.14660765,111.65423,153.48149,-8.331368
699293070000.0,1.7730157438284972,-9.533804822867042,-7.488797451883933,1.2605205,1.63437,0.16187929,111.676216,152.82735,-7.8950224
699298658000.0,1.8695080411197071,-9.558274958655687,-7.170420730338575,1.1801916,1.5845845,0.17379116,111.717094,152.15709,-7.406159
699303122000.0,1.9192969221778555,-9.590281998336245,-6.871687406854671,1.1065824,1.5351044,0.17287487,111.753716,151.52539,-6.9502053
699308296000.0,1.97841710003462,-9.617541982343775,-6.5262911515752124,1.0308352,1.4627168,0.17898351,111.791725,150.90031,-6.5044956
699313077000.0,2.0497483455426693,-9.526396773238703,-6.217189322191449,0.95233893,1.3658947,0.18784106,111.82428,150.30989,-6.0893908
699318063000.0,2.124138136402977,-9.431343434481564,-5.894833806335468,0.84665924,1.2843442,0.20097467,111.84702,149.71725,-5.689677
699323148000.0,2.278692027488567,-9.2983193674224,-5.711130647367908,0.7556403,1.2018774,0.20616703,111.85937,149.15427,-5.3249283
699328103000.0,2.458770767539165,-9.15517931585093,-5.586460590931206,0.65484756,1.1206323,0.19517145,111.861824,148.63463,-4.9893284
699333074000.0,2.751590624260233,-9.035379665635633,-5.604013821527992,0.5403103,1.0296134,0.17959438,111.85651,148.12912,-4.666082
699338069000.0,3.1017676768429734,-8.926873989792762,-5.692791333127127,0.419359,0.91721416,0.15485434,111.83258,147.66219,-4.373145
699343054000.0,3.4637185416177134,-8.806419165295978,-5.814024622819701,0.3042109,0.782213,0.11789699,111.808655,147.2305,-4.075231
699348153000.0,3.838841119249887,-8.678436338996837,-5.950833811206507,0.24098633,0.6258314,0.06566802,111.75571,146.82425,-3.8103027
699353108000.0,4.172516295318127,-8.407819585943468,-6.182195986849285,0.18906279,0.5510005,0.03359759,111.72183,146.46246,-3.5015936
699358080000.0,4.479112019207683,-8.002489535523301,-6.504381369802466,0.18417588,0.44409904,0.025045475,111.652824,146.11017,-3.2393692
699363075000.0,4.601096335436971,-7.440852847803163,-6.748293241332481,0.17898351,0.35613444,0.029321533,111.60304,145.79988,-2.924518
699368281000.0,4.636941753954305,-6.779705944288224,-6.96336533655536,0.1966986,0.25809056,0.040317107,111.53548,145.48953,-2.6427145
699373054000.0,4.663905,-6.2823853,-7.1251445,0.22602014,0.17379116,0.058643065,111.512886,145.25081,-2.3329146
699378068000.0,4.663905,-6.2823853,-7.1251445,0.2932153,0.116980694,0.084910266,111.48413,145.00085,-2.0477493
699383049000.0,4.592934547321173,-6.187254730455543,-7.107024321688473,0.364992,0.09132435,0.109650314,111.51073,144.87282,-1.7644295
699388074000.0,4.376928172571866,-5.897714384022539,-7.051873566985006,0.4269948,0.09437868,0.13622294,111.53921,144.73189,-1.4960259
699393047000.0,4.213795,-5.6790466,-7.0102224,0.46486846,0.095294975,0.15210545,111.57155,144.57814,-1.2366247
699398179000.0,4.213795,-5.6790466,-7.0102224,0.4709771,0.09437868,0.1600467,111.60807,144.4197,-0.98392504
699403100000.0,4.209671761137269,-5.713407402245563,-6.979984922727272,0.45723262,0.10048734,0.15699236,111.665695,144.29181,-0.7606509
699408092000.0,4.196685509779066,-5.821627670264397,-6.884751177272728,0.42058071,0.095294975,0.13500121,111.71814,144.17224,-0.54163
699413064000.0,4.187780224384766,-5.939283406914944,-6.8036058413025176,0.37812558,0.08979719,0.093462385,111.77385,144.0586,-0.31743804
699418062000.0,4.2146528807710295,-6.145307963273136,-6.843914872649012,0.33353242,0.081855945,0.051923547,111.82283,143.95956,-0.094883315
699423459000.0,4.239790673472514,-6.370916140231756,-6.885919355391687,0.2947425,0.08124508,0.018020526,111.86138,143.84155,0.13364983
699428083000.0,4.1804183717678605,-6.629609190145566,-6.890160309998085,0.25717425,0.06261369,-0.01160644,111.887054,143.73941,0.3587717
699433029000.0,4.1169115801953655,-6.906316764728979,-6.894696590595672,0.2302962,0.05497787,-0.04795292,111.90236,143.61847,0.59623665
699438069000.0,3.993088014297905,-7.24949112818811,-6.871432919882431,0.19822577,0.04795292,-0.070554934,111.911514,143.51349,0.8277863
699443027000.0,3.86253226786764,-7.596139332606429,-6.844421292120982,0.14844026,0.03848451,-0.094989546,111.91088,143.42496,1.0590419
699448108000.0,3.7753992317143656,-7.870773517758926,-6.768685629905845,0.09437868,0.028710667,-0.13225232,111.89291,143.30518,1.2796879
699453047000.0,3.704848469059383,-8.113291447841895,-6.6804972916938565,0.03940081,0.011911872,-0.1459968,111.87296,143.2036,1.4920065
699458086000.0,3.658332021690863,-8.319100373612297,-6.592012161400512,0.01038471,-0.004581489,-0.15363261,111.82858,143.05307,1.6796935
699463075000.0,3.6277308334756615,-8.497607837425278,-6.50530858176772,-0.035124753,-0.016493361,-0.1563815,111.781456,142.92703,1.8614106
699468068000.0,3.629675147171844,-8.545726116178848,-6.380648497288561,-0.079107046,-0.028405234,-0.16371189,111.714264,142.7618,2.022424
699473154000.0,3.6427944517507633,-8.550099309032143,-6.240709339773748,-0.106901415,-0.04642576,-0.16126843,111.64702,142.60901,2.1737864
699478102000.0,3.693799156899811,-8.491157902331443,-6.110811461121613,-0.13408493,-0.06291912,-0.15974127,111.57002,142.43692,2.3153431
699483060000.0,3.7785703348456208,-8.37646679290065,-5.9861478048729255,-0.15577064,-0.099571034,-0.16554448,111.48668,142.27545,2.4450705
699488070000.0,3.844942623345277,-8.231700875165,-5.943182295304545,-0.18997909,-0.13713925,-0.18417588,111.394714,142.11084,2.5727394
699493074000.0,3.89916360075429,-8.069038178842165,-5.952219219234396,-0.22968534,-0.1600467,-0.19456059,111.30086,141.95764,2.691536
699498141000.0,3.947740107759372,-7.892615406141625,-6.034688027065776,-0.27000242,-0.19608775,-0.21685717,111.20033,141.82002,2.818868
699503187000.0,3.989871348212729,-7.70536559521457,-6.189169437585973,-0.2910773,-0.20372356,-0.22937989,111.10221,141.69115,2.944381
699508079000.0,4.008166909309178,-7.513683068318236,-6.354080208861727,-0.32436943,-0.22082779,-0.25167647,111.00173,141.60675,3.076701
699513074000.0,3.997725762086653,-7.304859851304158,-6.542020804354469,-0.3371976,-0.21380283,-0.26389378,110.905334,141.5245,3.2101524
699518071000.0,4.060736629348464,-7.092096834298571,-6.648377135139894,-0.36926803,-0.20769419,-0.27305678,110.82152,141.50671,3.349459
699523144000.0,4.174803992173743,-6.873467904187048,-6.700658117296028,-0.39736784,-0.20372356,-0.27122417,110.74006,141.4924,3.487019
699528137000.0,4.075488713697386,-6.763947842808116,-6.788644328767538,-0.42852196,-0.18753563,-0.2761111,110.67951,141.53726,3.629957
699533072000.0,3.817880518179065,-6.735324743181589,-6.903136727273645,-0.46761733,-0.20738874,-0.30176744,110.610695,141.59277,3.7660823
699538071000.0,3.631063302573808,-6.61406475662377,-7.020147418962907,-0.5103779,-0.22907446,-0.3118467,110.56714,141.69864,3.9246397
699543070000.0,3.4996894122823616,-6.4237990702119605,-7.137931058506813,-0.5458081,-0.24831672,-0.3182608,110.5174,141.8132,4.079982
699548118000.0,3.3649906747971454,-6.213389017108222,-7.23022716130609,-0.59559363,-0.25320363,-0.29932398,110.476585,141.95502,4.1809864
699553669000.0,3.2142756252028546,-5.9587324828917785,-7.29778883869391,-0.6239988,-0.26267207,-0.2996294,110.42768,142.09949,4.279024
699558080000.0,3.0933007540339266,-5.759068464129086,-7.354991405130327,-0.62949663,-0.29871312,-0.30695978,110.39617,142.29172,4.3412185
699563072000.0,2.9548432347952005,-5.536547327513446,-7.424220242201076,-0.6469063,-0.31795537,-0.31031954,110.36874,142.49213,4.4031606
699568058000.0,2.8408146472800926,-5.380868564641204,-7.493335919791667,-0.65484756,-0.3463606,-0.31795537,110.34674,142.73009,4.4302073
699573176000.0,2.7509932042824072,-5.295774755671297,-7.564247764583333,-0.67103547,-0.37048978,-0.3173445,110.32543,142.97108,4.4528584
699578056000.0,2.677009908305206,-5.246119498977191,-7.643401020456173,-0.6899723,-0.39064834,-0.3359759,110.30585,143.25174,4.4487553
699583074000.0,2.6180269803109337,-5.241204250700624,-7.7417059859875215,-0.7122689,-0.39400807,-0.35796702,110.28687,143.53308,4.444418
699588064000.0,2.577720483670804,-5.240517863385276,-7.859660502752636,-0.74281216,-0.4175264,-0.376293,110.26823,143.8386,4.4127865
699593075000.0,2.559808858915741,-5.244995734505926,-8.002952098068489,-0.7431176,-0.41630468,-0.37934732,110.2544,144.13638,4.388868
699598068000.0,2.498536075718913,-5.26390906445186,-8.137929921680245,-0.7696902,-0.41722095,-0.35521814,110.24417,144.45526,4.3453298
699603123000.0,2.336992732751006,-5.316173021513397,-8.256712251153203,-0.7959574,-0.41630468,-0.38545597,110.223816,144.76955,4.3142323
699608033000.0,2.203127674466268,-5.3467594551665245,-8.376111861016225,-0.80573124,-0.42821655,-0.40011674,110.21316,145.09726,4.266205
699613072000.0,2.131009299914602,-5.321002892826645,-8.510046092762597,-0.8210029,-0.4175264,-0.40958515,110.20334,145.42786,4.2302294
699618027000.0,2.040259803257329,-5.274503601717501,-8.586743297601421,-0.83169305,-0.42852196,-0.3979787,110.19254,145.75415,4.149182
699623661000.0,1.901788807166124,-5.183964760142138,-8.576091472904945,-0.82650065,-0.44715336,-0.3903429,110.181725,146.07333,4.074646
699628156000.0,1.8478807327732756,-5.080634975291559,-8.582202637477762,-0.8216137,-0.46486846,-0.37934732,110.172714,146.40494,3.9846632
699633080000.0,1.8711838377347303,-4.922173958885155,-8.610166460762997,-0.81245077,-0.46853364,-0.35705075,110.170074,146.72577,3.8949735
699638046000.0,1.8612046473481372,-4.791707700495504,-8.610755161681043,-0.8020661,-0.48502702,-0.37384954,110.156944,147.05075,3.7705116
699643074000.0,1.7860911348137274,-4.716594049550376,-8.55773416810424,-0.7870999,-0.49296826,-0.3662137,110.158226,147.36305,3.645922
699648117000.0,1.7180438181746502,-4.640287492657205,-8.526170632219594,-0.7690793,-0.4990769,-0.35155296,110.16123,147.69666,3.5331008
699653112000.0,1.6850403870687956,-4.560136253597476,-8.596892024147447,-0.7703011,-0.48075095,-0.34391713,110.16953,148.02379,3.4296694
699658095000.0,1.6490647832953131,-4.506967948071339,-8.661645919483616,-0.7480045,-0.46944994,-0.3436117,110.15774,148.34137,3.3065526
699663078000.0,1.594633672065533,-4.615830273869763,-8.69133543332642,-0.7107417,-0.47952923,-0.3454443,110.14984,148.64748,3.1876004
699668069000.0,1.5642138275759525,-4.707799673002733,-8.710104855288538,-0.6627888,-0.4822781,-0.37018433,110.13773,148.96072,3.0705383
699673141000.0,1.6266778189599742,-4.73512769216364,-8.686680996101913,-0.64721173,-0.50335294,-0.3811799,110.12729,149.26501,2.9504302
699678138000.0,1.6882181511654075,-4.762051610094841,-8.663603507072818,-0.65118235,-0.5186246,-0.40042216,110.096054,149.53908,2.8279119
699683075000.0,1.6576927570260924,-4.78731877124594,-8.574317114534214,-0.6450737,-0.49693888,-0.40225476,110.07155,149.79907,2.7138448
699688034000.0,1.5929973717698838,-4.812201591742639,-8.459856088284607,-0.6533204,-0.47433686,-0.40286562,110.04333,150.0581,2.6040118
699693366000.0,1.469372620438492,-4.828596074552793,-8.364573289331254,-0.657291,-0.4529566,-0.4120286,109.99965,150.305,2.5161068
699698074000.0,1.3494258147876343,-4.841004317136043,-8.285987133932666,-0.6585127,-0.43371433,-0.4202753,109.96172,150.54753,2.4366198
699703097000.0,1.2429468355276694,-4.79889148494137,-8.273996191421519,-0.6603453,-0.419359,-0.4251622,109.90499,150.77011,2.3556767
699708074000.0,1.1497960503188644,-4.725351472186793,-8.30341229890969,-0.6731735,-0.398895,-0.43676865,109.85084,150.99103,2.2859483
699713043000.0,1.0553599411735854,-4.625244563429921,-8.348191623035698,-0.6817256,-0.35796702,-0.43371433,109.78768,151.19312,2.19107
699718047000.0,0.959593617351258,-4.512066028667454,-8.400427946770824,-0.71685034,-0.30909783,-0.42241332,109.7305,151.40137,2.1073117
699723098000.0,0.8354384577402427,-4.4070617783972885,-8.473743489340768,-0.7467828,-0.27550024,-0.4111123,109.67248,151.62094,2.0111547
699728062000.0,0.6847181163693015,-4.313511516234831,-8.567294294194818,-0.7733554,-0.25045475,-0.41386122,109.62214,151.84413,1.9292237
699733071000.0,0.5797701912309956,-4.210075332025503,-8.590743571358509,-0.7666359,-0.2406809,-0.41996986,109.57548,152.08826,1.829097
699738059000.0,0.5001159605806768,-4.1023076227562525,-8.576686658361941,-0.75777835,-0.25900686,-0.43493605,109.52862,152.33319,1.7342082
699743073000.0,0.4808213126617719,-3.996998173548703,-8.64636767342144,-0.72784597,-0.2846632,-0.44440445,109.494026,152.58597,1.5994847
699748107000.0,0.4996992906823299,-3.893169348644151,-8.769074565051396,-0.7165449,-0.30940324,-0.45234573,109.45693,152.83475,1.4691262
699753091000.0,0.5728541821204027,-3.8498764,-8.91674482853914,-0.713796,-0.3368922,-0.4700608,109.40291,153.08905,1.3304987
699758063000.0,0.6853634626135197,-3.8498764,-9.083062672385452,-0.6973027,-0.32559118,-0.47647488,109.35527,153.32936,1.201871
699763103000.0,0.7204419341796875,-3.8745276194010416,-9.131059216878256,-0.65301496,-0.31978795,-0.47250426,109.30188,153.59082,1.0654718
699768065000.0,0.7088403517578125,-3.913199560807292,-9.107855971272786,-0.5852089,-0.28619036,-0.46883908,109.255905,153.83365,0.94649124
699773123000.0,0.7166595593554645,-3.962273216393619,-9.075455487928432,-0.52870387,-0.25381452,-0.48472157,109.2083,154.08336,0.84527934
699778064000.0,0.8135620061435654,-4.054075430696271,-9.004053830782496,-0.50823987,-0.23365596,-0.47739118,109.17379,154.31729,0.7513057
699783066000.0,0.8974361615499552,-4.149278492808048,-8.931991346349237,-0.52015173,-0.2125811,-0.4810564,109.11148,154.53201,0.666604
699788075000.0,0.9499984291164458,-4.249624794202609,-8.86031559497958,-0.5390886,-0.1685988,-0.47739118,109.061775,154.7373,0.5952318
699793067000.0,0.9849705100019768,-4.365238864894248,-8.79049377011267,-0.5561928,-0.12522738,-0.4633413,108.99752,154.92535,0.5458982
699798131000.0,0.9801773774461356,-4.518619056631745,-8.723390014429729,-0.5665775,-0.07941248,-0.46700647,108.93836,155.11209,0.5122069
699803086000.0,0.9755408502657557,-4.615249888619969,-8.692108450835232,-0.6075055,-0.0720821,-0.47708577,108.853714,155.28917,0.49194872
699808081000.0,0.9710005962794228,-4.578927809320425,-8.746591688306758,-0.6218608,-0.062308256,-0.48624873,108.777,155.45743,0.4848664
699813067000.0,1.012042896587848,-4.510003105756759,-8.780727284745085,-0.64660084,-0.042760566,-0.4822781,108.67284,155.6071,0.47339892
699818073000.0,1.2703328681532475,-4.285195098174199,-8.718546102065249,-0.6560693,-0.047647487,-0.4728097,108.56908,155.75267,0.4587409
699823106000.0,1.492363168866328,-4.077385983117128,-8.660643504794134,-0.68875057,-0.030848695,-0.46517387,108.469376,155.92186,0.45336273
699828161000.0,1.5378705711505922,-3.954516220285768,-8.624237811054709,-0.68936145,-0.008552114,-0.44868052,108.37763,156.08032,0.44636592
699833246000.0,1.5786179316575517,-3.841465979301641,-8.58884083571729,-0.70616025,0.03176499,-0.4456262,108.30271,156.29633,0.5011023
699838074000.0,1.5591662405763569,-3.856054785696256,-8.569389195414388,-0.73761976,0.04550946,-0.44837508,108.23237,156.51196,0.5519715
699843063000.0,1.5012913858637449,-3.86354693722712,-8.582794041601451,-0.7623598,0.05467244,-0.43463063,108.1739,156.7503,0.6195887
699848144000.0,1.20465884712085,-3.823461409242936,-8.807272194661834,-0.77640975,0.09254608,-0.4364632,108.11751,156.98958,0.6984288
699853161000.0,0.9117626757228766,-3.783880796391795,-9.028922833099925,-0.7651087,0.129198,-0.4352415,108.052315,157.22203,0.7697154
699858079000.0,0.9258226828084252,-3.6325855842728183,-9.057508934603812,-0.7644979,0.14477506,-0.43585235,107.99019,157.45651,0.8437594
699863105000.0,1.0561729254162486,-3.434646429669007,-9.014058988164493,-0.7892379,0.22907446,-0.4269948,107.94444,157.69012,0.9422671
699868073000.0,1.0620849378901014,-3.341051426479035,-8.95274628719127,-0.78038037,0.269697,-0.39828414,107.893425,157.93001,0.95228916
699873114000.0,1.0204909934807582,-3.285592753503733,-8.883423126938542,-0.79076505,0.3145956,-0.3643811,107.85881,158.17659,0.9843016
699878196000.0,1.0705530365560891,-3.098089577531645,-8.858546,-0.79809546,0.31764993,-0.42241332,107.813705,158.45464,1.0547185
699883070000.0,1.1673306572020952,-2.84850530221519,-8.858546,-0.8035932,0.30909783,-0.42210788,107.79872,158.72879,1.1223682
699888069000.0,1.2218457432184322,-2.641979908406084,-8.903164397803979,-0.8014552,0.35185838,-0.42271876,107.766624,159.00435,1.1968011
699893074000.0,1.2649848251642517,-2.4478537918999197,-8.959245533165332,-0.8054258,0.41508293,-0.4111123,107.741714,159.27716,1.2718241
699898142000.0,1.346071840101792,-2.2817649673417453,-9.036856113137526,-0.8020661,0.4822781,-0.408058,107.72714,159.59128,1.3825353
699903090000.0,1.4515863267946134,-2.141079020061499,-9.127296801929806,-0.79626286,0.5271767,-0.44043383,107.71231,159.89964,1.5037593
699908073000.0,1.4912153446623992,-2.1722345557299194,-9.20309934152385,-0.7687739,0.5714644,-0.441961,107.71962,160.24323,1.6526233
699913096000.0,1.501148086021061,-2.281494658816849,-9.27262842731778,-0.7696902,0.63041294,-0.39950588,107.737526,160.58617,1.8123932
699918076000.0,1.5455584555728308,-2.4550098127781554,-9.26850201739384,-0.77640975,0.70646566,-0.35888332,107.762794,160.954,2.0023122
699923117000.0,1.6018523327179088,-2.652038407278204,-9.240355005344476,-0.79504114,0.7480045,-0.37568212,107.7871,161.31848,2.19517
699928079000.0,1.5781036622559437,-2.834730859848255,-9.211852979767324,-0.7870999,0.7861836,-0.37232238,107.817795,161.65619,2.4008555
699933077000.0,1.519997576611027,-3.01389118525038,-9.182800366717249,-0.795652,0.8194757,-0.3118467,107.863174,161.99654,2.6071966
699938070000.0,1.5550704414795025,-3.1075045744092846,-9.103036858729231,-0.8020661,0.8335256,-0.2846632,107.87535,162.29297,2.824056
699943082000.0,1.627207169474827,-3.1676185702012187,-9.00284707497704,-0.8063421,0.8374963,-0.28008172,107.90011,162.58499,3.0378778
699948078000.0,1.6677771206819867,-3.1559802673832467,-8.87637971756857,-0.82772243,0.8359691,-0.2773328,107.906494,162.84305,3.2347457
699953087000.0,1.6423771993751983,-2.993421004415969,-8.693500559991529,-0.8698721,0.8200866,-0.25534168,107.91913,163.10297,3.4213667
699958046000.0,1.672691226116293,-2.7658413208473904,-8.596482381226433,-0.8888089,0.80909103,-0.24709499,107.91336,163.34204,3.624878
699963091000.0,1.7781615615995237,-2.444636262849772,-8.610864485810676,-0.88147855,0.8029824,-0.26358834,107.906456,163.5811,3.8202703
699968035000.0,1.9062132317068368,-2.127121364466306,-8.70008560609936,-0.8765916,0.788627,-0.26267207,107.90517,163.84122,4.00396
699973086000.0,2.072768677186424,-1.7987692459517954,-8.89995216055091,-0.86345804,0.8026769,-0.2657264,107.900894,164.09254,4.1905613
699978036000.0,2.2405091510432262,-1.5489464223719676,-9.06993285115304,-0.86070913,0.84207773,-0.26908615,107.91611,164.4061,4.4051304
699983096000.0,2.4195018143156632,-1.4134925409703505,-9.200548742138364,-0.86070913,0.86101454,-0.27275133,107.93041,164.7113,4.6128993
699988027000.0,2.576827124670764,-1.4022674636815922,-9.328475396254024,-0.86254174,0.890947,-0.2751948,107.97393,165.0895,4.863885
699993062000.0,2.708535032923617,-1.5951254985074628,-9.460184041264268,-0.8713993,0.92149025,-0.2611449,108.02236,165.46257,5.112964
699998091000.0,2.848302212942565,-1.7646961670535013,-9.574800204661685,-0.86162543,0.97097033,-0.2855795,108.06698,165.86363,5.410601
700003092000.0,3.0037398638867034,-1.887162138434304,-9.654873749606608,-0.8570439,0.9630291,-0.29779682,108.11604,166.26062,5.691293
700008065000.0,3.208855022779729,-1.9388012250878075,-9.615906801806322,-0.8536842,1.0122037,-0.3032946,108.14886,166.62279,6.018077
700013094000.0,3.537505194209734,-1.8228069994380327,-9.29208966843954,-0.84971356,0.9966267,-0.27366763,108.18219,166.97578,6.3149457
700018436000.0,3.751399562977397,-1.814936433008573,-9.125398071122367,-0.8756753,0.9783007,-0.24312437,108.205154,167.31548,6.646027
700023115000.0,3.72083945674201,-1.9939315233047543,-9.265101596258768,-0.91690874,0.95081174,-0.21594086,108.23287,167.65099,6.959947
700028083000.0,3.7488449142297138,-2.1285101340650727,-9.31044699882399,-0.9398162,0.9370673,-0.19120082,108.274445,168.00156,7.3340945
700033075000.0,3.954992059035672,-2.1003990686005487,-9.052762639749115,-0.9443977,0.915687,-0.1826487,108.31532,168.3519,7.6895785
700038056000.0,4.195412793517161,-2.0162581494279848,-8.808341403930772,-0.95111716,0.8698721,-0.17562376,108.34319,168.6704,8.0117445
700043073000.0,4.571255998914638,-1.7155837028454093,-8.611024221472572,-0.945314,0.7996226,-0.18142697,108.366394,168.98088,8.313572
700048083000.0,4.898332705374753,-1.4864932121696253,-8.450677665877713,-0.94134337,0.7968737,-0.13316862,108.40706,169.28926,8.659219
700053062000.0,4.982976932938856,-1.6134595780670613,-8.474189937672584,-0.9254609,0.8011498,-0.071776666,108.445564,169.58662,8.980067
700058064000.0,5.07256126933836,-1.7148611337168933,-8.525361891875807,-0.9129381,0.7837401,-0.099571034,108.49574,169.94406,9.369734
700063085000.0,5.191808301011805,-1.6480828298482293,-8.75431570657673,-0.8793405,0.7724391,-0.124005646,108.56313,170.28235,9.75168
700068064000.0,5.304099582153758,-1.5669990511446013,-8.968939561045403,-0.872621,0.75991637,-0.13805555,108.61354,170.59924,10.135337
700073116000.0,5.373322053386112,-1.373175630541778,-9.093540462228155,-0.8686504,0.74036866,-0.17470746,108.648346,170.9045,10.508772
700078348000.0,5.444872769144981,-1.1472988392081784,-9.228628343959109,-0.86376345,0.7031059,-0.24770586,108.666504,171.22815,10.885229
700083074000.0,5.507967504460966,-0.6635721661747213,-9.417912989126394,-0.78984874,0.625526,-0.32559118,108.66886,171.5278,11.238348
700088062000.0,5.574560085873606,-0.153028652613383,-9.617691196933086,-0.66339964,0.49357912,-0.33444872,108.671265,171.84921,11.574566
700093073000.0,5.554941531600388,0.0150107866401551,-9.453584695635303,-0.50335294,0.36102137,-0.36132678,108.64227,172.13959,11.884263
700098075000.0,5.522417664015519,0.1311678856062075,-9.23520882541222,-0.33261612,0.2125811,-0.34300083,108.61776,172.38382,12.143118
700103088000.0,5.574260447715411,-0.0042534113952497,-8.978232289594205,-0.204029,0.07971791,-0.35155296,108.58906,172.70615,12.379313
700108056000.0,5.645203741697731,-0.1968136311076792,-8.71472933677708,-0.12308934,0.06963864,-0.32253686,108.575745,172.9844,12.599432
700113071000.0,5.965457572263137,-0.2772689574313296,-8.797828854498407,-0.0870483,0.2312125,-0.33322698,108.55156,173.25468,12.836111
700118038000.0,6.301577003105096,-0.3482801069506369,-8.906712335987262,-0.11728613,0.43279803,-0.269697,108.55845,173.50966,13.072555
700123091000.0,6.566690861900027,-0.4104418796519931,-8.863914326945675,-0.18845193,0.5723807,-0.18661933,108.55985,173.72342,13.356607
700128110000.0,6.823031285139654,-0.4712684077646208,-8.807432770225073,-0.25534168,0.52626044,-0.18142697,108.556854,173.94191,13.638398
700133059000.0,7.051872843086952,-0.5346770242151193,-8.962314417306276,-0.3295618,0.29443705,-0.16493362,108.577965,174.16937,13.950707
700138063000.0,7.273572193060667,-0.6001791211512985,-9.204167928398697,-0.36041048,0.14905111,-0.23335053,108.57572,174.40474,14.26814
700143069000.0,6.964719517387702,-0.3462786115427098,-10.033330459683356,-0.3484986,-0.17684549,-0.25900686,108.58212,174.63425,14.50747
700148150000.0,6.5212994220360825,-0.0103543017010309,-11.018708657216497,-0.27122417,-0.44257188,-0.30970868,108.55862,174.85654,14.718422
700153118000.0,6.3685765,0.10534488,-11.256204184626512,-0.124005646,-0.64476824,-0.33414328,108.528175,175.0481,14.873541
700158079000.0,6.3685765,0.10534488,-11.09912823277198,0.004581489,-0.7519751,-0.31764993,108.49133,175.21997,14.9764805
700163078000.0,5.744905954879133,-0.0785261222452914,-10.937336841391073,0.12064589,-0.7672467,-0.28619036,108.43333,175.42276,14.919773
700168079000.0,4.853515158608928,-0.3413266030194276,-10.77397442607148,0.21991149,-0.7501425,-0.2687807,108.377304,175.58867,14.8427
700173425000.0,3.937034551724138,-0.5937284158827174,-10.598999964071856,0.2947425,-0.6591236,-0.24465153,108.33191,175.72052,14.791234
700178068000.0,3.5789631896551724,-0.4697806403923188,-10.44291731736527,0.3827071,-0.5213735,-0.23915374,108.289375,175.81766,14.758835
700183088000.0,3.208143216388861,-0.3264038383571215,-10.265840299930131,0.44715336,-0.3539964,-0.23823744,108.184586,175.80902,14.554163
700188075000.0,3.0651364244934625,-0.0546907446092424,-9.975059723525302,0.46792278,-0.20219639,-0.25045475,108.083626,175.78757,14.392445
700193170000.0,2.925698419199228,0.1966779499372889,-9.670260060299084,0.42332962,-0.12492194,-0.25686884,107.96671,175.789,14.189573
700198118000.0,2.8662657546936807,0.1418171228615533,-9.286234156198743,0.3417791,-0.116675265,-0.2657264,107.852196,175.79448,14.019197
700203788000.0,2.817936482655982,0.0014727917992749,-8.83361248549895,0.2687807,-0.1432479,-0.26633725,107.72964,175.86017,13.851287
700208048000.0,2.8957788993703493,-0.5512081799236788,-8.421048026426254,0.22876903,-0.17195857,-0.27122417,107.61052,175.93701,13.693819
700213041000.0,2.987015328162564,-1.198986605231826,-7.937495363480252,0.18692477,-0.18661933,-0.28130344,107.49074,176.01363,13.55488
700218064000.0,3.0334697838863893,-1.8006766296587926,-7.442577544722535,0.13439035,-0.19792034,-0.28008172,107.37818,176.10127,13.414894
700223065000.0,3.0738750793025877,-2.3932859414698164,-6.94873643592051,0.07971791,-0.21288654,-0.27885997,107.26799,176.19907,13.275974
700228059000.0,3.0504068569818665,-2.7341012360311443,-6.5505544321381,0.013744468,-0.23915374,-0.26053402,107.146545,176.16795,13.181853
700233028000.0,3.0065296350271487,-2.992488625151112,-6.184911781262166,-0.07147124,-0.24495697,-0.2556471,107.023926,176.15767,13.091615
700238127000.0,3.0228532347797925,-2.900780009974093,-6.225718182642487,-0.19272798,-0.28344148,-0.26236662,106.87782,176.04317,13.005696
700243024000.0,3.05322727599926,-2.7272137106217613,-6.364571330866026,-0.26816985,-0.2864958,-0.26908615,106.73495,175.93884,12.929547
700248090000.0,3.2166598236955437,-2.311633031977967,-6.6740685267601405,-0.40530908,-0.2666427,-0.25289822,106.58443,175.82758,12.8505335
700253069000.0,3.450657166149224,-1.7720065686029045,-7.0704314331998,-0.5357288,-0.21380283,-0.22143865,106.43828,175.73357,12.781306
700258047000.0,3.6694867693987314,-1.3754722269615478,-7.443165475579995,-0.6560693,-0.13744467,-0.18325958,106.30486,175.71483,12.729366
700263047000.0,3.880903803997752,-1.0564247315774264,-7.8044961731797375,-0.7452556,-0.0693332,-0.14080444,106.18468,175.71948,12.690402
700268062000.0,4.098404743094842,-0.7773642408801997,-8.187842800831946,-0.7965683,-0.0009162979,-0.098043874,106.109245,175.86627,12.708437
700273500000.0,4.367030180366056,-0.7210395586955075,-8.729426431281198,-0.79198676,0.059253927,-0.043066,106.05311,176.01576,12.742296
700278079000.0,4.593222875707155,-0.673612063343594,-9.18546016497504,-0.77366084,0.11301007,-0.0033597588,106.0281,176.2679,12.821633
700283047000.0,4.650510909197736,-0.622629549257558,-9.514774917637004,-0.71929383,0.17012598,0.03726278,106.02213,176.50067,12.916606
700288026000.0,4.645417021472065,-0.5716916825873304,-9.789839535947014,-0.6417139,0.21074851,0.067500606,106.026566,176.71573,13.019979
700293043000.0,4.536087160219046,-0.3826313855281232,-9.938348652125487,-0.5363397,0.23609942,0.09437868,106.046906,176.9283,13.152935
700298083000.0,4.410648371282718,-0.1720731901689252,-10.068267352700946,-0.41141775,0.2434298,0.11789699,106.07575,177.10753,13.288659
700303061000.0,4.244399970463001,0.0172790346134766,-10.074947045369989,-0.28160888,0.22815818,0.12705997,106.106926,177.26476,13.405202
700308093000.0,4.060124604526664,0.2015543797478296,-10.03510370473336,-0.16401732,0.18784106,0.13041973,106.14288,177.386,13.513183
700313045000.0,3.8779298376382343,0.2791106465333205,-9.90423683301279,-0.077579886,0.13255776,0.13561209,106.180885,177.52382,13.580886
700318065000.0,3.6930060522742574,0.3299646899221079,-9.747051552697377,-0.01160644,0.079107046,0.1301143,106.21607,177.63213,13.635711
700323127000.0,3.5552077724086817,0.257134977600847,-9.536998747379563,-0.00030543262,0.029932396,0.12003502,106.24658,177.76514,13.644066
700328079000.0,3.439722308861832,0.136628432474325,-9.311049132556908,-0.025045475,-0.00030543262,0.119729586,106.27826,177.88684,13.642723
700333073000.0,3.4347635303891915,-0.0157875367009477,-9.107952730792498,-0.0571159,-0.0125227375,0.12736541,106.301865,178.01385,13.605016
700338046000.0,3.4539712038717485,-0.1742509532425892,-8.911073977313976,-0.087964594,-0.017715093,0.129198,106.324394,178.14514,13.562861
700343508000.0,3.5601095056842498,-0.3245716939296679,-8.79127884947437,-0.15302174,-0.043676864,0.13225232,106.33725,178.26653,13.50059
700348107000.0,3.6625463369987914,-0.4474958786715043,-8.705231897478836,-0.19761491,-0.03481932,0.13041973,106.35045,178.38885,13.449215
700353050000.0,3.8010993904528494,-0.5754604693180607,-8.652214922216302,-0.21013765,-0.015271631,0.13744467,106.367905,178.4817,13.410826
700358041000.0,3.953889508961108,-0.7027855592115078,-8.6165639725626,-0.21319197,0.021380283,0.1518,106.38768,178.58221,13.381382
700363037000.0,4.078059128583488,-0.7959841327958805,-8.622529941077158,-0.22999077,0.05100725,0.16676621,106.40516,178.6593,13.3802185
700368084000.0,4.196385161657943,-0.8816685037776465,-8.638850889287523,-0.23732115,0.09987647,0.16890424,106.423546,178.73332,13.395238
700373105000.0,4.299491608321377,-0.9360401171449068,-8.6998491205165,-0.24770586,0.12034045,0.17104226,106.44265,178.7874,13.436145
700378067000.0,4.383403130007725,-0.951773534306368,-8.815226983666262,-0.24190263,0.11178834,0.17745635,106.4636,178.83772,13.481708
700383046000.0,4.443030993874281,-0.9239330779851098,-8.971037975497126,-0.24007004,0.09162979,0.16584991,106.4783,178.8731,13.549923
700388045000.0,4.488148723777212,-0.8697917549901046,-9.15150889510885,-0.24465153,0.039095376,0.1591304,106.49581,178.9073,13.604917
700393045000.0,4.505733619043693,-0.7809795193075021,-9.342936590272052,-0.23671028,-0.03573562,0.1423316,106.50898,178.9372,13.65165
700398085000.0,4.495785695713108,-0.6566310437922507,-9.546868577081616,-0.23273966,-0.11911872,0.12736541,106.52013,178.9692,13.679941
700403052000.0,4.440117332699275,-0.5248786133695652,-9.73978334470612,-0.19792034,-0.21166481,0.10476339,106.521,179.00453,13.687133
700408046000.0,4.348661541213768,-0.3852881709782608,-9.927508186694848,-0.16768251,-0.27550024,0.08032878,106.51666,179.0403,13.678672
700413170000.0,4.212638377633559,-0.293303225984763,-10.069686915914222,-0.1151481,-0.3387248,0.06627888,106.512375,179.08688,13.63143
700418071000.0,4.053713126975169,-0.2403281316760722,-10.171222249435663,-0.062308256,-0.37720928,0.056505036,106.50231,179.1251,13.5744095
700423084000.0,3.883518926502647,-0.2332672738212395,-10.246091383058236,-0.002443461,-0.39767328,0.055283304,106.484665,179.17758,13.47769
700428078000.0,3.704783702792484,-0.2829159545624416,-10.28581112810132,0.042455133,-0.41813725,0.049480084,106.46344,179.21898,13.37294
700433044000.0,3.533392918097701,-0.3435892677942493,-10.265037842503236,0.090713486,-0.41691554,0.046120327,106.441315,179.252,13.236524
700438046000.0,3.3665824139886578,-0.4150794532703213,-10.188781105860114,0.10934488,-0.42119157,0.049785517,106.42036,179.27945,13.097095
700443041000.0,3.2181803640574613,-0.495346366939314,-10.075227259161537,0.13103059,-0.4251622,0.051923547,106.38833,179.28162,12.92674
700448122000.0,3.0850353236392065,-0.5856947694898857,-9.92306141356396,0.160963,-0.41905355,0.053145275,106.35806,179.27533,12.763706
700453062000.0,2.985292684342673,-0.6814142680275184,-9.76645359375314,0.1685988,-0.39706242,0.055283304,106.3171,179.2525,12.582465
700458063000.0,2.917952212815105,-0.7872352522366175,-9.59810216380436,0.17379116,-0.38087448,0.04917465,106.274956,179.22223,12.407605
700463066000.0,2.8641344080501216,-0.8530281948742451,-9.458423089966644,0.14782938,-0.3594942,0.04428773,106.23135,179.17989,12.218722
700468100000.0,2.8250207317677813,-0.8747579666258001,-9.34977436734878,0.124311075,-0.33475417,0.04337143,106.187775,179.13571,12.041769
700473142000.0,2.786456431418587,-0.9205563311892542,-9.236162309162388,0.105068825,-0.2950479,0.046731193,106.1351,179.07556,11.873367
700478058000.0,2.75046687697936,-1.0285252307240362,-9.112768937534126,0.06566802,-0.267559,0.043676864,106.08098,179.02838,11.71399
700483030000.0,2.719567280015682,-1.1074723724884836,-9.011036840047044,0.04153884,-0.23793201,0.030543262,106.02074,178.97849,11.565583
700488075000.0,2.695890441830834,-1.1453553630304811,-8.940006325492503,0.03481932,-0.21471913,0.03176499,105.964745,178.93416,11.427706
700493025000.0,2.6850564324417348,-1.1896731873340545,-8.87910074510768,0.004581489,-0.1740966,0.02565634,105.90083,178.88245,11.303184
700498117000.0,2.6946473088307603,-1.247218696036975,-8.831146112793785,-0.02076942,-0.14019357,0.03176499,105.84168,178.83078,11.186988
700503042000.0,2.705489256183917,-1.3042208874284609,-8.79464538112329,-0.043676864,-0.09682214,0.031154128,105.78047,178.7783,11.087927
700508074000.0,2.719513106799884,-1.3649907440585896,-8.775947076341062,-0.05497787,-0.055283304,0.026267206,105.72076,178.7298,11.000841
700513066000.0,2.74032842500493,-1.4173616486491816,-8.7655126669296,-0.0842994,-0.015577064,0.030543262,105.66878,178.67932,10.929614
700518082000.0,2.778220096154605,-1.4505169536383355,-8.774985794912245,-0.106901415,0.018325957,0.03970624,105.61764,178.63054,10.870367
700523128000.0,2.8190857675586622,-1.478752632071892,-8.781932,-0.11575896,0.05009095,0.034208454,105.56035,178.57445,10.823855
700528079000.0,2.8664295876485277,-1.492955748437344,-8.781932,-0.13255776,0.06291912,0.027794369,105.50616,178.52696,10.782596
700533068000.0,2.9042510303742994,-1.5010800566853484,-8.798042479783826,-0.13775012,0.09193522,0.03176499,105.45519,178.47235,10.759677
700538070000.0,2.91383928167534,-1.4914917553242597,-8.860366238390712,-0.1432479,0.112704635,0.028710667,105.40102,178.42377,10.738661
700543058000.0,2.929948103393232,-1.4731273854784277,-8.928985229043146,-0.15210545,0.122783914,0.024740042,105.3531,178.3737,10.734588
700548132000.0,2.9654075554592723,-1.4288031282495666,-9.017633743500866,-0.14844026,0.1337795,0.007330383,105.30115,178.32317,10.736643
700553087000.0,2.999017673298769,-1.383097596273493,-9.10313609883344,-0.15668693,0.13041973,0.0061086523,105.24628,178.2829,10.734011
700558070000.0,3.019636033376539,-1.3057786921581334,-9.175300251458198,-0.16615535,0.12308934,-0.0036651916,105.18475,178.24376,10.733353
700563057000.0,3.038856683119428,-1.2259279301067894,-9.245080139806015,-0.15424347,0.11026118,-0.00061086525,105.13674,178.21281,10.726855
700568066000.0,3.0529558378857646,-1.1366329233761143,-9.30617747496816,-0.14385876,0.115453534,-0.00580322,105.084366,178.18607,10.723567
700573094000.0,3.070273244008694,-1.0475671327348328,-9.36630418077868,-0.14019357,0.116675265,-0.01038471,105.03629,178.17447,10.71632
700578076000.0,3.1018346518522018,-0.9619007435078436,-9.420408926762429,-0.13652839,0.11911872,-0.010079277,104.98894,178.15994,10.711017
700583150000.0,3.140136232756907,-0.8764510200655934,-9.47288204680978,-0.12492194,0.13255776,-0.005497787,104.95388,178.16125,10.710411
700588073000.0,3.2525909195189824,-0.8155380688133571,-9.491624380441264,-0.118507855,0.13836098,-0.013133603,104.91594,178.16335,10.708562
700593213000.0,3.3639403588102867,-0.7547069034635033,-9.506977811672009,-0.096516706,0.15057829,-0.0067195175,104.8864,178.17734,10.717114
700598116000.0,3.396466111074552,-0.7303125574248852,-9.470386377521864,-0.08246681,0.1685988,-0.009773844,104.852715,178.19208,10.729013
700603144000.0,3.429821094224608,-0.7052962874101654,-9.432862059572257,-0.0711658,0.17867808,-0.008552114,104.82901,178.2149,10.762526
700608074000.0,3.4567508935449736,-0.6953714412910053,-9.375016802751322,-0.07086037,0.19028452,0.00030543262,104.80739,178.23607,10.800642
700613058000.0,3.48200526984127,-0.6903205660317461,-9.309355107936508,-0.057421334,0.19242255,-0.0027488936,104.78319,178.25046,10.838017
700618069000.0,3.505682768338039,-0.6974201673352157,-9.27935383166196,-0.047647487,0.20280726,-0.0018325958,104.77039,178.27032,10.888296
700623140000.0,3.5293240655827085,-0.7068766862330834,-9.25571253441729,-0.049480084,0.20738874,-0.0036651916,104.756226,178.28958,10.936333
700628088000.0,3.5338416,-0.6971352343368017,-9.26274330487928,-0.04550946,0.2049453,-0.00580322,104.74165,178.30367,10.997277
700633149000.0,3.5338416,-0.6824464218911,-9.277431912819477,-0.052534413,0.2134974,-0.0021380284,104.72872,178.3208,11.061138
700638071000.0,3.561008424396569,-0.6683104099940156,-9.26052018332336,-0.04642576,0.21960606,-0.00030543262,104.71605,178.33095,11.12731
700643051000.0,3.594306673349292,-0.6540397744464393,-9.236735790744063,-0.04153884,0.21685717,-0.0067195175,104.70233,178.34338,11.191828
700653054000.0,3.6684913643870463,-0.6258683515800803,-9.240492672047743,-0.042760566,0.21105394,-0.005497787,104.6984,178.35739,11.254652
700658044000.0,3.699525673224044,-0.604132524143898,-9.259977894353373,-0.043676864,0.19822577,0.0012217305,104.69434,178.36975,11.313153
700663037000.0,3.728558437279903,-0.579938538939486,-9.28417186439992,-0.03634648,0.18509217,-0.0067195175,104.6843,178.38339,11.380082
700668404000.0,3.7349546,-0.5746084,-9.282233603432942,-0.033292156,0.17745635,-0.011301007,104.68015,178.40086,11.450293
700673117000.0,3.7349546,-0.5746084,-9.274205491639986,-0.023823744,0.16401732,-0.0106901415,104.67525,178.41432,11.513478
700678105000.0,3.7378593102995215,-0.5775131224318005,-9.284872703151096,-0.023823744,0.14477506,-0.007941248,104.6674,178.43481,11.578599
700683045000.0,3.743127030152544,-0.5827808642868277,-9.311211577441265,-0.015577064,0.13133603,-0.021380283,104.65516,178.45091,11.639985
700688048000.0,3.753647372660756,-0.5872238975535853,-9.30607845730395,-0.0076358155,0.11911872,-0.014049901,104.65617,178.46463,11.694139
700693050000.0,3.766017989928553,-0.591347436642851,-9.289583741198244,0.0009162979,0.10873401,-0.013744468,104.65133,178.47676,11.743884
700698144000.0,3.7732618,-0.6050870097837011,-9.277660193358097,-0.00030543262,0.09407325,-0.017715093,104.64899,178.48795,11.78732
700703093000.0,3.7732618,-0.630974896831986,-9.272483044133711,0.005192355,0.07819075,-0.016493361,104.64828,178.49442,11.82633
700708067000.0,3.7793092625439417,-0.6396301994992467,-9.262285604347516,0.015577064,0.06719518,-0.03145956,104.64023,178.4995,11.867816
700713087000.0,3.789656318430304,-0.636181215684052,-9.248489337757372,0.0143553335,0.053145275,-0.022296581,104.63956,178.50468,11.902814
700719514000.0,3.805611075443471,-0.6316168955695661,-9.232493343876897,0.011911872,0.043066,-0.038789943,104.63082,178.50366,11.935973
700723136000.0,3.835264565163497,-0.627910209354563,-9.236200107501604,0.006414085,0.03756821,-0.03176499,104.63164,178.50197,11.965512
700728070000.0,3.87565946253473,-0.6228608471831588,-9.24124957512289,0.006414085,0.04642576,-0.031154128,104.619705,178.50272,11.999724
700733048000.0,3.8523938221870986,-0.6487054397461227,-9.21103646626494,-0.0036651916,0.029626964,-0.040927973,104.606766,178.50795,12.024422
700738037000.0,3.82407495118048,-0.6770243452514076,-9.17799807912674,0.0036651916,0.02076942,-0.043676864,104.59641,178.50777,12.053202
700743051000.0,3.8168066783116754,-0.6886319433766496,-9.13986615462879,0.014966198,0.020463986,-0.047036625,104.58319,178.51047,12.0892935
700748099000.0,3.811936759262617,-0.6983717814747658,-9.100906497129042,0.0106901415,0.01863139,-0.038789943,104.572784,178.51482,12.121636
700753063000.0,3.816003925108619,-0.7035416251086187,-9.08466200990199,0.010995574,0.021991149,-0.03756821,104.55177,178.50935,12.15204
700758036000.0,3.820816032454279,-0.7083537324542791,-9.070225888855209,0.0067195175,0.027183503,-0.043676864,104.531395,178.50632,12.181826
700763047000.0,3.834532308290931,-0.7399184659383419,-9.051387682131098,-0.003970624,0.022602014,-0.036957346,104.514725,178.50215,12.208709
700768025000.0,3.848801482310685,-0.7732132549835379,-9.032362216102964,-0.00580322,0.0290161,-0.038789943,104.49426,178.49762,12.239621
700773103000.0,3.858037242616416,-0.7879626468816815,-9.0431700934952,-0.005192355,0.02565634,-0.032375857,104.47795,178.49327,12.267894
700778086000.0,3.866683952962493,-0.800932694343178,-9.056139978438123,-0.005192355,0.03634648,-0.024740042,104.461975,178.48964,12.301281
700783060000.0,3.887168030537544,-0.8262174117966953,-9.045148651328176,-0.0143553335,0.036651913,-0.018936822,104.44435,178.48143,12.332775
700788068000.0,3.912246787282995,-0.8563119408408283,-9.025085750679777,-0.016798794,0.03726278,-0.022296581,104.42661,178.47157,12.366581
700793069000.0,3.931817145310259,-0.8768157686528348,-9.036255067501674,-0.023518313,0.03940081,-0.016187929,104.41437,178.46123,12.402317
700798123000.0,3.950327957892724,-0.8953266102285113,-9.0547657834401,-0.02321288,0.0421497,-0.01160644,104.400925,178.45004,12.437633
700803080000.0,3.9587943677279753,-0.90021986,-9.045366403709428,-0.02107485,0.04734206,-0.004581489,104.38571,178.43423,12.478986
700808095000.0,3.963743121154044,-0.90021986,-9.025571493353942,-0.03604105,0.048258353,-0.0061086523,104.36956,178.4236,12.518976
700818072000.0,3.971710740815169,-0.87256885343003,-9.083566522972207,-0.04184427,0.040011674,-0.003970624,104.35245,178.40628,12.558506
700823070000.0,3.972912443477413,-0.8604502434774125,-9.117779556737242,-0.038179077,0.036957346,0.0012217305,104.336105,178.3906,12.598833
700828105000.0,3.968207673451068,-0.8557454734510684,-9.150713143428629,-0.034513887,0.03604105,-0.0012217305,104.31912,178.37738,12.63624
700833050000.0,3.964798,-0.8497953163647528,-9.180932209088118,-0.044898596,0.032070424,0.008857546,104.3058,178.37152,12.667216
700838058000.0,3.964798,-0.8399783857742299,-9.205474535564424,-0.047036625,0.034513887,0.007330383,104.28869,178.3633,12.699203
700843057000.0,3.970589604065923,-0.82449474854436,-9.222465,-0.040927973,0.03573562,0.009468411,104.27512,178.356,12.72695
700848107000.0,3.9896807271291816,-0.7958579144379749,-9.222465,-0.027488936,0.03268129,0.013133603,104.26178,178.34727,12.753539
700853102000.0,4.003105,-0.7757214,-9.214194098484848,-0.03176499,0.032070424,0.010995574,104.24472,178.34491,12.778773
700858077000.0,4.003105,-0.7757214,-9.185698437101276,-0.03145956,0.03726278,0.014049901,104.23054,178.33702,12.804091
700863059000.0,4.006964502639583,-0.7731484027180846,-9.159858059169856,-0.027794369,0.038789943,0.01863139,104.21681,178.33617,12.830458
700868073000.0,4.021100036777549,-0.7637247296928662,-9.141010909920515,-0.022296581,0.036957346,0.011911872,104.20094,178.33516,12.856731
700873085000.0,4.034143977737738,-0.7611845121201201,-9.120925995395396,-0.019242255,0.041233405,0.0033597588,104.18591,178.33345,12.885986
700878091000.0,4.043741767567568,-0.7803803272972972,-9.09693127027027,-0.009773844,0.040011674,0.014660766,104.17491,178.32753,12.912473
700883063000.0,4.055532060551189,-0.7982822553328026,-9.07767721410805,-0.016187929,0.036651913,0.013439035,104.15975,178.32758,12.946396
700888054000.0,4.074554220963089,-0.8125488334334892,-9.07292158710576,-0.024129177,0.04428773,0.02443461,104.15179,178.32391,12.982189
700893059000.0,4.085000048263957,-0.82360536,-9.068161917439337,-0.01740966,0.049480084,0.021991149,104.14495,178.3134,13.020604
700898132000.0,4.065831283921878,-0.82360536,-9.06336963878477,-0.019242255,0.03726278,0.020463986,104.14156,178.30685,13.055289
700903086000.0,4.048083985197596,-0.8274787440780526,-9.059659,-0.028405234,0.043982297,0.022602014,104.13728,178.29832,13.097403
700908075000.0,4.03395813836602,-0.8463133572996945,-9.059659,-0.03268129,0.03604105,0.019547688,104.13083,178.28954,13.131114
700913047000.0,4.021496503780916,-0.8611503037809154,-9.061183624277456,-0.032375857,0.029626964,0.018020526,104.127846,178.28143,13.162645
700918072000.0,4.016936338898892,-0.8565901388988914,-9.07030414450867,-0.022602014,0.034513887,0.017104227,104.12422,178.27216,13.194544
700923648000.0,4.011805802184216,-0.8488310782691119,-9.080565304141768,-0.029626964,0.025350908,0.02076942,104.124466,178.26166,13.2209835
700928087000.0,4.007425799814548,-0.8313114163733772,-9.089324851535132,-0.023518313,0.02443461,0.02076942,104.12345,178.24535,13.250608
700933062000.0,4.002537807949915,-0.8145957638954586,-9.098533215740831,-0.026267206,0.011301007,0.019242255,104.12474,178.23407,13.273355
700938074000.0,3.99776806540793,-0.8193656060498857,-9.1033031575077,-0.03023783,0.0070249503,0.019547688,104.126564,178.22159,13.297847
700943071000.0,3.9935284,-0.82360536,-9.107543,-0.026267206,-0.011301007,0.018936822,104.135185,178.21127,13.312461
700948137000.0,3.9935284,-0.82360536,-9.107543,-0.02565634,0.0030543262,0.018936822,104.14416,178.20313,13.33489
700953040000.0,3.9935284,-0.82360536,-9.107543,-0.032070424,-0.0033597588,0.015882496,104.143196,178.19688,13.342702
700958087000.0,3.980555080305655,-0.8192809201018848,-9.094569860927152,-0.029932396,-0.01985312,0.016493361,104.14332,178.18797,13.351509
700963025000.0,3.966100600916964,-0.8144627603056546,-9.080115582781458,-0.03481932,-0.027183503,0.013133603,104.14136,178.18336,13.361033
700968057000.0,3.9563639438225975,-0.8224626337909187,-9.083029675818374,-0.036651913,-0.03848451,0.01160644,104.145546,178.17679,13.363203
700973124000.0,3.947047317999424,-0.8317792790707497,-9.087687599596812,-0.037873644,-0.040317107,0.010079277,104.14864,178.17169,13.366115
700978077000.0,3.9415237600328608,-0.8331822,-9.108992199835695,-0.033292156,-0.044593163,0.009162978,104.14751,178.16689,13.363775
700983032000.0,3.9366507836516735,-0.8331822,-9.13335708174163,-0.040317107,-0.044898596,0.008246681,104.14596,178.16576,13.362288
700988042000.0,3.94699802005168,-0.8331822,-9.110768914814814,-0.044898596,-0.06078109,0.0012217305,104.14277,178.16093,13.353032
700993481000.0,3.960457507183463,-0.8331822,-9.079363725925926,-0.048258353,-0.063224554,0.007330383,104.1433,178.15695,13.347736
700998098000.0,3.9588179829007633,-0.8212221564351144,-9.09315594351145,-0.05375614,-0.06291912,0.004886922,104.14233,178.15588,13.335469
701003157000.0,3.948251127677208,-0.8000884294372955,-9.135423143729552,-0.052839845,-0.061391957,0.005192355,104.14389,178.15335,13.323329
701008042000.0,3.934845261430343,-0.7840758051188508,-9.15304957606449,-0.059253927,-0.05375614,-0.00030543262,104.14021,178.1546,13.320755
701013041000.0,3.920002013228607,-0.769232520752377,-9.162945281521289,-0.06078109,-0.054367006,0.006414085,104.140205,178.15337,13.316449
701018044000.0,3.913499130610041,-0.7558998918301242,-9.158174118589166,-0.064446285,-0.055283304,0.0067195175,104.13846,178.16002,13.308123
701023137000.0,3.909110553824006,-0.7427341614720172,-9.149396781716751,-0.059864793,-0.059864793,0.008857546,104.13922,178.16408,13.29893
701028161000.0,3.89195665592376,-0.72203355592376,-9.133545628979856,-0.054061573,-0.07727446,0.011301007,104.14008,178.17142,13.284315
701033049000.0,3.8666093533463286,-0.6966862533463288,-9.113267892787524,-0.05681047,-0.082161374,0.008246681,104.14003,178.17986,13.272535
701038038000.0,3.8527988543704272,-0.6695670387918753,-9.120851621775124,-0.04734206,-0.08399397,0.02107485,104.14991,178.1854,13.252103
701043043000.0,3.843570536311128,-0.6418820508875626,-9.139308161532536,-0.054061573,-0.08735373,0.016493361,104.15369,178.1973,13.230859
701048106000.0,3.834208892236295,-0.6290238761181476,-9.14585,-0.042760566,-0.07971791,0.021380283,104.16039,178.20546,13.209111
701053061000.0,3.825033015991492,-0.6244359379957459,-9.14585,-0.035430185,-0.08368854,0.020463986,104.163925,178.21696,13.184116
701058048000.0,3.794971366645637,-0.619584147190326,-9.140033610515246,-0.040317107,-0.087964594,0.019242255,104.165344,178.23486,13.160447
701063332000.0,3.7470812133753935,-0.6142630369526814,-9.12939171230284,-0.042760566,-0.08827003,0.022602014,104.16792,178.24944,13.137647
701068045000.0,3.720926084375,-0.624138470078125,-9.126697,-0.032375857,-0.08368854,0.024129177,104.17325,178.2614,13.116887
701073133000.0,3.6997773177083335,-0.6410575099114584,-9.126697,-0.03359759,-0.07422013,0.021380283,104.17836,178.277,13.098323
701078069000.0,3.678985771425362,-0.6512229,-9.142866572728291,-0.026267206,-0.07696902,0.016187929,104.18145,178.28746,13.072458
701083078000.0,3.657433399775357,-0.6512229,-9.185971090980567,-0.025350908,-0.064446285,0.01985312,104.18656,178.29936,13.054467
701088072000.0,3.643195080062457,-0.6512229,-9.183821763930906,-0.030848695,-0.06719518,0.019547688,104.18869,178.30698,13.026818
701093071000.0,3.633850994339807,-0.6512229,-9.151117268761588,-0.024129177,-0.0571159,0.023823744,104.193436,178.31023,13.007139
701098122000.0,3.62425771932503,-0.6565749806749699,-9.141625192446766,-0.027794369,-0.06169739,0.022296581,104.18949,178.31938,12.976822
701103210000.0,3.614469298593813,-0.6663634014061872,-9.151413817597428,-0.02321288,-0.059864793,0.017104227,104.18593,178.32411,12.952187
701108059000.0,3.602750696680256,-0.6832190055329063,-9.168269505532905,-0.021380283,-0.046731193,0.021991149,104.17727,178.33107,12.928794
701113060000.0,3.5888038193360514,-0.7064638011065812,-9.19151430110658,-0.021685716,-0.043066,0.023518313,104.16631,178.33762,12.904178
701118071000.0,3.5817258,-0.7136817805413243,-9.203311,-0.009468411,-0.03481932,0.017104227,104.16079,178.33713,12.882451
701123167000.0,3.5817258,-0.7042466190526824,-9.203311,-0.013744468,-0.037873644,0.020158553,104.158516,178.34048,12.85929
701128116000.0,3.579569953485963,-0.6991069,-9.20115510846369,-0.012217305,-0.027183503,0.018936822,104.14513,178.3354,12.838768
701133081000.0,3.574644146793743,-0.6991069,-9.196229198901896,-0.012217305,-0.028710667,0.016798794,104.13244,178.33171,12.814762
701138041000.0,3.5652943632903984,-0.6991069,-9.193734,-0.011301007,-0.025045475,0.01863139,104.12459,178.32823,12.797919
701143070000.0,3.551195398868072,-0.6991069,-9.193734,-0.008552114,-0.014660766,0.014660766,104.11459,178.32468,12.783343
701148121000.0,3.5413488950555188,-0.7011764049444813,-9.191664451836386,-0.012217305,-0.0106901415,0.01160644,104.101364,178.32307,12.767683
