timestamp,acc_x,acc_y,acc_z,gyro_x,gyro_y,gyro_z,ori_azimuth,ori_pitch,ori_roll
684908273000.0,-0.7795948383301933,9.919529400198313,0.4232094071611303,-1.1899655,0.75686204,0.03573562,14.09204,-13.351832,-47.63436
684912925000.0,-0.7840124116648487,9.906276389588497,0.4143742420406544,-1.1899655,0.73884153,0.03726278,14.09661,-13.348674,-47.635735
684917960000.0,-0.7887936846098165,9.89193225622211,0.404811676180466,-1.1749994,0.74067414,0.033292156,13.167804,-13.716967,-47.524487
684924569000.0,-0.7950696395042142,9.87310397868121,0.3922597401784828,-1.1716396,0.72204274,0.03390302,12.24736,-14.091132,-47.40021
684927812000.0,-0.7981492161001487,9.863865046306396,0.3861005741239464,-1.1582005,0.7623598,0.03359759,11.324314,-14.475489,-47.29019
684932856000.0,-0.8029390355111552,9.849495272979674,0.3765209152959841,-1.2034045,0.743423,0.031154128,10.4132,-14.859906,-47.154385
684937832000.0,-0.80445176,9.848246905666125,0.3866548147177092,-1.1734722,0.7156286,0.030848695,9.500795,-15.26783,-47.02368
684942795000.0,-0.80445176,9.85307333245329,0.4059601287774167,-1.1362094,0.73792523,0.031154128,8.588425,-15.674562,-46.89832
684947836000.0,-0.8013608106329229,9.854534,0.421075544238942,-1.1691961,0.8078693,0.035124753,7.6758394,-16.080118,-46.77792
684952832000.0,-0.7969973229138166,9.854534,0.4341660301778385,-1.235475,0.73975784,0.047647487,6.7836514,-16.49443,-46.622513
684957791000.0,-0.7998487279946607,9.85950786446247,0.445506868381764,-1.1911873,0.77304995,0.05100725,5.8640504,-16.930939,-46.505753
684962787000.0,-0.8096743092288736,9.869333656022178,0.4553324701355375,-1.2370021,0.763887,0.058643065,4.961644,-17.347569,-46.354527
684967784000.0,-0.7989807032784417,9.868671948245035,0.4647026822405194,-1.2522738,0.7492262,0.064751714,4.055219,-17.786642,-46.203533
684972827000.0,-0.7717128838580972,9.859582494777452,0.4737919553806342,-1.255328,0.7495316,0.06963864,3.149562,-18.226345,-46.04908
684977809000.0,-0.7624931047347517,9.848608692198582,0.4768652137134752,-1.2449434,0.72173727,0.082161374,2.2477279,-18.676868,-45.87748
684982813000.0,-0.7760881186241134,9.83501390070922,0.4723335392624113,-1.2479976,0.70829827,0.09437868,1.3462839,-19.130348,-45.704765
684987789000.0,-0.7919117789506227,9.825804,0.4626499124305495,-1.2562444,0.6899723,0.10995574,0.44706208,-19.59665,-45.512558
684992784000.0,-0.8127408941513542,9.825804,0.4418208015797266,-1.2452488,0.63804877,0.109650314,359.5643,-20.069605,-45.304825
684997836000.0,-0.8324198772978136,9.825804,0.4207696415835279,-1.1676689,0.56688297,0.109650314,358.68387,-20.566189,-45.08496
685002831000.0,-0.8070345313150075,9.825804,0.4004613563150074,-1.058324,0.5002986,0.10293079,357.82227,-21.07318,-44.850292
685007799000.0,-0.7813614794219711,9.826460127999209,0.3850406042613524,-0.91507614,0.4269948,0.094989546,356.9666,-21.622002,-44.596992
685012792000.0,-0.7529158990224073,9.83120115129883,0.3992633870354947,-0.7840455,0.36560285,0.093767814,356.13074,-22.192379,-44.325954
685017789000.0,-0.7261667646731164,9.835381,0.4112458348910388,-0.6603453,0.2770274,0.08246681,355.33548,-22.780006,-44.031334
685023393000.0,-0.7104328487540311,9.835381,0.4060011962513437,-0.4908302,0.022907447,0.021991149,354.61624,-23.392565,-43.686398
685027818000.0,-0.6991069,9.835009584903789,0.4014830645447331,-0.009162978,-0.015271631,0.0106901415,353.85837,-24.107327,-43.35579
685032833000.0,-0.6991069,9.83024578258282,0.3919556489228327,0.05589417,0.012217305,0.02321288,353.16656,-24.769083,-42.98339
685037861000.0,-0.6985653249979917,9.826074793156076,0.3833430480665113,0.010079277,0.017104227,0.01863139,352.49057,-25.515577,-42.594887
685042803000.0,-0.6909617350550245,9.829876667523497,0.3871448509775885,-0.00580322,0.008857546,0.019547688,351.8201,-26.284748,-42.203022
685047845000.0,-0.6832042885773958,9.8337554717648,0.3910235823166519,0.0036651916,0.01038471,0.021685716,351.12637,-27.082134,-41.81072
685052900000.0,-0.6799533,9.832479596025124,0.401353116210483,0.0027488936,0.007941248,0.023823744,350.44965,-27.875305,-41.41144
685057829000.0,-0.6799533,9.827618610235817,0.415935779188549,0.0106901415,0.014660766,0.021991149,349.78522,-28.671803,-41.01106
685062805000.0,-0.677909275988566,9.825804,0.4172914477084326,0.00580322,0.008246681,0.022602014,349.07446,-29.527857,-40.59422
685067801000.0,-0.674652916307085,9.825804,0.4107787215449534,0.009773844,0.0076358155,0.02443461,348.37613,-30.386787,-40.175488
685073606000.0,-0.6708692557884708,9.825804,0.4032113926060028,0.0030543262,0.0033597588,0.026267206,347.57776,-31.357655,-39.734856
685077847000.0,-0.6799432345690809,9.83218162325626,0.3958480502942862,0.012217305,0.010995574,0.01863139,346.79614,-32.329803,-39.291042
685082837000.0,-0.6936413710108924,9.84131342814829,0.3867159497974393,0.010995574,0.01740966,0.023823744,346.02945,-33.30065,-38.83652
685087822000.0,-0.7031783148668797,9.836814212779553,0.3871436791182108,0.008857546,0.023823744,0.024129177,345.02658,-34.524685,-38.340652
685093363000.0,-0.7107132880724174,9.821744345047923,0.3946786601916933,0.008246681,0.008857546,0.017104227,344.053,-35.744686,-37.828674
685097852000.0,-0.716817690656727,9.809535603620873,0.4007830691501597,0.01160644,0.0067195175,0.022296581,342.51138,-37.560745,-37.190334
685102859000.0,-0.7182605,9.821413104014065,0.3911534864732884,0.014049901,0.022907447,0.028405234,341.02512,-39.358536,-36.51705
685107814000.0,-0.7182605,9.839951162906534,0.3772498600351597,0.012217305,0.021991149,0.023518313,339.6,-41.13793,-35.80783
685112821000.0,-0.7146794483081941,9.855700379433348,0.3770765116918059,0.017104227,0.020158553,0.02076942,338.2296,-42.892178,-35.074085
685117804000.0,-0.7098158940481044,9.870291346922135,0.3819400659518956,0.013133603,0.02107485,0.018020526,336.9112,-44.626713,-34.313065
685122842000.0,-0.6995884762285715,9.882783097142855,0.3739770362285714,0.006414085,0.025961773,0.02321288,335.646,-46.33847,-33.528736
685127858000.0,-0.6878242569306122,9.89454715265306,0.3622128169306122,0.017715093,0.028405234,0.020158553,334.4324,-48.031975,-32.723175
685132827000.0,-0.6723899426840971,9.905443401684291,0.35434186,0.013439035,0.025961773,0.01740966,333.24457,-49.719658,-31.892584
685137814000.0,-0.6490058987074031,9.91479720094007,0.35434186,0.010995574,0.030543262,0.023823744,332.10092,-51.390263,-31.041456
685142818000.0,-0.6347743749512987,9.92292459577922,0.3556944275324675,0.0106901415,0.02565634,0.025961773,331.03027,-53.01155,-30.182419
685147889000.0,-0.6446291091812094,9.927852047788148,0.3606217766396103,0.0027488936,0.02687807,0.022296581,329.9994,-54.60966,-29.309324
685152805000.0,-0.6512229,9.931149,0.3669677801839657,-0.0036651916,0.018936822,0.023518313,329.03986,-56.162003,-28.426369
685157841000.0,-0.6512229,9.931149,0.3770500974830145,-0.006414085,0.03176499,0.025350908,328.1123,-57.690033,-27.53574
685163175000.0,-0.6647530111836611,9.931149,0.38307226,-0.02321288,0.03145956,0.02687807,327.24554,-59.184376,-26.632307
685167814000.0,-0.6917376138410144,9.931149,0.38307226,-0.013133603,0.025045475,0.029321533,326.41125,-60.657425,-25.721872
685172856000.0,-0.7210664275074027,9.931149,0.38307226,-0.004581489,0.033292156,0.028405234,325.596,-62.114662,-24.799284
685177857000.0,-0.7243053717416378,9.931149,0.3795403317416378,-0.01160644,0.029932396,0.03176499,324.81845,-63.54326,-23.869083
685182813000.0,-0.7197434128027681,9.931149,0.3749783728027682,-0.018020526,0.03145956,0.023823744,324.0688,-64.937775,-22.93969
685187832000.0,-0.7384405028029678,9.910968962077494,0.3936754417312448,-0.0106901415,0.022296581,0.022296581,323.31143,-66.31813,-22.003876
685192823000.0,-0.7679940221661171,9.881415391281946,0.4232289302349546,-0.015271631,0.032070424,0.022907447,322.57828,-67.65442,-21.067951
685197849000.0,-0.7757214,9.858624053094353,0.4279435106188705,-0.0106901415,0.02565634,0.021991149,321.88037,-68.94556,-20.13178
685202853000.0,-0.7757214,9.838366060534325,0.4238919121068651,-0.008552114,0.027183503,0.017715093,321.2043,-70.186165,-19.196373
685207843000.0,-0.7794640516091954,9.822061264367816,0.4064088583908046,-0.0021380284,0.01985312,0.014049901,320.54834,-71.41305,-18.227377
685212831000.0,-0.7893571868644507,9.812167907010458,0.3668362243968106,-0.004886922,0.014049901,0.01282817,319.9181,-72.5733,-17.260927
685217809000.0,-0.79487497,9.802682076603771,0.3527011395396227,-0.00030543262,0.015577064,0.015271631,319.3389,-73.63237,-16.321878
685222866000.0,-0.79487497,9.79354465009434,0.370976574590566,-0.003970624,0.020463986,0.009773844,318.78217,-74.61106,-15.388755
685227813000.0,-0.7917074545478036,9.792248214470284,0.3767372158656331,-0.004581489,0.0036651916,0.008857546,318.25818,-104.53008,-14.494347
685232876000.0,-0.7816842478387597,9.80728283875969,0.3566907605829457,0.005192355,-0.0015271631,0.016493361,317.74738,-103.762794,-13.602653
685237802000.0,-0.7771230928791008,9.82043203326451,0.3503718320073412,0.0076358155,0.0067195175,0.008552114,317.25073,-103.08613,-12.697675
685242818000.0,-0.7807964949070888,9.831452120440469,0.3650654938196834,0.007941248,0.008246681,0.01038471,316.775,-102.524055,-11.79345
685247844000.0,-0.7844772203043512,9.842494177487191,0.3797884492161811,0.004581489,0.0009162979,0.0061086523,316.33688,-102.10366,-10.930018
685252850000.0,-0.7816019896453408,9.852349538247566,0.38307226,-0.003970624,-0.0033597588,0.005497787,315.91095,-101.806946,-10.071019
685257817000.0,-0.7768763968984701,9.861800950725211,0.38307226,0.0015271631,-0.010079277,-0.0015271631,315.50012,-101.6438,-9.221908
685262826000.0,-0.7680788501629692,9.864111,0.3792510050320681,-0.00030543262,0.0012217305,0.011911872,315.09686,-101.60269,-8.381184
685272842000.0,-0.7532525945419417,9.87074134938013,0.3834407832973756,-0.0033597588,-0.0015271631,0.0061086523,314.70932,-101.689545,-7.555783
685277859000.0,-0.7493847145226211,9.878477270970858,0.3950444314329415,-0.0076358155,-0.0033597588,0.01038471,314.32065,-101.89104,-6.720654
685282831000.0,-0.7430818738522081,9.887173903694796,0.3944078236226497,-0.008552114,0.0027488936,0.008857546,313.95178,-102.188034,-5.9096236
685287823000.0,-0.7326298874945344,9.897625562636645,0.3735038399934411,-0.007330383,-0.0033597588,0.0018325958,313.59515,-102.573524,-5.107702
685292814000.0,-0.7303781988216811,9.897336361547524,0.3766231594147682,-0.0143553335,-0.0033597588,-0.0021380284,313.25116,-103.020355,-4.3221397
685297881000.0,-0.7351430893951296,9.88780687892773,0.4004476222329143,-0.017715093,-0.01038471,-0.0036651916,312.9171,-103.53092,-3.5470037
685302843000.0,-0.7333929807121662,9.877233195103855,0.4097921203560831,-0.0106901415,-0.01038471,0.0027488936,312.61328,-104.06776,-2.7930365
685307845000.0,-0.7254959886910649,9.865387459693371,0.4058436243455324,-0.013133603,-0.009468411,-0.0012217305,312.31476,-104.64192,-2.0515165
685312821000.0,-0.7176146514543115,9.854534,0.3989966352483912,-0.02076942,-0.006414085,-0.0030543262,312.01575,-105.26691,-1.2941216
685317812000.0,-0.7094125392621192,9.854534,0.3579860485937365,-0.007330383,-0.012217305,-0.003970624,311.72263,-105.92392,-0.54757595
685322844000.0,-0.7011430484684684,9.854534,0.3166385687207207,-0.0036651916,-0.019242255,0.003970624,311.40872,-106.638565,0.22291061
685327843000.0,-0.7021499801994422,9.87279254474774,0.3338455608603059,-0.012217305,-0.011911872,0.0061086523,311.09634,-107.36826,0.9820825
685332860000.0,-0.7062103880081129,9.897155076396515,0.3703892565773684,-0.005192355,-0.01160644,0.0012217305,310.79172,-108.11292,1.7300903
685337821000.0,-0.7040466236634754,9.904266539439124,0.3787378413064475,-0.004886922,-0.0036651916,0.0018325958,310.50125,-108.80937,2.425433
685342814000.0,-0.6918928587562484,9.884010264593746,0.3422765212030839,-0.007941248,-0.01160644,0.010995574,310.2173,-109.50901,3.111716
685348550000.0,-0.681237625151295,9.861542363108205,0.3173745904914064,-0.0009162979,-0.005497787,0.008246681,309.9146,-110.23711,3.8123937
685352830000.0,-0.6878524406116355,9.848312801258777,0.3736005564399257,-0.00030543262,0.0012217305,0.008857546,309.6167,-110.9596,4.506094
685357844000.0,-0.6956016660130718,9.83281443137255,0.4394690128104574,-0.0018325958,0.009162978,0.005497787,309.3355,-111.63962,5.1584306
685362820000.0,-0.7019322594509205,9.822978581544833,0.4325338235363329,0.008246681,0.013744468,0.011301007,309.05444,-112.31805,5.805382
685372856000.0,-0.7163760677055953,9.80084221104018,0.34476504,-0.00030543262,0.007330383,0.017715093,308.7736,-112.98385,6.4429455
685377824000.0,-0.7270957543146827,9.779402763199398,0.34476504,0.007330383,0.01282817,0.016798794,308.48267,-113.67823,7.1051908
685382969000.0,-0.7386793911646952,9.759082328571427,0.34476504,0.009773844,0.007941248,0.010995574,308.1969,-114.32831,7.722414
685387820000.0,-0.7555882821838035,9.76330962857143,0.34476504,0.013439035,0.004276057,0.018325957,307.90958,-114.97223,8.335524
685392794000.0,-0.7729259082256597,9.767644114285714,0.34476504,0.009468411,0.012217305,0.022602014,307.6149,-115.63929,8.9672985
685397864000.0,-0.7730243225206203,9.771040105641704,0.3636443964843286,0.017715093,0.004581489,0.016187929,307.32382,-116.29816,9.586898
685403017000.0,-0.7697679869416034,9.774296475222698,0.3864385211243814,0.018020526,-0.0061086523,0.017104227,307.0313,-116.94263,10.201057
685407833000.0,-0.766724611791488,9.777339882151104,0.4077419374384691,0.01985312,-0.009468411,0.009468411,306.74454,-117.57824,10.806953
685412825000.0,-0.7635601532291184,9.788257333112538,0.41180268,0.008857546,-0.008857546,0.013133603,306.4589,-118.19887,11.4061365
685418418000.0,-0.7600122269921176,9.80244896396635,0.41180268,0.031154128,-0.01740966,0.014049901,306.17285,-118.814026,11.992169
685422852000.0,-0.7571995137908193,9.813699758031396,0.41180268,0.022296581,-0.009162978,0.020158553,305.88187,-119.40366,12.576519
685427852000.0,-0.7305379724592708,9.831101052366174,0.3969285422110162,0.015882496,-0.023823744,0.016493361,305.5948,-119.98483,13.145756
685432811000.0,-0.6982998558572537,9.849522737102404,0.3785067516776571,0.02443461,-0.012217305,0.019242255,305.29684,-120.555405,13.713979
685437818000.0,-0.6752561122644393,9.86167114291535,0.4163174567423857,0.035124753,-0.020158553,0.021685716,305.01627,-121.09161,14.256567
685442804000.0,-0.6558000972700418,9.871399353570336,0.4746855474360802,0.026572637,-0.026267206,0.02565634,304.7284,-121.6127,14.793848
685447845000.0,-0.657261873328986,9.885765883599609,0.485397663335507,0.027488936,-0.02321288,0.028099801,304.43375,-122.13075,15.328327
685452841000.0,-0.6650619536680796,9.901365962830129,0.4814976231659602,0.022907447,-0.01160644,0.021991149,304.13303,-122.631424,15.853907
685457853000.0,-0.6615083684249928,9.91051694874748,0.4773623249841636,0.027794369,-0.0027488936,0.02321288,303.81754,-123.128105,16.38386
685462818000.0,-0.6341263576849986,9.905953189749496,0.4727986469968327,0.04153884,-0.0143553335,0.0290161,303.49872,-123.61195,16.904055
685467797000.0,-0.6206266723634518,9.903519598071068,0.46926352,0.017104227,-0.0027488936,0.022296581,303.15848,-124.08655,17.428158
685477804000.0,-0.6754807454927232,9.910205943450872,0.4701580323959163,0.01740966,-0.0012217305,0.028099801,302.82108,-124.55875,17.945322
685482841000.0,-0.65801698033524,9.903220301716024,0.4736507912627615,0.02687807,0.015271631,0.025350908,302.47424,-125.0152,18.46114
685488275000.0,-0.6391767778604012,9.895684074361016,0.4774188380530012,0.015882496,0.009162978,0.02687807,302.11514,-125.47456,18.979933
685492825000.0,-0.6400392893652908,9.898154470927652,0.4868103871726587,0.0106901415,0.0076358155,0.029321533,301.74432,-125.922325,19.492727
685497895000.0,-0.6562025697581003,9.90893018996893,0.5029736225588105,0.0070249503,0.02076942,0.022602014,301.36395,-126.35197,19.996483
685502832000.0,-0.6607997,9.90563882548424,0.50757074,0.0033597588,0.022296581,0.029932396,300.9899,-126.73787,20.470356
685507818000.0,-0.6607997,9.896571046904672,0.50757074,-0.0015271631,0.0290161,0.024740042,300.60126,-127.10686,20.935175
685512827000.0,-0.6728501400204185,9.890431113323125,0.5099808280040837,-0.0015271631,0.018936822,0.01740966,300.20767,-127.47659,21.403196
685522845000.0,-0.7110308419173687,9.877397145206578,0.5077589674288006,0.0021380284,0.028710667,0.019547688,299.80072,-127.833694,21.8687
685527911000.0,-0.7207613009626955,9.85307099759326,0.4688371109265944,-0.004581489,0.017715093,0.014049901,299.3921,-128.1712,22.316492
685537876000.0,-0.7153434001557795,9.841627428081836,0.4030513743753245,0.008552114,0.018020526,0.01282817,298.97217,-128.51334,22.770468
685547951000.0,-0.6910238497807017,9.80963779130117,0.3477525472679093,-0.007941248,0.014660766,0.0027488936,298.54642,-128.83179,23.211258
685552883000.0,-0.6779318243062389,9.789518447549694,0.3262852652312537,0.004276057,0.01160644,-0.0018325958,298.1185,-129.13995,23.633213
685557871000.0,-0.6638295575083645,9.803620518008266,0.3309860208305452,0.0036651916,0.009468411,0.009468411,297.68573,-129.42181,24.03853
685562879000.0,-0.6512229,9.817926163205946,0.3364626199450594,0.009773844,0.012217305,0.0036651916,297.24173,-129.6903,24.426311
685567830000.0,-0.6512229,9.833249582208936,0.3479552522000484,-0.00061086525,0.018936822,0.005497787,296.7934,-129.9477,24.813131
685572956000.0,-0.6512229,9.849114628827664,0.3598541075704937,-0.0021380284,0.010079277,-0.0021380284,296.33432,-130.18756,25.18313
685577992000.0,-0.6642308751912342,9.857786061711804,0.3574146656129832,-0.008246681,0.013439035,0.009773844,295.86655,-130.41794,25.555647
685583016000.0,-0.6841249596237338,9.862759686685962,0.3474676130101303,0.00061086525,0.007330383,0.007330383,295.39264,-130.63689,25.914541
685587947000.0,-0.6860435386115366,9.867597634201122,0.3168725343297601,0.00030543262,0.0067195175,0.011911872,294.9077,-130.86476,26.293348
685592931000.0,-0.6811705655436447,9.872470709035222,0.2778887294333844,-0.0012217305,0.0015271631,0.010995574,294.41663,-131.08186,26.662262
685603018000.0,-0.6871581043563346,9.866483045179953,0.2825602087126691,0.004581489,0.01282817,0.023823744,293.91412,-131.293,27.028433
685608040000.0,-0.6793134702142714,9.864111,0.2832175566201738,0.0015271631,0.0033597588,0.021685716,293.40826,-131.48831,27.3806
685612954000.0,-0.6555311306751567,9.864111,0.2737046406711138,0.00580322,0.009468411,0.021685716,292.89545,-131.66983,27.721695
685617950000.0,-0.643789540597706,9.861967437019889,0.2660070750699779,0.0076358155,0.016187929,0.022296581,292.3774,-131.83493,28.051113
685622974000.0,-0.6488526096916764,9.856904315058404,0.2609440429832684,0.004886922,0.022602014,0.023518313,291.85022,-131.9908,28.376019
685628077000.0,-0.6576309858115778,9.863078069807036,0.2777980430476731,0.008246681,0.01038471,0.016493361,291.32214,-132.13968,28.69499
685632943000.0,-0.6689656806713151,9.878190917382843,0.3118021552432301,0.022296581,0.0061086523,0.022907447,290.78476,-132.28415,29.01403
685637980000.0,-0.6796894763085399,9.893632487603307,0.34476504,0.018936822,0.014049901,0.022296581,290.23578,-132.42148,29.329844
685642915000.0,-0.6756208203168044,9.905838710485538,0.34476504,0.0143553335,0.023518313,0.02443461,289.68124,-132.55406,29.641573
685647941000.0,-0.67147713946281,9.918270012654958,0.34476504,0.018020526,0.016798794,0.02687807,289.10318,-132.69038,29.960766
685653010000.0,-0.6545996432648019,9.97836846942557,0.3605418868507897,0.023823744,0.010079277,0.020158553,288.51315,-132.8149,30.273026
685658013000.0,-0.6334610213456278,10.054467220506483,0.381680495526339,0.02687807,0.015271631,0.01740966,287.91473,-132.93124,30.580992
685662956000.0,-0.624636339729111,10.063939308565434,0.39264908,0.02107485,0.016493361,0.01740966,287.3173,-133.02682,30.872583
685667892000.0,-0.6291452184776803,10.000815100247998,0.39264908,0.014660766,0.013133603,0.015577064,286.71072,-133.11304,31.15688
685673945000.0,-0.6345946990744337,9.95482794054554,0.410327432085067,0.004886922,0.01282817,0.019547688,286.0805,-133.19753,31.451458
685677953000.0,-0.6381438155016181,9.94772953721683,0.4351713434304207,0.014966198,0.021380283,0.01863139,285.43912,-133.27373,31.738031
685682932000.0,-0.643661557373343,9.941732794471278,0.4566634065676703,0.0076358155,0.010995574,0.010995574,284.80734,-133.33557,32.01286
685687961000.0,-0.6535602273250437,9.946682206967424,0.441815463656356,0.0030543262,0.013133603,0.009468411,284.16205,-133.39238,32.28513
685692910000.0,-0.6560891214231811,9.957367879547215,0.4262457275715944,0.0015271631,0.010995574,0.002443461,283.5036,-133.4361,32.546837
685697937000.0,-0.6374580604431115,9.985314517221363,0.4076146909094427,0.0030543262,0.014049901,-0.009773844,282.83368,-133.46988,32.80097
685703191000.0,-0.6235977250645406,10.007763,0.3959649675018982,-0.009468411,0.010079277,-0.003970624,282.1705,-133.47893,33.031727
685707970000.0,-0.6279416437433561,10.007763,0.4089967326100987,-0.025961773,0.0015271631,-0.015577064,281.49493,-133.47406,33.248806
685712945000.0,-0.6332981888394441,10.007148508870491,0.4204577819130692,-0.023518313,0.0030543262,-0.01160644,280.81738,-133.45847,33.455112
685717920000.0,-0.647385908254731,10.000104514931994,0.4098920043036664,-0.03145956,0.0027488936,-0.014660766,280.13235,-133.42792,33.649376
685722953000.0,-0.6616378664089296,9.992978400059137,0.3992030477794204,-0.040317107,-0.0030543262,-0.018936822,279.43933,-133.38072,33.82632
685728062000.0,-0.6805743452468681,9.982490378039794,0.3865303685924834,-0.04734206,-0.0061086523,-0.015577064,278.73944,-133.32819,33.99908
685732965000.0,-0.7052901313296136,9.967661112853984,0.3717008866196442,-0.054061573,-0.010079277,-0.025961773,278.0318,-133.26477,34.160645
685737950000.0,-0.7165453795960796,9.953018554202554,0.3604884156103356,-0.06536258,0.0009162979,-0.028710667,277.32834,-133.1868,34.30902
685743944000.0,-0.7122831773982774,9.935969834422334,0.3519640023136323,-0.07391469,0.0027488936,-0.03390302,276.62042,-133.10066,34.446953
685748025000.0,-0.7093812676269676,9.924362255940006,0.3461601767107217,-0.0729984,0.0076358155,-0.038789943,275.90662,-133.00822,34.576717
685757879000.0,-0.6998642971562014,9.912752412973534,0.3094874102065386,-0.09590584,-0.00030543262,-0.050396383,275.1883,-132.90356,34.6965
685762969000.0,-0.6991069,9.90795668589244,0.2741519565081839,-0.08552113,0.008246681,-0.038789943,274.46033,-132.80447,34.818165
685767890000.0,-0.6991069,9.903365063035857,0.237419711997272,-0.10354166,0.0033597588,-0.048563786,273.72626,-132.69563,34.93134
685772931000.0,-0.6854089883559819,9.929813859046098,0.2058720003197442,-0.105068825,-0.0027488936,-0.047036625,272.9989,-132.58876,35.040833
685777990000.0,-0.6681964361932676,9.964239008304467,0.1757500160618172,-0.110872045,0.004581489,-0.04886922,272.26135,-132.47128,35.142128
685782965000.0,-0.6475096433154974,9.968400384710662,0.1654637280063416,-0.12095132,0.0030543262,-0.053450707,271.54074,-132.33429,35.215656
685787964000.0,-0.6237906167657551,9.949425038644472,0.1702075273721759,-0.12003502,0.002443461,-0.0580322,270.8124,-132.19444,35.28452
685792895000.0,-0.6074811329147404,9.932573352865283,0.1805342863025481,-0.12614368,-0.005192355,-0.057421334,270.08804,-132.04074,35.335663
685797926000.0,-0.5971207671906247,9.917033020642942,0.1960748457069132,-0.13225232,0.01160644,-0.058643065,269.35086,-131.8829,35.383038
685802984000.0,-0.6028474922958383,9.911995,0.1950559665322506,-0.13713925,0.0106901415,-0.06872234,268.61682,-131.7273,35.429165
685807979000.0,-0.6160899300599797,9.911995,0.1862276670074744,-0.14446963,0.0061086523,-0.06505715,267.87625,-131.57083,35.474766
685813818000.0,-0.6189489970023774,9.904907978603848,0.1961330841906202,-0.14813483,0.014660766,-0.06688975,267.1259,-131.41074,35.51757
685817916000.0,-0.614708054121461,9.896425906851093,0.2130968822844175,-0.15424347,0.017715093,-0.07971791,266.37405,-131.24475,35.55167
685822952000.0,-0.5978910561291548,9.88382638271605,0.2443058860759734,-0.15974127,0.02443461,-0.0729984,265.62027,-131.07747,35.582035
685827954000.0,-0.5751450002811016,9.870178950617284,0.2806995782830009,-0.16279559,0.0290161,-0.07788532,264.8596,-130.90106,35.60044
685833125000.0,-0.5621413972759857,9.852550249462364,0.3055516342078853,-0.16310102,0.035430185,-0.0852157,264.08768,-130.72702,35.621258
685837973000.0,-0.557386832360471,9.8335320890937,0.3198153388837685,-0.16218472,0.030848695,-0.08735373,263.315,-130.55022,35.635456
685842889000.0,-0.5527212225559539,9.831270983625618,0.32561144,-0.1740966,0.029932396,-0.08246681,262.53015,-130.36885,35.647522
685847998000.0,-0.5479806091270225,9.840751913477376,0.32561144,-0.17165314,0.027183503,-0.09468412,261.74274,-130.18198,35.647587
685852914000.0,-0.5480597847317744,9.840593567228336,0.3365203682152682,-0.17012598,0.029626964,-0.09101892,260.95343,-129.99359,35.64436
685857962000.0,-0.5522158788170564,9.832281639442916,0.3573008473211829,-0.16890424,0.032986723,-0.094989546,260.16068,-129.79802,35.62947
685862892000.0,-0.5615923349698384,9.825804,0.3757970363146465,-0.17501289,0.028710667,-0.08857546,259.3728,-129.60172,35.61134
685867945000.0,-0.59272984922947,9.825804,0.3874736077181693,-0.1740966,0.026572637,-0.08582657,258.58087,-129.40228,35.585587
685873987000.0,-0.6299617631730073,9.825804,0.4014355796991876,-0.18234327,0.02107485,-0.08277224,257.78528,-129.20636,35.563812
685878190000.0,-0.6489702624773745,9.829184272145534,0.40222588,-0.17898351,0.014660766,-0.081855945,256.98984,-129.00977,35.535454
685883712000.0,-0.6731421094962976,9.834018735441996,0.40222588,-0.17623462,0.016798794,-0.07666359,256.19342,-128.81194,35.502876
685887975000.0,-0.6910427653406053,9.832608575767296,0.3939087752047909,-0.18417588,0.018325957,-0.07269296,255.40683,-128.60257,35.457516
685892970000.0,-0.7115052253983531,9.827492853919368,0.3785619194781306,-0.18875736,0.0076358155,-0.07391469,254.62323,-128.39229,35.40531
685897987000.0,-0.7406152398574257,9.82899759762376,0.3894631279920792,-0.17898351,0.004581489,-0.07971791,253.82999,-128.18459,35.352016
685902958000.0,-0.7736097208049505,9.833711188415842,0.4130306094613861,-0.17501289,-0.0033597588,-0.07819075,253.04265,-127.97565,35.2929
685907965000.0,-0.7994941295743904,9.83821995296374,0.435575456609736,-0.18417588,-0.0061086523,-0.07544186,252.26834,-127.75145,35.212585
685912964000.0,-0.8213566070581788,9.84259208046397,0.4574379295278107,-0.18875736,-0.016187929,-0.07849618,251.49931,-127.52584,35.124645
685917843000.0,-0.8442064636095569,9.84180731188568,0.4739882051088764,-0.17928895,-0.013439035,-0.0852157,250.72421,-127.29322,35.02792
685922828000.0,-0.8694735689399667,9.834588371540905,0.4848169661515197,-0.17256944,-0.021380283,-0.08368854,249.95752,-127.06049,34.92603
685927803000.0,-0.8946899880009073,9.827383912520792,0.4956240045040073,-0.17623462,-0.032986723,-0.08552113,249.1876,-126.820816,34.815323
685932825000.0,-0.8750943159888765,9.829991673748609,0.5147443170467186,-0.16310102,-0.043676864,-0.09285152,248.42116,-126.581436,34.698032
685938124000.0,-0.8425756242221158,9.835197620392533,0.5364845757778842,-0.17379116,-0.049785517,-0.09865474,247.65866,-126.33905,34.57533
685942812000.0,-0.8389936840274453,9.83161560539333,0.5400665159725546,-0.15882497,-0.06169739,-0.09560041,246.88844,-126.101326,34.44879
685947805000.0,-0.8351787037817138,9.827800545476304,0.5438814962182863,-0.15821409,-0.061086524,-0.09407325,246.11757,-125.85814,34.316006
685952852000.0,-0.8357541884365001,9.8129440578175,0.56388192979808,-0.1563815,-0.07513642,-0.09437868,245.35825,-125.616,34.177437
685957841000.0,-0.8410260250468939,9.78658487476553,0.6007848080900364,-0.15027285,-0.08674286,-0.0983493,244.60028,-125.373055,34.03385
685962834000.0,-0.8299962639387918,9.787491908783784,0.61291564,-0.1441642,-0.07849618,-0.094989546,243.84598,-125.1318,33.888756
685967893000.0,-0.8107398721303656,9.801933986486484,0.61291564,-0.14660765,-0.08246681,-0.095294975,243.10208,-124.887924,33.73607
685972873000.0,-0.80445176,9.800994673587082,0.6213988835524799,-0.14049901,-0.098043874,-0.09468412,242.35382,-124.64664,33.582066
685977862000.0,-0.80445176,9.792516781918197,0.6341161017265549,-0.13988814,-0.08857546,-0.093462385,241.60175,-124.40444,33.424736
685982836000.0,-0.8086444639445166,9.795882364109232,0.6332606008669268,-0.14874569,-0.087659165,-0.087659165,240.87753,-124.15301,33.253345
685987835000.0,-0.8190203684091893,9.816634064694409,0.6125088136064153,-0.14874569,-0.09743301,-0.093767814,240.1566,-123.89946,33.075413
685992803000.0,-0.8302142714523928,9.832412810238452,0.60333884,-0.1518,-0.092240654,-0.0852157,239.43619,-123.65192,32.90232
685997919000.0,-0.8424691431415707,9.844667494247124,0.60333884,-0.16157386,-0.09865474,-0.08582657,238.72586,-123.400215,32.720707
686002882000.0,-0.8523358,9.860370005363588,0.6058399693615266,-0.15668693,-0.1020145,-0.08735373,238.03058,-123.14269,32.528717
686007907000.0,-0.8523358,9.8951163643115,0.6207311720175348,-0.16707164,-0.09285152,-0.089491755,237.33672,-122.88447,32.333755
686012841000.0,-0.8523358,9.930714766155436,0.6274978478769603,-0.1600467,-0.08460484,-0.0983493,236.6305,-122.63379,32.141785
686017873000.0,-0.8523358,9.972236787179046,0.6067368417008444,-0.17501289,-0.08460484,-0.09896017,235.92819,-122.38374,31.948261
686023632000.0,-0.8520857106595365,10.019090609714796,0.58418524,-0.17562376,-0.084910266,-0.11301007,235.22525,-122.12529,31.742725
686027921000.0,-0.8484248465597148,10.044716429055258,0.58418524,-0.18753563,-0.08032878,-0.116980694,234.52531,-121.86925,31.53699
686032946000.0,-0.8441357716934047,10.074739684402852,0.58418524,-0.19394971,-0.083383106,-0.12370021,233.8429,-121.599106,31.312168
686037905000.0,-0.8291319507718478,10.077563695938762,0.5569311344290878,-0.2049453,-0.08002335,-0.13958271,233.16086,-121.32608,31.08163
686042864000.0,-0.8089357352540931,10.06746591505422,0.5165386928492451,-0.2134974,-0.076358154,-0.14966199,232.48422,-121.0542,30.848652
686047947000.0,-0.7844424681837943,10.05664841780976,0.490419930808785,-0.23762658,-0.07880162,-0.16890424,231.81186,-120.77337,30.603848
686052939000.0,-0.7593579918536841,10.045897713064988,0.4689189665992054,-0.24678956,-0.0693332,-0.17287487,231.13918,-120.49614,30.359037
686057918000.0,-0.7350701681463707,10.033563085182964,0.4495239452009598,-0.2660318,-0.062002823,-0.18448131,230.48586,-120.212555,30.104088
686062904000.0,-0.7159740174565087,10.009692896820637,0.4447498925734853,-0.2883284,-0.04337143,-0.19608775,229.8302,-119.92978,29.846918
686068555000.0,-0.6939687778052059,9.990535834301388,0.4379640399085727,-0.31337386,-0.042455133,-0.20525073,229.1988,-119.648964,29.588024
686072966000.0,-0.6757937521426266,9.997351605033884,0.4288765306356889,-0.31429017,-0.029626964,-0.2284636,228.56152,-119.3633,29.321003
686077930000.0,-0.6553401526438636,10.005021858018717,0.418649734890825,-0.33628133,-0.02321288,-0.24251351,227.94415,-119.08164,29.055084
686084502000.0,-0.6282609713574271,10.015176753791549,0.4051101495493169,-0.34880406,-0.016187929,-0.27305678,227.32637,-118.79167,28.777103
686088169000.0,-0.6036645668519945,10.016293986365389,0.3907199637531316,-0.38087448,-0.010995574,-0.28191432,226.71158,-118.50658,28.500624
686092938000.0,-0.5640571211736365,10.014093528040084,0.3665154138716515,-0.39522982,-0.005497787,-0.29168814,226.09871,-118.21582,28.214653
686097975000.0,-0.5222238848805165,10.011769412169976,0.3409506586288302,-0.41233405,0.009162978,-0.30879238,225.50124,-62.07837,27.921545
686102835000.0,-0.4818606670158026,10.009526965648488,0.3162842479716708,-0.44440445,0.014966198,-0.321926,224.90924,-62.37043,27.62672
686107828000.0,-0.4442318124362606,10.005411706326724,0.2898272813786591,-0.46578476,0.013133603,-0.33353242,224.31941,-62.66304,27.327467
686112881000.0,-0.4188453782058545,9.995256931171966,0.2593635709054663,-0.5177083,0.021380283,-0.35643986,223.7291,-62.958107,27.02123
686117825000.0,-0.3932958966961147,9.984144073620214,0.2334668557252778,-0.548557,0.02076942,-0.3585779,223.18408,-63.245964,26.718895
686122870000.0,-0.3657581425591336,9.97037539783414,0.2151083465773724,-0.57451874,0.03359759,-0.36377025,222.63623,-63.53592,26.40981
686127830000.0,-0.3489835298260182,9.953551246540137,0.1979490720798734,-0.6221663,0.032070424,-0.37934732,222.11618,-63.82266,26.099262
686132900000.0,-0.3681825813681297,9.924752584025308,0.1835497809173586,-0.65668017,0.037873644,-0.39064834,221.59338,-64.10425,25.789265
686138306000.0,-0.3789208425311244,9.884428582099796,0.1668472938182531,-0.70432764,0.027794369,-0.3857614,221.08687,-64.37507,25.48508
686142867000.0,-0.366075106387609,9.828763904323106,0.1497196366846387,-0.73853606,0.024129177,-0.4025602,220.58055,-64.6493,25.172428
686147840000.0,-0.35434186,9.768430890347563,0.1333453712438609,-0.77488256,0.018325957,-0.40744713,220.0949,-64.9171,24.860401
686152838000.0,-0.35434186,9.709661906403475,0.1288246972374386,-0.81153446,0.005192355,-0.4166101,219.61636,-65.18371,24.543955
686157972000.0,-0.3560743918029069,9.649262947118851,0.1241519834223276,-0.84482664,-0.015271631,-0.43371433,219.166,-65.44684,24.225824
686162842000.0,-0.380112653569735,9.591571444181012,0.1193443280569013,-0.8744536,-0.029932396,-0.43860126,218.72075,-65.70137,23.9104
686167824000.0,-0.4027009347035573,9.53042405019763,0.1168219003023715,-0.89766645,-0.048258353,-0.44409904,218.29652,-65.9544,23.591528
686172881000.0,-0.4074864957312252,9.44906931284585,0.1359641594041502,-0.9425651,-0.07147124,-0.4560109,217.88124,-66.20126,23.271862
686177804000.0,-0.4107680190330282,9.369141122960604,0.1566777796498209,-0.981355,-0.096516706,-0.45631635,217.48592,-66.44259,22.952045
686182807000.0,-0.396468547160764,9.27857746597692,0.2043426825726223,-1.022283,-0.13591751,-0.46761733,217.10503,-66.680305,22.629013
686187852000.0,-0.384423525338457,9.184612989654152,0.2513616836368115,-1.0748174,-0.17531833,-0.47708577,216.73862,-66.90548,22.310287
686192804000.0,-0.4031147710257168,9.058447505764114,0.2840713538309193,-1.135293,-0.22266038,-0.4801401,216.38882,-67.120926,21.994078
686197999000.0,-0.4213795,8.922956071684276,0.3175230263773683,-1.1908818,-0.27947086,-0.4822781,216.07079,-67.31869,21.683895
686202806000.0,-0.4213795,8.758155255915481,0.3376206933886318,-1.2431108,-0.32375857,-0.47952923,215.76488,-67.502914,21.37817
686207923000.0,-0.4213795,8.582726553130184,0.359014444604907,-1.2916746,-0.36682457,-0.4654793,215.47482,-67.665695,21.083754
686212793000.0,-0.4324138236765011,8.384353295345939,0.4043778276106378,-1.3329079,-0.3830125,-0.46303585,215.19162,-67.818344,20.790094
686217777000.0,-0.4472894171857469,8.171136367026802,0.458921644589653,-1.3622295,-0.3830125,-0.44990227,214.9167,-67.95253,20.50706
686222829000.0,-0.4426754759398922,7.937413341933654,0.4655463026736603,-1.3854424,-0.3585779,-0.4343252,214.6531,-68.06165,20.236513
686227774000.0,-0.4337240818986863,7.704677274454211,0.4610706173367356,-1.4126259,-0.2968805,-0.410196,214.37817,-68.153564,19.9726
686232781000.0,-0.4344280646862622,7.479957317552637,0.5360656147258703,-1.4068227,-0.25320363,-0.39003745,214.1042,-68.22104,19.722824
686237769000.0,-0.439407122263915,7.260878732145091,0.6456049698186367,-1.4092661,-0.22479841,-0.3659083,213.81604,-68.27017,19.480059
686242797000.0,-0.4227645293054234,7.14026118715509,0.6703765,-1.4352279,-0.20586158,-0.37018433,213.5363,-68.30018,19.246645
686247812000.0,-0.399915969809705,7.048866653330162,0.6703765,-1.4779885,-0.18448131,-0.3640757,213.24663,-68.31298,19.021881
686252796000.0,-0.3826277344483326,6.946309288421161,0.646993355728695,-1.4975362,-0.14935656,-0.37415496,212.94649,-68.2987,18.803576
686257789000.0,-0.3678633265582544,6.838037193433512,0.6125430637999177,-1.5045611,-0.12095132,-0.3817908,212.643,-68.27304,18.586536
686262772000.0,-0.3814423576211012,6.756538629094374,0.5682914228001203,-1.5176947,-0.064446285,-0.38912117,212.33209,-68.23113,18.372686
686267791000.0,-0.4055452456343396,6.684229995256243,0.520085616572059,-1.5323554,-0.017715093,-0.39736784,212.0178,-68.1855,18.15486
686272809000.0,-0.422072429860483,6.675727406966227,0.4699149952775907,-1.5375478,0.042760566,-0.42058071,211.71306,-68.1327,17.931204
686277803000.0,-0.4358778486500529,6.689532768093909,0.4192951327893774,-1.5305228,0.092240654,-0.44257188,211.39972,-68.07686,17.702938
686282786000.0,-0.4438210552679779,6.710627724841294,0.4383932952502862,-1.529912,0.1337795,-0.45112398,211.09908,-68.019325,17.461641
686287785000.0,-0.448803319100843,6.735538965969404,0.4931980569466125,-1.5354098,0.14905111,-0.4746423,210.79535,-67.9656,17.208601
686292782000.0,-0.5185968486456024,6.758378395417591,0.6184543173798965,-1.5265522,0.16432275,-0.48472157,210.5087,-67.91815,16.941362
686297836000.0,-0.6125015927679232,6.780736648928308,0.7704905626533629,-1.5317446,0.19517145,-0.48655418,210.21504,-67.86531,16.66847
686302832000.0,-0.734281546728972,6.821461046728972,0.9276972205607475,-1.5283848,0.21685717,-0.49510628,209.92657,-67.80349,16.38861
686307852000.0,-0.8774664390982849,6.875772631405977,1.0906317683680806,-1.5241088,0.25228736,-0.505491,209.62651,-67.73644,16.105354
686312842000.0,-1.0079949628725209,6.849698326821489,1.2465025662713047,-1.5180001,0.28069258,-0.5164866,209.28667,-67.652,15.803725
686317824000.0,-1.131637273557261,6.778366296122794,1.3986776644074554,-1.4984524,0.31520647,-0.52381694,208.93706,-67.567314,15.497682
686322843000.0,-1.362622104006382,6.912235688884949,1.6644374632334693,-1.4798211,0.35002577,-0.5314528,208.54425,-67.46861,15.160553
686327862000.0,-1.6565906550079774,7.167860361106187,1.9967498040418368,-1.4813483,0.3811799,-0.5522222,208.14673,-67.36807,14.815922
686332844000.0,-1.9048523042983565,7.40936102022756,2.261216068268016,-1.4767667,0.3839288,-0.5729916,207.70699,-67.23381,14.46529
686337838000.0,-2.0812040078592497,7.631060527180784,2.417413204235145,-1.4865406,0.3659083,-0.59864795,207.26978,-67.09634,14.10646
686342842000.0,-2.2262513890970137,7.820074708163986,2.563935671973847,-1.5027285,0.36346483,-0.63163465,206.71141,-66.93421,13.6809
686347892000.0,-2.3373517906697296,7.973905837780526,2.700674662078106,-1.4905112,0.3631594,-0.66156703,206.16612,-66.775826,13.249808
686352932000.0,-2.4408089190672007,8.073332879720809,2.8179222125635754,-1.4813483,0.3753767,-0.7125743,205.61392,-66.601875,12.756714
686357922000.0,-2.5183787687587924,7.990591649118061,2.869635589687263,-1.4700472,0.38148534,-0.7620544,205.07304,-66.42844,12.258939
686362854000.0,-2.579519361264385,7.904247320485394,2.921175481115373,-1.4477507,0.40683624,-0.784351,204.51576,-66.24911,11.714057
686367880000.0,-2.61502625679404,7.808378965793745,2.974435657568604,-1.4333953,0.4156938,-0.7959574,203.97266,-66.0668,11.165609
686372986000.0,-2.651098323760696,7.710984652412216,3.028543588521688,-1.398576,0.4279111,-0.79045963,203.43892,-65.854744,10.608447
686377926000.0,-2.678699479518564,7.54328262376581,3.146777149571604,-1.3439035,0.4156938,-0.7959574,202.91838,-65.646324,10.05323
686382922000.0,-2.703100587637699,7.338313213647491,3.29806422374541,-1.2773192,0.40622538,-0.7861836,202.39798,-65.44041,9.508271
686387895000.0,-2.7047500066144687,7.176876686436669,3.4300864228121686,-1.2159272,0.37507126,-0.77091193,201.89467,-65.21117,8.968271
686393865000.0,-2.6954239327216376,7.004344173346383,3.579303653788435,-1.1743884,0.33567044,-0.75228053,201.40044,-64.98772,8.440178
686397984000.0,-2.6758814089947087,6.850051755026455,3.7115953788359786,-1.1582005,0.32436943,-0.74220127,200.91501,-64.71934,7.9234734
686402977000.0,-2.619239583629472,6.574395137076522,3.945714834304667,-1.1566733,0.29657507,-0.73364913,200.44792,-64.454185,7.4235907
686407923000.0,-2.5631309378741216,6.301333324062228,4.177630481560452,-1.1753048,0.2751948,-0.72295904,199.99579,-64.134476,6.942393
686412952000.0,-2.5474305,6.152700145228834,4.308971931871223,-1.196685,0.24098633,-0.70463306,199.55756,-63.81402,6.475522
686417917000.0,-2.5474305,6.054320332351237,4.399481132897459,-1.235475,0.2098322,-0.6933321,199.1287,-63.48501,6.016973
686422961000.0,-2.560353894893019,5.986678876386069,4.499212431906919,-1.2779301,0.20005837,-0.70432764,198.7535,-63.095943,5.551178
686427985000.0,-2.6016824346400127,5.9904360876932685,4.615683628533501,-1.3158038,0.1731803,-0.7171558,198.39482,-62.69874,5.100381
686432959000.0,-2.6425996632828364,5.994155906372013,4.730995677104483,-1.3570372,0.13041973,-0.7324274,198.0722,-62.283546,4.6294107
686437951000.0,-2.6995234805004875,5.957098265843354,4.797655764665259,-1.3878858,0.12675454,-0.7516697,197.75412,-61.86276,4.160396
686442912000.0,-2.761285592687683,5.906916549691258,4.847837521124472,-1.4382823,0.14477506,-0.79290307,197.4515,-61.428623,3.6924233
686447966000.0,-2.8288324992236027,5.907542527546584,4.915696158773292,-1.4819591,0.16584991,-0.8335256,197.1658,-60.944866,3.2186253
686452979000.0,-2.9071073027173915,6.0342731135869565,5.023789944293478,-1.5354098,0.18600847,-0.86162543,196.88475,-60.44927,2.7437968
686457888000.0,-2.98375821242236,6.158374539254659,5.129641209627329,-1.5699236,0.20463985,-0.870483,196.61374,-59.929996,2.243072
686463922000.0,-2.967595581878306,6.21775137582672,5.17267768791336,-1.5885551,0.23243423,-0.9315695,196.35205,-59.406403,1.7277182
686467932000.0,-2.932672247883598,6.236800533399471,5.182202266699735,-1.647809,0.25900686,-0.9486737,196.08598,-58.86602,1.2278858
686472995000.0,-2.867870649154918,6.224273357387647,5.2019301090817045,-1.6539177,0.29749137,-0.9779953,195.81882,-58.319183,0.69583404
686477981000.0,-2.75629663706675,6.12757575338422,5.23912142055456,-1.6646078,0.35216382,-0.9822713,195.54501,-57.761494,0.1699729
686482956000.0,-2.6449687770309214,6.031091481439365,5.2762306814004205,-1.6643023,0.41325033,-0.9633345,195.2801,-57.192875,-0.33180043
686487968000.0,-2.7476838206137426,5.978014644563042,5.343014031926046,-1.6633861,0.4251622,-0.97219205,195.02254,-56.631332,-0.8324471
686492914000.0,-2.928249445430287,5.941901585590394,5.419754335271133,-1.6557503,0.42913285,-0.9810496,194.75294,-56.081985,-1.3274091
686498004000.0,-3.0646033916133884,5.912714757352388,5.541174975930801,-1.6630806,0.4266894,-0.97158116,194.51447,-55.51109,-1.777936
686503048000.0,-3.1705762065563494,5.888492428557102,5.686509138397894,-1.6597209,0.43157628,-0.93279123,194.27266,-54.957584,-2.2174654
686507881000.0,-3.272115979478501,5.865283365300239,5.825763699699135,-1.6771306,0.453262,-0.8906415,194.02591,-54.37161,-2.6994936
686512953000.0,-3.4080544498296423,5.825659740034072,5.950517204003408,-1.7076738,0.3998113,-0.87781334,193.79688,-53.79481,-3.1586854
686517915000.0,-3.578957686342987,5.76719285939807,6.0449635626064735,-1.724778,0.38759398,-0.8393288,193.54443,-53.230633,-3.6042573
686522978000.0,-3.729401027767284,5.670356174650548,6.095114501511145,-1.7611245,0.3539964,-0.81489426,193.33072,-52.612385,-4.089188
686527923000.0,-3.827801203532301,5.500392302625614,6.050387191348697,-1.7754798,0.32742378,-0.7742717,193.1121,-52.00928,-4.550544
686533866000.0,-3.9461880477229,5.337609507039769,5.9903263328255285,-1.7800614,0.32162055,-0.74067414,192.89764,-51.374153,-5.0479436
686537899000.0,-4.026704732649134,5.284963949943874,5.940777700649455,-1.7892243,0.28496864,-0.7257079,192.69588,-50.74686,-5.519495
686542875000.0,-4.126047907504811,5.220008757256254,5.879643558891917,-1.7687603,0.2501493,-0.7067711,192.4959,-50.11259,-6.008639
686547977000.0,-4.162925196966788,5.137591098809752,5.828050703397965,-1.7531832,0.20005837,-0.7031059,192.31068,-49.48644,-6.478095
686552905000.0,-4.171985564791706,5.051519212766365,5.782749810328278,-1.7427986,0.18387043,-0.68783426,192.1227,-48.87826,-6.9307947
686557927000.0,-4.166982488840345,4.938863586997815,5.785083719042644,-1.7400496,0.17165314,-0.6713409,191.939,-48.26226,-7.390879
686562983000.0,-4.153185933042074,4.810098421986893,5.817274914255865,-1.7400496,0.1518,-0.65179324,191.75864,-47.662056,-7.833082
686567896000.0,-4.1096803709498335,4.720434893519734,5.814973024729989,-1.7366899,0.11789699,-0.6560693,191.59515,-47.05767,-8.2691555
686572963000.0,-4.03620861522156,4.661657284354497,5.780686307681438,-1.7470746,0.10293079,-0.64873886,191.42668,-46.464134,-8.689897
686577992000.0,-3.8790821610779593,4.619987836400385,5.686774446159769,-1.7602082,0.07788532,-0.65393126,191.29323,-45.8445,-9.100032
686582953000.0,-3.655019049682387,4.592551548739172,5.545020006756497,-1.7702875,0.092240654,-0.6395759,191.14963,-45.237793,-9.501398
686587951000.0,-3.52961264587506,4.558683206437768,5.527562046065809,-1.7739527,0.093462385,-0.62949663,191.02827,-44.62659,-9.869388
686592913000.0,-3.520548252627563,4.517893436824034,5.6544637408297564,-1.7935003,0.06719518,-0.6386596,190.91003,-44.021873,-10.229058
686597940000.0,-3.4605337140994785,4.503750697141998,5.799396169294023,-1.8164078,0.0720821,-0.63194007,190.7881,-43.436245,-10.511347
686603424000.0,-3.297267026975532,4.540617398586041,5.988995955334938,-1.8442022,0.09712757,-0.60048056,190.66205,-42.860725,-10.78629
686607908000.0,-3.2247625390156065,4.581165556272509,6.123005324879952,-1.8811595,0.109650314,-0.57604593,190.56119,-42.248245,-11.052415
686612892000.0,-3.2438624874749897,4.643240538345339,6.237605264935975,-1.9184223,0.1133155,-0.56291234,190.45055,-41.646027,-11.314978
686617857000.0,-3.262385695073709,4.711907564241796,6.313624298029484,-1.9636264,0.15515977,-0.539394,190.34471,-41.042896,-11.540657
686623579000.0,-3.2826829206459736,4.805274759485887,6.32174318825839,-1.9969184,0.18020524,-0.52015173,190.2376,-40.44985,-11.760018
686628311000.0,-3.299468392755019,4.882487896133046,6.328457377102008,-2.0299053,0.18600847,-0.5137377,190.13847,-39.812805,-11.959637
686632910000.0,-3.414251376203312,4.937013495379284,6.443585060877936,-2.055867,0.22999077,-0.49632803,190.01779,-39.190388,-12.167031
686637888000.0,-3.579465196534463,4.987495533307663,6.613388148671544,-2.0861049,0.26419923,-0.50488013,189.89983,-38.575287,-12.377092
686642889000.0,-3.719151716369753,5.006536977521217,6.733669792484135,-2.11451,0.2932153,-0.5137377,189.75644,-37.961857,-12.564316
686649827000.0,-3.886798176710758,5.001456678874532,6.850514221201927,-2.1132884,0.29657507,-0.52473325,189.61156,-37.368473,-12.75747
686653264000.0,-3.966634845633221,4.997103083764149,6.905183841205262,-2.1142046,0.31856623,-0.54641896,189.46692,-36.743214,-12.9952545
686657906000.0,-4.007432153907923,4.952905996841542,6.911983398501071,-2.097406,0.30909783,-0.56138515,189.32594,-36.14428,-13.227446
686662899000.0,-4.051314308198226,4.905366993178342,6.919297097246865,-2.0873265,0.28130344,-0.5946773,189.19559,-35.517155,-13.493572
686667892000.0,-4.117650663088235,4.854170268581315,6.9488324105276815,-2.0650299,0.25534168,-0.6258314,189.06703,-34.918262,-13.7581005
686673030000.0,-4.228320916323529,4.794578713425606,7.021193629091695,-2.0522017,0.23640485,-0.63591075,188.94249,-34.33889,-14.0176115
686678101000.0,-4.337962037202407,4.7295621632946725,7.093342917327985,-2.0323486,0.21594086,-0.64476824,188.84651,-33.73222,-14.283489
686682938000.0,-4.447033286831778,4.600292315383274,7.17009687370716,-2.0247128,0.18600847,-0.66156703,188.75644,-33.144722,-14.542555
686687912000.0,-4.559193798648296,4.467361113499608,7.249024758559345,-2.0146337,0.16768251,-0.6826419,188.6805,-32.534714,-14.825951
686692888000.0,-4.197823751522797,4.424405276806632,6.879329717084159,-2.032654,0.13591751,-0.7125743,188.61443,-31.93733,-15.098664
686698094000.0,-3.6542412176428174,4.4109279851324565,6.335746995566769,-2.0497584,0.14813483,-0.70341134,188.53615,-31.364101,-15.37023
686702921000.0,-3.5298833049898266,4.333618589623099,6.194079105706812,-2.0696115,0.13194689,-0.68630713,188.47943,-30.741835,-15.6486225
686707952000.0,-3.721281243677938,4.198239551496949,6.352799332089914,-2.1203132,0.1142318,-0.69027776,188.42006,-30.1263,-15.926214
686712900000.0,-3.87838501662855,4.093684091757194,6.46741346598056,-2.1493294,0.099265605,-0.6973027,188.40723,-29.544004,-16.09652
686718921000.0,-4.02674322546217,4.005768139527349,6.549834724985706,-2.1783454,0.07238753,-0.7128797,188.39748,-28.965921,-16.260632
686722970000.0,-4.076223489186852,3.9796188070934257,6.563533905709343,-2.205529,0.06505715,-0.7141015,188.39325,-28.33461,-16.462881
686727916000.0,-4.067118028690888,3.993276974067666,6.522559214628989,-2.223244,0.060170226,-0.72295904,188.39333,-27.716642,-16.660353
686732883000.0,-4.061815675032437,4.033097618350324,6.539313511214087,-2.225993,0.101098195,-0.7357872,188.39706,-27.069944,-16.89627
686737888000.0,-4.066257879249305,4.139712003892493,6.7036769690454125,-2.2653937,0.13683382,-0.7510588,188.39983,-26.428753,-17.128119
686742927000.0,-4.057079065292959,4.235220925640566,6.861048613151765,-2.316401,0.13805555,-0.8002335,188.42693,-25.76582,-17.35866
686747949000.0,-3.957976990521412,4.252455986919907,6.964459430747178,-2.3710735,0.19547687,-0.8072584,188.42851,-25.115173,-17.60552
686752920000.0,-3.859881328695574,4.269516020695216,7.066820078749328,-2.413834,0.24984388,-0.7828238,188.45761,-24.44739,-17.84189
686758004000.0,-3.942949440465117,4.426377888372093,7.192493495348837,-2.4474316,0.26145032,-0.8011498,188.49222,-23.784386,-18.084017
686762898000.0,-4.042468658301315,4.592243416380182,7.315707986552073,-2.521041,0.27672195,-0.82894415,188.50974,-23.121845,-18.334938
686767905000.0,-4.018147516070094,4.704968832821194,7.508710340486671,-2.5411994,0.3191771,-0.8393288,188.55917,-22.44604,-18.562109
686772983000.0,-3.981798550203472,4.814016152146832,7.710649761365335,-2.5738807,0.34300083,-0.8539896,188.61237,-21.765308,-18.788036
686777922000.0,-3.969558549670415,4.845975776463746,7.8050976,-2.5827382,0.3717115,-0.8304713,188.66342,-21.083658,-19.02758
686782972000.0,-3.9789348272974014,4.8084706170027145,7.8050976,-2.5891523,0.41905355,-0.8399397,188.71777,-20.409393,-19.278551
686788979000.0,-3.94870513674833,4.70509354393602,7.79548486128771,-2.5943446,0.51068336,-0.83199847,188.7784,-19.736137,-19.510658
686792916000.0,-3.90671865389755,4.6058526068637375,7.784033922615913,-2.5799894,0.5354234,-0.8222246,188.83865,-19.084955,-19.73359
686798034000.0,-3.9478617256964186,4.488732033385446,7.828730462336554,-2.5772405,0.5702427,-0.81061816,188.89795,-18.420027,-19.982899
686803121000.0,-4.089803630216032,4.3848722452032405,7.936052353112563,-2.5610526,0.57879484,-0.7816021,188.94519,-17.783821,-20.223825
686807882000.0,-4.22264919880614,4.287668303482092,8.03649652885162,-2.5476136,0.5476407,-0.7693848,189.01466,-17.121037,-20.447992
686812907000.0,-4.323442141036908,4.199916066637376,8.088596874438586,-2.5344799,0.537256,-0.77182823,189.07256,-16.482147,-20.673815
686817902000.0,-4.402842011423551,4.120515903632104,8.111949791837532,-2.5237896,0.5491679,-0.7632761,189.12007,-15.866277,-20.890825
686823052000.0,-4.487271413832033,4.027684850068839,8.135134608903165,-2.5201247,0.5342017,-0.75869465,189.17087,-15.220329,-21.121897
686828010000.0,-4.5700757932354295,3.931806140477283,8.156925235061955,-2.5231788,0.49846604,-0.75136423,189.21414,-14.595075,-21.344646
686832978000.0,-4.701297463640928,3.874342965157144,8.162620225474445,-2.5341744,0.47250426,-0.77946407,189.27563,-13.941732,-21.577986
686837973000.0,-4.893429820152626,3.864736354854905,8.148210259865447,-2.547919,0.52473325,-0.784351,189.3198,-13.308657,-21.815979
686842900000.0,-5.029288869250796,3.827244230758847,8.184572964082538,-2.576935,0.5873469,-0.78801614,189.38509,-12.636887,-22.065247
686848044000.0,-5.1005400396297365,3.751242883154952,8.289075127036929,-2.6203065,0.6374379,-0.7874053,189.44267,-11.976459,-22.320076
686853031000.0,-5.166932537998372,3.5792399609438568,8.503659445890968,-2.6551259,0.65576386,-0.786489,189.49687,-11.298597,-22.622509
686858186000.0,-5.231204062937348,3.2418153463384867,8.909372416802277,-2.6829202,0.65087694,-0.79901177,189.54832,-10.628682,-22.925926
686862926000.0,-5.290301449593166,2.931554885964198,9.282423722742069,-2.7565293,0.65393126,-0.79473567,189.60477,-9.922349,-23.234758
686867949000.0,-5.631302406220264,2.7745790554185024,9.368340032863436,-2.806315,0.66828656,-0.81092364,189.66603,-9.230873,-23.539917
686872949000.0,-5.998342802696035,2.635356808722467,9.423185187048457,-2.8759537,0.64660084,-0.84513205,189.72838,-8.532938,-23.829414
686877981000.0,-6.184054458858806,2.5939727186700767,9.330190109180704,-2.951701,0.6728681,-0.91904676,189.8348,-7.7513847,-24.095724
686883127000.0,-6.270979834024164,2.6070114455242965,9.151993010671134,-2.9843822,0.75533485,-0.9868528,189.942,-6.9841766,-24.366594
686887962000.0,-6.341496969075322,2.6366597191977954,9.063951646050214,-2.946814,0.8185594,-1.0369438,190.05128,-6.1722674,-24.707666
686892918000.0,-6.395993242192284,2.6947890392529086,9.100282494794856,-2.9541442,0.81214535,-1.1090258,190.18109,-5.3565946,-25.044844
686897938000.0,-6.451193260563381,2.753669020422535,9.137082507042251,-2.8817568,0.87598073,-1.1530081,190.32103,-4.560308,-25.45179
686903003000.0,-6.577612173098968,2.703984054002675,9.344068612724492,-2.8411343,0.94714653,-1.1957687,190.47763,-3.7700465,-25.848572
686907890000.0,-6.720682506113871,2.623507143408483,9.594441928926251,-2.821892,0.96669424,-1.2241739,190.63712,-3.0129826,-26.237019
686912919000.0,-6.510441362075433,2.6593017427241783,9.589480821351671,-2.8680124,0.8906415,-1.2873985,190.83473,-2.2345362,-26.612673
686917932000.0,-6.116956169306105,2.756005705695631,9.449426368965756,-2.8231137,0.89980453,-1.2822062,191.01141,-1.5114926,-27.004665
686922933000.0,-5.724412892019171,2.8524781810238244,9.309707175592138,-2.8625145,0.9062186,-1.361924,191.25316,-0.71665,-27.361328
686928465000.0,-5.947234558436482,2.4789767072312703,9.228179251465798,-2.8759537,0.9074403,-1.3723087,191.4641,0.028153608,-27.705788
686932883000.0,-6.250435545891112,2.089146778110749,9.176989659655652,-2.9782734,0.88361657,-1.3100005,191.66997,0.7840714,-28.03306
686937950000.0,-6.457189930037809,1.8804801020513235,9.348078689003298,-3.1050282,0.8481864,-1.3313808,191.95395,1.5543035,-28.254444
686942912000.0,-6.579516741718285,1.81167128046014,9.64625014278819,-3.1700852,0.7816021,-1.3976597,192.224,2.3126044,-28.451763
686947947000.0,-6.651744379018814,1.8124203421449552,9.908287087560533,-3.189633,0.79168135,-1.3793337,192.47388,3.1532464,-28.71545
686953041000.0,-6.434873789021196,2.207434586298325,9.947013942526,-3.2088752,0.70952,-1.398576,192.74515,3.9997642,-28.923187
686957880000.0,-6.2288595006430105,2.5826748547431926,9.983802174009686,-3.295618,0.7312057,-1.3570372,193.01279,4.8766713,-29.133465
686962963000.0,-5.979987494568257,3.001295485857131,9.690026416913822,-3.2724051,0.68508536,-1.3261884,193.27534,5.7100244,-29.293102
686967916000.0,-5.718721004626727,3.4233411992543004,9.21170789136514,-3.1789427,0.65393126,-1.2745703,193.50774,6.5140696,-29.458414
686972942000.0,-4.9664126049828345,3.326010397891123,8.98457282324669,-3.061351,0.63621616,-1.2119566,193.74477,7.2528305,-29.56132
686977927000.0,-2.929427284923982,1.8369038620892597,9.443479845806769,-3.0973923,0.58001655,-1.0140363,193.90816,7.9606423,-29.64898
686982931000.0,-1.4730796065790823,0.8827244418454275,9.685043142563892,-3.2971451,0.8454375,-0.98532563,194.11234,8.652201,-29.822268
686987957000.0,-1.9621660477368368,1.7176296543261829,9.200896914297443,-2.8325822,0.8445212,-0.89461213,194.20752,9.135515,-29.91532
686992909000.0,-2.434291424716073,2.445888702579403,8.827620060250242,-2.579073,0.82558435,-0.8029824,194.52766,9.94758,-29.516178
686998079000.0,-2.901296728565929,2.9557823659095286,8.713251599230029,-2.404671,0.8713993,-0.71929383,194.81447,10.630054,-29.152248
687003158000.0,-3.192900233523828,3.395694262989152,8.484115856644712,-2.3194554,0.9224065,-0.6582073,195.03172,11.170542,-28.9933
687007976000.0,-2.987312430753584,3.637036441892677,7.92992265323518,-2.2321017,0.8680395,-0.6444628,195.22713,11.649938,-28.822748
687012951000.0,-2.7485337701417003,3.845771352530364,7.28284180465587,-2.1105394,0.7644979,-0.5723807,195.33592,12.028414,-28.78219
687017916000.0,-2.3555018407388664,3.817697577479757,6.199998588562753,-1.9905044,0.65179324,-0.49510628,195.42886,12.373371,-28.726532
687022996000.0,-1.9533664527496624,3.788973553863023,5.092074411774629,-1.8164078,0.56107974,-0.35308012,195.46735,12.655462,-28.676237
687027936000.0,-1.5383160243668783,3.4431722208384707,3.73839366892725,-1.5922203,0.44135013,-0.19639318,195.46172,12.874656,-28.59519
687032966000.0,-1.1088267334629611,2.9999758817509248,2.280871470406905,-1.3200798,0.33964106,-0.04886922,195.4054,13.01361,-28.506245
687037965000.0,-1.2434506873007232,2.3039902987090755,1.377441096813127,-1.0122037,0.19853121,0.10476339,195.30588,13.135249,-28.422913
687043057000.0,-1.6643952277782097,1.465893429216891,0.7327512173077222,-0.7302894,0.08399397,0.26816985,195.14908,13.169392,-28.332628
687048013000.0,-2.495787551956248,0.157455229743374,0.3854896326966764,-0.4605924,-0.3707952,0.44501534,194.94952,13.320411,-28.114738
687052962000.0,-6.842546094657131,-5.258047504030291,2.3754275586133784,-0.1853976,-0.9801333,0.5317582,194.70439,13.386919,-27.834404
687058092000.0,-11.348278833403448,-10.87161166330669,4.4381435739604544,-0.0125227375,-1.3335189,0.7473936,194.38824,13.601131,-27.679758
687062960000.0,-13.694604706285604,-13.526705827749348,5.442778379163851,0.3115413,-0.8943067,1.0555751,194.03296,13.680787,-27.602772
687067904000.0,-15.381513068166456,-15.25932984010814,6.119370531331467,0.6753115,0.14508049,1.2779301,193.66214,13.688563,-27.618969
687073003000.0,-16.401070265012063,-16.30871093602206,7.706097111168562,1.0488557,1.5879441,1.3778065,193.42834,14.121462,-28.684824
687078915000.0,-17.11928676249569,-17.050347594277834,10.118367353154085,1.4315627,2.4791965,1.1407908,193.3277,14.443646,-29.785713
687082992000.0,-17.614579161047914,-17.56179087163047,11.781903512926576,2.055867,2.3753495,0.68752885,193.48186,14.817196,-31.044846
687087966000.0,-18.088386934368245,-18.051048012772647,13.619350860286891,2.4654522,2.0176878,0.22724187,193.82976,15.135451,-32.32214
687092921000.0,-18.5173206133818,-18.493967468952643,15.386369193456474,2.3280075,1.2638801,-0.12767084,194.27185,15.450696,-33.325153
687097915000.0,-18.377833607566348,-18.754220643704123,15.848923231507625,1.6276505,0.27122417,-0.45112398,194.8456,15.987658,-33.813046
687102933000.0,-17.994064075421473,-18.936414885536824,15.752011917480036,0.42149702,-0.31245756,-0.68508536,195.43285,16.653067,-34.124317
687108179000.0,-17.40692142304961,-18.75260887328802,14.876267248148524,-0.77396625,-0.5717699,-0.90469146,195.99527,17.553476,-34.05321
687113122000.0,-16.359978276859085,-17.585603531703356,11.994772552805111,-1.6679676,-0.7819075,-1.1374311,196.50366,18.616108,-33.805286
687117918000.0,-15.30200015096774,-16.168921761474653,9.444467128073732,-2.1499403,-0.8784242,-1.3784174,197.02907,19.860994,-33.44208
687122994000.0,-14.05646109548387,-13.821214217880184,7.47759039089401,-2.1749856,-0.8249735,-1.5632042,197.53772,21.156258,-33.04659
687127918000.0,-12.725551891211405,-11.463755888836104,5.6202436,-1.8551978,-0.65301496,-1.7146988,198.09685,22.373661,-32.764126
687133217000.0,-9.824269660987795,-7.968085058645262,4.227794306896552,-1.4031575,-0.37659842,-1.7962493,198.67853,23.548376,-32.49891
687137914000.0,-7.252591488623146,-4.869544600180196,2.9935360827586206,-0.8402451,0.03940081,-1.8099937,199.25583,24.479343,-32.36068
687142898000.0,-6.193362605248913,-3.350606034815058,2.3016067241532028,-0.124311075,0.30085114,-1.7935003,199.85048,25.264462,-32.23926
687148818000.0,-6.063168827179529,-2.7414856162142214,1.8970764172558023,0.29779682,1.0852021,-1.7849482,200.59831,25.980093,-32.337105
687152906000.0,-5.8911859813107,-2.521399778446095,1.7568488962703013,1.5922203,1.3170254,-1.7583756,201.11044,26.178667,-32.211563
687157969000.0,-5.360923401044642,-3.023962133257162,2.1209097106014854,1.9532416,1.6560557,-1.8542814,201.80377,26.512718,-32.280067
687162868000.0,-4.847837013384477,-3.510245557357382,2.473177917081532,2.4324653,1.7858646,-2.0864103,202.50998,26.522766,-32.35105
687167890000.0,-3.7680583855506375,-3.9733601463160633,2.5882435048164543,2.666427,1.6010778,-2.1917844,203.20122,26.505247,-32.425922
687172978000.0,-2.478318561129914,-4.430055017026816,2.6178442462900287,2.6481009,1.2373075,-2.0861049,203.8783,26.44394,-32.478706
687177993000.0,-1.1875639301189298,-4.474568169593657,2.756030444301288,2.495079,0.9825767,-1.7806722,204.52739,26.424664,-32.406715
687182986000.0,0.1204133849554012,-4.043314693597622,3.021417054112983,2.243097,0.7583892,-1.3979651,205.0556,26.401142,-32.277473
687187951000.0,0.9447156783393502,-3.350197014729242,2.9909369819494582,1.9089539,0.5036584,-1.0479393,205.5906,26.37877,-32.078777
687192904000.0,1.1554745624548737,-2.3194542495306862,2.582591635379061,1.5057828,0.47158796,-0.8054258,206.04457,26.38691,-31.917938
687197929000.0,1.3692971735351294,-1.2737279432268815,2.16831031768953,1.3158038,0.8781188,-0.5910121,206.44627,26.337957,-31.739935
687202973000.0,0.9287130334997564,-0.6091101184105314,2.4043369240760604,1.430341,1.4016303,-0.37720928,206.79288,26.272787,-31.61475
687208070000.0,-0.0518305498820088,-0.252116089302779,3.175443987186738,1.5613716,1.8020525,-0.19639318,207.13718,26.220697,-31.580347
687212952000.0,-0.9142272559261372,0.193492320705832,3.913044520804221,1.6902641,1.9208658,-0.098043874,207.43752,26.000103,-31.678785
687218577000.0,-1.824471148518466,0.819525007323542,4.761837369798945,1.6511687,1.8924606,-0.06383542,207.74602,25.77346,-31.849588
687222962000.0,-2.5340568318993304,1.3075522661357477,5.42351855074861,1.4947872,1.78617,-0.070249505,207.95209,25.523037,-32.021206
687227984000.0,-3.541399241320914,1.93774233700254,6.395417518712955,1.2965615,1.5332718,-0.13408493,208.13182,25.301641,-32.138073
687232993000.0,-4.629067139523944,2.5966616073195974,7.456006750663279,1.1395692,1.1236867,-0.2098322,208.27,25.115366,-32.17974
687237963000.0,-5.5802472563561984,2.7282274646003777,8.382860172891757,1.0754282,0.6933321,-0.2602286,208.3373,24.722939,-32.32408
687242895000.0,-6.431121700534927,2.4792817383574577,9.211440595862175,1.070236,0.4728097,-0.25900686,208.3753,24.360859,-32.410057
687247975000.0,-7.362194324416733,2.1837074698712797,10.074090435438457,1.0842859,0.04184427,-0.21502456,208.2357,23.8338,-32.441147
687252987000.0,-9.848061043805307,0.76941804380531,11.189110236725664,1.1154399,-0.40958515,-0.20525073,208.06995,23.31539,-32.401634
687258072000.0,-12.254186889460154,-0.6234407578817481,12.203707778200512,1.1007792,-0.76144356,-0.26542094,207.85794,22.765585,-32.336506
687262938000.0,-12.915462529562982,-1.3613856443804626,11.523265351876606,1.0421361,-0.9868528,-0.3576616,207.61395,22.232225,-32.182915
687267931000.0,-13.533626169441904,-2.1161605726258004,10.83728773302836,0.9841039,-1.1209377,-0.4636467,207.41415,21.785395,-32.144527
687273038000.0,-13.551524966239707,-2.863439801134492,10.260048148764866,0.94806284,-1.1267409,-0.5910121,207.2475,21.381334,-32.06136
687277947000.0,-13.568729821043002,-3.5817467783714547,9.70518832516011,0.9053023,-1.0067059,-0.7486154,207.19127,21.134356,-32.06194
687282968000.0,-13.126350682641618,-4.163953041512508,9.477502545288989,0.852157,-0.8720101,-0.9275989,207.18777,20.93227,-32.040466
687287879000.0,-12.648505628390684,-4.718433937736029,9.288167561487588,0.7492262,-0.784351,-1.1071932,207.24744,20.785877,-32.013065
687292916000.0,-11.88152625646858,-5.444856266751966,9.01430111600796,0.5891795,-0.8078693,-1.2363913,207.42288,20.82213,-31.99124
687297915000.0,-11.055713345749218,-6.202607538991565,8.723905695194768,0.41813725,-0.9779953,-1.3191634,207.6266,20.907263,-31.932262
687302986000.0,-10.120922704918032,-6.744096653561334,8.2196099401922,0.32345316,-1.0665708,-1.3994923,207.92386,21.129671,-31.80382
687308154000.0,-9.127706530054644,-7.201069336131525,7.618084538722442,0.24587326,-1.056186,-1.4712689,208.22382,21.39349,-31.647375
687312959000.0,-8.375622838492681,-7.377788748614138,7.259607255652445,0.17898351,-1.0845913,-1.4795157,208.58899,21.83431,-31.342659
687317908000.0,-7.711405156726876,-7.399929242961694,7.019750949774213,0.10567969,-1.0506883,-1.4682146,208.96317,22.28771,-31.054846
687323163000.0,-7.009256886829687,-7.389568217717717,6.794660293693694,0.04917465,-0.98440933,-1.4468343,209.43045,22.92058,-30.65622
687327928000.0,-6.4170591708279705,-6.900148700075075,7.0100050245495495,-0.013439035,-1.0082331,-1.3750577,209.84372,23.533588,-30.261793
687332953000.0,-5.796711977456987,-6.413432716516995,7.196730671086866,-0.07788532,-1.0412198,-1.244027,210.23315,24.111557,-29.852734
687337970000.0,-5.199906963264792,-6.086803026319765,7.164470918967688,-0.16249016,-1.0354166,-1.0946705,210.58047,24.67506,-29.46924
687342941000.0,-4.608573950398657,-5.763168146915652,7.132506950902224,-0.30695978,-0.9837985,-1.0421361,210.93288,25.21836,-29.035042
687347967000.0,-3.705569929635063,-5.01724847693013,6.542377262286815,-0.37018433,-0.88117313,-0.89919364,211.21211,25.70549,-28.660225
687352889000.0,-2.7330928495690445,-4.165790767229049,5.803294463002017,-0.50946164,-0.763887,-0.64873886,211.44397,26.202152,-28.336267
687358088000.0,-2.370501687507436,-4.051866643188578,5.702108107317073,-0.61178154,-0.5910121,-0.4370741,211.66437,26.625765,-28.018375
687362889000.0,-2.4525568989490383,-4.439349279347611,6.034887665853659,-0.6249151,-0.4905248,-0.25320363,211.8233,27.01421,-27.752724
687367887000.0,-2.936859421614559,-4.889677936649557,6.4326577755389645,-0.54733527,-0.38789943,-0.050701816,211.93892,27.311085,-27.51723
687373040000.0,-3.756661036238917,-5.391691372197854,6.884009165767616,-0.46517387,-0.21624629,0.1518,212.03027,27.575096,-27.355375
687377978000.0,-4.501619277443468,-5.84368851555784,7.369553450897029,-0.39767328,0.031154128,0.3494149,212.0961,27.800915,-27.25476
687382903000.0,-5.193548367333209,-6.257964448794618,7.920452344795366,-0.3268129,0.1863139,0.51343226,212.12898,27.97636,-27.201336
687387867000.0,-5.726392038907166,-6.41069458585324,8.354196055929052,-0.23701571,0.25717425,0.52503866,212.19714,28.154427,-27.261059
687392951000.0,-5.83085874867687,-5.857020624102417,8.472591951223002,-0.102319926,0.13683382,0.33658674,212.26645,28.305077,-27.305
687397974000.0,-5.934072022314404,-5.309989878651123,8.589567282076956,0.008246681,-0.03145956,0.1301143,212.35098,28.457134,-27.393944
687403856000.0,-5.699477216050623,-4.2378254207914825,8.316325851607072,0.059864793,-0.04886922,-0.03573562,212.4761,28.606907,-27.464989
687407963000.0,-5.3518264312977095,-3.2659835687022905,7.913366861832061,0.07696902,0.054367006,-0.15393804,212.63148,28.756071,-27.499184
687412940000.0,-5.031256492291618,-2.334033405728659,7.481491880628434,0.08368854,0.12705997,-0.2507602,212.7407,28.788408,-27.522346
687417912000.0,-4.810147254028326,-1.6449094572974228,7.105606063988855,0.058643065,0.15363261,-0.3680463,212.89584,28.844456,-27.5364
687423647000.0,-4.536768764659553,-0.8462051504844174,6.655215709705284,0.004276057,0.20738874,-0.49968776,213.0457,28.816374,-27.557037
687427930000.0,-4.078240208130081,-0.1966230124119241,6.08552861300813,-0.0983493,0.2312125,-0.5858198,213.2132,28.816778,-27.565111
687432984000.0,-3.5371700879573176,0.5698930104268293,5.413289858231707,-0.22174409,0.23732115,-0.5864306,213.36443,28.768234,-27.588821
687437960000.0,-3.356555483080417,0.3110252808444306,5.181681080355115,-0.38026363,0.22266038,-0.5458081,213.52634,28.758223,-27.606228
687442913000.0,-3.4495920174254158,-0.7319628358666255,5.284511025601321,-0.45265114,0.18692477,-0.5177083,213.68695,28.75714,-27.61794
687447931000.0,-3.5164228492344742,-1.865727706657492,5.3297821327025625,-0.5687156,0.1255328,-0.44501534,213.80124,28.744242,-27.623386
687452945000.0,-3.5659857173920524,-3.04697487121968,5.338042596353001,-0.659429,0.080634214,-0.41630468,213.91414,28.74179,-27.62207
687457903000.0,-3.568992061498106,-4.226710164383562,5.334557748236666,-0.71929383,0.043676864,-0.3848451,214.039,28.870335,-27.597052
687462951000.0,-3.456269873292529,-5.457260432876712,5.301680520994851,-0.74281216,-0.008246681,-0.3408628,214.13992,29.002321,-27.564507
687467879000.0,-3.346327187247577,-6.647709777110259,5.2768207,-0.71837753,-0.11209377,-0.28680122,214.30719,29.35422,-27.46614
687473915000.0,-3.212085608693457,-8.060165163822697,5.2768207,-0.68539083,-0.20769419,-0.1853976,214.43439,29.684618,-27.375137
687477991000.0,-3.155521869902182,-8.969074141224604,5.273256422573364,-0.5839872,-0.29168814,-0.14721853,214.5665,30.102802,-27.236557
687483000000.0,-3.1735693458991725,-9.970709483069976,5.259720815575621,-0.5366451,-0.35613444,-0.10048734,214.65096,30.500614,-27.100702
687487907000.0,-3.185596096151197,-10.90744402514207,5.232676194274152,-0.4166101,-0.3933972,-0.076052725,214.74841,30.972008,-26.917648
687493002000.0,-3.1561870138798005,-11.550242280695713,5.102435947718272,-0.28099802,-0.45173484,-0.09315695,214.82504,31.419365,-26.717672
687497935000.0,-3.127713019209575,-12.17260220113656,4.976336804193216,-0.13530666,-0.4831944,-0.12705997,214.92998,31.952127,-26.495388
687502954000.0,-2.942386107075228,-12.486253638147703,4.788190624548116,0.02687807,-0.44684792,-0.15424347,215.03525,32.439384,-26.275427
687507958000.0,-2.719645007918747,-12.721369278705458,4.586073689275263,0.1777618,-0.39614612,-0.21197024,215.1497,32.89425,-26.042805
687512823000.0,-2.4893737658707327,-12.792090353183736,4.379029732403145,0.30390546,-0.28863382,-0.26358834,215.31259,33.407936,-25.814184
687517827000.0,-2.236618741129651,-12.681797452148064,4.15384805288646,0.37904188,-0.17012598,-0.30909783,215.49603,33.893856,-25.59173
687522823000.0,-2.099215619411006,-12.434698708404987,4.006941478331901,0.42455134,-0.03940081,-0.30970868,215.71982,34.40193,-25.367077
687527837000.0,-2.1559868823086843,-11.954724073624249,3.991458436027515,0.4392121,0.09437868,-0.2947425,215.97087,34.892975,-25.164612
687532812000.0,-2.2581623554693087,-11.326364786027984,4.071043754999489,0.462425,0.16249016,-0.28069258,216.23535,35.37486,-24.954708
687537814000.0,-2.40493950879379,-10.548445224594015,4.242283911959963,0.45631635,0.27397305,-0.24495697,216.52339,35.84632,-24.789717
687543010000.0,-2.5577816077023496,-9.735483197407683,4.424552752452443,0.4343252,0.36163223,-0.18448131,216.79175,36.25291,-24.661102
687547880000.0,-2.701299744778068,-8.970053526575905,4.598514156872436,0.41080686,0.39950588,-0.119729586,217.06111,36.649254,-24.551878
687552814000.0,-2.8731056895470384,-8.1872451925879,4.780252429585049,0.3885103,0.41905355,-0.046120327,217.29309,36.931656,-24.503466
687557806000.0,-3.0851120449477354,-7.384649553690213,4.9720674600570165,0.3640757,0.3735441,0.025350908,217.50334,37.207478,-24.459293
687562805000.0,-3.3213920366047254,-6.708187897749557,5.152820006928752,0.36193767,0.32620203,0.08368854,217.66515,37.35439,-24.46934
687567807000.0,-3.580835907124849,-6.15351472116911,5.322800568848632,0.3643811,0.27947086,0.11484267,217.80598,37.497875,-24.476698
687572843000.0,-3.849875356535368,-5.579689269146379,5.51281960666597,0.3912592,0.2434298,0.12675454,217.89117,37.516743,-24.528471
687577826000.0,-4.129092875373525,-4.986352510187023,5.732204681036465,0.38820487,0.19486602,0.13713925,217.95567,37.537796,-24.571709
687582822000.0,-4.364047509694184,-4.311337599640216,6.070414952588447,0.39736784,0.1414153,0.15790866,217.97276,37.44979,-24.661339
687587805000.0,-4.54527911013392,-3.543486482510493,6.54734108971617,0.38820487,0.09560041,0.18020524,217.97728,37.36791,-24.741385
687592801000.0,-4.818187455720008,-3.0824502403795924,6.814765211779557,0.364992,0.06658431,0.20372356,217.94545,37.19683,-24.863922
687597871000.0,-5.207096270625109,-2.9936775684311336,6.827446965305589,0.34391713,0.065973446,0.22418754,217.90591,37.03032,-24.982016
687602928000.0,-5.535553829530634,-2.9264896646807825,6.82671269242412,0.32162055,0.08674286,0.22968534,217.82028,36.744465,-25.116758
687607897000.0,-5.589190546091297,-2.9571391655663795,6.765413810667418,0.29352075,0.09712757,0.21471913,217.73389,36.471107,-25.245464
687613322000.0,-5.647749448756139,-2.990601339505676,6.698489593816923,0.27030787,0.11789699,0.21135938,217.64156,36.177208,-25.448675
687617891000.0,-5.6401967986691695,-3.104462215338679,6.673356365586078,0.25992316,0.12492194,0.21410827,217.5509,35.893986,-25.644953
687622967000.0,-5.611167205766934,-3.2620506668657225,6.656768082460331,0.26389378,0.1255328,0.2098322,217.46594,35.61998,-25.837881
687627895000.0,-5.569559549105963,-3.44153735353651,6.647759994186559,0.27947086,0.12308934,0.20769419,217.38359,35.35757,-26.042904
687632953000.0,-5.501292810622743,-3.6762040944331895,6.652026748876949,0.29229903,0.11148291,0.2049453,217.30077,35.10094,-26.24048
687637924000.0,-5.43040665615194,-3.905350673063584,6.655881,0.3042109,0.09712757,0.21135938,217.22781,34.873257,-26.42238
687642950000.0,-5.315141924360033,-4.119981790520232,6.655881,0.31887165,0.08460484,0.22235495,217.15274,34.646538,-26.598108
687647920000.0,-5.201161479273328,-4.332221474913295,6.655881,0.32559118,0.06078109,0.24281894,217.08572,34.460155,-26.744076
687652934000.0,-5.103510550146874,-4.61765250986152,6.666497006210658,0.33200526,0.054061573,0.27458394,217.01477,34.27152,-26.891184
687657944000.0,-5.014919958455728,-4.9397999248846,6.682604271842215,0.35033122,0.07360926,0.3155119,216.93777,34.07847,-27.040432
687662865000.0,-4.941658790836486,-5.175720525094578,6.694188,0.3549127,0.08368854,0.34147367,216.87054,33.93038,-27.152569
687667893000.0,-4.9052259746952505,-5.191912840857503,6.694188,0.38637227,0.10323623,0.3652974,216.80058,33.769825,-27.274723
687673636000.0,-4.864856930385782,-5.20736699951452,6.696926127941048,0.42119157,0.12675454,0.39187005,216.75365,33.66815,-27.365097
687677922000.0,-4.861298454269615,-5.153990823840485,6.757418995752059,0.44409904,0.14966199,0.42058071,216.70467,33.560844,-27.461624
687682970000.0,-4.857107323276983,-5.091124996775033,6.82866677846554,0.47983465,0.16829337,0.44593164,216.65816,33.446613,-27.55675
687687891000.0,-4.87243494641226,-4.9896581073175685,6.910807705906831,0.52839845,0.17837265,0.47586402,216.60684,33.32206,-27.658014
687692883000.0,-4.9015474311377245,-4.858652382035928,7.002996970658683,0.5647449,0.17715092,0.49021935,216.55536,33.19409,-27.759478
687697924000.0,-4.925055658408532,-4.705466167842494,7.070552588006563,0.6087272,0.15882497,0.5045747,216.48138,33.0316,-27.85757
687702909000.0,-4.944637425430681,-4.540979161279738,7.121465304946678,0.6600399,0.13713925,0.5143485,216.40569,32.862057,-27.953087
687707927000.0,-4.960786,-4.374520129134312,7.170113493701467,0.6930266,0.113926366,0.5128214,216.31592,32.657677,-28.050371
687712901000.0,-4.960786,-4.2055529056658045,7.206646858498706,0.7318166,0.081855945,0.50885075,216.22076,32.444828,-28.138514
687717933000.0,-4.96449103104244,-4.035242576963982,7.243771040714357,0.7593055,0.04428773,0.50732356,216.10886,32.191586,-28.230917
687722948000.0,-5.003040264813886,-3.871407905748972,7.282320375117889,0.7965683,0.007330383,0.5119051,215.99344,31.933702,-28.312868
687727936000.0,-5.033779530754494,-3.690981328747377,7.307628707982849,0.8313876,-0.013744468,0.5036584,215.87334,31.648191,-28.393038
687732999000.0,-4.9983906342487,-3.354785703357358,7.219156281954201,0.86009824,-0.028099801,0.49632803,215.74983,31.362234,-28.463715
687737923000.0,-4.96397330728948,-3.027820019094973,7.13311278486452,0.8695667,-0.048258353,0.5009095,215.6098,31.04511,-28.539827
687742961000.0,-4.950456996390741,-2.9355666581012163,7.104486313024716,0.86834496,-0.05009095,0.48838675,215.48122,30.735933,-28.609106
687747955000.0,-4.939199239074147,-2.8680203101216164,7.081970602471557,0.84849185,-0.035124753,0.4914411,215.351,30.43391,-28.67761
687752937000.0,-4.9049012799908,-2.799601054673413,7.042126121389144,0.84513205,-0.018936822,0.48838675,215.2083,30.086887,-28.76124
687757901000.0,-4.83055293574057,-2.7296260537902484,6.972151303173873,0.84574294,0.016493361,0.5006041,215.07095,29.748652,-28.85228
687762994000.0,-4.765652133894357,-2.677685685769028,6.913734926778871,0.8381071,0.049480084,0.5204572,214.93239,29.403683,-28.951488
687767956000.0,-4.747799522278158,-2.706249864354948,6.910164404455632,0.8362745,0.08032878,0.52778757,214.80356,29.065205,-29.054575
687772952000.0,-4.729824583214366,-2.7350097668570137,6.906569416642873,0.8579602,0.105374254,0.5390886,214.66977,28.717773,-29.162918
687777931000.0,-4.723650430207861,-2.7645346545792866,6.886602067504765,0.86193085,0.13683382,0.5580254,214.54178,28.38039,-29.278448
687782987000.0,-4.728045437487519,-2.795299980893165,6.851441642125805,0.87995136,0.14019357,0.57757306,214.41302,28.04043,-29.390903
687787947000.0,-4.740927153972904,-2.821286446951666,6.836821388511534,0.8903361,0.17348573,0.58093286,214.3041,27.712091,-29.513525
687792957000.0,-4.771672153606738,-2.838855155757964,6.8631741994782125,0.9104946,0.17928895,0.5910121,214.18665,27.380941,-29.629993
687797953000.0,-4.812743854320288,-2.8282127265456607,6.88636590707128,0.9456194,0.18203785,0.61178154,214.0723,27.051289,-29.756632
687802927000.0,-4.916317788296464,-2.6480839576290416,6.890869215636226,0.9593639,0.21197024,0.61941737,213.9674,26.730495,-29.886246
687808262000.0,-5.025279470700046,-2.4610483815020863,6.88631469865554,0.9560041,0.2406809,0.6273586,213.85431,26.40445,-30.019176
687812967000.0,-5.100482166481224,-2.3566003916550766,6.790222544506259,0.95447695,0.25900686,0.6444628,213.7427,26.080427,-30.154518
687817860000.0,-5.178689773379694,-2.247978922086231,6.690290788873435,0.95417154,0.27763826,0.655153,213.61116,25.71925,-30.321398
687822969000.0,-5.248448149602076,-2.061553492750865,6.685875541608996,0.95386606,0.28985557,0.6575964,213.48175,25.365833,-30.487028
687827891000.0,-5.313689642802768,-1.86990635366782,6.698108372145328,0.9468411,0.28038713,0.643852,213.35612,25.023678,-30.645658
687833085000.0,-5.4548872081907085,-1.7585109256927465,6.760702861450692,0.95233893,0.2706133,0.6392705,213.21498,24.662361,-30.834066
687837896000.0,-5.637944287836186,-1.7209607668194784,6.854578136104319,0.9425651,0.24556783,0.6374379,213.0755,24.316757,-31.00899
687842895000.0,-5.813197679233493,-1.6465843875026036,6.895301,0.9282097,0.23976462,0.6401868,212.91994,23.931835,-31.205946
687847960000.0,-5.979903803999167,-1.5455501391168505,6.895301,0.9230174,0.21991149,0.6426302,212.76134,23.55617,-31.386974
687852923000.0,-6.110525168204177,-1.4983013589791183,6.904201393633411,0.93309665,0.17745635,0.64751714,212.5791,23.1606,-31.581219
687857959000.0,-6.226901075656612,-1.4759214217169374,6.9176293092529,0.95203346,0.17256944,0.65301496,212.40161,22.77285,-31.774244
687862955000.0,-6.305742251127819,-1.4600609935150377,6.981126177819549,0.95447695,0.16157386,0.657291,212.20305,22.36751,-31.981628
687867864000.0,-6.349926942105263,-1.4502422245614035,7.089133405263158,0.95417154,0.14630222,0.66614854,212.00319,21.966232,-32.181534
687872969000.0,-6.382426602231547,-1.498728288479878,7.1679615742799925,0.97249746,0.10934488,0.6771441,211.7902,21.553381,-32.389748
687877934000.0,-6.405099123688728,-1.5848838700171657,7.222375673126073,0.9944886,0.07880162,0.68233645,211.57843,21.148966,-32.589386
687882900000.0,-6.377704935220469,-1.6603534077299946,7.262561469134458,1.026559,0.05100725,0.68386364,211.35832,20.731474,-32.776154
687887904000.0,-6.299443092542188,-1.7255716175285791,7.28864864409363,1.0577132,0.014966198,0.6740898,211.13876,20.320183,-32.945724
687892909000.0,-6.216208615002614,-1.7761096372713017,7.312970859905906,1.0827587,-0.030543262,0.66614854,210.9199,19.920612,-33.09595
687897988000.0,-6.119588405854679,-1.79136548771563,7.333312029231574,1.1209377,-0.069027774,0.66339964,210.70337,19.521635,-33.2322
687902922000.0,-6.027099610835011,-1.798596599557344,7.376743669034205,1.1472049,-0.089186326,0.6649268,210.4967,19.136065,-33.34187
687907911000.0,-5.935772251690141,-1.793789893802817,7.458457566478874,1.1545353,-0.098043874,0.6606508,210.29463,18.757353,-33.4386
687912930000.0,-5.846466949548616,-1.7936706017611366,7.519447207044546,1.1447614,-0.12644911,0.6569856,210.0925,18.38534,-33.506443
687917956000.0,-5.760985750170194,-1.8007940288441615,7.547940915376646,1.1468995,-0.14019357,0.6606508,209.89621,18.018068,-33.571976
687922979000.0,-5.67555557418973,-1.8079132039810568,7.576417615924226,1.1453724,-0.12461651,0.64660084,209.71135,17.657293,-33.614525
687927979000.0,-5.5954333637583895,-1.7293068716970277,7.578373967708533,1.128879,-0.11789699,0.63407815,209.52843,17.308163,-33.648308
687933118000.0,-5.515216677852349,-1.611341348418025,7.568936635186961,1.1178834,-0.10934488,0.6264423,209.35677,16.968813,-33.682602
687938466000.0,-5.456484606582646,-1.4402895828542932,7.668060992655726,1.0906999,-0.12889257,0.6414085,209.18445,16.641018,-33.690483
687942959000.0,-5.417470586816575,-1.2764306183606855,7.796807502312086,1.0571023,-0.12705997,0.6435465,209.02838,16.329325,-33.701756
687947957000.0,-5.406207643997031,-1.1683705,7.874479234644647,1.0445796,-0.12186762,0.6310238,208.86569,15.999378,-33.704163
687953188000.0,-5.4433918129151975,-1.1683705,7.855887295787715,1.0317514,-0.1301143,0.6365216,208.70139,15.68254,-33.70299
687957918000.0,-5.474244214778921,-1.196631050938825,7.831629770442156,1.0173961,-0.15241088,0.6719518,208.50836,15.323247,-33.685524
687962959000.0,-5.498611592529779,-1.3135944641429436,7.78289501494044,1.0369438,-0.160963,0.6899723,208.3268,14.970021,-33.66607
687967866000.0,-5.544840509539799,-1.4220469620975704,7.734528694647443,1.0571023,-0.13225232,0.711658,208.12805,14.6145,-33.661118
687972962000.0,-5.66051125478965,-1.5184392665810784,7.681512881888208,1.0708468,-0.12644911,0.73364913,207.9272,14.262109,-33.646904
687978250000.0,-5.775671275616438,-1.6147852907162423,7.636602096344423,1.0864239,-0.14294247,0.75411314,207.72699,13.922518,-33.641983
687983093000.0,-5.870065989589041,-1.694657752665362,7.618449129675147,1.1136073,-0.13347405,0.77549344,207.52937,13.582373,-33.645187
687987869000.0,-5.963154809315069,-1.7734252270136988,7.600547298410959,1.1304061,-0.12980886,0.77640975,207.3384,13.260804,-33.662663
687992946000.0,-6.01335259938049,-1.8796168002404068,7.585271720813685,1.1398746,-0.13530666,0.77732605,207.14702,12.940217,-33.679203
687997954000.0,-6.039960383532131,-1.9949174451964864,7.571967712972723,1.1737776,-0.15271631,0.7626653,206.96622,12.62126,-33.68967
688002971000.0,-6.126424729870887,-1.9804791517425493,7.674038792573537,1.1826351,-0.15668693,0.7467828,206.7811,12.32168,-33.719627
688008176000.0,-6.271596934656829,-1.8449851848946703,7.886958056577031,1.1872166,-0.19486602,0.75228053,206.59534,12.022743,-33.73315
688012965000.0,-6.393204127367554,-1.5678536055302406,8.354406825226462,1.17897,-0.25473082,0.7489208,206.41772,11.75091,-33.739273
688017915000.0,-6.505980698874554,-1.1167473512068808,9.130830019022785,1.0754282,-0.42241332,0.71685034,206.2418,11.512313,-33.70126
688022957000.0,-6.663803559285051,-0.6353771257892293,9.792507111420612,0.91751957,-0.50488013,0.6737844,206.05096,11.251956,-33.675674
688027985000.0,-6.932060991374188,-0.0988625277168059,10.11888733649025,0.6973027,-0.559858,0.6404922,205.86362,11.042265,-33.609215
688032927000.0,-7.3038564368811025,0.500788025167364,10.486777013685495,0.5580254,-0.47403142,0.56169057,205.66768,10.743003,-33.504665
688037970000.0,-8.474205342817294,1.641667708702929,11.206667461645749,0.27214047,-0.3115413,0.4859433,205.49263,10.543716,-33.40629
688042899000.0,-9.618097818994071,2.756757131694561,11.910284359919803,0.03604105,-0.095294975,0.36926803,205.30516,10.27215,-33.357098
688047993000.0,-10.14724289987639,3.108354478714462,11.46807197527812,-0.18478674,0.08002335,0.20219639,205.17563,10.0930195,-33.334538
688052889000.0,-10.522038054388132,3.282228565636588,10.8034868776267,-0.42852196,0.22815818,-0.00061086525,205.11493,10.0055275,-33.355373
688057997000.0,-10.464858958409046,3.306219969351908,10.080947890975168,-0.61758476,0.39553526,-0.19028452,204.98196,9.752477,-33.540016
688062969000.0,-9.767877262669089,3.104335538219261,9.335897756511203,-0.6805039,0.5561928,-0.31948254,204.90813,9.561205,-33.74977
688067896000.0,-8.950789096548672,2.710431223362832,8.619193678761063,-0.6450737,0.5897904,-0.35979962,204.80513,9.394291,-34.096554
688073001000.0,-7.922040188436578,2.0229963406686333,7.907722829695182,-0.5717699,0.50762904,-0.38789943,204.74101,9.25894,-34.43956
688077962000.0,-6.961956672932745,1.3601863328656745,7.260042395902242,-0.47983465,0.38820487,-0.4098906,204.7052,9.16185,-34.747826
688082979000.0,-6.052580618412348,0.6980193256541712,6.672921102719588,-0.36071593,0.26145032,-0.40653083,204.66008,9.044757,-35.024883
688088013000.0,-5.194453601337792,0.0838563158428093,6.150545960334448,-0.2779437,0.1685988,-0.37323865,204.6723,9.026392,-35.20149
688092954000.0,-4.537684809531773,-0.3473954572449833,5.865682189882943,-0.24007004,0.089491755,-0.30085114,204.65927,8.98354,-35.34657
688097962000.0,-3.872010227591973,-0.784495007867057,5.576955664397993,-0.21227567,0.040927973,-0.226631,204.7051,9.038934,-35.397587
688103092000.0,-3.473054899681471,-1.1022871224972697,5.459252190389516,-0.21288654,0.015271631,-0.15271631,204.72037,9.078553,-35.436478
688107917000.0,-3.153450333563888,-1.375633120859119,5.383556424099018,-0.19608775,-0.01160644,-0.06383542,204.70032,9.091677,-35.466213
688112897000.0,-3.0760353597749948,-1.5155077792400764,5.3783171974103166,-0.17470746,0.008857546,0.02107485,204.72249,9.189074,-35.41926
688117882000.0,-3.157105893101253,-1.5661768493419657,5.418852411165357,-0.17104226,0.02565634,0.07513642,204.72296,9.273808,-35.368538
688123734000.0,-3.506016223452141,-1.4150383892109644,5.621455562536124,-0.14996742,0.02687807,0.10415252,204.72382,9.368588,-35.28423
688127962000.0,-3.814510305140555,-1.2590183764252565,5.802296960346791,-0.12980886,0.02076942,0.12034045,204.7126,9.452874,-35.206512
688132904000.0,-4.121206865834214,-1.0338876106425896,6.055658394582653,-0.035430185,0.024129177,0.14966199,204.68248,9.50263,-35.146076
688137896000.0,-4.364583384362693,-0.7537749876092594,6.363323012083374,0.08124508,0.005192355,0.18234327,204.64528,9.537123,-35.080208
688142888000.0,-4.651315807739122,-0.5169406548564763,6.633507813327924,0.18234327,-0.019242255,0.20372356,204.55487,9.511188,-35.0473
688148005000.0,-5.024106203681915,-0.3529129439618622,6.842270358241201,0.2782491,-0.03176499,0.22388211,204.45807,9.454973,-35.01529
688152923000.0,-5.531756780893753,-0.1861254258823529,7.103785252257183,0.35460728,-0.044593163,0.21197024,204.35019,9.326207,-34.9862
688158147000.0,-6.307403818559052,0.0055050296470587,7.47792112880985,0.42760566,-0.049785517,0.19028452,204.24307,9.178124,-34.956093
688162880000.0,-6.865123286802626,0.1537826528285669,7.794671750039068,0.50335294,-0.05497787,0.14477506,204.11658,8.985729,-34.954906
688167889000.0,-6.857626812236287,0.20625828790436,8.038308836849508,0.5720753,-0.040927973,0.09560041,204.00417,8.787539,-34.955353
688173007000.0,-6.8499672081575245,0.2598758363806844,8.287247669010783,0.59528816,-0.04428773,0.06505715,203.86249,8.553711,-35.031437
688177931000.0,-6.688538938368815,0.2927158911830466,8.529007748614756,0.6075055,-0.06536258,0.058337633,203.73303,8.317216,-35.102283
688182904000.0,-6.443166081073199,0.3158642659200933,8.77438012248469,0.5833763,-0.1142318,0.08246681,203.60509,8.090124,-35.161556
688187897000.0,-6.25584631215733,0.3637931013110846,8.900608930870083,0.53786683,-0.19547687,0.0983493,203.48975,7.857013,-35.16672
688193762000.0,-6.085905584597048,0.4410388562574493,8.946956250481342,0.4914411,-0.28924468,0.124005646,203.36363,7.6307983,-35.154583
688197961000.0,-6.033733516629472,0.5018650669354258,8.91427999085739,0.43004912,-0.35888332,0.14508049,203.26189,7.4138193,-35.060753
688202982000.0,-6.057964766481895,0.5814819770340508,8.793123922323806,0.344528,-0.39828414,0.15577064,203.15685,7.2168093,-34.95085
688207882000.0,-6.081612072651358,0.6591802163256786,8.674887567849687,0.27947086,-0.41050145,0.16187929,203.06152,7.0224247,-34.803143
688212949000.0,-6.192086852233508,0.7669472564293462,8.497689180850015,0.19853121,-0.39461896,0.14355333,202.9759,6.8589664,-34.6543
688217898000.0,-6.3509914290503895,0.888462482299576,8.292047762843902,0.112704635,-0.37659842,0.10629055,202.89944,6.7184386,-34.504887
688222941000.0,-6.443452634015695,1.0563109715796657,8.22449991504606,0.07086037,-0.30482176,0.084910266,202.82063,6.578617,-34.401005
688227945000.0,-6.488415562981917,1.252512950136472,8.25311285875128,-0.029626964,-0.25778514,0.027488936,202.77034,6.4878154,-34.294415
688232878000.0,-6.508724520771204,1.3776582051146384,8.303325580487414,-0.101098195,-0.20097467,-0.033292156,202.70306,6.389619,-34.258095
688237897000.0,-6.454778398380632,1.2928857902998236,8.422777700016034,-0.16523905,-0.15027285,-0.09743301,202.66068,6.325373,-34.231716
688242901000.0,-6.400993501699535,1.2083667299823633,8.541872819785153,-0.22327125,-0.109650314,-0.15424347,202.61948,6.2504416,-34.220036
688247962000.0,-6.334211167089532,0.976793259695172,8.45751405220407,-0.30543262,-0.038789943,-0.19975294,202.6011,6.206416,-34.229446
688252915000.0,-6.264945742630282,0.7040600869672355,8.31032447147942,-0.35277468,0.044593163,-0.23090707,202.60011,6.1756883,-34.252323
688257898000.0,-6.168231201346865,0.3904726746922129,8.133480756520914,-0.34147367,0.12858713,-0.23182335,202.62485,6.165871,-34.269203
688263507000.0,-6.035761655999241,0.0032546494565114,7.909302172531538,-0.32162055,0.13958271,-0.2180789,202.65486,6.1676116,-34.288
688267891000.0,-5.904939962338025,-0.2866533635928032,7.739658676330754,-0.28619036,0.13836098,-0.20708331,202.711,6.213391,-34.333496
688272938000.0,-5.724706496877039,-0.6065679812137597,7.550413349398713,-0.2302962,0.10476339,-0.17867808,202.75372,6.243393,-34.372986
688277981000.0,-5.551160178230061,-0.8846432839713408,7.3902853469411856,-0.15118915,0.053450707,-0.13500121,202.81432,6.3180027,-34.41066
688282907000.0,-5.395159564246909,-1.0703584250972364,7.29371367864735,-0.06994407,-0.02443461,-0.09315695,202.86058,6.3723674,-34.431427
688287913000.0,-5.236625444555546,-1.259089646468782,7.195573651956539,0.013439035,-0.09896017,-0.04337143,202.91335,6.463859,-34.426903
688292887000.0,-4.975712767661691,-1.4228263120113718,7.081929649680171,0.063224554,-0.17195857,0.016798794,202.94214,6.5324965,-34.40331
688297967000.0,-4.677483911940298,-1.5827460298507463,6.9609092104477615,0.10170906,-0.24648413,0.06841691,202.95177,6.5752783,-34.360703
688302950000.0,-4.543992519939934,-1.624684180141973,6.927808656033855,0.14752395,-0.2968805,0.112399206,202.96672,6.648138,-34.282066
688308049000.0,-4.55288082684747,-1.5624662638150708,6.9722499121405175,0.17073683,-0.3304781,0.13530666,202.96771,6.7088494,-34.191372
688312877000.0,-4.587558241228395,-1.4914833382686743,7.028528548445961,0.17684549,-0.35643986,0.13469578,202.99554,6.7808423,-34.060688
688317893000.0,-4.680204851420518,-1.3917101086862993,7.11761190475484,0.17195857,-0.3747658,0.13469578,203.01364,6.842976,-33.92755
688322943000.0,-4.773479449002299,-1.2912605852829908,7.207299095616052,0.172264,-0.3481932,0.13041973,203.03618,6.8890514,-33.801094
688327918000.0,-4.9253326942373565,-1.1700048414467057,7.294423939955672,0.16798794,-0.30818152,0.11759156,203.06125,6.935898,-33.67701
688333379000.0,-5.130819296866815,-1.022476085996373,7.389263783437436,0.16187929,-0.25686884,0.082161374,203.09705,6.9847097,-33.566277
688337901000.0,-5.293896407151197,-0.855749836475968,7.465900697022767,0.16401732,-0.18203785,0.06841691,203.10666,6.9989824,-33.483036
688342888000.0,-5.470473616929364,-0.6512918128818836,7.549542556217163,0.15454891,-0.10262536,0.034513887,203.13802,7.0248904,-33.415794
688348025000.0,-5.627974463193991,-0.4630559665275963,7.651233590365773,0.13652839,-0.014966198,0.005192355,203.15501,7.026065,-33.395115
688353095000.0,-5.766724070313521,-0.2925922468754082,7.762233309177009,0.09010262,0.04184427,-0.032986723,203.18869,7.0429287,-33.38685
688357949000.0,-5.88277418817753,-0.1238125218426879,7.872592504505632,0.055588737,0.100792766,-0.05009095,203.19455,7.025719,-33.420017
688362895000.0,-5.90101500951189,0.0813968657822278,8.009398616896119,-0.0015271631,0.12522738,-0.064751714,203.21333,7.031022,-33.45715
688367946000.0,-5.914650413452485,0.2818371352089939,8.145275886710866,-0.040317107,0.13194689,-0.06719518,203.20898,7.004869,-33.51487
688372954000.0,-5.854739873546651,0.3463561130354569,8.223620264917843,-0.071776666,0.13439035,-0.059864793,203.20699,6.9918785,-33.576675
688379091000.0,-5.772778163377192,0.4017122853209728,8.289973537280702,-0.11056661,0.12370021,-0.040927973,203.19199,6.9523067,-33.62189
688382920000.0,-5.696017629385965,0.3651596635366826,8.242455311403509,-0.12370021,0.112704635,-0.03023783,203.17737,6.915197,-33.666573
688388262000.0,-5.5841432742071335,0.3066775816845724,8.173914480842285,-0.1441642,0.08307768,-0.005192355,203.14816,6.866871,-33.685368
688392896000.0,-5.378173185818651,0.0854504615126772,8.063300920756339,-0.13072516,0.07696902,0.015882496,203.11761,6.81368,-33.70744
688397998000.0,-5.15140162972067,-0.1581189746368715,7.941516202681565,-0.12522738,0.050701816,0.03756821,203.0813,6.770762,-33.70704
688402967000.0,-5.018898450511423,-0.3560281689456075,7.847046503202371,-0.106595986,0.027488936,0.059253927,203.03835,6.719217,-33.7065
688407998000.0,-4.931389012398433,-0.5356530288308957,7.76414268324252,-0.10354166,0.013744468,0.07544186,202.98996,6.668648,-33.70189
688413065000.0,-4.907966081732639,-0.6840045961706045,7.665924641607855,-0.087659165,0.002443461,0.086437434,202.97173,6.657739,-33.666134
688417914000.0,-4.931714625866831,-0.8027473961951519,7.561430849033446,-0.06291912,0.0012217305,0.09101892,202.9508,6.6426606,-33.630585
688423001000.0,-4.984120433765907,-0.8689615784742346,7.497472654453824,-0.063224554,-0.0009162979,0.087964594,202.95338,6.664456,-33.58851
688428172000.0,-5.055872928770317,-0.8970386197839234,7.463156355688548,-0.053450707,0.01160644,0.0852157,202.95515,6.676606,-33.55151
688432903000.0,-5.121520009386418,-0.9227265877661586,7.4317600281970515,-0.027488936,0.027794369,0.070249505,202.9611,6.713606,-33.526905
688437896000.0,-5.203593829863724,-0.9318558789632974,7.407445020416353,0.0018325958,0.042760566,0.06658431,202.96446,6.744745,-33.50679
688442890000.0,-5.303557334587409,-0.915861722382744,7.395449399849511,0.021991149,0.05100725,0.05467244,202.97581,6.774376,-33.489147
688448901000.0,-5.4361295806483625,-0.87165734237347,7.408710240903076,0.03726278,0.06536258,0.034208454,202.9794,6.8055706,-33.501007
688452928000.0,-5.560514858617268,-0.7695976631524974,7.498012595931194,0.07147124,0.06963864,0.03390302,202.97966,6.825214,-33.512684
688457899000.0,-5.714058244955343,-0.6436133906400926,7.608249001902084,0.069027774,0.079107046,0.022602014,202.97264,6.848483,-33.549053
688462897000.0,-5.799784303913978,-0.5282165150795699,7.70805070344086,0.070249505,0.08307768,0.01282817,202.96501,6.862254,-33.584442
688467892000.0,-5.8409336510107535,-0.4201993930150537,7.800636519569893,0.0729984,0.0842994,0.018325957,202.9561,6.875256,-33.621178
688473074000.0,-5.8619037087601455,-0.3123429211717511,7.883607719432783,0.07269296,0.08246681,0.014049901,202.93988,6.864225,-33.6742
688477919000.0,-5.874889881724042,-0.2127821894617035,7.957196078094972,0.0720821,0.070249505,0.0067195175,202.92253,6.852748,-33.72346
688483041000.0,-5.8801594,-0.1327550968207529,8.00403986958232,0.0580322,0.07666359,0.01160644,202.8978,6.823739,-33.774704
688487894000.0,-5.8801594,-0.0718197721411313,8.03015499061622,0.04062254,0.07544186,0.015271631,202.87535,6.7979684,-33.818836
688492886000.0,-5.869414178593509,-0.0189658152286514,8.035921255554483,0.022296581,0.07819075,0.015577064,202.85144,6.759589,-33.85762
688497992000.0,-5.845795969165379,0.0235469908430255,8.017026540040572,-0.00030543262,0.07147124,0.018020526,202.8255,6.726485,-33.892685
688502917000.0,-5.81933461562048,0.0460353420366406,8.000664010220808,-0.007941248,0.07269296,0.013744468,202.79639,6.683176,-33.926373
688507914000.0,-5.787034366097773,0.0414210045007231,7.986821197570147,-0.013133603,0.07452556,0.013133603,202.76544,6.6447225,-33.957836
688512876000.0,-5.762732870445011,0.0245292921122809,7.964954613802747,-0.013439035,0.074830994,0.016798794,202.7394,6.603949,-33.98736
688518693000.0,-5.753567877601382,-0.0258771526939212,7.91913060656412,-0.025961773,0.059253927,0.016493361,202.71463,6.5688806,-34.01205
688523020000.0,-5.746750458994818,-0.0633721993977955,7.885044225384552,-0.03176499,0.054367006,0.016187929,202.69301,6.5343285,-34.03543
688527928000.0,-5.778131050735451,-0.1128189113461948,7.81761837657216,-0.029321533,0.0580322,0.0067195175,202.67464,6.5030093,-34.056004
688533275000.0,-5.815107057577153,-0.1695549207369875,7.742475842008291,-0.034208454,0.05375614,0.006414085,202.65297,6.4740176,-34.072895
688537962000.0,-5.835782535052971,-0.239851595968678,7.688719514214648,-0.04337143,0.05589417,-0.00030543262,202.63928,6.456695,-34.096066
688542868000.0,-5.857424073883003,-0.3134328822257024,7.632451422865039,-0.026572637,0.048258353,-0.0009162979,202.62357,6.439897,-34.130875
688547960000.0,-5.861006,-0.3507051166835753,7.601629322511807,-0.014049901,0.04734206,-0.0033597588,202.61127,6.4279604,-34.16706
688552902000.0,-5.861006,-0.3796801050411054,7.576793373692496,-0.0070249503,0.046731193,-0.003970624,202.59833,6.4135485,-34.20044
688562888000.0,-5.840914996635783,-0.4261338664963569,7.552283230853648,0.006414085,0.024129177,0.005192355,202.57901,6.4070344,-34.237057
688567908000.0,-5.833920718942732,-0.4273702666960352,7.559686495154185,0.00580322,0.008246681,0.012217305,202.56097,6.402813,-34.274403
688572939000.0,-5.838856675770925,-0.387881766784141,7.59917518061674,0.02321288,0.0009162979,0.014966198,202.54054,6.4002357,-34.307625
688577934000.0,-5.847145124485343,-0.3550968398994403,7.64078202546248,0.03176499,0.0018325958,0.02076942,202.51955,6.4014435,-34.338062
688582980000.0,-5.860898526211934,-0.3321746441077696,7.6866263787496445,0.022602014,-0.016493361,0.025045475,202.49709,6.402642,-34.360477
688587880000.0,-5.875025902144149,-0.3071480574683544,7.721128039473005,0.020463986,-0.01740966,0.021380283,202.47218,6.3933306,-34.383224
688592913000.0,-5.891628084543185,-0.2739438486919831,7.729429087333161,0.01863139,-0.028099801,0.026572637,202.44188,6.3842745,-34.398197
688598567000.0,-5.909896350777935,-0.2387492690897745,7.74242091408603,0.0125227375,-0.018936822,0.021991149,202.41537,6.3711963,-34.41624
688602911000.0,-5.920280169731259,-0.2318266158973292,7.787418089358516,0.0021380284,-0.02076942,0.013439035,202.38803,6.3598356,-34.42795
688607885000.0,-5.9321699292786425,-0.2238999867584657,7.838941098061403,-0.013439035,-0.029932396,0.004276057,202.35861,6.344786,-34.44238
688612906000.0,-5.954741723415952,-0.2251584713408498,7.869896270518077,-0.01038471,-0.02443461,0.0061086523,202.3295,6.327885,-34.46024
688617885000.0,-5.985843168468133,-0.2340445991613865,7.883225441371599,-0.015882496,-0.019547688,0.009773844,202.3029,6.318189,-34.474834
688623029000.0,-6.000676061115445,-0.2414109869695788,7.8912888,-0.01740966,-0.022296581,0.009162978,202.27972,6.3028817,-34.485462
688628081000.0,-5.991241145709828,-0.2461284151170047,7.8912888,-0.025961773,-0.029626964,-0.0018325958,202.25928,6.291977,-34.49572
688632905000.0,-5.977246025002461,-0.2605581436194507,7.889637205000492,-0.03145956,-0.030543262,-0.0021380284,202.23982,6.281631,-34.512253
688637895000.0,-5.953725879318831,-0.293486372136037,7.884933175863766,-0.022602014,-0.03023783,0.003970624,202.22191,6.2708817,-34.526592
688642863000.0,-5.926589802840434,-0.3201709684099136,7.867924181565024,-0.01985312,-0.0290161,0.0027488936,202.20966,6.2673006,-34.53802
688647969000.0,-5.890277625730994,-0.3337881153996102,7.822533723196881,-0.01740966,-0.040927973,-0.0070249503,202.19786,6.2622256,-34.545525
688652965000.0,-5.848251159152461,-0.3508068042823005,7.775203079177951,-0.0125227375,-0.04184427,-0.004276057,202.19078,6.258291,-34.55562
688658333000.0,-5.770446629982476,-0.3876615664043333,7.709683462163454,-0.014049901,-0.04184427,0.00061086525,202.18579,6.2564893,-34.562183
688662871000.0,-5.704672234793692,-0.41881784630556,7.654294486378843,-0.0012217305,-0.049480084,0.0018325958,202.17519,6.253192,-34.562973
688667899000.0,-5.658852192311958,-0.4251864976344483,7.635599958418037,-0.0061086523,-0.050396383,0.004886922,202.16278,6.253345,-34.56593
688672953000.0,-5.6275446657919055,-0.416241534089817,7.640072528922565,-0.005192355,-0.05222898,0.0067195175,202.1502,6.2492266,-34.566494
688677927000.0,-5.6120086,-0.414065224368653,7.640029413105959,-0.0125227375,-0.056505036,0.011301007,202.1437,6.2593493,-34.558456
688682992000.0,-5.6120086,-0.4187123400325733,7.63538221009772,0.0015271631,-0.043982297,0.016798794,202.13704,6.263529,-34.55506
688687895000.0,-5.613590598907556,-0.4261255016783911,7.637461029760821,-0.0033597588,-0.04153884,0.01863139,202.13422,6.2732625,-34.54201
688692890000.0,-5.617549559099562,-0.4380023946561284,7.64933799301498,-0.015577064,-0.03726278,0.016798794,202.13155,6.2809706,-34.533424
688698174000.0,-5.621899212441335,-0.45010993,7.662387017663623,-0.0015271631,-0.03145956,0.014966198,202.12793,6.2851906,-34.525875
688702947000.0,-5.629700393600136,-0.45010993,7.685790072395256,-0.016493361,-0.032070424,0.014966198,202.12422,6.2987967,-34.518017
688707885000.0,-5.637771257325711,-0.45010993,7.710002157931564,-0.010995574,-0.03176499,0.004886922,202.12448,6.3087764,-34.509884
688712969000.0,-5.646742465579745,-0.4441068550177424,7.736915534055816,-0.0070249503,-0.026572637,0.0015271631,202.12259,6.3211403,-34.503532
688717958000.0,-5.655906876282728,-0.434942429960679,7.764408670470893,-0.0125227375,-0.035124753,0.008857546,202.11978,6.3339386,-34.49369
688722948000.0,-5.664510692741729,-0.4378828463452167,7.785602433700949,-0.013439035,-0.028710667,0.009773844,202.12515,6.3490844,-34.486637
688728047000.0,-5.672860201709841,-0.4504071228750961,7.80230153882192,-0.0143553335,-0.023823744,0.00030543262,202.13095,6.3655205,-34.476986
688732878000.0,-5.67718481279424,-0.45968673,7.81374350639712,-0.0021380284,-0.015577064,0.007941248,202.12422,6.373394,-34.467182
688737900000.0,-5.6683055199667685,-0.45968673,7.809303859983384,0.002443461,-0.019547688,0.00030543262,202.12561,6.386875,-34.454746
688747935000.0,-5.645388696259447,-0.4210093590835166,7.800263034018942,0.007330383,-0.027183503,0.004276057,202.11812,6.3957977,-34.442783
688753298000.0,-5.630553073699422,-0.3826155628901734,7.79491206734104,0.0018325958,-0.020463986,0.009773844,202.11325,6.406699,-34.433945
688757915000.0,-5.615518781026862,-0.3713397845154709,7.779877617681061,0.009468411,-0.03176499,0.014660766,202.10187,6.4118733,-34.416084
688762903000.0,-5.599276404624278,-0.3591579386127168,7.7636350716763,0.013439035,-0.025961773,0.020463986,202.09875,6.411609,-34.40806
688767950000.0,-5.588018629495812,-0.3446691088914436,7.747540858991624,0.007941248,-0.025961773,0.018325957,202.09607,6.4122534,-34.395405
688773889000.0,-5.578677750008212,-0.3259873304089341,7.728859100016423,0.007330383,-0.02565634,0.012217305,202.09325,6.4105563,-34.38484
688777981000.0,-5.5737014,-0.3144289704245709,7.7189064,0.011911872,-0.028405234,0.008857546,202.08374,6.4083414,-34.369637
688783186000.0,-5.5737014,-0.3054231449503161,7.7189064,0.010995574,-0.019547688,0.010995574,202.07529,6.4076443,-34.3582
688788314000.0,-5.573100191010682,-0.2970313214626129,7.719056698323746,-0.00030543262,-0.017715093,0.011301007,202.06886,6.4079556,-34.344555
688792914000.0,-5.5586208122103535,-0.3006511472637633,7.72267644852917,0.0036651916,-0.022296581,0.0143553335,202.0611,6.404144,-34.332092
688797941000.0,-5.542797369334429,-0.3046069873294987,7.726632205981923,0.003970624,-0.018936822,0.014660766,202.04488,6.4063516,-34.316925
688802992000.0,-5.535394,-0.299139642991695,7.723604269667799,0.007330383,-0.008552114,0.010079277,202.02985,6.407168,-34.30292
688808153000.0,-5.535394,-0.2851459002944507,7.714275211778029,0.008552114,-0.003970624,0.00580322,202.01492,6.4082885,-34.28875
688812951000.0,-5.5369288806155765,-0.2807971003295507,7.720073507881238,0.0015271631,-0.008857546,0.008857546,202.00052,6.40789,-34.273148
688817902000.0,-5.540614231695943,-0.2881676562614643,7.74587034974351,0.0125227375,-0.002443461,0.007330383,201.99023,6.404408,-34.2621
688822942000.0,-5.544365831260688,-0.2956707065334991,7.772130919928493,0.0021380284,-0.003970624,0.0018325958,201.9756,6.4051733,-34.248108
688827924000.0,-5.551836390628493,-0.3037464106284928,7.769501681059238,0.0015271631,0.0033597588,0.004276057,201.95988,6.400138,-34.23903
688832943000.0,-5.560101537081937,-0.3120115570819362,7.761236620909638,0.00030543262,-0.0076358155,0.009773844,201.9444,6.398133,-34.22458
688837892000.0,-5.566027355950211,-0.3122291080995797,7.76482466353762,0.0015271631,0.013439035,0.014049901,201.93169,6.3967395,-34.21817
688843792000.0,-5.570507108586379,-0.3032696028272417,7.782743767636566,-0.0070249503,0.0061086523,0.008246681,201.91907,6.3986964,-34.200867
688848466000.0,-5.575094380710133,-0.2982739919829734,7.793663695618771,-0.0027488936,0.005192355,0.01038471,201.90474,6.39584,-34.19609
688852985000.0,-5.588573780772426,-0.3117533075955149,7.775691193480067,-0.0012217305,0.0106901415,0.01985312,201.89009,6.3953586,-34.191387
688857977000.0,-5.603536622085174,-0.3261637481590132,7.75804206223852,0.00580322,0.0015271631,0.014966198,201.879,6.3926034,-34.18069
688862954000.0,-5.619425940345029,-0.3341083658104842,7.769958988715726,-0.0009162979,0.0021380284,0.01038471,201.8656,6.391254,-34.17494
688867864000.0,-5.635101357796483,-0.3419460336161347,7.781715490424202,-0.0030543262,0.0015271631,0.014660766,201.85034,6.3883214,-34.17203
688872950000.0,-5.63205054447076,-0.3650387660703225,7.785944,0.008857546,0.007330383,0.021380283,201.8364,6.3840117,-34.171192
688878213000.0,-5.618276614756787,-0.3971775071269812,7.785944,0.012217305,0.0012217305,0.024740042,201.82178,6.3820972,-34.167
688882927000.0,-5.622593284358022,-0.4075688416242493,7.79017783837575,0.008246681,0.008857546,0.020158553,201.8035,6.3811545,-34.167732
688887932000.0,-5.645437762672767,-0.3984311266304451,7.799315553369555,0.007330383,0.0027488936,0.016493361,201.78328,6.3781285,-34.163208
688892948000.0,-5.654518291481182,-0.3872744799817887,7.803306105321732,0.004886922,-0.0015271631,0.020463986,201.77536,6.3859715,-34.15967
688897941000.0,-5.640004543707001,-0.3727610252003237,7.798468391460947,0.014049901,0.0036651916,0.0106901415,201.77359,6.393832,-34.15664
688902899000.0,-5.631162,-0.36391866,7.795521,0.011301007,0.0018325958,0.013744468,201.7583,6.400784,-34.151985
688907918000.0,-5.631162,-0.36391866,7.795521,0.008552114,0.0015271631,0.009773844,201.74922,6.408081,-34.148808
688917906000.0,-5.626064067602166,-0.3435264938962744,7.775128738076481,-0.0012217305,0.0015271631,0.01160644,201.74004,6.413392,-34.14533
688922936000.0,-5.622111146381093,-0.3277144705416051,7.759316640423437,-0.0033597588,0.010995574,0.006414085,201.73512,6.4191713,-34.144222
688927959000.0,-5.629705800778968,-0.32561144,7.765333746407011,-0.0070249503,0.013744468,-0.0027488936,201.73587,6.430445,-34.141533
688932898000.0,-5.638917252190847,-0.32561144,7.774544909269717,-0.005497787,0.0143553335,0.010079277,201.73108,6.437956,-34.14167
688937908000.0,-5.648549963073812,-0.3451378558402426,7.752935392335693,0.0027488936,0.017104227,0.010079277,201.72997,6.448287,-34.141132
688942866000.0,-5.658151939696664,-0.3691428074236602,7.72412956273003,0.0009162979,0.023823744,0.0033597588,201.72694,6.4593577,-34.142258
688947958000.0,-5.66799377111156,-0.3775458455557797,7.710805713475892,-0.0125227375,0.01740966,0.011301007,201.71535,6.469651,-34.139824
688952878000.0,-5.67749908803712,-0.3822985040185596,7.701300495803914,-0.016187929,0.014966198,0.009162978,201.70999,6.4804807,-34.13988
688957920000.0,-5.671015911161642,-0.3870876128047454,7.691722143450321,-0.008857546,0.021991149,0.015271631,201.6982,6.4946027,-34.145332
688962868000.0,-5.661646458586258,-0.3917723488759268,7.682352495205141,-0.00061086525,0.028099801,0.007330383,201.69174,6.5114684,-34.149357
688967953000.0,-5.663726196323742,-0.4041484368260995,7.692098428871138,-0.0036651916,0.019547688,0.011911872,201.68156,6.5262766,-34.156425
688972968000.0,-5.6683483361562885,-0.4180145763988067,7.705964655317102,0.0027488936,0.023518313,0.014049901,201.67567,6.538169,-34.168278
688977914000.0,-5.66947,-0.4249177826909739,7.723482804656693,0.0027488936,0.0106901415,0.01282817,201.6733,6.5504856,-34.175514
688982932000.0,-5.66947,-0.429679140305162,7.742528334548697,0.0009162979,0.016798794,0.018020526,201.66891,6.560054,-34.1894
688987968000.0,-5.679980975609756,-0.4204451707317073,7.765155536585365,0.014966198,0.018020526,0.0106901415,201.66624,6.572237,-34.19402
688992961000.0,-5.694203550465993,-0.4062223879575649,7.788860158040848,-0.008857546,0.010079277,0.008857546,201.65967,6.5916624,-34.19821
688998035000.0,-5.7038018430529,-0.4050267430337794,7.792720078473549,-0.0021380284,0.0061086523,0.005192355,201.65694,6.603239,-34.200344
689002909000.0,-5.711239430369663,-0.40874545903123,7.789001284815169,0.0009162979,0.010079277,0.007330383,201.65266,6.620095,-34.20279
689007919000.0,-5.717354,-0.4067444737107249,7.785100948306126,-0.002443461,-0.0027488936,0.011301007,201.65154,6.6384387,-34.19798
689012893000.0,-5.717354,-0.3816602084237318,7.780920151571002,0.004886922,0.003970624,0.01038471,201.65219,6.6533504,-34.19991
689022983000.0,-5.726280282856288,-0.3721946214500847,7.789756657305276,-0.0015271631,0.012217305,0.007330383,201.6478,6.672615,-34.199726
689027929000.0,-5.73572804553705,-0.3910903539842425,7.803928547960506,-0.003970624,0.0061086523,0.00580322,201.64264,6.6885333,-34.197617
689032989000.0,-5.7365074,-0.39264908,7.8050976,0.00580322,0.004886922,0.007941248,201.63664,6.6954436,-34.201977
689038261000.0,-5.737089100666015,-0.3923582290595861,7.801898252410976,-0.002443461,0.004886922,0.0125227375,201.62996,6.70663,-34.205093
689042957000.0,-5.745076429109315,-0.3883645564976467,7.757968029375721,-0.00061086525,-0.0018325958,0.009468411,201.6308,6.7183585,-34.206318
689047907000.0,-5.753495780854276,-0.3841548718337625,7.711661682692479,0.0030543262,-0.0012217305,0.011911872,201.63359,6.729919,-34.21177
689053015000.0,-5.742529030303031,-0.3797892504353267,7.722733998390989,0.0030543262,-0.0076358155,0.015271631,201.63611,6.7417665,-34.213276
689057915000.0,-5.725750242424243,-0.3755945315652096,7.752096942880128,0.0027488936,-0.0033597588,0.015271631,201.63922,6.7525277,-34.217964
689062938000.0,-5.710095169575472,-0.3676883926285377,7.7653386339150945,-0.0015271631,-0.009773844,0.01863139,201.6275,6.758327,-34.22568
689067967000.0,-5.695896547169811,-0.3563294887735849,7.762498909433962,0.015271631,-0.018020526,0.018936822,201.61696,6.759527,-34.233852
689072966000.0,-5.681782625235849,-0.3450383453313679,7.75967612504717,0.013744468,-0.0061086523,0.021380283,201.61147,6.7617764,-34.241608
689077969000.0,-5.6704679291348805,-0.3346892702223665,7.757712569777634,0.015882496,-0.0061086523,0.017104227,201.60721,6.76018,-34.243423
689082997000.0,-5.678283486284694,-0.3307814508423957,7.761620389157603,0.009773844,-0.004581489,0.019547688,201.6005,6.7593546,-34.249363
689087891000.0,-5.685890752929719,-0.3269777778023048,7.765424062197695,0.015882496,-0.0106901415,0.02443461,201.59785,6.753578,-34.25026
689092976000.0,-5.678831754763368,-0.3190836696926859,7.7667904,0.016187929,-0.016493361,0.02076942,201.59738,6.7516046,-34.251373
689098909000.0,-5.661370428887524,-0.3074427736201598,7.7667904,0.014049901,-0.0125227375,0.02321288,201.59337,6.74703,-34.253975
689102856000.0,-5.66323201072766,-0.3031188790021253,7.7667904,0.014966198,-0.022296581,0.02076942,201.58502,6.7355127,-34.25394
689107834000.0,-5.668056856998279,-0.2982941334905374,7.7667904,0.0070249503,-0.009162978,0.02443461,201.57524,6.7254295,-34.261818
689112815000.0,-5.666038371541903,-0.29688102,7.777085142046379,0.014049901,-0.018936822,0.01038471,201.56903,6.7096395,-34.258854
689117813000.0,-5.661169998270952,-0.29688102,7.79169005852319,0.0067195175,-0.0070249503,0.0070249503,201.55986,6.697112,-34.266262
689122837000.0,-5.656688873040188,-0.3096972668787169,7.792316873040187,-0.0036651916,-0.018936822,0.0067195175,201.55795,6.6867647,-34.26543
689127811000.0,-5.652396568300595,-0.3268661362497747,7.788024568300594,-0.0030543262,-0.018936822,0.0018325958,201.55992,6.6770186,-34.270874
689132810000.0,-5.655546064570585,-0.3430331784849124,7.79117395534923,-0.009468411,-0.013439035,0.00061086525,201.56183,6.6689267,-34.27339
689137791000.0,-5.665612120067524,-0.3581319569212914,7.801239800633045,-0.008246681,-0.0036651916,0.004581489,201.56381,6.6589584,-34.277096
689142784000.0,-5.6779552825129285,-0.3808894731162612,7.802269192185405,-0.004886922,-0.0036651916,0.004276057,201.57104,6.654107,-34.279816
689147829000.0,-5.691836038115303,-0.408651390162804,7.797642305860946,0.003970624,-0.0036651916,0.00030543262,201.57849,6.6476383,-34.28517
689152865000.0,-5.68255973472611,-0.4239862199520192,7.798127665513794,-0.009162978,-0.008552114,0.008246681,201.58034,6.644947,-34.289738
689157840000.0,-5.653984516313475,-0.4287487729308277,7.802890119032387,-0.0015271631,-0.007941248,0.005497787,201.58731,6.6377,-34.295105
689162870000.0,-5.627814597621879,-0.433541238882283,7.797342729369798,0.002443461,0.0036651916,0.013439035,201.59244,6.6372457,-34.306328
689168265000.0,-5.602216466627032,-0.4386608223147047,7.781983872156163,0.007941248,-0.005192355,0.003970624,201.60324,6.6377783,-34.310913
689172863000.0,-5.592855,-0.4405331,7.768123363748155,0.003970624,-0.016187929,0.008857546,201.61163,6.6365967,-34.31442
689182852000.0,-5.592855,-0.4393631846985121,7.737670020360219,-0.0018325958,-0.013744468,0.00580322,201.6259,6.637276,-34.31838
689187869000.0,-5.592855,-0.4252538936707126,7.732966828406421,0.0033597588,-0.016493361,0.017104227,201.62325,6.627349,-34.316395
689193033000.0,-5.593200763005781,-0.410765411922676,7.72882876300578,0.014049901,-0.016187929,0.0106901415,201.63379,6.6255474,-34.317146
689197900000.0,-5.597617635838151,-0.3975150609191699,7.73324563583815,0.0076358155,-0.019547688,0.010995574,201.63779,6.6236835,-34.316746
689203388000.0,-5.602874334679455,-0.3826299191620393,7.73791254997476,0.009468411,-0.018325957,0.018936822,201.63705,6.6154356,-34.316822
689207974000.0,-5.613959290089181,-0.3715448094194851,7.734217436227494,0.006414085,-0.008246681,0.0143553335,201.64081,6.61194,-34.31796
689212866000.0,-5.62578388709406,-0.3597200477839475,7.73027576670032,0.0061086523,-0.015271631,0.014966198,201.63121,6.5982914,-34.31571
689217962000.0,-5.625413577315492,-0.3572161013547982,7.748602809533765,0.006414085,-0.004276057,0.01985312,201.62328,6.5855727,-34.32134
689222940000.0,-5.6154464410830025,-0.3621997215095128,7.783488358770646,0.022907447,-0.008246681,0.0125227375,201.61847,6.5712852,-34.32026
689228003000.0,-5.599426299892019,-0.3481907717267105,7.814394384470403,0.005497787,-0.008857546,0.01863139,201.60071,6.560449,-34.324547
689232972000.0,-5.580740869755571,-0.3248339645450083,7.842422432119368,0.013439035,-0.0061086523,0.01038471,201.59071,6.543683,-34.32774
689238775000.0,-5.581188006502933,-0.3048047024281595,7.823035095813861,0.009468411,-0.007330383,0.011301007,201.58531,6.533787,-34.326298
689242906000.0,-5.589055513870936,-0.2930034331609824,7.791564984190116,0.005192355,-0.013439035,0.009773844,201.58357,6.5240383,-34.323822
689248006000.0,-5.595125488279759,-0.2941155273345041,7.776367,0.0033597588,-0.0021380284,0.00580322,201.58546,6.510883,-34.319874
689252924000.0,-5.598721707719325,-0.3049039678598152,7.776367,-0.0015271631,-0.0015271631,0.008552114,201.5849,6.4988523,-34.311523
689258287000.0,-5.602164868159444,-0.3171031261634977,7.775832753054724,0.008857546,0.003970624,0.004581489,201.58415,6.481259,-34.314644
689262945000.0,-5.59785933143519,-0.3343249313869317,7.767221949348518,-0.004581489,-0.0030543262,0.003970624,201.58089,6.4697685,-34.31454
689267862000.0,-5.593314392819226,-0.3525043251790368,7.7581323568574465,-0.0076358155,0.0027488936,0.0027488936,201.58713,6.459333,-34.32089
689272936000.0,-5.597233576465888,-0.3718558092498252,7.748456629947058,-0.013133603,0.002443461,0.0012217305,201.59296,6.4529014,-34.323357
689277936000.0,-5.602016814903607,-0.3909883734292278,7.738890352851863,-0.0027488936,-0.004886922,0.0036651916,201.59763,6.4430747,-34.32543
689282908000.0,-5.611663877769517,-0.4064970508932554,7.733443916516197,-0.0018325958,0.01282817,0.00030543262,201.61006,6.440162,-34.336216
689288094000.0,-5.621831116964211,-0.4213795,7.728728727227435,-0.01282817,0.0018325958,0.007330383,201.61618,6.4355726,-34.337116
689292899000.0,-5.625652055517728,-0.4213795,7.732549825375737,-0.004886922,0.0009162979,0.009773844,201.62209,6.4300275,-34.345963
689297917000.0,-5.629642371784439,-0.4213795,7.736540308311882,0.00580322,0.0009162979,0.0070249503,201.63254,6.4287934,-34.355988
689302924000.0,-5.625565649830125,-0.4241777043035107,7.746454612910532,0.00030543262,-0.008552114,0.0061086523,201.64072,6.4287477,-34.36295
689308476000.0,-5.615529817742544,-0.4291956727444319,7.761508518233295,-0.002443461,0.0012217305,0.017104227,201.64633,6.4240365,-34.37544
689312953000.0,-5.609839585008061,-0.4331253602901665,7.764621339709834,0.011911872,0.0012217305,0.016798794,201.65445,6.420232,-34.38073
689317913000.0,-5.60558560542719,-0.4373794287121619,7.760367271287838,0.010995574,-0.0015271631,0.0143553335,201.65959,6.4191723,-34.388145
689322953000.0,-5.60740691363671,-0.4355581842853876,7.755223634545316,0.00580322,0.004886922,0.019547688,201.66722,6.4139667,-34.39691
689327985000.0,-5.625773579388673,-0.4171915108621084,7.74787696824453,0.0143553335,0.0015271631,0.0125227375,201.67905,6.4081507,-34.401344
689332982000.0,-5.644012496074396,-0.3989525865584267,7.740581401570242,0.021380283,-0.00580322,0.019242255,201.68256,6.401601,-34.405952
689337949000.0,-5.647277595769683,-0.3835336705992949,7.741098531139835,0.013744468,-0.0021380284,0.017104227,201.69164,6.399093,-34.411922
689342891000.0,-5.642643091539366,-0.3696298578652565,7.745733228946338,0.015882496,0.0015271631,0.01160644,201.69908,6.3921824,-34.41581
689347911000.0,-5.643138564976959,-0.3591202248261416,7.750036164976959,0.005192355,0.0018325958,0.017715093,201.70235,6.385364,-34.426
689352957000.0,-5.647187456774193,-0.3510222636598241,7.754085056774193,0.0106901415,0.0030543262,0.015577064,201.71031,6.376598,-34.436626
689357952000.0,-5.651988332032183,-0.3405842954831514,7.7588858796463,-0.0009162979,-0.00030543262,0.009773844,201.71626,6.374533,-34.442535
689362973000.0,-5.659649626862104,-0.3214314503927348,7.76654693448578,-0.0061086523,0.0021380284,0.015577064,201.71912,6.3681993,-34.450577
689367863000.0,-5.667111035290368,-0.3027783110794232,7.774008109185055,-0.0030543262,0.0061086523,0.0067195175,201.71768,6.3603992,-34.455914
689378207000.0,-5.647757938601615,-0.2896437014671019,7.776367,-0.0018325958,0.009773844,0.0061086523,201.71162,6.352116,-34.4623
689382927000.0,-5.6407394,-0.2909562165789206,7.770889057119626,0.0030543262,0.00580322,0.007330383,201.70781,6.343514,-34.46723
689387964000.0,-5.6407394,-0.3007617642910865,7.7561809556865535,-0.0009162979,0.004581489,0.0030543262,201.70267,6.332176,-34.474472
689392907000.0,-5.634119623971899,-0.3163874391124057,7.7509468361720355,-0.00061086525,0.009773844,0.0012217305,201.6994,6.3235307,-34.47705
689397942000.0,-5.617594798834818,-0.3411745646607265,7.759209119328307,-0.009162978,0.0067195175,0.00061086525,201.6968,6.3184953,-34.476814
689403013000.0,-5.603250164747111,-0.3643277466451979,7.768426746580792,-0.009468411,0.0027488936,0.0061086523,201.69585,6.311563,-34.481388
689407979000.0,-5.612259047527941,-0.3688322350710362,7.786444700284145,-0.0030543262,0.00030543262,0.011911872,201.69482,6.3051066,-34.485397
