timestamp,acc_x,acc_y,acc_z,gyro_x,gyro_y,gyro_z,ori_azimuth,ori_pitch,ori_roll
4512947846000.0,1.8796341535883416,9.781790161204508,0.1954062117295455,4.6132545,6.9079695,-4.7122145,230.56961,-43.036304,-24.274288
4512952839000.0,1.8791477021282328,9.78106046877591,0.1946765342854091,4.6132545,7.806858,9.546907,227.41283,-45.185,-21.378761
4512957922000.0,1.87865248226608,9.78031762346957,0.1939337042336275,-8.784243,0.7504479,0.034208454,230.35564,-41.687782,-23.8973
4512962828000.0,1.8781745069279483,9.779600645489458,0.1932167409768814,-1.183246,0.7473936,0.03726278,226.61635,-46.826107,-22.710388
4512967897000.0,1.8776806510394464,9.778859846186322,0.192475956886289,-1.1774428,0.7302894,0.032375857,226.48021,-45.439053,-22.36546
4512972818000.0,1.8772012143009744,9.77814067605992,0.1917568015282687,-1.1612549,0.7415904,0.037873644,226.33676,-45.863438,-22.021296
4512977829000.0,1.876713009160457,9.777408353055774,0.1910244935626033,-1.1676689,0.7678576,0.036651913,226.20007,-46.275204,-21.681814
4512984160000.0,1.8760962007899489,9.776483121178057,0.1900992806848088,-1.1884383,0.7165449,0.02687807,226.08401,-46.68004,-21.33373
4512987936000.0,1.8757283176108244,9.77593128488517,0.189547455724052,-1.1392636,0.77274454,0.03726278,225.959,-47.08174,-21.010525
4512992866000.0,1.8752480040321475,9.775210799470994,0.1888269851052671,-1.207986,0.6914995,0.029626964,225.88963,-47.43853,-20.663422
4512997836000.0,1.874763793385895,9.774484468333377,0.1881006688830845,-1.1166617,0.77213365,0.05100725,225.76508,-47.845432,-20.3488
4513003002000.0,1.8742604871085229,9.773729493150894,0.1873457092042524,-1.239751,0.7635816,0.0571159,225.69078,-48.172756,-20.013018
4513007927000.0,1.8737806606632923,9.773009738452147,0.1866259692858923,-1.244027,0.75594574,0.051618114,225.59975,-48.54612,-19.69236
4513012836000.0,1.8733023930450927,9.772292322042778,0.1859085676088913,-1.2302825,0.7501425,0.06169739,225.51114,-48.890167,-19.3691
4513017839000.0,1.8728149673180905,9.771561168183322,0.1851774287639055,-1.2379184,0.73273283,0.0711658,225.43295,-49.220444,-19.047474
4513022894000.0,1.87232247540324,9.770822414883389,0.1844386906345024,-1.2370021,0.70738196,0.08246681,225.36057,-49.55141,-18.72437
4513027870000.0,1.8718376801968517,9.770095206887255,0.18371149757181,-1.2373075,0.691194,0.093767814,225.29303,-49.875053,-18.401424
4513032877000.0,1.871349864763092,9.769363468455454,0.1829797741664844,-1.2394456,0.6444628,0.095294975,225.24332,-50.192272,-18.072605
4513037846000.0,1.8708657515435283,9.768637283460922,0.1822536040843866,-1.1847731,0.5748242,0.09682214,225.20552,-50.518932,-17.73868
4513042871000.0,1.87037618242936,9.767902914453572,0.1815192501575319,-1.0876455,0.50732356,0.094989546,225.1832,-50.849392,-17.401999
4513047855000.0,1.869890607809456,9.76717453731275,0.18079088797416,-0.9596693,0.46303585,0.0852157,225.17738,-51.194515,-17.06349
4513052815000.0,1.8694073714300972,9.766449667605992,0.1800660331528268,-0.8906415,0.39492437,0.0870483,225.1962,-51.544353,-16.712103
4513057845000.0,1.8689173151824816,9.765714567883212,0.1793309485255474,-0.75136423,0.33475417,0.07819075,225.23135,-51.935345,-16.363987
4513063024000.0,1.868412742358148,9.76495769284061,0.178574089025611,-0.636827,0.1994475,0.04886922,225.30862,-52.328762,-16.001617
4513067851000.0,1.8679424637284772,9.764252260164296,0.1778686708355756,-0.36682457,-0.016493361,-0.0027488936,225.42953,-52.78695,-15.628782
4513072832000.0,1.8674571813886416,9.763524321452731,0.1771407470724586,0.038179077,-0.032375857,-0.009162978,225.53528,-53.304783,-15.267641
4513077830000.0,1.8669702427950865,9.762793898308706,0.1764103389278974,0.03481932,-0.0036651916,-0.004886922,225.69308,-53.774708,-14.893784
4513082809000.0,1.8664851553086292,9.762066251883311,0.1756827074449502,-0.004581489,0.0027488936,-0.0009162979,225.86511,-54.330017,-14.5204115
4513087839000.0,1.8659950990610137,9.761331152160531,0.1749476228176708,-0.006414085,0.0021380284,-0.0036651916,226.0358,-54.88526,-14.155971
4513092818000.0,1.8655100115745569,9.76060350573514,0.1742199913347236,-0.008552114,0.00030543262,-0.0027488936,226.20744,-55.422794,-13.795448
4513097811000.0,1.8650235601144485,9.759873813306545,0.1734903138905872,-0.003970624,0.005192355,0.0021380284,226.38063,-55.95346,-13.440479
4513102883000.0,1.8645294119458784,9.75913257557415,0.17274909137974,0.0009162979,0.0018325958,0.0012217305,226.56029,-56.474907,-13.090144
4513112812000.0,1.8635620623469569,9.75768152087286,0.1712980664763091,-0.0030543262,0.0067195175,0.0021380284,226.73866,-56.987885,-12.745083
4513122806000.0,1.8625883800132248,9.75622096687098,0.1698375424673567,0.0009162979,0.013133603,-0.0061086523,226.92192,-57.49501,-12.407175
4513127827000.0,1.862099200605814,9.755487182435973,0.1691037731008418,-0.008246681,0.0076358155,-0.0009162979,227.10765,-57.991333,-12.069659
4513132808000.0,1.8616139182659783,9.754759243724408,0.1683758493377247,0.002443461,0.021991149,0.004276057,227.29057,-58.485092,-11.74278
4513137830000.0,1.8611246414318776,9.754025313146316,0.1676419338311248,-0.0009162979,0.014660766,0.002443461,227.4832,-58.964794,-11.417418
4513142835000.0,1.8606370208514968,9.753293867000686,0.1669105027059691,-0.0009162979,0.016798794,-0.0009162979,227.6717,-59.440876,-11.099345
4513147820000.0,1.8601513488049035,9.752565343716778,0.1661819943825122,-0.00061086525,0.018325957,-0.002443461,227.86455,-59.908535,-10.785011
4513152828000.0,1.8596634359444544,9.75183345914189,0.1654501248371016,0.0027488936,0.010995574,0.0018325958,228.06099,-60.36975,-10.473971
4513157835000.0,1.8591756205106944,9.75110172071009,0.1647184014317759,-0.0009162979,0.0067195175,-0.0021380284,228.25964,-60.82072,-10.1708145
4513162853000.0,1.8586867333833517,9.75036837470434,0.1639850704855159,-0.004276057,0.016798794,0.0036651916,228.45654,-61.266785,-9.869784
4513167858000.0,1.8581991128029705,9.749636928558711,0.1632536393603601,0.009162978,0.016493361,0.0018325958,228.6606,-61.707977,-9.574539
4513172811000.0,1.8579005,9.749189,0.1700294546544146,-0.005192355,0.016187929,-0.0009162979,228.86311,-62.134186,-9.284097
4513178025000.0,1.8579005,9.749189,0.1899788998282061,0.003970624,0.011301007,-0.003970624,229.06882,-62.56301,-8.998258
4513182780000.0,1.8655914693131368,9.75226544554714,0.1995747477435361,0.0027488936,0.0076358155,0.0018325958,229.3072,-62.96717,-8.722553
4513187865000.0,1.8867885310786103,9.760744429616087,0.1953353398171846,-0.0018325958,0.0125227375,0.00061086525,229.54662,-63.36562,-8.454387
4513192852000.0,1.9057846,9.768675293230048,0.19153613,0.0033597588,0.009773844,-0.0012217305,229.83398,-63.739105,-8.19013
4513197877000.0,1.9057846,9.772558487371905,0.19153613,0.0036651916,0.010995574,-0.0030543262,230.11798,-64.10484,-7.9319787
4513207894000.0,1.8977236186349555,9.783293800528522,0.1888491455640605,-0.0027488936,0.003970624,0.011301007,230.43533,-64.45735,-7.673655
4513212871000.0,1.8846935750318936,9.791980193912885,0.1845058128139238,0.00030543262,0.0061086523,-0.0009162979,230.75024,-64.80586,-7.4288583
4513217839000.0,1.8798364752834469,9.794290711876416,0.18195933,0.00061086525,0.010079277,0.005192355,231.02567,-65.164795,-7.1772537
4513222833000.0,1.88661461292517,9.787512786564626,0.18195933,-0.0030543262,0.0143553335,0.0012217305,231.3016,-65.51652,-6.936488
4513227867000.0,1.8934470408163264,9.780680572704082,0.18195933,0.00030543262,0.0067195175,0.0021380284,231.56522,-65.87017,-6.695044
4513232867000.0,1.9007463174163135,9.771111967244549,0.1728821354501877,-0.00580322,0.005192355,-0.004276057,231.82639,-66.21406,-6.4623303
4513238780000.0,1.9097944781656948,9.757539513541584,0.1547858942590077,-0.014049901,0.0021380284,-0.00580322,232.08832,-66.55363,-6.231526
4513242852000.0,1.9137446181075564,9.748784839346492,0.1448646840980259,-0.008552114,0.006414085,0.00061086525,232.3346,-66.89369,-5.9991665
4513247880000.0,1.8950137901001651,9.744102535738598,0.1589127782106389,-0.006414085,0.00061086525,-0.0036651916,232.58511,-67.224396,-5.7729635
4513252945000.0,1.87748719039014,9.74004607682328,0.1725990654211843,-0.008857546,0.0061086523,-0.0033597588,232.81866,-67.557205,-5.5454507
4513257813000.0,1.8861276986655544,9.74868631442869,0.1769193240700584,0.0027488936,0.0076358155,0.005192355,233.05411,-67.88936,-5.3200936
4513262959000.0,1.8952616459920304,9.757819975627838,0.181486302502085,0.0009162979,0.004886922,0.0027488936,233.28091,-68.20858,-5.1002693
4513267869000.0,1.9052827968716173,9.767841239012771,0.1728842757707296,-0.002443461,0.003970624,-0.0015271631,233.50603,-68.525696,-4.883177
4513282816000.0,1.9245570973343489,9.731941513328255,0.199588528541508,-0.005497787,0.007330383,-0.0076358155,233.73097,-68.836815,-4.6714945
4513287859000.0,1.928256502367396,9.733354371666168,0.1878397236005394,-0.00580322,0.0061086523,-0.0027488936,233.94334,-69.14844,-4.4582057
4513292845000.0,1.931833811687144,9.736931755693735,0.1735304788507641,-0.0009162979,0.008552114,-0.0033597588,234.14516,-69.46092,-4.249143
4513297820000.0,1.9333697064914992,9.741903515262752,0.1673868964258114,-0.0070249503,0.003970624,-0.004276057,234.34027,-69.7629,-4.039412
4513302865000.0,1.9287024966769704,9.751237642484543,0.1860557454308346,-0.0067195175,0.0009162979,-0.004581489,234.53442,-70.06253,-3.8339233
4513307839000.0,1.9242737053285288,9.756772543739936,0.2037709214613202,-0.0018325958,0.00061086525,0.0030543262,234.72125,-70.36375,-3.6288543
4513312821000.0,1.9206156805182857,9.745798622096144,0.2184030359809859,0.0036651916,0.0070249503,-0.00030543262,234.90828,-70.659096,-3.4309006
4513317861000.0,1.916915069309208,9.734696943034578,0.2332054962738634,-0.0033597588,0.01282817,-0.00030543262,235.08913,-70.94666,-3.2344084
4513323154000.0,1.90952993810254,9.730036,0.2335887394144705,-0.009162978,-0.0009162979,0.0018325958,235.27374,-71.230576,-3.040647
4513327871000.0,1.9008717682031624,9.730036,0.2249306011576425,0.004581489,-0.01038471,0.0070249503,235.45538,-71.5128,-2.850541
4513332885000.0,1.8998437712443383,9.728217935902356,0.2311747162738927,0.004581489,0.009468411,0.011301007,235.62616,-71.782036,-2.6652179
4513337846000.0,1.907137968350349,9.724570780225685,0.2530572123858141,0.013439035,0.0070249503,0.013439035,235.8053,-72.05257,-2.479687
4513342809000.0,1.9144351060720044,9.720922154218162,0.2749485303062869,0.0018325958,0.00030543262,0.01282817,235.97311,-72.3156,-2.298283
4513347868000.0,1.9110539310043668,9.72907411790393,0.2734199310043668,0.0015271631,0.003970624,0.010079277,236.13885,-72.57911,-2.1208792
4513352859000.0,1.9061998831928504,9.738782416268917,0.2685658831928506,0.01038471,0.007941248,0.0015271631,236.30688,-72.8366,-1.9479356
4513357824000.0,1.916455622687837,9.753840955966607,0.2645935812948109,-0.0012217305,0.008857546,0.01160644,236.47165,-73.07923,-1.77271
4513362828000.0,1.9282224357177933,9.769529958094614,0.2606712979980357,0.005497787,-0.0030543262,0.009773844,236.6405,-73.324,-1.605489
4513367845000.0,1.8948269918764755,9.77792,0.6025363451406373,0.016493361,0.004581489,0.0076358155,236.80421,-73.56253,-1.440695
4513372853000.0,1.8099241534815107,9.77792,1.3383605981540123,0.010995574,0.011911872,0.0067195175,236.97122,-73.79344,-1.2781575
4513378679000.0,1.7984281473754449,9.786460120774022,1.3853282397508897,0.010995574,0.01038471,0.005497787,237.1376,-74.02739,-1.1171638
4513382807000.0,1.8482548334964413,9.798183971307829,0.8811996919928827,0.016493361,0.0061086523,0.011301007,237.30205,-74.25659,-0.9578795
4513387947000.0,1.9102967827846973,9.812781982873664,0.2534814905693952,0.003970624,-0.0033597588,0.0067195175,237.44641,-74.340164,-0.8263107
4513392854000.0,1.861706024684854,9.79958697215428,0.5446419348334901,-0.0067195175,0.0030543262,0.0018325958,237.58624,-74.42374,-0.6970141
4513397859000.0,1.7760327606208843,9.77704140112888,1.139845443074318,0.004886922,0.009468411,-0.0015271631,237.72794,-74.50801,-0.5706461
4513402898000.0,1.748769221062188,9.768343,0.9120398015251928,-0.004276057,0.009773844,-0.0033597588,237.89612,-74.72975,-0.42448992
4513407882000.0,1.7580547611438948,9.768343,0.1784815985655923,-0.0076358155,0.024740042,-0.0021380284,238.05832,-74.95176,-0.2827915
4513412854000.0,1.7673179443875235,9.768343,-0.5533104128941055,-0.004276057,0.029626964,-0.0021380284,238.20227,-75.052734,-0.16627264
4513417840000.0,1.8087203362014896,9.770810457173658,-0.5942613384653077,-0.005497787,0.036651913,-0.011301007,238.34128,-75.14925,-0.05565409
4513422896000.0,1.8798988469031757,9.775555783712267,-0.0058527097549981,-0.00061086525,0.028710667,-0.007941248,238.48146,-75.24636,0.056803275
4513427831000.0,1.9063947292822816,9.772539896450162,0.3608308025112385,-0.0067195175,0.0106901415,-0.006414085,238.65903,-75.54236,0.17719245
4513432861000.0,1.8877265365214693,9.761338770268177,0.51390978042164,-0.0009162979,0.006414085,-0.004581489,238.8349,-75.83746,0.29610193
4513437888000.0,1.869069477871648,9.750144324678343,0.6668974587428305,-0.005192355,0.004276057,0.0009162979,238.99355,-76.01734,0.42200026
4513442887000.0,1.892589312336234,9.761745246533422,0.4413894231710815,-0.0021380284,0.004581489,-0.0030543262,239.15271,-76.197174,0.54343337
4513448123000.0,1.9213609746103089,9.776131353064931,0.1680589069618437,-0.0036651916,-0.011911872,-0.009773844,239.31647,-76.37063,0.6644967
4513452823000.0,1.929057658536067,9.782039544566024,0.1464336842111973,-0.003970624,-0.01863139,-0.010995574,239.46927,-76.505135,0.7775163
4513457791000.0,1.934112109019441,9.787094100605543,0.161597046216934,-0.0030543262,-0.024740042,0.0012217305,239.62534,-76.636536,0.8912013
4513462879000.0,1.9384645777094136,9.783547339808385,0.1351586529390876,-0.0012217305,-0.036651913,0.0015271631,239.79626,-76.81512,1.0070436
4513467849000.0,1.9426481670563416,9.779363663092203,0.1058735030472005,-0.004581489,-0.03359759,-0.003970624,239.96378,-76.98847,1.1218176
4513472856000.0,1.959262055798287,9.771851770955635,0.1261085965062073,-0.0076358155,-0.03390302,0.003970624,240.13338,-77.15628,1.2392774
4513477871000.0,1.9823722723318256,9.76260749129054,0.1723290614268116,-0.0030543262,-0.04184427,0.0012217305,240.30463,-77.32204,1.350233
4513482817000.0,1.9919758,9.750387636437742,0.2529783619645404,0.00061086525,-0.038789943,0.0067195175,240.4722,-77.48848,1.4639096
4513487872000.0,1.9919758,9.735589373751782,0.3615005431597717,0.0012217305,-0.035124753,0.0012217305,240.64203,-77.65203,1.5720472
4513492855000.0,1.99488208427574,9.730036,0.3760693033100599,0.009162978,-0.037873644,0.004581489,240.81052,-77.80409,1.6869385
4513497819000.0,1.9995570016914157,9.730036,0.3339950172799685,-0.0021380284,-0.047647487,-0.005192355,240.98035,-77.94804,1.7946199
4513502892000.0,1.9942788940006857,9.730036,0.3548277439801165,-0.0027488936,-0.036957346,0.01160644,241.13998,-78.07251,1.906323
4513507843000.0,1.9820879263627011,9.730036,0.4198462804816592,-0.00030543262,-0.045814894,0.003970624,241.30899,-78.19321,2.008075
4513512826000.0,1.9684099280966767,9.730036,0.4769850050453172,-0.0036651916,-0.04062254,0.004276057,241.4707,-78.31613,2.1137362
4513518373000.0,1.948348557401813,9.730036,0.5120924456570997,0.01038471,-0.03940081,0.0106901415,241.63528,-78.44161,2.2176654
4513522969000.0,1.9334227347928996,9.729489855991124,0.5395779979023669,0.013133603,-0.04153884,0.003970624,241.7975,-78.54759,2.3115036
4513527887000.0,1.9264554711242603,9.726006151405326,0.56047980345858,0.0012217305,-0.041233405,0.003970624,241.95709,-78.65,2.406881
4513532787000.0,1.919513707810651,9.722535197263314,0.5813051078964497,0.007330383,-0.03756821,-0.0009162979,242.11578,-78.750145,2.4937239
4513537834000.0,1.901745372624304,9.71267846515646,0.6073780592512958,0.011301007,-0.033292156,-0.00030543262,242.27298,-78.843735,2.5802996
4513542838000.0,1.8695456557112689,9.694278750431945,0.6395777569514302,0.004276057,-0.03176499,0.0076358155,242.42888,-78.93352,2.6658263
4513547824000.0,1.845146803389997,9.680563518522158,0.6465036486685664,-0.004276057,-0.03268129,0.00061086525,242.57994,-79.02025,2.7420428
4513552843000.0,1.8357008057089517,9.67584042104746,0.603996609786774,-0.003970624,-0.02443461,0.0015271631,242.72623,-79.10432,2.8205776
4513557722000.0,1.8306208806902484,9.675476621976133,0.5673544965487582,-0.0015271631,-0.015882496,-0.0015271631,242.87308,-79.1787,2.888989
4513562725000.0,1.835772233275992,9.685779542307278,0.5415977336200408,-0.00030543262,-0.015882496,0.0021380284,243.01868,-79.25063,2.958199
4513572732000.0,1.84482136644092,9.673505220103369,0.5085009689627518,0.004276057,-0.007330383,-0.00061086525,243.16118,-79.33167,3.0203946
4513577714000.0,1.8459533475098664,9.665368401992106,0.4877224151174591,0.010079277,-0.0012217305,-0.0018325958,243.30322,-79.41123,3.0829422
4513582719000.0,1.8324412584288667,9.678880773256909,0.4291699867722233,0.002443461,0.0009162979,-0.006414085,243.44394,-79.49198,3.1429772
4513587918000.0,1.8200176069177323,9.690456052663375,0.3667065444426543,0.00030543262,0.0021380284,-0.0070249503,243.58188,-79.57656,3.20268
4513592701000.0,1.824630015980264,9.676618536501865,0.2929079464635988,0.0036651916,-0.0018325958,-0.0036651916,243.71979,-79.65876,3.26125
4513597786000.0,1.8305836359799543,9.664411535979957,0.2174394762688904,0.00580322,-0.0033597588,-0.01038471,243.86064,-79.750694,3.313349
4513602832000.0,1.849503271403962,9.683331171403962,0.1796001817140396,-0.0027488936,0.0012217305,-0.00580322,243.99927,-79.83729,3.3684602
4513607791000.0,1.868096706217211,9.701924606217212,0.1424132887894448,-0.004276057,0.00580322,-0.0012217305,244.1418,-79.93722,3.4225717
4513612778000.0,1.8950900252446536,9.710882,0.1177350207404856,-0.010079277,-0.00580322,-0.01038471,244.28708,-80.032455,3.47359
4513617816000.0,1.9300650026821315,9.710882,0.1046194094512504,-0.010079277,-0.01160644,-0.0009162979,244.4274,-80.124405,3.5296285
4513622965000.0,1.9536686,9.710882,0.0817058672269912,-0.004276057,-0.017104227,-0.009468411,244.57303,-80.22611,3.5805721
4513627818000.0,1.9536686,9.710882,0.0426870902461958,-0.010079277,-0.014966198,-0.018325957,244.71674,-80.32147,3.6329672
4513633622000.0,1.9536686,9.716176586664105,-0.0046715461199077,-0.00030543262,-0.016187929,-0.01282817,244.8623,-80.41912,3.6941223
4513637819000.0,1.9536686,9.723900389315911,-0.0394279580153727,-0.006414085,-0.017104227,-0.013439035,245.00687,-80.51023,3.7498636
4513642750000.0,1.9628882905959355,9.73398724095763,-0.0999651397941784,-0.0070249503,-0.01863139,-0.021685716,245.15535,-80.6078,3.8054142
4513647812000.0,1.9921118809507403,9.746511462452634,-0.2043351794548742,-0.01282817,-0.015882496,-0.02076942,245.30154,-80.69894,3.8621569
4513653129000.0,2.021013522154633,9.759073328572688,-0.3061504978453672,-0.008552114,-0.022907447,-0.022907447,245.45247,-80.79944,3.9148433
4513657815000.0,2.0249698727497134,9.763029761791412,-0.3021941472502865,-0.0067195175,-0.023823744,-0.026572637,245.59988,-80.89531,3.9659774
4513662751000.0,2.029137296253196,9.767197272326545,-0.2980267237468041,-0.009773844,-0.028405234,-0.020158553,245.75327,-81.00569,4.0258317
4513667816000.0,2.0430063158007883,9.774704790756,-0.2618918716553207,-0.0033597588,-0.026572637,-0.015577064,245.90427,-81.116394,4.0827723
4513672807000.0,2.0601320086707275,9.783267816015766,-0.2147961760274095,0.004276057,-0.028405234,-0.008857546,246.05623,-81.22228,4.1413074
4513677771000.0,2.0707774073843903,9.780935240815207,-0.1784128788420764,-0.015577064,-0.03634648,-0.009162978,246.20868,-81.31857,4.1992054
4513682767000.0,2.075150071687077,9.767816973953574,-0.1521768793282763,-0.003970624,-0.038179077,-0.021991149,246.3591,-81.42235,4.2540913
4513687815000.0,2.078167,9.760377432159748,-0.1195727019897004,-0.009162978,-0.027183503,-0.013744468,246.50339,-81.50105,4.3168387
4513692782000.0,2.078167,9.765376797267471,-0.0745793201551234,-0.014660766,-0.033292156,-0.012217305,246.65274,-81.58259,4.3735676
4513697758000.0,2.067034758693784,9.76648758770171,-0.0293302840905184,-0.007330383,-0.03023783,-0.013439035,246.79434,-81.655975,4.4318304
4513703414000.0,2.0360027444858204,9.761315477322638,0.0223897741529647,-0.014049901,-0.026267206,-0.002443461,246.93591,-81.720085,4.493004
4513707761000.0,2.0222452404288216,9.761844145139676,0.0786648643607875,-0.019547688,-0.034208454,-0.004276057,247.07571,-81.781136,4.547816
4513712785000.0,2.027204919142356,9.771763709720648,0.1778585152784249,-0.018936822,-0.03573562,-0.014049901,247.21143,-81.83949,4.6019816
4513717811000.0,2.030283,9.775251641939253,0.2567641563317757,-0.009162978,-0.03176499,-0.011911872,247.34492,-81.88968,4.653044
4513722814000.0,2.030283,9.768254893837616,0.302242098463785,-0.0106901415,-0.02443461,-0.008246681,247.47713,-81.937004,4.7007885
4513727799000.0,2.030283,9.761283318925232,0.3475564181775701,-0.020158553,-0.02443461,-0.010995574,247.60522,-81.96977,4.745839
4513732766000.0,2.02463605797803,9.750295704896669,0.3949768588102774,-0.018936822,-0.022296581,-0.011301007,247.72937,-82.00256,4.7913356
4513737806000.0,2.015649449897598,9.736815980450569,0.4444032314038354,-0.015271631,-0.023518313,-0.017104227,247.85371,-82.034164,4.8336477
4513742773000.0,2.004980831467793,9.726961651531152,0.4953949539176346,-0.018936822,-0.017715093,-0.021380283,247.97113,-82.0539,4.874813
4513747769000.0,1.992349972756072,9.720646090285111,0.5490761397122492,-0.013133603,-0.024740042,-0.011911872,248.09131,-82.0745,4.9178467
4513752865000.0,1.979466294614572,9.714204116684266,0.6038318088093981,-0.014660766,-0.025045475,-0.016798794,248.20494,-82.08911,4.951693
4513757916000.0,1.9728222,9.703748811148683,0.6582246373173481,-0.007941248,-0.021685716,-0.021991149,248.31827,-82.10481,4.987501
4513762811000.0,1.9728222,9.689338179936469,0.7110643892027871,-0.0036651916,-0.018325957,-0.015271631,248.43051,-82.11791,5.0246267
4513767901000.0,1.982176530088496,9.675136105918142,0.7420912650442477,-0.010079277,-0.018325957,-0.008857546,248.53886,-82.12026,5.0560603
4513773483000.0,2.001888070501475,9.660352141869469,0.7519470352507375,-0.009162978,-0.020158553,-0.014660766,248.646,-82.1261,5.0852623
4513777819000.0,2.006627754060706,9.650419996718622,0.764070452633306,-0.007330383,-0.026572637,-0.0033597588,248.75098,-82.11715,5.1216702
4513782861000.0,1.9934239734755264,9.64161775207365,0.7860767811831191,0.0021380284,-0.026267206,-0.0125227375,248.8544,-82.115135,5.1498227
4513787858000.0,1.9830046200562477,9.635479202169549,0.7996067957557251,-0.0012217305,-0.022602014,-0.009162978,248.95593,-82.103226,5.1873584
4513792870000.0,1.9868615040739253,9.643192728565689,0.7687516994503817,-0.006414085,-0.021380283,0.0018325958,249.05722,-82.09342,5.2238503
4513797786000.0,1.99064451321816,9.65075850984331,0.7384876025954199,-0.00061086525,-0.025961773,0.0125227375,249.15855,-82.082085,5.2583346
4513802848000.0,1.9990013168648173,9.646395580948187,0.692709701003963,0.00580322,-0.03023783,0.0030543262,249.25882,-82.07187,5.289484
4513807833000.0,2.0095121816820782,9.63588486246881,0.640155354966975,0.015577064,-0.016493361,0.01282817,249.35345,-82.05823,5.3280287
4513813568000.0,2.0224906968944096,9.627189310559007,0.5759765475776398,0.015271631,-0.01985312,0.010079277,249.45407,-82.053635,5.3614254
4513817843000.0,2.0403985002362,9.652260384830724,0.4936005848884612,0.022907447,-0.029321533,0.006414085,249.55142,-82.05114,5.3964086
4513822837000.0,2.061318165707287,9.681548091243112,0.3973700450826699,0.02076942,-0.032375857,0.0067195175,249.64883,-82.054726,5.4341373
4513827824000.0,2.083616399404762,9.709259348053411,0.338875065802767,0.029321533,-0.03145956,0.011301007,249.74695,-82.061745,5.471464
4513832867000.0,2.1069252654761903,9.736452687097811,0.300027066560489,0.03726278,-0.036651913,0.01038471,249.84692,-82.06898,5.506841
4513837860000.0,2.141262244584444,9.758104637024472,0.2536009073418948,0.03176499,-0.03604105,0.013133603,249.95044,-82.08565,5.54816
4513843006000.0,2.2328131632178336,9.754124082788143,0.1660304764429367,0.043066,-0.040011674,0.01740966,250.05585,-82.106346,5.589156
4513847783000.0,2.3177993152410954,9.75042895888862,0.0847393865858977,0.06078109,-0.04734206,0.00580322,250.16312,-82.13324,5.6302266
4513852814000.0,2.3657171662670944,9.754731791828466,0.0436041402596657,0.0580322,-0.048563786,0.016798794,250.26813,-82.151695,5.6779456
4513857994000.0,2.3950312611514435,9.76310742242107,0.0226654866263717,0.062002823,-0.051618114,0.01038471,250.37564,-82.1798,5.7167745
4513862830000.0,2.4199820971680954,9.76966836987962,-0.0050019670415692,0.05009095,-0.053450707,0.014049901,250.48424,-82.197464,5.782219
4513867856000.0,2.440824262353858,9.77383689867498,-0.0508548571122369,0.048563786,-0.043982297,0.017715093,250.58978,-82.21741,5.844306
4513873079000.0,2.4627038579667926,9.77792,-0.095558841658025,0.06352998,-0.045814894,0.024740042,250.7003,-82.23317,5.9136205
4513877824000.0,2.485868283141567,9.77792,-0.0922496416157879,0.058643065,-0.040011674,0.025961773,250.80515,-82.24364,5.9804506
4513882871000.0,2.510507030002913,9.77792,-0.0887298244159627,0.06352998,-0.04642576,0.028099801,250.91629,-82.25948,6.051438
4513889078000.0,2.525672773061441,9.780524254131356,-0.0705660506483051,0.052534413,-0.056505036,0.025961773,251.02606,-82.27023,6.1200013
4513892845000.0,2.5218511435805087,9.78434592351695,-0.0476364972288135,0.048258353,-0.048563786,0.030848695,251.13147,-82.27897,6.1894364
4513897826000.0,2.532916069816922,9.791050871845622,-0.0145144776447303,0.045814894,-0.053450707,0.03268129,251.24352,-82.277626,6.264719
4513902836000.0,2.570901141167739,9.80054681741712,0.0234705203285502,0.036651913,-0.05131268,0.027183503,251.3505,-82.273445,6.337356
4513907793000.0,2.608125559915287,9.805048609068155,0.05909354245206,0.022602014,-0.042455133,0.028710667,251.45773,-82.26166,6.409799
4513913136000.0,2.6475316765113592,9.800122741624952,0.0935739191621101,0.007330383,-0.04642576,0.022296581,251.5675,-82.2504,6.477137
4513917870000.0,2.673224798235294,9.79966442352941,0.1265828504705882,0.0106901415,-0.044898596,0.02565634,251.66876,-82.2278,6.5519443
4513922896000.0,2.6777915439089184,9.80879801024668,0.1676831609791271,0.0106901415,-0.048563786,0.01282817,251.77226,-82.2073,6.618951
4513927865000.0,2.680723976744833,9.811534893131894,0.2159712364982852,-0.008246681,-0.05009095,0.0061086523,251.87352,-82.172195,6.694054
4513932862000.0,2.6762883692464547,9.784921433404392,0.3002469545481508,-0.02107485,-0.055283304,0.00580322,251.97615,-82.13951,6.7659135
4513938078000.0,2.671395532929428,9.75929957821348,0.3875186554119223,-0.032375857,-0.049480084,-0.00061086525,252.07478,-82.10148,6.8340473
4513942888000.0,2.6629809178164767,9.767714369055591,0.4576404978097789,-0.057726767,-0.03756821,-0.016493361,252.17244,-82.06252,6.897875
4513953735000.0,2.644005173506668,9.786690509651098,0.6157718126724715,-0.08368854,-0.023823744,-0.048563786,252.26318,-82.02038,6.9524517
4513954610000.0,2.641394387994904,9.785331818057704,0.6372877986156367,-0.08368854,-0.023823744,-0.048563786,252.35332,-81.975204,7.0104413
4513958600000.0,2.6240050041776644,9.764464484845726,0.7798808439692363,-0.17745635,-0.011911872,-0.054367006,252.436,-81.92375,7.0560837
4513962856000.0,2.6054563281059435,9.742205996086284,0.9319800923464092,-0.20341812,0.009773844,-0.059253927,252.50899,-81.87386,7.097695
4513967890000.0,2.5953147,9.710683867406924,1.0248175157786694,-0.2321288,0.013439035,-0.07544186,252.58334,-81.81609,7.13364
4513972884000.0,2.5953147,9.67498214957544,1.0426682814966874,-0.23976462,0.01863139,-0.09285152,252.65045,-81.760376,7.166532
4513977848000.0,2.592539806886806,9.64093400996579,1.0437366596162427,-0.24251351,0.016187929,-0.10598512,252.70811,-81.69025,7.1907325
4513982883000.0,2.5853675343894094,9.608658858619664,1.0186336684292727,-0.22968534,0.018325957,-0.11453723,252.76266,-81.6253,7.2105336
4513989292000.0,2.5762380220883534,9.567576148594378,0.9866803277108434,-0.23609942,0.015882496,-0.12370021,252.81686,-81.55842,7.2271056
4513992873000.0,2.569820841661192,9.51016840319099,1.0846841111966212,-0.22632557,-0.013744468,-0.13316862,252.87794,-81.498695,7.2413054
4513997831000.0,2.5609081677616143,9.429955361801971,1.222829160675739,-0.22204952,-0.063224554,-0.13744467,252.94504,-81.43883,7.2545877
4514002758000.0,2.5686418059839604,9.348309927469815,1.3437912270203578,-0.20433442,-0.14294247,-0.13469578,253.03183,-81.38622,7.2685122
4514007734000.0,2.5896404645897597,9.264315205340615,1.4529838834053057,-0.19700404,-0.22235495,-0.11636983,253.13174,-81.33058,7.286712
4514012710000.0,2.5857021810121616,9.17004953334641,1.531009713848568,-0.160963,-0.28771752,-0.09743301,253.24341,-81.266,7.3064137
4514017724000.0,2.515059563240486,9.047602401333856,1.5263002125539429,-0.1469131,-0.33353242,-0.086437434,253.37088,-81.19756,7.330234
4514022811000.0,2.431592577296716,8.931782524921815,1.4871361352326036,-0.12461651,-0.376293,-0.0729984,253.50598,-81.11356,7.3669333
4514027713000.0,2.316889945338155,8.844608656860828,1.3494929864640344,-0.108123146,-0.3735441,-0.064751714,253.63968,-81.03077,7.4047503
4514032714000.0,2.197233064733908,8.763249031018752,1.2062689754891027,-0.0729984,-0.34697145,-0.06811147,253.77933,-80.961716,7.433435
4514037742000.0,2.0654429921135327,8.714437930765332,1.0500733272579827,-0.053145275,-0.3051272,-0.06841691,253.91199,-80.89139,7.464371
4514042720000.0,1.950201504022553,8.68267418353951,0.9167759482984096,-0.03023783,-0.26419923,-0.081855945,254.0466,-80.86147,7.4708195
4514047720000.0,1.8897571297063032,8.710881706892199,0.8603612045468316,-0.007941248,-0.23426682,-0.0983493,254.17097,-80.836136,7.4753556
4514052755000.0,1.8288896447698395,8.739286682908356,0.8035515575889927,-0.0036651916,-0.20647246,-0.106595986,254.29346,-80.84751,7.4549513
4514057726000.0,1.8106536768521604,8.81961151671665,0.8172240418715984,-0.004276057,-0.20066923,-0.11148291,254.41263,-80.86465,7.431065
4514062902000.0,1.8025152531704096,8.914435717470278,0.8409799534965324,-0.01282817,-0.20525073,-0.11636983,254.52574,-80.882835,7.404886
4514067770000.0,1.829458700726552,9.01836060452444,0.8178855578195179,0.0012217305,-0.21044308,-0.12095132,254.64124,-80.9232,7.365057
4514072733000.0,1.8569279550858653,9.12431360667107,0.7943404703616248,0.01282817,-0.22968534,-0.12308934,254.76233,-80.96456,7.319682
4514077749000.0,1.915017388232686,9.27328974886938,0.6532423494360202,0.030543262,-0.22357668,-0.12370021,254.87628,-81.00925,7.273916
4514082741000.0,1.9913261086370488,9.447104044160682,0.4412736496754456,0.046120327,-0.21899518,-0.12003502,254.99469,-81.05424,7.230321
4514087761000.0,2.0398598,9.557653,0.30645782,0.044898596,-0.21471913,-0.12003502,255.11421,-81.10294,7.1879425
4514092785000.0,2.0398598,9.557653,0.30645782,0.05100725,-0.20891592,-0.12095132,255.2305,-81.154,7.1471033
4514097942000.0,2.033235053771058,9.564277884578834,0.151880297311447,0.056505036,-0.21135938,-0.11942416,255.36145,-81.2223,7.121453
4514102920000.0,2.020879120190065,9.576634076198705,-0.1364250260095033,0.06719518,-0.21685717,-0.100792766,255.4898,-81.2872,7.100922
4514107854000.0,2.0075537769895555,9.581275967127937,-0.3756671452065108,0.077579886,-0.24648413,-0.089491755,255.63089,-81.35165,7.0795774
4514112825000.0,1.989885365473729,9.556035379248184,-0.4337205447706909,0.10751228,-0.27916542,-0.07544186,255.77243,-81.414604,7.0649476
4514118024000.0,1.971406574190128,9.529637105985897,-0.4944366228906208,0.13041973,-0.32253686,-0.06383542,255.94414,-81.51364,7.051651
4514122816000.0,1.954374381877949,9.505305402682785,-0.5503995862202429,0.14844026,-0.34238997,-0.059253927,256.1166,-81.611565,7.04072
4514127866000.0,1.885626308107368,9.498159887428102,-0.6143609590742263,0.16126843,-0.3735441,-0.04917465,256.30264,-81.70455,7.0359387
4514132871000.0,1.7499657671140327,9.515664364283758,-0.6843792594759427,0.17531833,-0.41355577,-0.018020526,256.49457,-81.79045,7.0390234
4514137830000.0,1.6108861015019282,9.55049069961437,-0.7533061185102496,0.17440203,-0.4615087,-0.0009162979,256.70773,-81.884865,7.0386105
4514142843000.0,1.4549826663385428,9.643058232291455,-0.8215139000101481,0.18234327,-0.4813618,0.029932396,256.92145,-81.96688,7.0508814
4514147789000.0,1.3049201078979806,9.743247183132643,-0.8784247998340761,0.17837265,-0.52626044,0.057726767,257.1678,-82.06967,7.0392447
4514152888000.0,1.1613915008059164,9.872885886033943,-0.9062045356973548,0.17134771,-0.5635232,0.100792766,257.41437,-82.15632,7.0409827
4514157855000.0,1.0318169921497526,9.995998843536617,-0.9280572877160348,0.17898351,-0.5833763,0.14019357,257.6813,-82.26511,7.0187
4514162861000.0,0.9556208187932658,10.103238131092535,-0.9224131346939016,0.16920967,-0.5815437,0.16982053,257.94907,-82.35667,7.0066614
4514168581000.0,0.8685568732081469,10.225772834412528,-0.915963962643042,0.15454891,-0.569021,0.20555615,258.23032,-82.46346,6.9738593
4514172970000.0,0.8017520380380269,10.319794654844596,-0.911015463319402,0.15088372,-0.5564982,0.23671028,258.50708,-82.557785,6.9493284
4514177877000.0,0.7165535848202002,10.580693394934334,-0.8582382113946216,0.14019357,-0.52442783,0.27275133,258.77057,-82.63339,6.9368296
4514182829000.0,0.6275773208864915,10.888402591932458,-0.7915060008630393,0.12156218,-0.48472157,0.29749137,259.02475,-82.697365,6.930309
4514187853000.0,0.5644333371762741,11.156681020885548,-0.7257420082335468,0.10415252,-0.43860126,0.3118467,259.27704,-82.773766,6.9028416
4514193009000.0,0.6102683249791145,11.25293496908939,-0.6661565575921284,0.10293079,-0.38515055,0.31031954,259.51215,-82.84261,6.878718
4514198021000.0,0.6610033640455577,11.333723714381776,-0.6070473598705556,0.09254608,-0.32375857,0.30268374,259.7354,-82.9247,6.8292165
4514202853000.0,0.77769275236194,11.271488919055225,-0.5370337065730857,0.07819075,-0.2501493,0.27550024,259.93616,-83.0074,6.7758584
4514207836000.0,0.8980286840632092,11.207309286374716,-0.4648321266100698,0.055588737,-0.15210545,0.24556783,260.1137,-83.076324,6.7290154
4514212806000.0,1.0144441266606483,11.124027375987362,-0.3622436265380275,0.025045475,-0.0421497,0.226631,260.2635,-83.14457,6.6794076
4514217955000.0,1.1331495708530803,11.027579203791468,-0.2398286557345972,0.014660766,0.013744468,0.204029,260.39822,-83.21838,6.6225224
4514222959000.0,1.2501320368438829,10.92998212659596,-0.120242203330406,0.011911872,0.1020145,0.19150625,260.4851,-83.26235,6.5893836
4514227818000.0,1.4135956834087684,10.716221905221914,0.0149296720131054,0.019242255,0.1826487,0.17592919,260.55667,-83.31153,6.55011
4514232808000.0,1.5814663556373707,10.496698648449636,0.1537458189495372,0.038789943,0.24098633,0.13408493,260.59756,-83.33766,6.5280805
4514238058000.0,1.744404055029831,10.27195012744448,0.2919362697315213,0.062002823,0.30207285,0.099265605,260.61398,-83.36622,6.503584
4514242946000.0,1.7599199717020215,10.124549465860126,0.3423628996818031,0.08093964,0.37507126,0.05375614,260.61026,-83.40948,6.4644074
4514247804000.0,1.775340659753066,9.97805347282068,0.3924800372224063,0.102319926,0.43249258,0.015882496,260.57907,-83.40548,6.4667077
4514252948000.0,1.735449936190078,9.808072949414717,0.4620041770073857,0.110872045,0.4709771,-0.021380283,260.5331,-83.4146,6.4556365
4514257887000.0,1.6662402715440356,9.63669666973244,0.5378052145248049,0.10598512,0.50762904,-0.06261369,260.4722,-83.43574,6.432361
4514262814000.0,1.5971987615802676,9.46573677299331,0.6134220826860368,0.096516706,0.52473325,-0.101098195,260.4077,-83.46008,6.4030457
4514267915000.0,1.5522428638592396,9.373924239659772,0.6631028123899266,0.112704635,0.5323691,-0.119729586,260.33655,-83.49107,6.3679266
4514272864000.0,1.516672421589393,9.310687888675783,0.7026255090568713,0.13103059,0.5381723,-0.13041973,260.26227,-83.529396,6.324712
4514277860000.0,1.4848069869837015,9.262484835454345,0.7357014467537397,0.15302174,0.5403103,-0.1282817,260.18845,-83.57512,6.269433
4514284117000.0,1.453590671027759,9.235727860162235,0.7624583615107539,0.18020524,0.52931476,-0.122783914,260.11786,-83.623055,6.213184
4514287855000.0,1.4349417036243208,9.219742951477263,0.7784432340314058,0.2144137,0.50701815,-0.10873401,260.05286,-83.669586,6.157353
4514292879000.0,1.4050673590766,9.20976266211962,0.797799257187828,0.24831672,0.5006041,-0.084910266,259.98727,-83.7124,6.1069307
4514297862000.0,1.373201589821616,9.20521032109129,0.8160082362749213,0.27152961,0.46761733,-0.07269296,259.93658,-83.75502,6.0585794
4514302888000.0,1.3401454607547962,9.262594562176163,0.8117486764528777,0.28955013,0.4541783,-0.045814894,259.8878,-83.79163,6.016177
4514307870000.0,1.3067386077790226,9.362815365284971,0.7917045646674135,0.28619036,0.43188173,-0.033292156,259.85165,-83.828,5.9743586
4514312978000.0,1.2724868604887272,9.465570857512953,0.7711535162932363,0.31581733,0.4196644,-0.003970624,259.81738,-83.85694,5.9426227
4514317929000.0,1.255153279544304,9.523561870886075,0.7092380850160338,0.32406402,0.40622538,0.01160644,259.79028,-83.88372,5.911402
4514322892000.0,1.243120454632911,9.567682312658228,0.6330301687814346,0.32467487,0.3979787,0.02321288,259.76526,-83.904564,5.8879795
4514327928000.0,1.2385917853046595,9.605511922939067,0.5555320456630825,0.3408628,0.39950588,0.04153884,259.75345,-83.93133,5.8609385
4514332877000.0,1.2470856174193548,9.63099306451613,0.4790874856774193,0.35216382,0.40011674,0.06658431,259.7441,-83.95211,5.839836
4514337850000.0,1.2545617,9.652899563939634,0.4076308408437031,0.35094208,0.41080686,0.09407325,259.73816,-83.976555,5.819958
4514342888000.0,1.2545617,9.648641873709291,0.3735664556420439,0.35277468,0.43035457,0.12950343,259.72922,-83.9923,5.809935
4514347782000.0,1.2545617,9.644505880063544,0.3404757249598447,0.36102137,0.4202753,0.14752395,259.73206,-84.00872,5.8038845
4514353938000.0,1.2888395877069458,9.673225593720266,0.3058072167687916,0.37232238,0.42180246,0.1853976,259.72565,-84.009636,5.8134794
4514357833000.0,1.313683721056137,9.69452023691722,0.2845122622683159,0.36041048,0.42119157,0.19700404,259.7229,-84.01143,5.8207326
4514362876000.0,1.3041109000160105,9.742111672430354,0.2660684142138969,0.3549127,0.4071417,0.23060162,259.7281,-83.99757,5.846347
4514367965000.0,1.2807024369916746,9.796731650336216,0.2504627912087736,0.34666604,0.38728857,0.24556783,259.7353,-83.984535,5.8695545
4514372856000.0,1.2641385,9.835381,0.23942018,0.34025195,0.37323865,0.25137106,259.74487,-83.96054,5.904604
4514377842000.0,1.2641385,9.835381,0.23942018,0.3203988,0.36560285,0.25900686,259.75818,-83.93078,5.943676
4514382831000.0,1.2610746425593995,9.855296009378907,0.2363563177605252,0.2932153,0.3622431,0.24678956,259.781,-83.912865,5.969933
4514387844000.0,1.2510687029178824,9.920334408086704,0.2263503624468528,0.26908615,0.3622431,0.22999077,259.8048,-83.8934,5.9964314
4514392826000.0,1.2520423492760249,10.005046492607836,0.2414388698247218,0.23823744,0.37415496,0.20280726,259.8222,-83.882256,6.012688
4514397805000.0,1.270211449557994,10.12132826390794,0.2959460985771986,0.20830505,0.3857614,0.17134771,259.83954,-83.87602,6.022533
4514402817000.0,1.2885009716735254,10.238380731824416,0.3508145923525377,0.16615535,0.4083634,0.13836098,259.84985,-83.879814,6.0202236
4514407824000.0,1.329070615239607,10.298918134140292,0.3747791521321559,0.11575896,0.42485678,0.09315695,259.85855,-83.89382,6.0054846
4514412936000.0,1.3776434911201507,10.342634635380495,0.3893510250401825,0.07788532,0.4334089,0.054367006,259.863,-83.91345,5.983389
4514417941000.0,1.4259395481181558,10.345746576884146,0.368911080669918,0.025961773,0.45265114,0.03634648,259.85706,-83.92887,5.959033
4514422838000.0,1.4734111120824511,10.337115203183952,0.338701885576516,0.00580322,0.47708577,-0.006414085,259.84732,-83.96084,5.9171576
4514427833000.0,1.54073485884452,10.32636214613424,0.2952219590739167,-0.03573562,0.48075095,-0.046731193,259.8324,-83.98604,5.8773465
4514432868000.0,1.6226706929141888,10.314071954970265,0.241963679762107,-0.060170226,0.5009095,-0.087659165,259.806,-84.021614,5.825783
4514437811000.0,1.7097354907121816,10.288499868826891,0.1858648915029457,-0.105374254,0.51343226,-0.12980886,259.77145,-84.05795,5.771145
4514442873000.0,1.8231387635938312,10.21289704366661,0.1144628364686362,-0.15057829,0.5213735,-0.15454891,259.73297,-84.09703,5.710853
4514447789000.0,1.9332712190434933,10.139474782013515,0.0451201848391093,-0.20616703,0.5177083,-0.1740966,259.69,-84.1249,5.6606317
4514452843000.0,2.0691393813711487,9.989349864823506,0.007045333056213,-0.2843578,0.5009095,-0.16646078,259.6491,-84.14461,5.612192
4514458197000.0,2.217686811039346,9.822523392628584,-0.0297076220561744,-0.3549127,0.47739118,-0.15974127,259.61188,-84.16321,5.559122
4514462819000.0,2.4222727283064707,9.699247235956388,-0.0664281741182744,-0.4392121,0.4334089,-0.13561209,259.5793,-84.149895,5.535813
4514468081000.0,2.655187288379948,9.558901252310974,-0.1082333547653472,-0.50579643,0.37904188,-0.1001819,259.54767,-84.104904,5.542702
4514472901000.0,2.8685373795152884,9.430344117918937,-0.1465269637959231,-0.5500842,0.31429017,-0.04520403,259.53174,-84.04087,5.562484
4514477812000.0,3.022071834119381,9.382426835666912,-0.1201652865350036,-0.6087272,0.22632557,0.01985312,259.538,-83.955154,5.5957365
4514482800000.0,3.1315891675182184,9.394161071972489,-0.0458499538573651,-0.636827,0.10873401,0.08582657,259.57077,-83.85234,5.645385
4514487871000.0,3.236542712325876,9.41358375255382,0.0386160782978471,-0.6844745,-0.022602014,0.15424347,259.61816,-83.674065,5.776067
4514493268000.0,3.3063592520472773,9.483399836639933,0.1869761345344027,-0.7467828,-0.18784106,0.20341812,259.70844,-83.480484,5.9201326
4514497818000.0,3.365218851034192,9.542259051498522,0.3120527059400591,-0.7974846,-0.36041048,0.25717425,259.82678,-83.242,6.104311
4514502942000.0,3.540932716410731,10.226814026641998,0.1251965961017576,-0.84665924,-0.50762904,0.3231477,259.98373,-82.98341,6.305434
4514507812000.0,3.739396749435708,11.0551857093432,-0.146612840040703,-0.90041536,-0.5699373,0.3866777,260.16385,-82.70838,6.5196924
4514512859000.0,3.841224926583276,11.763557844134738,-0.5310737065635773,-0.95203346,-0.6554584,0.42119157,260.37753,-82.39945,6.7546005
4514517916000.0,3.87461497319019,12.37411924426278,-0.9842247026839356,-0.97524637,-0.6377433,0.49266282,260.57587,-82.066475,7.013895
4514522909000.0,3.863871988479263,12.82752975028802,-1.3034350648617512,-1.0256428,-0.5235115,0.5552765,260.79068,-81.7428,7.2900367
4514527882000.0,3.82272098640553,13.175027435339862,-1.5320518385368664,-1.0351112,-0.29932398,0.5708536,260.96582,-81.42272,7.564487
4514532857000.0,3.806106975752305,13.358298108540616,-1.5772628907288224,-1.0253373,-0.040011674,0.56138515,261.12375,-81.146805,7.8327255
4514537847000.0,3.814419418264046,13.374922906766392,-1.4359513246303706,-0.98715824,0.2565634,0.528093,261.20428,-80.88201,8.085984
4514542881000.0,3.819521873863443,13.371322658607184,-1.2428292213247063,-0.95569867,0.5467244,0.4728097,261.22565,-80.6662,8.303787
4514547866000.0,3.811393089937,13.285970342499574,-0.8485828953243657,-0.8970556,0.81092364,0.4147775,261.16864,-80.472404,8.499209
4514552817000.0,3.8033197480674272,13.201200168568024,-0.4570255111663543,-0.8503244,1.0476339,0.38698313,261.02625,-80.278275,8.676448
4514557836000.0,3.6936952217131473,13.187263,0.0285062633864541,-0.79626286,1.2525792,0.39492437,260.81805,-80.10201,8.837197
4514562845000.0,3.564691519920319,13.187263,0.5301869090517928,-0.77732605,1.4385877,0.43218717,260.54846,-79.93005,8.988919
4514567878000.0,3.4966286225477936,13.20525888033768,0.9584403608790424,-0.8145888,1.6065756,0.46517387,260.2013,-79.7218,9.133938
4514572861000.0,3.4412082609969628,13.226574181436485,1.3676986646917992,-0.88056225,1.7272215,0.5045747,259.81635,-79.50511,9.282954
4514577822000.0,3.5933995813084114,13.23906757002423,1.6714805682796816,-0.95478237,1.8044959,0.54702985,259.3713,-79.25473,9.41253
4514582864000.0,3.890905854205608,13.24575341211492,1.9088170198407757,-1.0592403,1.8658879,0.59131753,258.8994,-78.98416,9.544963
4514587830000.0,4.183927700934579,13.252338475943231,2.1425760080304603,-1.1621711,1.953547,0.6600399,258.37604,-78.65996,9.675479
4514592836000.0,4.345825968531469,13.07408989124034,2.199814061096798,-1.2754866,2.0540345,0.75533485,257.8339,-78.30387,9.815991
4514597984000.0,4.454698968531469,12.810979628082444,2.1816685453073243,-1.361924,2.1820107,0.82558435,257.26196,-77.92853,9.956641
4514602976000.0,4.425291080379431,12.531622312364783,2.3077140336994506,-1.4312572,2.2855523,0.8542951,256.65,-77.44892,10.161533
4514608748000.0,4.268906765851223,12.18665622050258,2.5836866670494256,-1.4987578,2.291661,0.8191703,256.034,-76.959816,10.3551035
4514612832000.0,4.139584290858227,11.946506926666,2.7643654694275157,-1.539075,2.2235496,0.7883216,255.40929,-76.43916,10.572876
4514617910000.0,3.852919141452692,11.67441815875712,2.8906924517434307,-1.5567901,2.087021,0.7079928,254.81119,-75.93664,10.7576475
4514622993000.0,3.5618976951784926,11.421002541736447,2.959624954473336,-1.599856,1.8845193,0.59315014,254.23914,-75.41633,10.905347
4514627820000.0,3.264446041912737,11.278388837373292,2.7273681800352576,-1.6242907,1.706452,0.46761733,253.70877,-74.9203,11.022796
4514632808000.0,2.9570731712913174,11.131018388364918,2.487364701498457,-1.6258179,1.539075,0.33200526,253.23434,-74.45326,11.073344
4514637847000.0,2.729229927781792,11.06821201652818,2.447945781286127,-1.6059648,1.4138476,0.2003638,252.81012,-74.0124,11.089868
4514642828000.0,2.5181206438583814,11.020820086885838,2.443637432225433,-1.5540411,1.1841623,0.10567969,252.47357,-73.59917,11.088772
4514647828000.0,2.3468911077899426,10.974002699641508,2.6413995298420696,-1.5137241,0.86437434,0.030543262,252.22421,-73.26712,11.019044
4514652726000.0,2.2014565748377097,10.928554422924137,2.945903316044957,-1.4746287,0.43004912,-0.038179077,252.08096,-72.96195,10.94536
4514657703000.0,2.0402765156498672,10.823849414854111,3.03886069602122,-1.4785993,-0.047036625,-0.10629055,252.05084,-72.68683,10.840835
4514662697000.0,1.867745605198939,10.671616398832892,2.957669648169761,-1.4883732,-0.39461896,-0.1731803,252.11055,-72.42994,10.739648
4514668184000.0,1.6402241533807829,10.45811159074733,2.6306569145907472,-1.50731,-0.5656612,-0.22052236,252.23679,-72.1477,10.625364
4514672707000.0,1.438973947993278,10.265424905199684,2.2752575843218663,-1.4834863,-0.5681047,-0.27275133,252.41345,-71.88472,10.506287
4514678191000.0,1.1468923636020516,9.98014358182522,1.953535158976096,-1.4688255,-0.45662177,-0.31948254,252.60526,-71.636795,10.362488
4514682696000.0,0.8880228909900318,9.725449550566148,1.7322434813897225,-1.4315627,-0.2941316,-0.34880406,252.77908,-71.404144,10.209201
4514687700000.0,0.6525640303183688,9.400598292702558,1.613242264872116,-1.3946054,-0.10323623,-0.35460728,252.92375,-71.23807,10.013437
4514692707000.0,0.4553051292791987,9.044674564836344,1.5875128581827938,-1.3698653,0.09010262,-0.34574974,253.01657,-71.07659,9.80696
4514697691000.0,0.3494517448937931,8.59162923155862,1.6391371740413794,-1.3564262,0.2855795,-0.32711834,253.04877,-70.93573,9.587384
4514702892000.0,0.4227339114142528,7.918349427383908,1.849823395016092,-1.3698653,0.47250426,-0.27885997,253.02359,-70.78482,9.368721
4514707782000.0,0.5480130853778522,7.3937699311701905,2.046625946451748,-1.387275,0.5513059,-0.24709499,252.96564,-70.61657,9.142333
4514712842000.0,0.9334911041134604,7.343049177559137,2.244437097383295,-1.3979651,0.6933321,-0.16982053,252.83014,-70.43049,8.924524
4514717879000.0,1.3011508105529537,7.292407802288865,2.436060363234628,-1.4465289,0.82802784,-0.05375614,252.64464,-70.15095,8.740988
4514722811000.0,1.62226823387974,7.242456269338269,2.610890970728206,-1.5060883,0.9419542,0.089491755,252.41687,-69.851135,8.577108
4514727768000.0,1.9450133813718085,7.192251535186584,2.78660778365312,-1.5909985,0.9944886,0.23335053,252.1499,-69.47266,8.490629
4514732771000.0,2.3464171277814856,7.187203332681857,2.927597689150539,-1.6569719,1.006095,0.37934732,251.85129,-69.069275,8.435262
4514737817000.0,2.7979194394031843,7.210239147726189,3.0473840235961487,-1.7418822,0.9914343,0.50640726,251.53572,-68.62875,8.408206
4514742820000.0,3.151703754836341,7.194137246118339,3.0868202917540914,-1.8173242,0.96944314,0.63163465,251.20659,-68.09699,8.486641
4514747825000.0,3.423244170016785,7.143852013218632,3.0566490469995804,-1.8661933,0.9334021,0.7486154,250.87474,-67.5447,8.593852
4514752838000.0,3.5435135796427923,7.0921465469199925,2.971179371168216,-1.8915442,0.8900307,0.8347474,250.55034,-66.93594,8.795223
4514757819000.0,3.5739414347366503,7.039984438290505,2.853815046601057,-1.8897116,0.86834496,0.89675015,250.22087,-66.32071,9.015685
4514762900000.0,3.5633608681087656,7.023261856728347,2.723516156988967,-1.87444,0.852157,0.9431759,249.90497,-65.69001,9.297245
4514768124000.0,3.49816765354878,7.053685314499175,2.575744985622448,-1.8530598,0.8396343,0.96577793,249.59009,-65.06659,9.58319
4514773020000.0,3.403071257849667,7.083203913342604,2.460050523538022,-1.8164078,0.85154617,0.9877691,249.275,-64.46589,9.887134
4514777816000.0,3.150946769933397,7.116820668520822,2.453327207604479,-1.7757853,0.893085,0.9957104,248.95488,-63.87996,10.183285
4514782778000.0,2.8900957046622264,7.151600972773183,2.446371183071068,-1.7052304,0.9465357,0.990518,248.63818,-63.34505,10.468814
4514787840000.0,2.696983961084086,7.155872344187432,2.4859290965055094,-1.6285667,0.97341377,0.9642508,248.3204,-62.832714,10.740892
4514792955000.0,2.6143121959694238,7.112104894321454,2.597778958413581,-1.5525141,0.98837996,0.9236283,247.99577,-62.349434,10.995015
4514797799000.0,2.515199164664712,7.057718908758158,2.7308654495507425,-1.4731015,1.0235047,0.9053023,247.65063,-61.916153,11.178669
4514802840000.0,2.37821822604748,6.980096329197012,2.9135067963964816,-1.400714,1.0506883,0.86620694,247.31436,-61.51644,11.337944
4514807808000.0,2.2674772506965515,6.920097050232184,3.088701288527026,-1.3625349,1.0968086,0.8371908,246.96164,-61.114647,11.470868
4514812825000.0,2.2228544976781626,6.905222799226054,3.252318204909913,-1.2935071,1.146594,0.7724391,246.61414,-60.75624,11.573823
4514818306000.0,2.174104784843044,6.888972894947681,3.43106732165191,-1.2333369,1.1847731,0.7012733,246.2485,-60.380455,11.636422
4514822919000.0,2.138685572800953,6.887722412506953,3.5808849333651174,-1.180497,1.2373075,0.68111473,245.87204,-60.029465,11.681201
4514827816000.0,2.1908560745649583,7.085225290369488,3.729943698831943,-1.1664472,1.2589933,0.6563747,245.50816,-59.699284,11.700803
4514832796000.0,2.2439108221215736,7.286075674636472,3.881528884052443,-1.1569787,1.3005321,0.61544675,245.12242,-59.341038,11.685877
4514837824000.0,2.234680140746282,7.423410714785374,4.209721694024128,-1.1746938,1.3579534,0.5876524,244.73312,-58.987026,11.658218
4514842836000.0,2.167347930627513,7.499720606041336,4.699003042719537,-1.1869112,1.3869696,0.57757306,244.34833,-58.645603,11.6188965
4514847800000.0,2.151333264052679,7.553747046872195,5.044239637234361,-1.1835514,1.221425,0.55741453,244.00894,-58.297504,11.593908
4514852862000.0,2.2190463901027635,7.573093654315075,5.165156186271576,-1.2168436,1.0143417,0.56596667,243.67459,-57.940876,11.572301
4514857787000.0,2.2840739714450864,7.571146493872832,5.253908326531792,-1.2333369,0.84635377,0.56016344,243.34952,-57.521202,11.533496
4514862983000.0,2.3511891716763005,7.532795008092486,5.297053697976878,-1.2373075,0.74372846,0.5861252,243.05713,-57.100723,11.521058
4514867909000.0,2.38976602468258,7.492691163230067,5.319159892432706,-1.2223413,0.65393126,0.58123827,242.81,-56.663666,11.536947
4514872838000.0,2.3760668163244576,7.444743862453747,5.302035917746499,-1.1734722,0.58276546,0.59131753,242.5792,-56.240654,11.570396
4514877913000.0,2.3619618290212583,7.395376333251106,5.2844047204382205,-1.1154399,0.56199604,0.6038403,242.35837,-55.814053,11.623879
4514882804000.0,2.308537939240749,7.309337297741471,5.284298033243633,-1.0848967,0.5531385,0.6133087,242.15216,-55.402695,11.68262
4514887934000.0,2.218826096665065,7.18657400653532,5.298462996146084,-1.0290025,0.5421429,0.6258314,241.95029,-55.021656,11.743515
4514892786000.0,2.1255107458065945,7.088019056465295,5.326534908239286,-0.98868537,0.5186246,0.62980205,241.75235,-54.641758,11.813292
4514897800000.0,2.0192524467581325,7.006554297654349,5.372580123080327,-0.9370673,0.51068336,0.6215554,241.5545,-54.288788,11.877236
4514902972000.0,1.9096457609426865,6.922522440340783,5.420076304005311,-0.8921687,0.5012149,0.61391956,241.35268,-53.93319,11.936674
4514907814000.0,1.7071847474397592,6.779603928162651,5.5417800059487945,-0.86926126,0.50976706,0.6123924,241.15005,-53.59408,11.989094
4514912832000.0,1.4674454520331326,6.612238702635542,5.691051619540662,-0.82924956,0.5296202,0.59406644,240.95248,-53.281822,12.030913
4514918005000.0,1.3345085817219355,6.508768651614314,5.874169789500393,-0.8020661,0.50579643,0.5748242,240.75581,-52.948193,12.063195
4514922839000.0,1.269699060398985,6.448009725374049,6.060497417079359,-0.7791586,0.44806966,0.56382865,240.56546,-52.632915,12.091457
4514927816000.0,1.1911803779396162,6.340731936712646,6.161416654654191,-0.7449502,0.3640757,0.53878313,240.3671,-52.29297,12.081125
4514933853000.0,1.068489693787981,6.106504256380823,6.072186801485483,-0.6966918,0.34208453,0.50976706,240.17093,-51.972466,12.063249
4514937807000.0,1.0549392589166835,5.949454372553964,6.0449421898023,-0.657291,0.36132678,0.473726,239.96918,-51.620922,12.033466
4514942885000.0,1.2070032316622956,5.738526985969337,6.089089801402058,-0.6096435,0.35430184,0.44868052,239.78232,-51.294594,12.004776
4514947810000.0,1.3644936469757765,5.559556096938624,6.143796744389954,-0.537256,0.29840767,0.4428773,239.59091,-50.973972,11.980397
4514953007000.0,1.556801144248774,5.4375149127284885,6.232554190436915,-0.47525316,0.22571471,0.44073927,239.40932,-50.672493,11.952922
4514957834000.0,1.7354173246098974,5.324162440882747,6.314992557200178,-0.40775254,0.15974127,0.453262,239.22523,-50.36214,11.965297
4514962944000.0,1.9944242659115423,5.222727664617044,6.383845707659115,-0.35430184,0.12003502,0.46975538,239.05219,-50.071182,11.983076
4514968013000.0,2.2965454570575057,5.134105299925317,6.44024153995519,-0.30573806,0.12034045,0.47983465,238.88464,-49.80275,12.003596
4514972882000.0,2.534482317443857,5.058063702225891,6.476051633322325,-0.24770586,0.12980886,0.5009095,238.70667,-49.518383,12.070697
4514977977000.0,2.56671075003963,5.016166817252312,6.437377588243065,-0.19425514,0.09040806,0.52503866,238.53842,-49.2501,12.146089
4514982807000.0,2.597262924610304,4.976449063685601,6.400715048943197,-0.13103059,0.011301007,0.528093,238.37845,-48.982906,12.276987
4514987856000.0,2.618195167371752,4.940332317988008,6.3490767358844105,-0.060170226,-0.060170226,0.52473325,238.22354,-48.734833,12.4142475
4514992827000.0,2.5825141672551637,4.932403225249834,6.230140137824783,0.013744468,-0.1133155,0.5216789,238.0827,-48.508244,12.559815
4514997802000.0,2.546804455812792,4.924467752231846,6.111107835401399,0.083383106,-0.14172074,0.52564955,237.95319,-48.300842,12.725269
4515003850000.0,2.4696248936539806,4.958599896866272,6.097325888556215,0.12675454,-0.20189096,0.50946164,237.84775,-48.111347,12.89751
4515007935000.0,2.411571431057961,4.989334137482542,6.11098557086243,0.20861048,-0.2171626,0.50732356,237.73584,-47.95183,13.066839
4515012834000.0,2.377134475109905,5.050395567552147,6.1550460640071085,0.24037547,-0.26725355,0.5009095,237.66055,-47.807316,13.250847
4515017989000.0,2.3817522287344497,5.142750784697409,6.233548068496866,0.2843578,-0.3472769,0.48197266,237.5987,-47.69123,13.436052
4515022812000.0,2.368911569925881,5.231633012478424,6.288670652340339,0.33353242,-0.45753807,0.4801401,237.54904,-47.584923,13.625614
4515027874000.0,2.3196904170575694,5.330074855650319,6.308359051812366,0.36102137,-0.5839872,0.473726,237.52574,-47.48854,13.823685
4515032777000.0,2.287246014002719,5.420734684327054,6.331967402893766,0.36774087,-0.64843345,0.46639562,237.51306,-47.39545,14.028013
4515037973000.0,2.282413956010876,5.507712737308215,6.365792111575063,0.36560285,-0.66920286,0.44226643,237.52328,-47.311523,14.237487
4515042825000.0,2.278245678049847,5.587913799650197,6.361872221250547,0.37690386,-0.68416905,0.43188173,237.54726,-47.23677,14.451598
4515047804000.0,2.274770719217315,5.6678371633872615,6.274999157557208,0.39400807,-0.68539083,0.40561453,237.5802,-47.16941,14.652841
4515052890000.0,2.271221082619152,5.749478100918234,6.1862591692173154,0.3943135,-0.6337727,0.36010507,237.613,-47.103863,14.839381
4515057823000.0,2.256242311476914,5.746701057201101,6.288302605442871,0.4370741,-0.52564955,0.31673363,237.63766,-47.059147,15.004929
4515062806000.0,2.2319221123432884,5.678604255835287,6.541233407807563,0.48258355,-0.55771995,0.2770274,237.68994,-47.021893,15.173284
4515068006000.0,2.23544806305356,5.650316,6.681739146403564,0.46517387,-0.6542367,0.23304509,237.75897,-47.005592,15.332933
4515072829000.0,2.256448704110212,5.650316,6.736340971037556,0.44073927,-0.7312057,0.19914207,237.83633,-47.00379,15.4844265
4515077886000.0,2.2697031,5.651871094055013,6.783243008873114,0.41325033,-0.77640975,0.17256944,237.90562,-46.95554,15.626466
4515082797000.0,2.2697031,5.655664967330806,6.8135934008631125,0.3903429,-0.8200866,0.1328632,237.99988,-46.90994,15.768569
4515087814000.0,2.2697031,5.659540728321368,6.844598881745584,0.3659083,-0.88147855,0.10842858,238.09897,-46.84667,15.924968
4515092834000.0,2.353057782485195,5.681828418649001,6.939545666706815,0.32925636,-0.92087936,0.08735373,238.20845,-46.781574,16.073679
4515097818000.0,2.444083141272709,5.705782434106193,7.040152431576835,0.27763826,-1.0128145,0.076052725,238.34467,-46.71117,16.236708
4515102890000.0,2.558477732101617,5.814592192267556,7.079048425532461,0.24740042,-1.0650436,0.049785517,238.47913,-46.63099,16.396734
4515107818000.0,2.671508752886836,5.927623170900692,7.111343201616628,0.19914207,-1.0943651,0.0290161,238.62788,-46.53784,16.564087
4515112854000.0,2.792879016684348,5.989458099874626,7.135969082505546,0.14477506,-1.1142182,0.004886922,238.78407,-46.42887,16.740154
4515117946000.0,2.9198592750313432,6.012972886141383,7.154780950805286,0.095294975,-1.1459832,-0.014049901,238.9501,-46.3156,16.916256
4515122835000.0,3.0039398033483784,6.044253601333054,7.130232880287604,0.047647487,-1.2095132,-0.021380283,239.13255,-46.19893,17.119728
4515127813000.0,3.053980068048704,6.084285771292117,7.065180447349638,0.004581489,-1.3112222,-0.031154128,239.33234,-46.078945,17.326904
4515132811000.0,3.0817914458810987,6.1258805107438015,7.079680622767262,-0.022296581,-1.3817772,-0.027794369,239.53738,-45.947994,17.562023
4515137853000.0,3.0946643847418467,6.168790292011019,7.148336147338488,-0.043982297,-1.4498887,-0.03481932,239.76591,-45.816177,17.805666
4515142836000.0,3.09726170763594,6.20462965184445,7.185152314597385,-0.064446285,-1.5222762,-0.044898596,240.01369,-45.690926,18.074854
4515147802000.0,3.081420667999001,6.228391107919061,7.165351170122408,-0.07360926,-1.6401732,-0.053145275,240.28511,-45.570293,18.357546
4515153377000.0,3.060978158002039,6.253175021066939,7.142138084777438,-0.09865474,-1.749518,-0.070554934,240.56721,-45.4371,18.647266
4515157829000.0,3.0066510509683995,6.245931406795787,7.109541669283044,-0.11026118,-1.8411479,-0.09712757,240.87186,-45.314754,18.944511
4515162954000.0,2.944111423037717,6.237592789738362,7.072017718382603,-0.13316862,-1.9242256,-0.119729586,241.19768,-45.19082,19.259027
4515167980000.0,2.918177490616966,6.229004381233933,7.052609381233933,-0.1518,-2.003638,-0.15118915,241.54626,-45.077953,19.573858
4515172831000.0,2.913912289395886,6.220473978791773,7.044078978791774,-0.17867808,-2.0922134,-0.18234327,241.91571,-44.96832,19.892727
4515178133000.0,2.9412494590502063,6.203847938826844,7.002152756212899,-0.22296582,-2.2052236,-0.21074851,242.29874,-44.860966,20.222124
4515182801000.0,2.999721994637288,6.181358502062581,6.930186464634269,-0.27030787,-2.3017402,-0.23182335,242.69794,-44.75817,20.550573
4515187838000.0,3.0776669074270813,6.163481137145065,6.825982242428047,-0.2941316,-2.381458,-0.25900686,243.11003,-44.66044,20.890303
4515192850000.0,3.1750184483581227,6.154209372802781,6.686908536459339,-0.33078352,-2.408947,-0.2687807,243.52765,-44.55745,21.22754
4515197797000.0,3.286020564750804,6.136467877411576,6.5493597705787785,-0.35002577,-2.4700336,-0.28221974,243.98203,-44.460373,21.594378
4515202872000.0,3.4276470272709005,6.102282000200965,6.407733410048231,-0.37659842,-2.5302038,-0.2947425,244.43903,-44.36302,21.953733
4515207801000.0,3.5973586651198763,6.060045795436968,6.222381468097447,-0.3979787,-2.593123,-0.30085114,244.92453,-44.278637,22.344118
4515212808000.0,3.826050389017788,6.001327780935808,5.95042382349188,-0.39950588,-2.6670377,-0.31215215,245.42528,-44.204266,22.73236
4515217964000.0,4.061547598607889,5.940862415893272,5.670373171287704,-0.38698313,-2.7403414,-0.32375857,245.95642,-44.137234,23.157713
4515222791000.0,4.266283272092785,5.889216223894078,5.455215653761676,-0.35124752,-2.7574458,-0.3323107,246.48889,-44.085594,23.571426
4515227829000.0,4.434653201067433,5.849599745684081,5.366078577789183,-0.31673363,-2.7440066,-0.3378085,247.02863,-44.046467,23.978077
4515232774000.0,4.582022218902094,5.804802366610073,5.289031440860216,-0.2773328,-2.73576,-0.35246924,247.65277,-44.04148,24.449966
4515237838000.0,4.691806080135823,5.745336142275042,5.234139677419355,-0.23518312,-2.726597,-0.36193767,248.27036,-44.05125,24.905195
4515242813000.0,4.800205869299386,5.67853114638543,5.154712459858763,-0.1826487,-2.7333164,-0.37995818,248.91354,-44.07328,25.376955
4515247809000.0,4.911350853503066,5.576277668072849,4.967988700706188,-0.13744467,-2.6972754,-0.38698313,249.54082,-44.107758,25.825432
4515252943000.0,5.025186729794984,5.472061084462895,4.772654994112165,-0.10781772,-2.6316075,-0.40408736,250.1785,-44.148315,26.274565
4515257972000.0,5.131270042375466,5.38229854696713,4.531927832683836,-0.06536258,-2.5534167,-0.39950588,250.79823,-44.202866,26.704397
4515262952000.0,5.236319733497119,5.293410609657743,4.293546193409014,-0.047036625,-2.4966063,-0.39492437,251.4443,-44.258434,27.146086
4515267989000.0,5.326649338178826,5.198458665386725,3.979496924556592,-0.030543262,-2.4550674,-0.3817908,252.06926,-44.32281,27.566408
4515272847000.0,5.407464553208996,5.104882872737247,3.64772847972207,-0.004886922,-2.4275784,-0.35033122,252.67609,-44.390816,27.971697
4515277822000.0,5.485619992482652,5.004204617868157,3.221462042752506,0.017715093,-2.359467,-0.3222314,253.30182,-44.467106,28.39444
4515282803000.0,5.559177591653817,4.898465659069005,2.7065592325944485,0.025045475,-2.2785273,-0.29046643,253.90793,-44.53985,28.805485
4515287864000.0,5.714686014137359,4.838069307976263,2.079489306449079,0.07544186,-2.2061398,-0.2574797,254.54865,-44.632988,29.250332
4515293777000.0,6.026017151845712,4.843011067152457,1.1800884655641852,0.13194689,-2.1676552,-0.23823744,255.17233,-44.725006,29.678394
4515297935000.0,6.236459936966786,4.86711049471548,0.6295205922587592,0.1459968,-2.098933,-0.20066923,255.84251,-44.83495,30.14787
4515302870000.0,6.44002163579889,5.008037874985504,0.422044252604158,0.16737708,-2.057394,-0.14905111,256.50385,-44.948856,30.609514
4515307850000.0,6.645439520334631,5.150250307355256,0.2126760314329496,0.18203785,-2.0289888,-0.08093964,257.30298,-45.114994,31.156956
4515312808000.0,6.876855646901827,5.389683765023374,0.0407199503535911,0.21074851,-2.0372355,-0.0027488936,258.09277,-45.268627,31.701925
4515317999000.0,7.130386557756056,5.681244343391415,-0.1240751990607735,0.22479841,-2.021964,0.07513642,258.85895,-45.40128,32.238625
4515322889000.0,7.40479517282774,6.032031869512319,-0.2979257799300416,0.23335053,-2.0060816,0.16615535,259.6812,-45.535862,32.82349
4515327958000.0,7.74932903318463,6.524223238091858,-0.5095680576264829,0.24007004,-1.992337,0.27763826,260.48648,-45.64207,33.411053
4515332801000.0,8.066162195076265,7.032519794612433,-0.6924062766354474,0.24251351,-1.9523253,0.3817908,261.33157,-45.75453,34.026024
4515337844000.0,8.376330985683703,7.622701621291588,-0.8517984852171974,0.26358834,-1.8668042,0.49632803,262.14218,-45.832386,34.639576
4515342839000.0,8.671594332772571,8.20131236946247,-1.0039152530401343,0.2828306,-1.7605137,0.61666846,263.00092,-45.91823,35.274372
4515347810000.0,8.896601871104702,8.742856685492269,-1.122139634510935,0.32436943,-1.6245961,0.7141015,263.81168,-45.975582,35.88969
4515352890000.0,9.126543189697989,9.296275539934312,-1.2429563429944726,0.40133846,-1.4239268,0.81581056,264.6358,-46.056377,36.49568
4515357826000.0,9.280033822324269,10.27292658742494,-1.2202698226774993,0.48288897,-1.1908818,0.9068295,265.39066,-46.105892,37.072945
4515363690000.0,9.418892658777818,11.706145356764395,-1.1062074622394913,0.5867361,-0.9398162,0.9950995,266.05746,-46.1293,37.621853
4515367947000.0,9.308879373732305,12.26048819750979,-0.9925078262576564,0.72356987,-0.6588182,1.0549643,266.7015,-46.198124,38.117413
4515373048000.0,8.901744382769355,12.28992023506376,-0.8159191351139672,0.8677341,-0.36010507,1.0873401,267.2393,-46.247406,38.572594
4515377809000.0,8.473763149875104,12.00196124276066,-0.4827786119807567,1.0363328,-0.09865474,1.0705414,267.73404,-46.451054,38.857132
4515382800000.0,7.951962203497086,11.21925986936812,0.1230410287945231,1.2525792,0.14996742,0.98899084,268.1211,-46.657814,39.08516
4515387850000.0,7.440782160039254,10.34895113326791,0.7666934302571148,1.4501941,0.24709499,0.874759,268.43677,-46.87785,39.245163
4515392905000.0,6.984704532904809,9.21825776182532,1.5125707150264964,1.5308284,0.37507126,0.8011498,268.65204,-47.094685,39.35975
4515397844000.0,6.585204536649215,8.171901994764397,2.2275281059087506,1.670411,0.3817908,0.6560693,268.7226,-47.28684,39.425114
4515402880000.0,6.368770242146597,7.346746143979058,2.8993764589379207,1.7537941,0.37293324,0.50701815,268.76355,-47.486767,39.45742
4515408004000.0,6.156577501205649,6.540074663451602,3.5500294903203584,1.750129,0.36132678,0.35918877,268.62122,-47.59723,39.48926
4515412817000.0,6.037494049621081,6.111374884343782,3.831860068756459,1.7336355,0.2751948,0.22937989,268.52783,-47.741135,39.4925
4515417965000.0,5.910122013727179,5.652836246727524,4.133306945504651,1.5903877,0.19914207,0.12308934,268.27386,-47.79382,39.499554
4515422835000.0,5.760031782284814,5.281989147039749,4.2042184,1.4391985,0.13927728,0.025350908,268.06244,-47.872547,39.479908
4515427829000.0,5.596075148540721,4.923057369591402,4.2042184,1.2980887,0.121256754,-0.07971791,267.8791,-47.965595,39.43319
4515433461000.0,5.4090681435609005,4.603855104344453,4.077739866718386,1.1148291,0.10842858,-0.14813483,267.62518,-47.988407,39.41051
4515437833000.0,5.262897539565556,4.39677993716059,3.919388163537626,0.9193522,0.10567969,-0.20158553,267.38614,-48.019516,39.36473
4515442811000.0,5.056610241128321,4.2516666946473,3.7548906943904985,0.7031059,0.07360926,-0.22418754,267.13885,-48.00694,39.342327
4515447841000.0,4.809200925664072,4.193679929459915,3.6041256780996713,0.47403142,0.032375857,-0.20799962,266.899,-47.977684,39.317562
4515453119000.0,4.544890187724726,4.20631605992976,3.422508378175433,0.24953845,-0.046120327,-0.18142697,266.70422,-47.926723,39.310497
4515457844000.0,4.253538011330379,5.072805358784179,2.9873719507985617,0.064446285,-0.14110987,-0.12675454,266.5257,-47.845184,39.3205
4515462825000.0,3.946400404849904,5.986240956158542,2.528659877832595,-0.07513642,-0.24648413,-0.0711658,266.40442,-47.76013,39.33603
4515467845000.0,3.891050307914246,6.818922460569024,2.283501527509517,-0.18051068,-0.3539964,-0.0009162979,266.30856,-47.642338,39.37803
4515472955000.0,3.989101696413545,7.613139270526949,2.165839758926067,-0.23671028,-0.4373795,0.04886922,266.23547,-47.507545,39.435234
4515477825000.0,4.041101995021527,8.107830979726028,2.1401836331585127,-0.25228736,-0.5271767,0.09193522,266.3577,-47.519836,39.41414
4515482811000.0,4.071004022512721,8.466656324383562,2.1626102123209394,-0.23487769,-0.5723807,0.13469578,266.48706,-47.517067,39.409706
4515487909000.0,4.127429313636364,8.820271276136364,2.1397851692045453,-0.183565,-0.6872234,0.15790866,266.73523,-47.58384,39.377247
4515492834000.0,4.439269323966942,9.029788814876031,1.6622804204958677,-0.15363261,-0.8362745,0.16126843,267.00742,-47.644356,39.357063
4515497864000.0,4.738050593201133,9.172839056657224,1.227258310878187,-0.073303826,-0.9104946,0.22602014,267.30038,-47.729927,39.331738
4515503280000.0,4.933963525401322,8.87407173276676,1.0950169793578848,-0.0015271631,-0.8744536,0.29535335,267.60342,-47.81497,39.31075
4515508083000.0,5.108602530809206,8.607950478346943,0.9920198891610988,0.064446285,-0.83169305,0.3203988,268.0296,-47.917545,39.330254
4515512814000.0,5.291732621677802,8.331386591190299,1.066766879361544,0.12705997,-0.78954333,0.36254853,268.4301,-48.001625,39.36746
4515517843000.0,5.486397856718634,8.037402277406583,1.146222092576095,0.15668693,-0.7473936,0.39370266,268.81366,-48.039562,39.455593
4515522833000.0,5.755559273816909,7.731441735567784,1.2693787018409204,0.1731803,-0.70616025,0.41905355,269.17584,-48.071114,39.54629
4515527862000.0,6.078404671075538,7.413415222211106,1.423573376508254,0.16310102,-0.6356053,0.42730024,269.50818,-48.098274,39.631363
4515532838000.0,6.376232698810198,7.198660470103872,1.5655772536732766,0.14355333,-0.5662721,0.44440445,269.77286,-48.044083,39.78336
4515537843000.0,6.661380025864022,7.049297469726157,1.7013617221340889,0.10415252,-0.5045747,0.44959682,270.01367,-47.989735,39.92473
4515542876000.0,6.947227000350263,7.004313179568009,1.737606158260362,0.050701816,-0.47769663,0.45173484,270.17834,-47.844955,40.138813
4515547832000.0,7.227763615323993,7.070118256100408,1.668337848890835,-0.0070249503,-0.4202753,0.4447099,270.3095,-47.70279,40.33783
4515552837000.0,7.511073897394921,7.136573947796264,1.5983846833552249,-0.07880162,-0.33383787,0.43310347,270.3622,-47.49436,40.58657
4515557852000.0,7.608404672527472,7.177448626373627,1.47240771978022,-0.15668693,-0.24831672,0.40591997,270.39655,-47.295563,40.81521
4515562839000.0,7.640075713016293,7.20911933615953,1.3276270217317163,-0.21991149,-0.1777618,0.3539964,270.40826,-47.11039,41.019775
4515567829000.0,7.59956322148821,7.143830524002202,1.182868763455363,-0.2660318,-0.116675265,0.30970868,270.42603,-46.911934,41.236137
4515572865000.0,7.515486649325626,7.019928567052023,1.036841582466281,-0.2941316,-0.058948494,0.26511553,270.4237,-46.731064,41.42633
4515577802000.0,7.385356292255616,6.840024726156528,0.8449437329479947,-0.3036,-0.004581489,0.19425514,270.43954,-46.57508,41.59735
4515582810000.0,7.193494053749102,6.584208339655349,0.5891273618576265,-0.28008172,0.02321288,0.11881329,270.44827,-46.438297,41.746895
4515587845000.0,6.99560549490463,6.386132372006806,0.3910513751311901,-0.2687807,0.06352998,0.07819075,270.46024,-46.310524,41.89062
4515592846000.0,6.79402959183308,6.248889159174353,0.253808108558252,-0.21655174,0.115453534,0.009773844,270.4666,-46.219475,41.99899
4515597824000.0,6.587727831188997,6.132968608584738,0.1643862716736912,-0.15149458,0.17104226,-0.06047566,270.5018,-46.149303,42.09768
4515602733000.0,6.368725232031943,6.075610733141082,0.2061010382054126,-0.08735373,0.20311269,-0.12156218,270.53134,-46.10087,42.175564
4515607725000.0,6.190170827163547,6.029952933168492,0.2651618504062168,-0.042760566,0.21563543,-0.18142697,270.57645,-46.08422,42.229668
4515612701000.0,6.06813165881314,6.000495224090427,0.3451185420628753,-0.013744468,0.20372356,-0.23823744,270.62354,-46.08706,42.26602
4515617716000.0,5.961881013294486,5.9893361507823455,0.4448776421560375,0.009468411,0.18570304,-0.27855456,270.65228,-46.110302,42.280697
4515622720000.0,5.936024583381893,6.066905386522067,0.636215342304953,0.018936822,0.16646078,-0.31612277,270.69055,-46.148426,42.281143
4515627684000.0,5.938304257142858,6.183670256043956,0.8058198461538462,0.024740042,0.14721853,-0.3475823,270.70584,-46.19313,42.271667
4515632693000.0,6.001756891005291,6.388671277004477,0.9327252158119658,0.021380283,0.12339478,-0.3555236,270.73145,-46.24002,42.260338
4515637705000.0,6.0648206627744505,6.595778043742515,1.0487654696407185,0.011911872,0.122478485,-0.35521814,270.72113,-46.29935,42.22402
4515642702000.0,6.126908637125748,6.805921193532933,1.1442850695808382,-0.012217305,0.13713925,-0.33444872,270.7125,-46.35188,42.193123
4515647693000.0,6.176555567219423,6.953791833696747,1.1960708188364635,-0.030543262,0.11911872,-0.312763,270.6944,-46.41524,42.147064
4515652815000.0,6.203519671039853,6.985249970462666,1.1646125412918005,-0.06627888,0.10140363,-0.28099802,270.6676,-46.465202,42.110344
4515657771000.0,6.228828120570949,7.023234198641325,1.133134121059461,-0.09743301,0.08582657,-0.24281894,270.6368,-46.515812,42.068142
4515662746000.0,6.250648361964736,7.095968691046485,1.0967669887794824,-0.122783914,0.10262536,-0.22204952,270.59872,-46.558815,42.030468
4515669158000.0,6.2787712539882445,7.189712121257919,1.0498954205022517,-0.15027285,0.122783914,-0.19333886,270.56638,-46.586926,42.00925
4515672843000.0,6.299849983172209,7.257063865505152,1.0060317416817168,-0.18661933,0.14477506,-0.17928895,270.52594,-46.610016,41.98949
4515677745000.0,6.329773743014979,7.351822499096993,0.9411967377403592,-0.22021692,0.15088372,-0.17195857,270.48178,-46.62456,41.97629
4515682742000.0,6.34278459726806,7.354332640997433,0.8958651474559957,-0.2312125,0.16310102,-0.16218472,270.44214,-46.644253,41.958908
4515688405000.0,6.347756594976164,7.304613702236891,0.856089970489549,-0.25350907,0.22235495,-0.15607607,270.38187,-46.659256,41.94002
4515692798000.0,6.314210671052631,7.255252814894737,0.8402438298947369,-0.28221974,0.24465153,-0.1600467,270.3491,-46.687096,41.913006
4515697776000.0,6.243955371052631,7.190015705694737,0.8352255866947368,-0.2938262,0.27366763,-0.16890424,270.29108,-46.713367,41.883213
4515702815000.0,6.168636952600495,7.1277315547913895,0.7919667184606591,-0.30115658,0.34025195,-0.18203785,270.21164,-46.736294,41.85437
4515707840000.0,6.090707665355305,7.068138683053915,0.7232058304343685,-0.32070425,0.41233405,-0.21410827,270.12143,-46.7646,41.816475
4515712806000.0,5.933535278856233,6.996290322491577,0.7299473746630476,-0.34055737,0.47403142,-0.24648413,270.0061,-46.79538,41.772144
4515717819000.0,5.695379913908648,6.910913874447773,0.8108303279108948,-0.34238997,0.4831944,-0.29840767,269.8882,-46.839287,41.71345
4515722808000.0,5.511988935012595,6.889975745854325,0.9003917140848027,-0.34666604,0.5119051,-0.35643986,269.75897,-46.897446,41.63738
4515727778000.0,5.4220707435768265,6.979893885128043,1.005296375083963,-0.37293324,0.5476407,-0.4025602,269.62778,-46.963367,41.55104
4515732767000.0,5.317816887191054,7.059804788177803,1.1096829128089465,-0.39522982,0.58246,-0.47067168,269.46936,-47.068695,41.41525
4515737806000.0,5.195370276346208,7.127830814632084,1.213989123653792,-0.42394048,0.61911196,-0.50915617,269.29984,-47.173653,41.275425
4515742767000.0,5.117396497044442,7.264339743742246,1.311474498912647,-0.453262,0.6640105,-0.5510005,269.1057,-47.313004,41.089676
4515747773000.0,5.127892328789316,7.54772727391812,1.398939836517551,-0.49296826,0.7367035,-0.6084218,268.89453,-47.460903,40.88847
4515752870000.0,5.138578955717726,7.836266275377654,1.487995135313435,-0.5558874,0.81031275,-0.6789767,268.65265,-47.63949,40.641132
4515758722000.0,5.185918943429238,7.844412870771773,1.6666249941290825,-0.6444628,0.86834496,-0.70066243,268.3941,-47.81078,40.3921
4515762872000.0,5.232276476477449,7.732382596180016,1.821149727799378,-0.713796,0.7706065,-0.7892379,268.18137,-48.01148,40.11512
4515767932000.0,5.064099301794942,7.281467359042698,1.9154629760674464,-0.73548174,0.70646566,-0.8008443,267.9318,-48.22726,39.80743
4515772878000.0,4.720580882231892,6.590136453920769,1.932638881352552,-0.7360926,0.6420194,-0.8072584,267.72943,-48.455685,39.489277
4515777855000.0,4.483393840719521,6.073611556542253,1.938672827146348,-0.73273283,0.6081163,-0.8347474,267.49274,-48.65605,39.18497
4515782868000.0,4.459124652885668,5.907772190816412,1.9224933685904455,-0.7153232,0.57604593,-0.8524625,267.2827,-48.8503,38.891735
4515788231000.0,4.445737922269466,5.748972771033749,1.902628808238108,-0.6918049,0.6218608,-0.8881981,267.01093,-49.007687,38.619526
4515792820000.0,4.733819114713438,6.056518941323412,1.8247689781557268,-0.6575964,0.6627888,-0.90224797,266.7561,-49.16085,38.355812
4515797781000.0,5.0452531516963415,6.388995853680574,1.7405975645495615,-0.6411031,0.6973027,-0.91813046,266.48004,-49.302185,38.10083
4515802970000.0,5.20731860689847,6.547962586091794,1.7594498641446452,-0.6059783,0.72234815,-0.9416488,266.19922,-49.448624,37.842346
4515807883000.0,5.29457111808994,6.622127247936949,1.820526539981456,-0.5739079,0.7993172,-0.9660834,265.89423,-49.595238,37.577415
4515812807000.0,5.274845736098038,6.646736954391262,1.8711835395169167,-0.52381694,0.890947,-0.9795224,265.62555,-49.748737,37.326054
4515817848000.0,5.163381754799751,6.629588467072196,1.914054243015718,-0.46822822,0.9691377,-1.0002918,265.342,-49.909023,37.066345
4515822837000.0,5.033524919474497,6.598882519670273,2.000164201040701,-0.40317106,1.0668762,-1.0299188,265.01434,-50.074345,36.79518
4515827863000.0,4.854979182534776,6.534407665904173,2.1935889694899537,-0.3549127,1.1563679,-1.0806206,264.67175,-50.249043,36.512512
4515832848000.0,4.661722484978124,6.493075,2.432499491424404,-0.2846632,1.2678508,-1.1548407,264.2885,-50.45705,36.187
4515837837000.0,4.438739893971804,6.493075,2.75768265694701,-0.23640485,1.3289373,-1.2247849,263.90253,-50.673553,35.85197
4515842784000.0,4.175783514053762,6.530941654699621,3.03560241354862,-0.1600467,1.357648,-1.2913691,263.46896,-50.91708,35.468548
4515847952000.0,3.791840272632149,6.669339725058633,3.2097161841421613,-0.106595986,1.3726143,-1.3472633,263.03302,-51.171104,35.072346
4515852882000.0,3.4218652704975923,6.806545565971108,3.3715003410914925,-0.03726278,1.3860532,-1.4104879,262.5409,-51.45951,34.607323
4515857888000.0,3.00632109423221,7.001492437453184,3.48949435917603,0.023518313,1.3909402,-1.4514158,262.0593,-51.752518,34.14085
4515862852000.0,2.623016074697134,7.195511845799271,3.612457793597952,0.0729984,1.412015,-1.4963144,261.56378,-52.123795,33.56686
4515867908000.0,2.34164113432483,7.395812409415936,3.760298858898848,0.119729586,1.4349225,-1.5271631,261.07877,-52.497955,32.994293
4515872834000.0,2.07974620098057,7.579055552351552,3.909978807989831,0.14508049,1.4517213,-1.5534303,260.59546,-52.943676,32.327038
4515877917000.0,1.867599115053568,7.711647642582168,4.091187804140185,0.15363261,1.4880677,-1.5818355,260.11227,-53.388725,31.657194
4515883174000.0,1.6503641492068792,7.8483461107029555,4.277844147603941,0.1441642,1.5378532,-1.5925257,259.6156,-53.87496,30.917343
4515887910000.0,1.5026871445650358,7.961943684922358,4.429307579896477,0.12583824,1.5543466,-1.6065756,259.13235,-54.35423,30.179932
4515892832000.0,1.349210325129404,8.080002650358992,4.586719533811988,0.11942416,1.5824465,-1.6181821,258.6129,-54.85261,29.384224
4515897863000.0,1.355733448136765,8.356082269688821,4.783112653495966,0.10842858,1.5876387,-1.6206255,258.10822,-55.331806,28.599981
4515902979000.0,1.4827853674606224,8.751354689204764,5.008982481156358,0.080634214,1.4318681,-1.6801848,257.66315,-55.806686,27.823137
4515907828000.0,1.3608603092243186,8.972353918238994,5.161125759224318,0.08735373,1.4584408,-1.6487253,257.1356,-56.26934,27.011406
4515912812000.0,0.9956245348008388,9.047402300628931,5.256187304800839,0.06780604,1.4834863,-1.6514742,256.67798,-56.726223,26.204113
4515918009000.0,0.7561257769440015,9.185008667292,5.377018199080762,0.049785517,1.4682146,-1.6685784,256.218,-57.16506,25.399796
4515922821000.0,0.6221241474533346,9.349268889409998,5.502374432567302,0.04153884,1.4123205,-1.6865989,255.77448,-57.58247,24.611622
4515927849000.0,0.4814858633553543,9.582248116140608,5.713217721588777,0.012217305,1.3396275,-1.7040086,255.34082,-58.018166,23.765175
4515932862000.0,0.3405261336612022,9.887660469945354,6.018630525136612,-0.0018325958,1.2712106,-1.7217237,254.93512,-58.436176,22.935778
4515938128000.0,0.2068313432358124,10.206877230877687,6.32849031741276,-0.05497787,1.1866057,-1.7547104,254.55174,-58.845848,22.081127
4515942854000.0,0.2945754136658441,10.470109767007402,6.44814124303842,-0.10048734,1.0900891,-1.7864754,254.20306,-59.232803,21.248466
4515947780000.0,0.3860327329502996,10.744482063447304,6.572855686464575,-0.16249016,0.98837996,-1.8106046,253.86234,-59.59449,20.375744
4515952897000.0,0.5878870972788166,11.00784339352498,6.63125305428412,-0.22693644,0.90102625,-1.8298469,253.55872,-59.9235,19.525331
4515957848000.0,0.8216746944757652,11.254864162991906,6.662130823192855,-0.29993483,0.86467975,-1.8487836,253.28186,-60.2147,18.69391
4515962806000.0,1.0025329629691309,11.443500147928514,6.634578455385865,-0.35002577,0.81183994,-1.847562,253.04115,-60.475845,17.886938
4515968042000.0,1.153250584951259,11.598291365150285,6.561256250609261,-0.40744713,0.75441855,-1.8481728,252.82275,-60.69657,17.099396
4515972865000.0,1.2825859375334303,11.732283229617178,6.499850452456637,-0.47158796,0.7370089,-1.8570304,252.62341,-60.88191,16.35725
4515977843000.0,1.3517991564071217,11.812424579200734,6.477993696546191,-0.49632803,0.7147123,-1.8551978,252.44633,-61.03901,15.643802
4515982797000.0,1.4206786835867655,11.892179550240696,6.456242316718882,-0.5119051,0.68477994,-1.8509218,252.2937,-61.178783,14.972109
4515987867000.0,1.4904782848906966,11.960046783934926,6.395471487239451,-0.5335908,0.70707655,-1.8558086,252.13832,-61.293175,14.311804
4515992933000.0,1.559540356044738,12.014309902389424,6.296811459176411,-0.54825157,0.71929383,-1.8664987,251.99777,-61.38785,13.672009
4515997859000.0,1.771752833606557,12.000227184881602,6.220563456557377,-0.5458081,0.7119634,-1.8341229,251.85751,-61.46757,13.068039
4516002876000.0,2.1086933199180327,11.930213533424409,6.159301363032787,-0.58184916,0.70371675,-1.7815884,251.71591,-61.517483,12.479988
4516007793000.0,2.283142434597066,11.899996839207468,6.163600912954848,-0.600786,0.67073005,-1.7305813,251.58269,-61.570995,11.925528
4516013499000.0,2.132188677271861,11.952049821489808,6.314554833339684,-0.61911196,0.6783658,-1.672549,251.43512,-61.595642,11.395277
4516017861000.0,2.0169462314624824,11.959981345604506,6.411571048695769,-0.6062838,0.57879484,-1.6630806,251.31654,-61.595543,10.962443
4516022841000.0,1.8858262676725004,11.876832075839872,6.469135848132502,-0.6200282,0.54458636,-1.6526959,251.17278,-61.569687,10.544939
4516027823000.0,1.7546536452625223,11.793649412794206,6.526723765962583,-0.6469063,0.5821546,-1.6404786,251.0177,-61.53159,10.115326
4516032840000.0,1.620661816539717,11.698849053681538,6.590010075299238,-0.6536258,0.57971114,-1.6328428,250.88252,-61.48833,9.705868
4516037843000.0,1.4816331283460282,11.57285447796518,6.668213797470076,-0.7086037,0.57696223,-1.6245961,250.73743,-61.41775,9.303763
4516042869000.0,1.3469368199411476,11.434351358018636,6.745464980058853,-0.7800749,0.5674938,-1.6087136,250.57565,-61.325188,8.882114
4516047879000.0,1.2904623013536043,11.10962276557136,6.801939498646395,-0.84971356,0.52626044,-1.5870279,250.42259,-61.211376,8.477626
4516052868000.0,1.2334299401639344,10.787346314754098,6.857653086229509,-0.9184359,0.50488013,-1.5525141,250.24446,-61.058147,8.063563
4516057841000.0,1.1397405224043715,10.516687936393442,6.888882874032787,-0.99173975,0.52290064,-1.498147,250.06314,-60.87701,7.668822
4516062902000.0,1.0491730282030032,10.23688629777691,6.884902339118565,-1.0549643,0.44806966,-1.4895949,249.88316,-60.64926,7.2938952
4516068014000.0,0.977571059521256,9.936158542706709,6.732151432722309,-1.1029172,0.37843102,-1.473407,249.69122,-60.398796,6.938977
4516072896000.0,0.9162785260713016,9.648400045608108,6.581380175542319,-1.1270463,0.3549127,-1.4553864,249.48447,-60.11754,6.5893297
4516077829000.0,0.8952781687944523,9.354394912162162,6.400777247688477,-1.1236867,0.32467487,-1.4340062,249.29645,-59.82925,6.26167
4516083744000.0,0.8693044794099472,9.001687739459783,6.187766441144224,-1.1120802,0.28985557,-1.3869696,249.09616,-59.536503,5.9463024
4516087872000.0,0.8417223626034087,8.75344900089704,6.081378175221769,-1.074512,0.2678644,-1.3759739,248.90431,-59.25326,5.6356854
4516092794000.0,0.8088349646087909,8.457462791787101,5.954526662414033,-1.0626001,0.258396,-1.3561208,248.69244,-58.969906,5.346286
4516097832000.0,0.7419032888704354,8.221432572234642,5.745506831342489,-1.0424415,0.2706133,-1.3472633,248.48282,-58.700016,5.0620713
4516103048000.0,0.6639876050598362,7.991275082773462,5.5295270822380855,-1.010982,0.36346483,-1.3035865,248.2498,-58.434868,4.785712
4516107709000.0,0.5187259498593324,7.869442972076422,5.613872589124502,-0.98715824,0.3378085,-1.2938126,248.03027,-58.172905,4.520051
4516112730000.0,0.3731546116513852,7.744569357744258,5.688656239120576,-0.9645562,0.27672195,-1.3051136,247.81699,-57.92952,4.239923
4516117965000.0,0.3682118385073449,7.700084296223997,5.550258487863551,-0.9633345,0.2574797,-1.2962561,247.59785,-57.68569,3.9697106
4516122899000.0,0.3602131771745651,7.658110652069586,5.424861731163767,-0.95539325,0.2764165,-1.2867876,247.36932,-57.436016,3.6747973
4516127701000.0,0.3142345504879024,7.616729721935613,5.360491742141572,-0.9639453,0.30940324,-1.2705997,247.14249,-57.18145,3.389547
4516132877000.0,0.30322210739507,7.580547816217759,5.259248480650995,-0.95814216,0.36957347,-1.2525792,246.90427,-56.95045,3.099232
4516137722000.0,0.77132528461026,7.651204950033311,4.769065024050633,-0.9621128,0.4990769,-1.1914927,246.63522,-56.712574,2.8122265
4516142699000.0,1.252181737241839,7.723787107928048,4.265526724050632,-0.93859446,0.57757306,-1.1585059,246.38008,-56.489174,2.5149333
4516147694000.0,0.9145600631899392,7.732364467562879,4.586155252992194,-0.92057395,0.61727935,-1.1508701,246.10121,-56.262035,2.217093
4516152856000.0,0.5072426530008673,7.73665210624458,4.976322314397224,-0.8940013,0.6056729,-1.14018,245.81407,-56.043224,1.9287125
4516157758000.0,0.2512233677872184,7.725189329596647,5.242798496406495,-0.8738427,0.55863625,-1.1374311,245.53363,-55.911427,1.7339219
4516162759000.0,0.0605521070587742,7.705118789313777,5.4585580357045576,-0.8426886,0.5479461,-1.1071932,245.24657,-55.790165,1.5483156
4516167856000.0,-0.0432529976087636,7.717362921752739,5.590202492018779,-0.8032878,0.5235115,-1.0864239,244.97528,-55.618515,1.2824954
4516172770000.0,-0.1122970560788341,7.740377590766823,5.686864390258216,-0.7861836,0.4999932,-1.070236,244.70642,-55.44894,1.0293665
4516177756000.0,-0.0343604259924242,7.675966790530303,5.704889584621212,-0.75136423,0.45906523,-1.0354166,244.4406,-55.26501,0.76040685
4516182745000.0,0.1104234815814393,7.571903148200758,5.68679151467803,-0.7125743,0.41141775,-1.0183123,244.18628,-55.086975,0.50131667
4516187773000.0,0.0052625741670855,7.538511263798131,5.737538540323716,-0.677755,0.4269948,-0.9602802,243.91234,-54.908527,0.24169034
4516192763000.0,-0.2829947814175128,7.557728307127777,5.838428544546095,-0.63804877,0.37507126,-0.9560041,243.67555,-54.742626,-0.002510094
4516197746000.0,-0.4753027251015483,7.523517318922179,5.930750987944903,-0.61208695,0.27855456,-0.9578367,243.42679,-54.57832,-0.19242212
4516202812000.0,-0.6021294799095114,7.450348101950532,6.01855399737583,-0.58123827,0.22937989,-0.945314,243.18115,-54.426918,-0.37325707
4516207791000.0,-0.7173357092491298,7.419150591367479,6.023797043391348,-0.54733527,0.21044308,-0.93218035,242.98837,-54.261566,-0.5992815
4516212769000.0,-0.8263846040278469,7.414409436240676,5.976384551476877,-0.5311473,0.17837265,-0.93034774,242.81271,-54.10021,-0.8100362
4516217856000.0,-0.9221629089855604,7.38844512958705,5.962107847714522,-0.5027421,0.16462818,-0.9230174,242.63608,-53.930878,-1.0364232
4516222778000.0,-1.0045324635519175,7.3494279245102545,5.970778317612434,-0.4783075,0.14874569,-0.91324353,242.46921,-53.765358,-1.2513661
4516227922000.0,-1.06562632259542,7.322197868187023,5.97795694471374,-0.45265114,0.1328632,-0.9230174,242.33218,-53.608883,-1.4882998
4516232782000.0,-1.0922732203053436,7.313315661698473,5.982398001583969,-0.44104472,0.10323623,-0.93401295,242.20218,-53.455517,-1.7133026
4516237778000.0,-1.1168768842762389,7.313070915431135,5.973569493757315,-0.44012842,0.09896017,-0.93462384,242.07538,-53.298653,-1.9558083
4516242783000.0,-1.1355783606710883,7.33177248946547,5.936166736246586,-0.4334089,0.12217305,-0.9315695,241.95164,-53.146633,-2.1945195
4516247727000.0,-1.1480555950524738,7.35470059107946,5.917018410382309,-0.45478916,0.13927728,-0.9315695,241.8501,-52.980762,-2.4343934
4516252792000.0,-1.1435103840329834,7.391062089392803,5.948834792597451,-0.46028697,0.15515977,-0.9398162,241.74533,-52.82142,-2.67409
4516257826000.0,-1.145130413925057,7.4302606388033,5.980045190736507,-0.4633413,0.16279559,-0.93187493,241.64905,-52.66277,-2.914137
4516262767000.0,-1.1827561215584932,7.486699323029519,6.008264336407912,-0.4709771,0.17379116,-0.9260717,241.55093,-52.501373,-3.1546586
4516268264000.0,-1.2195695461538465,7.554351009615384,6.054107090384616,-0.46883908,0.19150625,-0.9239337,241.44965,-52.342537,-3.3913484
4516272810000.0,-1.2332946825977302,7.626408047604035,6.13988940813367,-0.4999932,0.21319197,-0.91965765,241.34451,-52.17285,-3.623792
4516277770000.0,-1.2482697544766708,7.705027253152585,6.233483841929383,-0.5119051,0.23060162,-0.9193522,241.24103,-52.011,-3.8630874
4516282770000.0,-1.2750860805236564,7.766281039963252,6.339512722847956,-0.54153204,0.22907446,-0.91965765,241.13736,-51.836105,-4.0968475
4516287825000.0,-1.310665896554892,7.815203316031235,6.4551469275792375,-0.5626069,0.22907446,-0.9245446,241.03119,-51.660965,-4.3297977
4516292776000.0,-1.3907424621651632,7.878603186710618,6.575956478265093,-0.5757405,0.21624629,-0.91538155,240.92828,-51.475845,-4.5559034
4516297816000.0,-1.5381229046356697,7.965691483726578,6.70993877500347,-0.5876524,0.20311269,-0.9306532,240.83163,-51.28547,-4.78351
4516302928000.0,-1.687608781998612,8.054023899271339,6.845835104552394,-0.6105598,0.1826487,-0.9431759,240.7445,-51.077713,-5.0097713
4516307890000.0,-1.841981198195378,8.080316973344996,6.958049718230366,-0.634689,0.17440203,-0.95356065,240.66074,-50.867672,-5.2337065
4516313109000.0,-2.012251974182856,8.057307434996776,7.0592918791731885,-0.6545421,0.14721853,-0.9636399,240.58868,-50.654057,-5.448383
4516318102000.0,-2.2275758877141967,8.013307636587392,7.163422835486551,-0.66645396,0.12156218,-0.9783007,240.5232,-50.418762,-5.70135
4516322851000.0,-2.50152483052238,7.942458859653131,7.272057653089625,-0.6582073,0.13622294,-0.95294976,240.4497,-50.187534,-5.944205
4516327821000.0,-2.7208712661575016,7.877812651493551,7.3393806017651055,-0.65270954,0.124005646,-0.98654735,240.40515,-49.927185,-6.2228966
4516332807000.0,-2.854590590291921,7.825135290699253,7.347484798099118,-0.6630942,0.07422013,-1.0170907,240.36084,-49.668816,-6.4845495
4516338647000.0,-2.9875367617866435,7.774333716253252,7.345837727597572,-0.6429357,0.06627888,-1.0348058,240.31616,-49.388794,-6.8075037
4516342833000.0,-3.018828691066782,7.767380018733738,7.314545762012142,-0.63285637,0.051923547,-1.0274754,240.28497,-49.105907,-7.1134515
4516347781000.0,-3.0558168578317435,7.759160502411102,7.277557552333045,-0.6273586,0.05009095,-1.006095,240.26743,-48.81211,-7.4461427
4516352869000.0,-3.1015084443919254,7.720283271294929,7.235559142727721,-0.59589905,0.052534413,-0.9868528,240.25082,-48.531864,-7.7675853
4516357831000.0,-3.14830335375677,7.673488508517972,7.193443905091088,-0.5900958,0.044593163,-0.9621128,240.23154,-48.250717,-8.073026
4516362818000.0,-3.1794466670818027,7.585043865746797,7.144404266669653,-0.5726862,0.038179077,-0.9251554,240.2154,-47.98729,-8.376564
4516368056000.0,-3.2064137082609085,7.477175325580145,7.090469761929934,-0.56413406,0.026267206,-0.8979719,240.19891,-47.726917,-8.666916
4516372890000.0,-3.1893803080716565,7.356658885926079,7.041840582230001,-0.5314528,0.025045475,-0.88331115,240.18027,-47.479942,-8.960179
4516377837000.0,-3.135726418346546,7.215207689694225,6.993064374405436,-0.51893,0.018325957,-0.8512407,240.15643,-47.235474,-9.233712
4516382811000.0,-3.2177840794613104,7.113752270214736,6.956869261430951,-0.48563787,0.0125227375,-0.8145888,240.13712,-47.000366,-9.508492
4516387891000.0,-3.406909084644576,7.041704384987042,6.929851457284339,-0.4654793,0.027794369,-0.75808376,240.10416,-46.771404,-9.768652
4516392872000.0,-3.5252445885859225,6.971087297463539,6.925011022447685,-0.45478916,0.03176499,-0.7535023,240.08067,-46.54182,-10.019945
4516397809000.0,-3.550229189663918,6.901130758814205,6.949995466994293,-0.45814893,0.04917465,-0.7305948,240.0362,-46.3218,-10.255518
4516402875000.0,-3.6125660198175416,6.855208268223286,6.985062863553428,-0.42730024,0.064751714,-0.713796,239.99744,-46.100124,-10.53084
4516408728000.0,-3.7239530877246874,6.829893025517117,7.035693348965767,-0.4147775,0.09743301,-0.698219,239.94707,-45.876392,-10.802234
4516412796000.0,-3.797236291544256,6.82135031539548,7.056774485348399,-0.4111123,0.106901415,-0.6792821,239.90294,-45.649025,-11.070708
4516418049000.0,-3.882502374199624,6.830824264124294,7.052037486252354,-0.3915646,0.111177474,-0.655153,239.84903,-45.433434,-11.334163
4516422877000.0,-3.951332567421244,6.848505313914833,7.047107558144689,-0.37812558,0.11453723,-0.6374379,239.7989,-45.20523,-11.611967
4516427901000.0,-3.981798828747824,6.905629553902169,7.039490992813044,-0.3549127,0.12858713,-0.6041457,239.73795,-44.990704,-11.87825
4516432782000.0,-4.01139791742916,6.961127845179674,7.032091220642711,-0.34330627,0.1554652,-0.57360244,239.67836,-44.775864,-12.15431
4516437837000.0,-4.062090413879631,6.996811876102726,7.047759915310723,-0.3323107,0.1695151,-0.54153204,239.61188,-44.57239,-12.417298
4516442828000.0,-4.122997149441286,7.020237581258577,7.075870859341306,-0.31398472,0.17501289,-0.49541172,239.53299,-44.380096,-12.668816
4516447820000.0,-4.163478060779816,7.026987241399082,7.091614367545872,-0.30268374,0.16737708,-0.46609017,239.45935,-44.198925,-12.916608
4516453473000.0,-4.194520476736567,7.022552544397117,7.100483483715596,-0.29229903,0.15241088,-0.43035457,239.37599,-44.029045,-13.147725
4516457849000.0,-4.200728464025809,7.014199074574236,7.104123753860004,-0.28069258,0.14049901,-0.398895,239.29254,-43.862785,-13.378814
4516462828000.0,-4.125603426363568,6.982002736589392,7.093391616295296,-0.2648101,0.12095132,-0.37782016,239.20934,-43.70466,-13.594999
4516467882000.0,-4.049346760297096,6.949321416610399,7.082497817690749,-0.26511553,0.11789699,-0.35002577,239.12387,-43.545685,-13.804551
4516472853000.0,-4.0283154698513215,6.9246746219713655,7.0951269892621145,-0.25228736,0.106595986,-0.3042109,239.03673,-43.40007,-13.995869
4516478377000.0,-4.062301808874817,6.9052539292400885,7.133968881699706,-0.2302962,0.0720821,-0.2574797,238.94978,-43.261375,-14.171634
4516482816000.0,-4.0797195,6.882991236211031,7.155413702398082,-0.18387043,0.032375857,-0.23335053,238.86707,-43.13688,-14.317508
4516487836000.0,-4.0797195,6.844561500999201,7.160217362869704,-0.17470746,-0.015577064,-0.19822577,238.78186,-43.015408,-14.439947
4516492887000.0,-4.031416778926187,6.805513034784597,7.141495817652977,-0.14538592,-0.04917465,-0.14966199,238.6965,-42.90852,-14.554892
4516497809000.0,-3.889139105003202,6.766710045083691,7.076823853013812,-0.13988814,-0.08093964,-0.11759156,238.6174,-42.80092,-14.654199
4516502878000.0,-3.736371308810824,6.7285120568342975,7.008987351862418,-0.108123146,-0.080634214,-0.07666359,238.53172,-42.70927,-14.743407
4516507851000.0,-3.550046224745293,6.701339672385688,6.9352338179965765,-0.11453723,-0.08735373,-0.04550946,238.44995,-42.612293,-14.818452
4516512788000.0,-3.365069964936018,6.674363991303285,6.86201419268074,-0.113926366,-0.07819075,-0.024129177,238.36841,-42.538628,-14.862955
4516517886000.0,-3.1863377277294687,6.654761293429952,6.816447214782609,-0.12705997,-0.0842994,-0.015577064,238.28821,-42.46218,-14.898624
4516522864000.0,-3.0174467730112724,6.639407570273752,6.785739808550725,-0.12980886,-0.06872234,0.003970624,238.19553,-42.392666,-14.933559
4516527812000.0,-2.839338357901312,6.608839439055947,6.762058019371821,-0.13652839,-0.04337143,0.020463986,238.09764,-42.339394,-14.931766
4516532802000.0,-2.617602830106184,6.515028151467833,6.766322160712055,-0.13133603,-0.01740966,0.035124753,237.9938,-42.290752,-14.930191
4516542831000.0,-2.339995348765159,6.408346075728069,6.823546575506772,-0.12644911,0.018325957,0.056505036,237.8789,-42.2559,-14.893326
4516547798000.0,-2.29367786491989,6.399924774984509,6.8782853600956,-0.116980694,0.023518313,0.07360926,237.76462,-42.224785,-14.854738
4516552924000.0,-2.250666758257646,6.38458997047266,6.904838714050047,-0.13347405,0.030848695,0.082161374,237.6434,-42.18671,-14.776273
4516557925000.0,-2.2107184550880445,6.366835122715477,6.918154768758109,-0.118507855,0.03268129,0.09743301,237.51978,-42.16186,-14.695552
4516562805000.0,-2.175557100088054,6.3589997,6.934049388083358,-0.1255328,0.03756821,0.10262536,237.39655,-42.121037,-14.608006
4516567876000.0,-2.142297373094609,6.3589997,6.953054896751786,-0.124311075,0.04795292,0.10842858,237.27145,-42.087925,-14.521909
4516572827000.0,-2.123691339123506,6.36843916814741,6.964698260876494,-0.13225232,0.0571159,0.11911872,237.14998,-42.049057,-14.430636
4516577821000.0,-2.118927739601593,6.387493615976095,6.969461860398407,-0.13897185,0.056199603,0.116675265,237.03299,-42.01016,-14.344078
4516582845000.0,-2.1226789922846576,6.403511570688743,6.967778826739475,-0.14263703,0.065973446,0.11911872,236.91528,-41.96993,-14.253143
4516587898000.0,-2.135465209582526,6.416297743482473,6.959254726378369,-0.14538592,0.055588737,0.13072516,236.80334,-41.928925,-14.1599045
4516592819000.0,-2.151171613948854,6.422627683128528,6.95446649508469,-0.14874569,0.05222898,0.13591751,236.68967,-41.889084,-14.071433
4516597864000.0,-2.1792523754898707,6.406581491788443,6.962489527922617,-0.14172074,0.049480084,0.14019357,236.57858,-41.852478,-13.98214
4516602856000.0,-2.207038135968117,6.390703872924278,6.970428275182663,-0.14782938,0.04062254,0.14630222,236.46158,-41.8177,-13.898988
4516607832000.0,-2.208466436608449,6.372626225290272,6.937931529476046,-0.15699236,0.032375857,0.13805555,236.35013,-41.783115,-13.820219
4516612784000.0,-2.203839222870524,6.354117466972387,6.896286605834716,-0.15607607,0.020463986,0.14355333,236.23978,-41.75152,-13.737784
4516617879000.0,-2.233913841845311,6.321646752800076,6.851003691000094,-0.15668693,0.008552114,0.1441642,236.13489,-41.7116,-13.66827
4516622868000.0,-2.2745227187836434,6.285549931419398,6.805882664274247,-0.15790866,0.014966198,0.13713925,236.03183,-41.671867,-13.603098
4516627958000.0,-2.296938111204056,6.235095347714407,6.757630383312209,-0.16249016,0.006414085,0.13255776,235.9318,-41.63526,-13.535961
4516632823000.0,-2.3087482840811155,6.179981207621462,6.7103897329108575,-0.1554652,0.018020526,0.13469578,235.82895,-41.60174,-13.476711
4516637862000.0,-2.3291500224441326,6.098263269545504,6.659135483525856,-0.15057829,0.013133603,0.13103059,235.7435,-41.562405,-13.42873
4516642918000.0,-2.370968431512469,5.951899192594191,6.601635177879737,-0.13225232,0.027794369,0.12308934,235.65414,-41.52883,-13.389329
4516647776000.0,-2.414897033969319,5.8931592010162985,6.556519593154363,-0.11026118,0.03726278,0.118507855,235.56712,-41.495026,-13.357711
4516652871000.0,-2.4663573644103547,5.949297698906999,6.523772079060403,-0.10323623,0.03573562,0.12675454,235.4801,-41.462864,-13.327067
4516657792000.0,-2.5026041192149973,5.98397522231986,6.508766954393673,-0.09254608,0.045814894,0.13408493,235.38956,-41.42162,-13.314721
4516663870000.0,-2.513970608260105,5.978292096485061,6.531499991827768,-0.087964594,0.041233405,0.12522738,235.3056,-41.380287,-13.301324
4516667868000.0,-2.5176763538786204,5.978998627674283,6.538911497067384,-0.08307768,0.05131268,0.12614368,235.2196,-41.35206,-13.298689
4516672901000.0,-2.5141688561053708,5.989521084369088,6.531896464895939,-0.087964594,0.042455133,0.124005646,235.14226,-41.32154,-13.293841
4516677891000.0,-2.5106913250327465,5.999953641274924,6.524941366438655,-0.081855945,0.03940081,0.12736541,235.06429,-41.290684,-13.289652
4516682861000.0,-2.506532658925908,6.025382801541522,6.53216786429637,-0.07880162,0.04337143,0.13836098,234.98676,-41.258423,-13.284475
4516687881000.0,-2.501751402237693,6.06363280512183,6.551292891049229,-0.07880162,0.05955936,0.13530666,234.91101,-41.226303,-13.283785
4516692823000.0,-2.5030846834751426,6.086579293685395,6.579572583004008,-0.08246681,0.0693332,0.13805555,234.83205,-41.19926,-13.277793
4516697972000.0,-2.510019630834681,6.096981750931721,6.617714938309542,-0.0852157,0.06078109,0.13561209,234.75668,-41.171886,-13.273362
4516702865000.0,-2.5166097837634487,6.106867014731735,6.653960917045215,-0.06658431,0.0693332,0.13530666,234.67847,-41.15283,-13.270247
4516707908000.0,-2.552878482434944,6.134859620436803,6.68410041866171,-0.07360926,0.08124508,0.13561209,234.60297,-41.12601,-13.266861
4516712893000.0,-2.601683763568773,6.1703545346096655,6.71072143055762,-0.06291912,0.08735373,0.13316862,234.52893,-41.1089,-13.265022
4516717832000.0,-2.6170257559308,6.217034533201436,6.734617406782,-0.0571159,0.09010262,0.13805555,234.45395,-41.083176,-13.26106
4516722843000.0,-2.6037775701941657,6.2744432919481,6.756697716343057,-0.06688975,0.09743301,0.13775012,234.37982,-41.055607,-13.261188
4516727806000.0,-2.5920292012461057,6.316043930977415,6.764231502492212,-0.06383542,0.10873401,0.14508049,234.29889,-41.034626,-13.2683115
4516733642000.0,-2.581147152024922,6.332366947994548,6.742467404049845,-0.07238753,0.10354166,0.1459968,234.22256,-41.007366,-13.274916
4516737832000.0,-2.5795643885138304,6.340980453195812,6.73589858851383,-0.05497787,0.113926366,0.1459968,234.12935,-40.999516,-13.281859
4516742841000.0,-2.59080915907173,6.344728788326301,6.74714335907173,-0.0580322,0.13469578,0.14874569,234.036,-40.98398,-13.289412
4516747787000.0,-2.6019125000937646,6.348429979293639,6.758246700093764,-0.05955936,0.14049901,0.15668693,233.94667,-40.975437,-13.286703
4516752871000.0,-2.618802204658805,6.363333632031703,6.768181052329402,-0.055588737,0.1423316,0.15821409,233.85641,-40.967052,-13.28849
4516757877000.0,-2.6373374688381985,6.381868799439397,6.777448684419099,-0.05467244,0.14630222,0.16768251,233.76276,-40.9586,-13.289134
4516762817000.0,-2.646488305811931,6.400888457597462,6.786958545973601,-0.06291912,0.14294247,0.16615535,233.67484,-40.945744,-13.2930155
4516767895000.0,-2.6514643613117777,6.420792731556329,6.796910708932774,-0.06811147,0.14294247,0.17837265,233.58206,-40.93579,-13.294163
4516772853000.0,-2.644012836928132,6.420195524618754,6.817058295644115,-0.06383542,0.14294247,0.18661933,233.48972,-40.927235,-13.299053
4516777856000.0,-2.6319024492627854,6.412121932841857,6.841279028822984,-0.0729984,0.14996742,0.19303341,233.39536,-40.914337,-13.303624
4516782845000.0,-2.614102213342599,6.405226578179291,6.855336578179291,-0.07819075,0.14660765,0.20097467,233.29727,-40.905743,-13.301301
4516787837000.0,-2.5856255121413683,6.4004805356497565,6.850590535649757,-0.09132435,0.14080444,0.20280726,233.19998,-40.89229,-13.300215
4516792854000.0,-2.555311494992489,6.389255198698047,6.844196262663996,-0.09285152,0.1386664,0.20891592,233.10257,-40.8759,-13.291585
4516797816000.0,-2.521997516524787,6.365459464296444,6.834677919208813,-0.09712757,0.1441642,0.20586158,233.008,-40.85457,-13.285357
4516803522000.0,-2.485838204204227,6.315152260510567,6.8282633,-0.09162979,0.14569137,0.20372356,232.91418,-40.838383,-13.273415
4516807828000.0,-2.460847551496099,6.252675628740247,6.8282633,-0.0693332,0.1459968,0.20677789,232.82072,-40.825825,-13.262605
4516812952000.0,-2.431109487288842,6.178330468222104,6.8282633,-0.05131268,0.13836098,0.1994475,232.72943,-40.8108,-13.244523
4516817863000.0,-2.425658348073484,6.166065658819704,6.844620589172492,-0.03359759,0.1386664,0.20189096,232.63545,-40.802773,-13.226538
4516822860000.0,-2.4295484284913025,6.177735778214925,6.867960787343521,-0.008857546,0.15027285,0.19639318,232.54575,-40.800087,-13.213023
4516827788000.0,-2.434408143971444,6.187566957112639,6.890471884717081,0.005497787,0.14660765,0.20311269,232.45609,-40.78814,-13.190938
4516832804000.0,-2.4428757938921204,6.191800715758858,6.911641120042305,0.023823744,0.13836098,0.20372356,232.36926,-40.782852,-13.173302
4516838199000.0,-2.45181622070626,6.197577487961477,6.933454280898877,0.02443461,0.13164146,0.22174409,232.2808,-40.776684,-13.15113
4516842841000.0,-2.455571860277097,6.2313782833150295,6.929698680544057,0.02107485,0.12583824,0.22388211,232.1988,-40.772823,-13.131089
4516847777000.0,-2.459565362414463,6.267319844251077,6.925705220106446,0.025045475,0.13469578,0.23151793,232.10382,-40.77286,-13.111639
4516852839000.0,-2.469907655564516,6.293943107419355,6.926920721683468,0.014049901,0.12705997,0.23823744,232.01485,-40.767693,-13.088075
4516858051000.0,-2.485002700403226,6.314069833870968,6.931952350756049,0.01038471,0.13561209,0.22602014,231.92531,-40.764294,-13.072822
4516862819000.0,-2.4926154307393,6.339212587548638,6.920379346303502,0.0033597588,0.1441642,0.22113322,231.83194,-40.766117,-13.053854
4516867846000.0,-2.496971830485929,6.369707340285947,6.898597347570355,-0.0018325958,0.13408493,0.22449298,231.7433,-40.766697,-13.034226
4516873189000.0,-2.5086997868338874,6.40145997803969,6.892588989019845,-0.0125227375,0.13897185,0.22296582,231.65094,-40.76597,-13.025718
4516877824000.0,-2.526585741502972,6.428289003425003,6.906003501712501,-0.010079277,0.13225232,0.2134974,231.5657,-40.76665,-13.014071
4516882800000.0,-2.5536072371137117,6.451098540434043,6.9321771624262425,-0.0143553335,0.129198,0.21410827,231.48193,-40.76971,-13.002679
4516887840000.0,-2.592224857275728,6.465580059785979,6.97562182129213,-0.012217305,0.13561209,0.2098322,231.4024,-40.773582,-12.995114
4516892807000.0,-2.642876628830124,6.458770211066399,7.0195844858867495,-0.005192355,0.1423316,0.21471913,231.3212,-40.780605,-12.9885235
4516897919000.0,-2.713236792095429,6.4212448396378266,7.066491261396953,0.009773844,0.14019357,0.20830505,231.24545,-40.78867,-12.984769
4516902884000.0,-2.780868929055063,6.389182501742507,7.112662664383152,0.036957346,0.14385876,0.204029,231.16806,-40.79745,-12.989354
4516907864000.0,-2.847352598476551,6.365438369511102,7.160151127193069,0.048258353,0.13958271,0.19120082,231.09737,-40.8043,-12.994765
4516912790000.0,-2.9216952854160816,6.350827726097538,7.200610473930544,0.055588737,0.13652839,0.18997909,231.03023,-40.80009,-13.012453
4516917876000.0,-3.017441865777404,6.355387034924647,7.227966707759992,0.07422013,0.13469578,0.18295415,230.96893,-40.80029,-13.0327425
4516922862000.0,-3.0954739476783604,6.3582779557981866,7.249643,0.063224554,0.12797627,0.17073683,230.90814,-40.781673,-13.065151
4516927814000.0,-3.106689749459992,6.354539381229799,7.249643,0.06536258,0.12003502,0.16401732,230.8494,-40.771557,-13.096549
4516932777000.0,-3.1179304651793456,6.350792502073315,7.249643,0.053145275,0.10903945,0.1572978,230.78743,-40.745422,-13.1418085
4516937845000.0,-3.1343042714946376,6.346356626094657,7.243510348243629,0.05681047,0.10720685,0.15454891,230.7268,-40.72417,-13.186895
4516942827000.0,-3.153082877083538,6.341661888910754,7.2341210209387,0.05497787,0.115453534,0.14569137,230.67004,-40.69725,-13.233364
4516947823000.0,-3.1656959904259194,6.3425209010738985,7.219789891217692,0.06291912,0.10873401,0.14263703,230.61577,-40.671783,-13.275053
4516953065000.0,-3.174833519657809,6.347089761103021,7.2015147850473245,0.059864793,0.105068825,0.12583824,230.565,-40.641182,-13.322553
4516957851000.0,-3.1794999,6.358018538142355,7.185735335173955,0.07452556,0.1142318,0.12095132,230.51334,-40.616142,-13.37006
4516962852000.0,-3.1794999,6.378400845515481,7.170448578040217,0.067500606,0.11209377,0.10048734,230.47232,-40.581924,-13.41962
4516967867000.0,-3.189734650034304,6.385171332529649,7.155775617436048,0.07941248,0.11636983,0.09193522,230.42264,-40.56073,-13.470924
4516972851000.0,-3.208447047015584,6.380493269920612,7.141741283063805,0.096516706,0.1142318,0.07971791,230.38054,-40.53721,-13.523924
4516977829000.0,-3.225782985923754,6.376159303519062,7.1327273035190615,0.09743301,0.10720685,0.06811147,230.33537,-40.515347,-13.572081
4516982805000.0,-3.24175421568496,6.372166496078759,7.12873449607876,0.113926366,0.09590584,0.05589417,230.29492,-40.50134,-13.620265
4516987843000.0,-3.258500994167034,6.370963294167034,7.120370886743261,0.13347405,0.09040806,0.043676864,230.25443,-40.488552,-13.673964
4516992836000.0,-3.279630893592576,6.392093193592576,7.078110867255855,0.15118915,0.090713486,0.042760566,230.21573,-40.479683,-13.725502
4516997813000.0,-3.300693082545294,6.413155382545294,7.035986269421122,0.15943582,0.083383106,0.03726278,230.17442,-40.471806,-13.7779455
4517003580000.0,-3.313773107553736,6.440897513715456,6.960952463664278,0.16523905,0.0842994,0.027794369,230.13312,-40.46742,-13.831928
4517007827000.0,-3.3220992271647902,6.461712595394063,6.902670321903787,0.1685988,0.073303826,0.03359759,230.09407,-40.46525,-13.878753
4517012828000.0,-3.299939407756748,6.480924873565002,6.815715172261868,0.16310102,0.050396383,0.03634648,230.06007,-40.469425,-13.929918
4517018194000.0,-3.272036457493019,6.500855492863791,6.720048158004964,0.16707164,0.03604105,0.028710667,230.0281,-40.476227,-13.980193
4517022876000.0,-3.245135555640922,6.535754283461383,6.656047353861706,0.17379116,0.03023783,0.02687807,230.00496,-40.491512,-14.026574
4517027870000.0,-3.211291512474727,6.60827759371209,6.627037928790942,0.160963,0.032070424,0.015882496,229.9871,-40.50052,-14.073642
4517032811000.0,-3.171563130460862,6.679763162951114,6.593667202229331,0.14294247,0.026267206,0.005192355,229.97612,-40.528465,-14.114888
4517037894000.0,-3.118032478646406,6.752759575627312,6.549869354623612,0.12034045,0.021685716,-0.015882496,229.96944,-40.548958,-14.159875
4517042814000.0,-3.0727201278150926,6.826275925740815,6.526524645634137,0.09315695,0.022296581,-0.030543262,229.9627,-40.578682,-14.196196
4517048064000.0,-3.037956249901225,6.910701878921375,6.541423361556697,0.067500606,0.019242255,-0.053145275,229.96408,-40.599274,-14.235421
4517052832000.0,-3.0152060325416628,6.983170161939927,6.559463597974254,0.02687807,0.014966198,-0.06811147,229.96577,-40.62663,-14.263849
4517058679000.0,-3.0096182703522603,7.061399649456142,6.592990521195489,0.0076358155,-0.0076358155,-0.09896017,229.98015,-40.648537,-14.294343
4517062780000.0,-3.0071173,7.090939034822804,6.613471108050847,-0.06566802,-0.021685716,-0.11148291,229.99323,-40.657047,-14.314349
4517067873000.0,-3.0071173,7.072150651771957,6.632259638241525,-0.086437434,-0.033292156,-0.13958271,230.02022,-40.669777,-14.338398
4517072833000.0,-3.0071173,7.042829639190186,6.663617684938203,-0.12736541,-0.046120327,-0.16554448,230.051,-40.66207,-14.353655
4517077825000.0,-3.0071173,6.976687757175798,6.73857858277993,-0.16768251,-0.062308256,-0.18936823,230.08986,-40.64654,-14.370274
4517082930000.0,-3.010737891697554,6.904316860637509,6.810919992068198,-0.19792034,-0.081855945,-0.21991149,230.13692,-40.61537,-14.389875
4517087877000.0,-3.054637566030393,6.781397983367309,6.832869783395108,-0.20280726,-0.095294975,-0.2556471,230.19136,-40.578194,-14.4124365
4517092878000.0,-3.0990164363232027,6.657137359710897,6.855059172201631,-0.19181168,-0.10293079,-0.29046643,230.25111,-40.516457,-14.439453
4517097812000.0,-3.1436930467980297,6.519800519704433,6.869235921428571,-0.15424347,-0.10140363,-0.32895094,230.31886,-40.4584,-14.472521
4517102903000.0,-3.1898805125047365,6.37661927955665,6.883092112912088,-0.10354166,-0.093462385,-0.36071593,230.39139,-40.405724,-14.50997
4517107846000.0,-3.1986535,6.280145112036771,6.89301645534808,-0.04734206,-0.074830994,-0.40286562,230.46497,-40.337513,-14.5732975
4517112837000.0,-3.1986535,6.193181847744901,6.902170541022695,0.002443461,-0.063224554,-0.4364632,230.5416,-40.280525,-14.639808
4517117835000.0,-3.1725015064935063,6.160925873618918,6.865649726807521,0.048258353,-0.04062254,-0.45998153,230.61812,-40.209644,-14.733214
4517122810000.0,-3.1355605162337663,6.151690445241326,6.810238265526265,0.0888809,-0.02076942,-0.46578476,230.69437,-40.150593,-14.829251
4517128529000.0,-3.053466594734205,6.179479245532981,6.8128134901196775,0.08460484,-0.003970624,-0.47647488,230.76646,-40.07818,-14.93966
4517132884000.0,-2.976854787414417,6.2143027612580015,6.838350783467854,0.06627888,-0.013744468,-0.4831944,230.8385,-40.013668,-15.046244
4517137846000.0,-2.8895648246312278,6.253979979404398,6.86744746534929,0.04184427,-0.018936822,-0.47647488,230.91284,-39.954025,-15.151342
4517142918000.0,-2.798406128472349,6.296183203139258,6.897270888921336,-0.004886922,-0.028099801,-0.47128254,230.98979,-39.8836,-15.252385
4517147821000.0,-2.6827109887205696,6.360458231064063,6.927265812465778,-0.044898596,-0.055588737,-0.46578476,231.06792,-39.810184,-15.344515
4517152733000.0,-2.566803477714912,6.4248512429275415,6.957315795017339,-0.060170226,-0.079107046,-0.4578435,231.1493,-39.746925,-15.399619
4517157732000.0,-2.4135368547350806,6.480245199553821,6.9355597268711655,-0.09621128,-0.0842994,-0.43493605,231.2258,-39.67098,-15.4474535
4517162900000.0,-2.2539365054186207,6.530653780910089,6.9048777,-0.13652839,-0.0888809,-0.4025602,231.30074,-39.59322,-15.485881
4517167958000.0,-2.1717619994012574,6.520986242440874,6.9048777,-0.1459968,-0.09773844,-0.37598756,231.38351,-39.53015,-15.4904175
4517172879000.0,-2.0937535284986515,6.508336941863949,6.9081206645489965,-0.16310102,-0.10323623,-0.35430184,231.47423,-39.475903,-15.4646845
4517177809000.0,-2.0418755093197483,6.451742895814604,6.95528236138248,-0.1740966,-0.10873401,-0.32253686,231.55618,-39.426163,-15.43089
4517182931000.0,-1.9919758,6.389261648120854,6.997963817207075,-0.18417588,-0.13164146,-0.3036,231.63617,-39.378716,-15.376884
4517187745000.0,-1.9919758,6.287339742999263,6.963989863614591,-0.16523905,-0.13591751,-0.27977628,231.70358,-39.341446,-15.320366
4517192735000.0,-1.9919758,6.181691569638909,6.928773821149595,-0.1554652,-0.13500121,-0.25137106,231.76418,-39.29177,-15.246346
4517197698000.0,-2.040090683774027,6.087272415396624,6.92804082480242,-0.1600467,-0.13988814,-0.24953845,231.82578,-39.244923,-15.17306
4517202710000.0,-2.0962901238755,5.99360655148795,6.932724054424822,-0.15332718,-0.13072516,-0.24129178,231.87538,-39.2088,-15.098913
4517207714000.0,-2.1268394382594416,5.90413678226601,6.909677835734811,-0.14263703,-0.1432479,-0.24831672,231.92801,-39.161804,-15.033006
4517212703000.0,-2.151356400082102,5.815875719704433,6.880257532748359,-0.11759156,-0.1282817,-0.25992316,231.97157,-39.122555,-14.976454
4517217725000.0,-2.1986203626286924,5.735794185028384,6.844264605157318,-0.1020145,-0.11636983,-0.25961772,232.02246,-39.06421,-14.929376
4517222728000.0,-2.2493314214567497,5.657422548657751,6.807383883238718,-0.090713486,-0.08246681,-0.26939157,232.06952,-39.01123,-14.8958435
4517227707000.0,-2.2834903289216704,5.625163338956992,6.803426954269686,-0.08368854,-0.041233405,-0.26511553,232.11496,-38.950596,-14.872779
4517232691000.0,-2.31324143309786,5.605329131435696,6.808385428485352,-0.06780604,-0.020158553,-0.2602286,232.15826,-38.896275,-14.855234
4517237755000.0,-2.313859541220826,5.587521687037702,6.861295561831239,-0.06383542,-0.003970624,-0.2501493,232.20175,-38.832516,-14.866445
4517242712000.0,-2.3095981231238776,5.5704759256552965,6.920955459685817,-0.051923547,-0.002443461,-0.2434298,232.24217,-38.776833,-14.878627
4517247703000.0,-2.3109068328715727,5.575710791976912,6.951874538124098,-0.034513887,-0.01282817,-0.23090707,232.27321,-38.721394,-14.892866
4517252888000.0,-2.315683716758057,5.594818427282347,6.96620509002405,-0.014049901,-0.040317107,-0.22082779,232.30515,-38.671715,-14.902652
4517257860000.0,-2.3520589250825763,5.622540632122213,6.9604246216350125,-0.0067195175,-0.04550946,-0.19456059,232.32852,-38.61884,-14.912226
4517262810000.0,-2.4107772781998347,5.656793119735755,6.940851888356731,0.010995574,-0.038789943,-0.18387043,232.35498,-38.57506,-14.919473
4517267833000.0,-2.484081525548472,5.703851603918994,6.916417198040503,0.0290161,-0.03023783,-0.16554448,232.3841,-38.534122,-14.914965
4517272836000.0,-2.5649393586161637,5.757756700881305,6.889464649559348,0.044593163,-0.029321533,-0.15851954,232.41245,-38.498367,-14.910665
4517277831000.0,-2.648920761743268,5.835758791152054,6.8761473,0.048258353,-0.024740042,-0.15577064,232.44398,-38.467342,-14.9153
4517282812000.0,-2.735844960214618,5.937170196355537,6.8761473,0.05955936,-0.0076358155,-0.14569137,232.46878,-38.444653,-14.920182
4517287798000.0,-2.81862449478802,6.036584143990665,6.859120636133801,0.05681047,0.014966198,-0.13561209,232.48892,-38.42792,-14.942637
4517292781000.0,-2.897510220488137,6.134031447782964,6.826638298444185,0.058337633,0.034208454,-0.122478485,232.50287,-38.416924,-14.965085
4517297765000.0,-2.9768371334481065,6.260132154008854,6.791812105509099,0.053145275,0.053450707,-0.11056661,232.50958,-38.413704,-14.998914
4517302839000.0,-3.058103894805706,6.422665427142155,6.753568970673881,0.048563786,0.06994407,-0.10048734,232.51038,-38.412067,-15.033355
4517307813000.0,-3.109086551550887,6.516362512783669,6.736629355950847,0.030848695,0.07574729,-0.09162979,232.50858,-38.419464,-15.076174
4517313756000.0,-3.1260070517193537,6.527642787335249,6.747909748290556,0.027488936,0.08124508,-0.081855945,232.50125,-38.430183,-15.119355
4517317897000.0,-3.1378464162721005,6.520997806213165,6.751649,0.021380283,0.09040806,-0.074830994,232.4931,-38.45918,-15.169809
4517322842000.0,-3.152037988342823,6.497345186095295,6.751649,0.025045475,0.096516706,-0.053145275,232.47913,-38.491505,-15.215043
4517327881000.0,-3.167604221244256,6.47188534116649,6.756003737589253,0.019547688,0.08857546,-0.05222898,232.46509,-38.5178,-15.261299
4517332863000.0,-3.1844694095086603,6.444901075164369,6.766122815326971,0.017104227,0.09560041,-0.040011674,232.4399,-38.548294,-15.304938
4517337814000.0,-3.2012296558147755,6.418084716076352,6.776178928108872,0.0076358155,0.09743301,-0.035124753,232.4213,-38.5697,-15.351429
4517342907000.0,-3.2082303,6.373389322651508,6.791544082734368,0.013133603,0.10445796,-0.025961773,232.39702,-38.595448,-15.396442
4517347881000.0,-3.2082303,6.318314601021293,6.809902307303209,0.02076942,0.10354166,-0.018936822,232.37363,-38.61891,-15.438553
4517352899000.0,-3.1956102194462286,6.272130482494826,6.8222922184757016,0.033292156,0.10751228,-0.0067195175,232.3504,-38.6346,-15.483069
4517357902000.0,-3.171676078805395,6.234519761464354,6.82913050867052,0.040011674,0.11881329,0.0030543262,232.32527,-38.650814,-15.527101
4517362819000.0,-3.1481533585313635,6.197555556925712,6.8358512508028255,0.04886922,0.11789699,0.013439035,232.29782,-38.660915,-15.567841
4517367915000.0,-3.104873780305529,6.141218702977172,6.855999491450395,0.064446285,0.1160644,0.025961773,232.2662,-38.675434,-15.607637
4517372940000.0,-3.054749481633539,6.078563264213176,6.881061684402396,0.07452556,0.12003502,0.023518313,232.2352,-38.68996,-15.648421
4517377852000.0,-3.0206019855827337,6.044382213805755,6.902387143021582,0.07422013,0.10567969,0.029321533,232.20206,-38.700466,-15.675533
4517383743000.0,-3.004366898158273,6.048440943280576,6.922681002302158,0.080634214,0.09896017,0.029321533,232.16922,-38.714176,-15.705904
4517387834000.0,-2.9930924553381293,6.051259524553957,6.936774055827338,0.08246681,0.09682214,0.027488936,232.14178,-38.715237,-15.725554
4517392877000.0,-2.9820257544232267,6.040665870849571,6.943185,0.07880162,0.09896017,0.026267206,232.11519,-38.716362,-15.744134
4517397865000.0,-2.972717623519096,6.022049706235386,6.943185,0.08399397,0.093462385,0.027183503,232.09094,-38.72016,-15.760115
4517402863000.0,-2.9713999904637736,6.011644536580369,6.938005046116595,0.070554934,0.08552113,0.02321288,232.07008,-38.716885,-15.77399
4517407868000.0,-2.9758637997858077,6.007180773868504,6.929077474082697,0.067500606,0.08093964,0.027488936,232.048,-38.71851,-15.785392
4517412859000.0,-2.9896000284050905,6.015870828405091,6.929637864202546,0.06566802,0.0852157,0.024740042,232.0289,-38.710545,-15.792209
