timestamp,acc_x,acc_y,acc_z,gyro_x,gyro_y,gyro_z,ori_azimuth,ori_pitch,ori_roll
2675690576000.0,0.6932250841082253,9.926142804437216,1.387762036017316,-1.1756102,0.7486154,0.04184427,13.381941,-73.16069,10.445118
2675695517000.0,0.6804223221147188,9.92358220070345,1.3775198349783548,-1.1756102,0.75808376,0.03726278,13.301672,-73.14911,10.412102
2675700456000.0,0.6676247423766235,9.921022633441549,1.3672817797402597,-1.1884383,0.76144356,0.04153884,13.102063,-72.938126,10.259582
2675705400000.0,0.654814207,9.91846047499999,1.35703336,-1.1808025,0.7431176,0.032986723,12.910142,-72.733154,10.104837
2675710397000.0,0.6418663418549785,9.915870850054102,1.3466750765367963,-1.1737776,0.75808376,0.03481932,12.709879,-72.52143,9.953395
2675715332000.0,0.6290791266277057,9.91331335573592,1.3364453129004328,-1.1606439,0.7632761,0.036651913,12.521086,-72.313644,9.803312
2675721179000.0,0.6139288029329005,9.910283230248908,1.324325064069264,-1.1957687,0.7675522,0.035124753,12.331391,-72.09586,9.6536045
2675725327000.0,0.6031808052099568,9.908133587608216,1.315726673073593,-1.1927143,0.72265357,0.03481932,12.156724,-71.88986,9.509932
2675730269000.0,0.5903754520887448,9.90557246563852,1.305482399134199,-1.1472049,0.7156286,0.035430185,11.973186,-71.68631,9.364803
2675735265000.0,0.5774301780714286,9.902983358928562,1.2951261885714285,-1.1383474,0.7495316,0.028710667,11.794157,-71.476524,9.2195635
2675740327000.0,0.5643138896255412,9.900360048647178,1.2846331665800863,-1.1655309,0.75625116,0.04520403,11.625426,-71.26649,9.085379
2675745324000.0,0.5513660244805196,9.89777042370129,1.274274883116883,-1.2226468,0.76052725,0.059253927,11.451324,-71.0535,8.94809
2675750345000.0,0.5383559722705629,9.895168361093068,1.26386685004329,-1.2379184,0.7495316,0.046731193,11.283133,-70.8469,8.810591
2675755173000.0,0.5258460077077923,9.892666318019474,1.2538588867532467,-1.2305881,0.7449502,0.051923547,11.112007,-70.6292,8.682627
2675760160000.0,0.512924053839827,9.890081875432896,1.2435213322943723,-1.2333369,0.72509706,0.058337633,10.951703,-70.408615,8.555549
2675765131000.0,0.5000435580151517,9.887505724621208,1.233216944242424,-1.2336423,0.70096785,0.07238753,10.795238,-70.19112,8.43453
2675770168000.0,0.4869920477619048,9.88489537023809,1.2227757447619048,-1.2324207,0.6750061,0.08032878,10.64713,-69.97569,8.317219
2675775274000.0,0.4737617496969697,9.882249257575753,1.212191515151515,-1.2370021,0.6395759,0.093462385,10.508827,-69.75899,8.209778
2675780127000.0,0.4611870069415585,9.879734258603891,1.2021317293506493,-1.2263119,0.5699373,0.09560041,10.389469,-69.54974,8.108586
2675785122000.0,0.4482443240519481,9.877145670129863,1.1917775916883118,-1.1398746,0.4914411,0.087964594,10.28395,-69.36181,8.013968
2675790247000.0,0.4349647945606061,9.874489710984845,1.181153976969697,-1.022283,0.40225476,0.07391469,10.202589,-69.18855,7.9271336
2675795215000.0,0.4220920721190476,9.871915114880949,1.1708558076190476,-0.8866709,0.32834008,0.06780604,10.139945,-69.04574,7.8477836
2675800431000.0,0.4085767500064935,9.86921199626623,1.160043558961039,-0.7449502,0.29901853,0.055283304,10.092587,-68.940285,7.768519
2675805166000.0,0.3963077603203463,9.866758149134196,1.1502283754112554,-0.6264423,0.22815818,0.044593163,10.077984,-68.86693,7.700481
2675810160000.0,0.3833676685584416,9.864170078896102,1.1398763106493506,-0.56046885,-0.00580322,0.0027488936,10.120684,-68.823,7.6406517
2675815165000.0,0.3703990743917749,9.86157630806277,1.129501443982684,-0.12064589,-0.13041973,-0.027183503,10.1532345,-68.91064,7.578716
2675820172000.0,0.357425297969697,9.858981500757574,1.1191224315151516,0.09437868,-0.10415252,-0.023823744,10.209033,-68.95713,7.5234046
2675825266000.0,0.3442260934372295,9.856341606926406,1.1085630767099568,0.048563786,-0.0842994,-0.01160644,10.30184,-69.05147,7.475706
2675830202000.0,0.3314362870822511,9.853783594372294,1.0983312401731602,0.01282817,-0.086132,-0.006414085,10.393058,-69.20307,7.427154
2675835161000.0,0.3185868847900433,9.851213662391777,1.088051726926407,0.027183503,-0.09560041,-0.015882496,10.480539,-69.35321,7.377353
2675840167000.0,0.305615699495671,9.848619373322512,1.077674787359307,0.019242255,-0.08979719,-0.015271631,10.560019,-69.48906,7.3313675
2675845173000.0,0.2926445142012987,9.846025084253249,1.0672978477922077,0.012217305,-0.09285152,-0.01282817,10.644542,-69.62699,7.285643
2675850252000.0,0.2785818946242833,9.836234825168496,1.048488409194246,0.007330383,-0.094989546,-0.015271631,10.72696,-69.7611,7.238725
2675855225000.0,0.2642094543878885,9.821862600040236,1.024534317121014,0.010995574,-0.09101892,-0.014660766,10.807348,-69.89243,7.1935925
2675860316000.0,0.273588624851752,9.828238808625336,1.009135564330638,0.011911872,-0.09987647,-0.0125227375,10.85984,-70.01488,7.13361
2675865210000.0,0.2969833079604672,9.846954437855644,0.9997777008585405,0.013439035,-0.1001819,-0.010079277,10.908429,-70.13578,7.0736647
2675870335000.0,0.30645782,9.846249744036696,0.9849420715963304,0.019242255,-0.090713486,-0.013744468,10.893171,-70.24979,6.985066
2675875292000.0,0.30645782,9.83318418348624,0.9675210816513762,0.02687807,-0.09712757,-0.013744468,10.882429,-70.3614,6.9013233
2675880254000.0,0.3108938271173004,9.828022047562936,0.9732067086984468,0.032375857,-0.09315695,-0.009773844,10.779159,-70.488686,6.7792377
2675885220000.0,0.3210831015597215,9.833116785859668,1.00886913200857,0.018936822,-0.092240654,-0.01160644,10.681066,-70.61036,6.659305
2675890218000.0,0.3372044569864677,9.835381,1.0270369024288688,0.021991149,-0.09101892,-0.014049901,10.555581,-70.77552,6.522115
2675895339000.0,0.3584756286051353,9.835381,1.0312911349757112,0.025350908,-0.07880162,-0.016187929,10.4275,-70.93431,6.3859363
2675900408000.0,0.3755692461296572,9.84056545991058,1.0342951,0.02443461,-0.07788532,-0.018936822,10.26987,-71.11103,6.2336245
2675905281000.0,0.3825242081460506,9.857952846795827,1.0342951,0.0125227375,-0.07849618,-0.015271631,10.108476,-71.28242,6.084013
2675910304000.0,0.3896932568241431,9.875875449776451,1.0342951,0.014966198,-0.07360926,-0.0076358155,9.912051,-71.47328,5.922666
2675915256000.0,0.4051132886754607,9.883265,1.0417736481116733,0.01282817,-0.07452556,-0.016187929,9.717134,-71.65817,5.760863
2675920287000.0,0.4268791456161908,9.883265,1.054833202276834,0.008857546,-0.07452556,-0.014660766,9.5178175,-71.838936,5.605787
2675925296000.0,0.4369317178792491,9.881464271334348,1.0648262910603754,0.011911872,-0.0852157,-0.004581489,9.282985,-72.039185,5.43542
2675930315000.0,0.4271770838457636,9.87658685246068,1.0697036080771185,0.01985312,-0.07880162,-0.008246681,9.042525,-72.238,5.2628584
2675935285000.0,0.4138140009561674,9.86044831149985,1.0726024,0.0125227375,-0.07788532,-0.004276057,8.746899,-72.44739,5.0755787
2675940269000.0,0.3948374296252858,9.827239148196004,1.0726024,0.01863139,-0.07513642,-0.004581489,8.447153,-72.66038,4.888397
2675945292000.0,0.3797835844981346,9.80665,1.0693137244981348,0.012217305,-0.07727446,-0.0061086523,8.072659,-72.887596,4.668331
2675950330000.0,0.3712122719381773,9.80665,1.0607424119381772,0.01985312,-0.076052725,-0.004276057,7.6930504,-73.11687,4.4522634
2675955281000.0,0.3644290537073602,9.805629244562164,1.052428007255799,0.023823744,-0.06872234,-0.011301007,7.203689,-73.370735,4.1838026
2675960278000.0,0.368270073821334,9.797947444979531,1.0447459269202986,0.021685716,-0.07238753,-0.0143553335,6.7131057,-73.62061,3.9226005
2675965261000.0,0.3721003326222008,9.790287167348904,1.0370853693233808,0.027183503,-0.07513642,-0.003970624,6.0686274,-73.91282,3.59785
2675970414000.0,0.378926088009853,9.803788640193664,1.0315797888303746,0.029321533,-0.07269296,-0.008857546,5.4220552,-74.19936,3.2749286
2675976364000.0,0.388606206841077,9.832828562048755,1.0267397344686997,0.019242255,-0.06963864,-0.012217305,4.7722416,-74.47793,2.9623356
2675980310000.0,0.397203180425301,9.85558329033308,1.0247183,0.02107485,-0.06627888,-0.006414085,3.8645346,-74.82202,2.545759
2675985270000.0,0.4126640552435717,9.89165885505045,1.0247183,0.027488936,-0.065973446,-0.01740966,2.958494,-75.15716,2.1349742
2675990261000.0,0.4196894276491397,9.910304895883582,1.0247183,0.025350908,-0.06505715,-0.008552114,2.1802988,-75.4683,1.7986842
2675995298000.0,0.4158111158353433,9.90642651117543,1.0247183,0.015577064,-0.074830994,-0.0067195175,1.4052964,-75.77296,1.4669204
2676000695000.0,0.4115008120571004,9.901814267266277,1.0262276412905356,0.007330383,-0.07238753,-0.00030543262,0.80890536,-76.04146,1.2262995
2676005357000.0,0.4041327055136562,9.887078131116429,1.063068212476277,0.01985312,-0.0720821,-0.0030543262,0.21474543,-76.308395,0.99006784
2676010264000.0,0.3963773861638749,9.871567573397146,1.101844849715323,0.017715093,-0.0720821,-0.0061086523,359.7434,-76.54024,0.8118685
2676015258000.0,0.3859448064700673,9.868580605915692,1.1093126185618138,0.013133603,-0.06505715,0.0030543262,359.26727,-76.77106,0.6395536
2676020428000.0,0.3727906910432164,9.877350193234149,1.0873891081119378,0.018020526,-0.06841691,0.0027488936,358.7926,-77.00043,0.46809378
2676025340000.0,0.364938458236437,9.877146189284112,1.0695430052906891,0.014966198,-0.06688975,0.0018325958,358.3961,-77.19985,0.3340344
2676030294000.0,0.3684837778598117,9.855874197504107,1.058907046420565,0.014966198,-0.059253927,-0.003970624,357.99695,-77.39853,0.2010189
2676035337000.0,0.3720927901449709,9.834220048423257,1.0480800095650873,0.010995574,-0.06078109,0.00030543262,357.5926,-77.59801,0.069424935
2676040270000.0,0.382655547272581,9.828094068446877,1.043872,0.007330383,-0.058948494,-0.0030543262,357.18384,-77.7944,-0.0639118
2676046313000.0,0.401274587766428,9.83274892334915,1.043872,0.0036651916,-0.048563786,-0.003970624,356.77066,-77.98647,-0.19315204
2676050291000.0,0.4127261228343073,9.837227874097628,1.0434102742437263,0.01160644,-0.051618114,-0.002443461,356.35873,-78.17866,-0.31850466
2676055274000.0,0.4209284680096253,9.853632461670678,1.0393090631144724,0.016493361,-0.05100725,-0.0030543262,355.94104,-78.36582,-0.4430222
2676060289000.0,0.4291834872860089,9.870142396785836,1.0351815146871777,0.014660766,-0.056199603,0.0027488936,355.52402,-78.5509,-0.558643
2676065267000.0,0.4378193762037292,9.859961940755028,1.0240005018186829,0.015882496,-0.057421334,0.003970624,355.10413,-78.73517,-0.67359525
2676070296000.0,0.4466669563699825,9.84226690052356,1.0107291523560211,0.01160644,-0.05467244,-0.0021380284,354.68274,-78.914246,-0.78658414
2676075331000.0,0.4395841564327798,9.840643715050884,1.0108275799143012,0.015882496,-0.05009095,0.0018325958,354.25726,-79.096115,-0.8928117
2676080311000.0,0.42255415241564,9.849158439207285,1.0193425708087842,0.018020526,-0.054367006,-0.0009162979,353.83237,-79.27283,-1.0000426
2676085262000.0,0.4014968038967741,9.84938113548387,0.9697536107096774,0.013744468,-0.051618114,-0.0030543262,353.4036,-79.44879,-1.1020266
2676090260000.0,0.3729916745310174,9.835128774193548,0.8177262077915632,0.011301007,-0.05375614,0.0021380284,352.97543,-79.623024,-1.2000879
2676095285000.0,0.3575435523516525,9.822602240784835,0.7983028756548243,0.012217305,-0.04520403,-0.00030543262,352.53598,-79.79392,-1.3049762
2676100401000.0,0.3668768048137918,9.813268793408897,1.0316343821221068,0.01282817,-0.04642576,-0.004581489,352.0981,-79.96103,-1.406089
2676105337000.0,0.3725482800831758,9.801914100415878,1.1999424397504723,0.007330383,-0.042760566,-0.0012217305,351.63773,-80.15422,-1.5136943
2676110267000.0,0.3689782518034026,9.784063959017011,1.210652524589792,0.009468411,-0.04428773,0.003970624,351.1779,-80.34582,-1.6193657
2676115940000.0,0.364870184778828,9.76352362389414,1.222976725663516,0.009162978,-0.03604105,-0.0033597588,350.73145,-80.48243,-1.7207906
2676120311000.0,0.3753257485973115,9.773024853302164,1.0775391065458797,0.004276057,-0.034513887,-0.00580322,350.28546,-80.61607,-1.8167319
2676130266000.0,0.3999934612563667,9.817812093718166,0.8305286554499152,0.009468411,-0.03573562,0.0036651916,349.8363,-80.75,-1.9093744
2676135303000.0,0.3958985256366723,9.838286771816636,1.018895864991511,0.018020526,-0.03145956,0.0067195175,349.38327,-80.87681,-2.0042229
2676140291000.0,0.3950268857641557,9.856119235844329,1.172333506848171,0.01160644,-0.03268129,0.005497787,348.91678,-81.04836,-2.0936766
2676145316000.0,0.4070838726106564,9.864157389343577,1.1924284709370303,0.016798794,-0.03573562,0.0033597588,348.44864,-81.22192,-2.1806486
2676150285000.0,0.4190064930365793,9.872105963420744,1.2122994911474865,0.026572637,-0.03573562,0.009468411,347.99246,-81.3479,-2.2627838
2676155311000.0,0.4119444796192955,9.864252789148296,1.162789388887985,0.036651913,-0.033292156,0.008246681,347.53564,-81.47201,-2.3454947
2676160425000.0,0.3999923631399983,9.852300431383714,1.0950607343854226,0.027183503,-0.032986723,0.013133603,347.07776,-81.591675,-2.4226305
2676165226000.0,0.3869990375053342,9.839306989953773,1.057686329658606,0.025350908,-0.02687807,0.014660766,346.6205,-81.70956,-2.4959068
2676170318000.0,0.3696572554783072,9.821965307521335,1.0706926593883357,0.02687807,-0.025961773,0.007330383,346.1641,-81.82284,-2.5682156
2676175290000.0,0.3551336754917319,9.805066377284597,1.080991476762402,0.028099801,-0.024129177,0.013439035,345.6988,-81.947334,-2.638337
2676180322000.0,0.3635219187641427,9.78828997832898,1.0684091118537855,0.02443461,-0.014660766,0.018936822,345.2303,-82.06739,-2.7091436
2676186761000.0,0.3726880980476982,9.76995771547421,1.0550635239046031,0.021991149,-0.025961773,0.0030543262,344.7634,-82.18067,-2.7861872
2676190260000.0,0.3664930114882603,9.782347823904605,1.0674536970234794,0.023823744,-0.023823744,0.012217305,344.28796,-82.29438,-2.8535054
2676195283000.0,0.3575996362987613,9.800134481419857,1.0852404474024773,0.021380283,-0.020463986,0.01282817,343.8171,-82.40321,-2.9234223
2676200320000.0,0.3569520074509804,9.80665,1.0995864423529411,0.018020526,-0.017104227,0.003970624,343.34476,-82.50944,-2.991703
2676205278000.0,0.3609998995566922,9.80665,1.1117301186700768,0.025350908,-0.01985312,-0.0009162979,342.87222,-82.61556,-3.0568218
2676210257000.0,0.3612428706985074,9.80932584238806,1.1178106134925374,0.03023783,-0.016493361,0.006414085,342.39468,-82.7144,-3.121628
2676215255000.0,0.3517175181850746,9.818851383880595,1.1082852709253732,0.02107485,-0.020158553,-0.0018325958,341.9199,-82.806305,-3.1900694
2676220251000.0,0.3485262849967223,9.822042776604269,1.100392489241751,0.020158553,-0.024740042,0.0030543262,341.44553,-82.89846,-3.24983
2676225317000.0,0.3626616463864812,9.807907496394494,1.096858650739311,0.026267206,-0.01863139,-0.006414085,340.96924,-82.98459,-3.314461
2676230285000.0,0.3765235641488819,9.79404565824168,1.0933931731080195,0.02565634,-0.014049901,-0.00061086525,340.48798,-83.070625,-3.3743825
2676235294000.0,0.375241777272448,9.795327373707382,1.0760950072898536,0.022602014,-0.0061086523,0.0033597588,340.00385,-83.15344,-3.4359727
2676240259000.0,0.3606368386014129,9.809932109040648,1.0468850791133408,0.015577064,-0.013133603,0.004276057,339.5221,-83.23297,-3.49469
2676245274000.0,0.3594926036161257,9.808500992142925,1.036870498699841,0.014049901,-0.007330383,0.009162978,339.03983,-83.31262,-3.5455441
2676250322000.0,0.368536413624544,9.79493546599944,1.0413924509213357,0.017715093,-0.0009162979,0.0033597588,338.55914,-83.388054,-3.597415
2676255273000.0,0.3887637992377213,9.791313961749132,1.0381463580883694,0.016493361,0.0009162979,-0.006414085,338.072,-83.46315,-3.6512609
2676260268000.0,0.4236998296969144,9.800047687785284,1.0250453130363335,0.021685716,0.021380283,-0.006414085,337.57718,-83.53878,-3.7030292
2676265255000.0,0.4531584307114694,9.805633812582142,1.0161576661964429,0.01160644,0.0070249503,-0.019547688,337.09476,-83.6032,-3.757039
2676270274000.0,0.4657929683422413,9.80142221501796,1.020369175808289,0.018325957,0.009468411,-0.015577064,336.60092,-83.67326,-3.805546
2676275749000.0,0.4790596430991217,9.798388763174405,1.0266919401819323,0.021991149,0.014049901,-0.01160644,336.11826,-83.74149,-3.8472843
2676280276000.0,0.4824594371392723,9.818787598415934,1.057290122043601,0.021685716,0.006414085,-0.006414085,335.63794,-83.80916,-3.8859117
2676285316000.0,0.4862444961104141,9.841498031289207,1.091355692307089,0.024740042,0.011301007,-0.018020526,335.15588,-83.8735,-3.924573
2676290233000.0,0.4866674259342842,9.856283760606606,1.1091598759342842,0.023518313,0.0125227375,-0.018020526,334.67633,-83.93792,-3.9569166
2676295298000.0,0.4822887933291208,9.860662484654268,1.1047812433291209,0.03023783,0.009162978,-0.009773844,334.19647,-84.00222,-3.9889405
2676301333000.0,0.4802794020564042,9.845403383372505,1.1099671123384254,0.024129177,0.023518313,-0.02443461,333.71692,-84.050606,-4.0252147
2676305313000.0,0.4830787310810811,9.809012222972973,1.1267630864864866,0.01985312,0.01038471,-0.024740042,333.24545,-84.103615,-4.0531516
2676310265000.0,0.4865617153349001,9.763733573149237,1.1476609920094007,0.01985312,0.005192355,-0.02076942,332.7673,-84.152855,-4.084103
2676315259000.0,0.48652587248114,9.728265295389772,1.1625761747862533,0.02321288,0.007941248,-0.032986723,332.29083,-84.1971,-4.118414
2676320463000.0,0.4823483647527242,9.703200161777032,1.170931233864208,0.02565634,0.0106901415,-0.025350908,331.8152,-84.244545,-4.1446147
2676325295000.0,0.4767039494929986,9.680371667793336,1.1768790969579914,0.023518313,0.019547688,-0.040927973,331.34146,-84.27814,-4.1794457
2676330283000.0,0.4536382228070175,9.661150245614037,1.165346203508772,0.029321533,0.018325957,-0.053145275,330.8695,-84.31484,-4.2098193
2676335292000.0,0.4304753870070819,9.641847899243524,1.153764755375825,0.03756821,0.019242255,-0.06688975,330.39212,-84.344696,-4.2458196
2676340257000.0,0.4190979276573426,9.613733939446917,1.16518779686904,0.038789943,0.016493361,-0.073303826,329.9167,-84.37211,-4.281844
2676345441000.0,0.4151527405244755,9.578227411792753,1.1928040903210426,0.05100725,0.015271631,-0.07819075,329.44128,-84.39927,-4.320072
2676350319000.0,0.4110624141994153,9.544005530367002,1.2162545,0.049785517,0.0070249503,-0.1020145,328.96796,-84.413155,-4.3703365
2676355283000.0,0.4033424994218902,9.501545918480025,1.2162545,0.056199603,-0.0027488936,-0.105068825,328.49576,-84.43281,-4.414594
2676360253000.0,0.395613253562845,9.459034985547255,1.2162545,0.06414085,0.0009162979,-0.11728613,328.02448,-84.43927,-4.4677844
2676365271000.0,0.3858400732952555,9.433653378112862,1.2253331692864216,0.07238753,-0.0027488936,-0.12980886,327.55884,-84.445,-4.520131
2676371540000.0,0.3721236005985835,9.415364856065798,1.2436217868174548,0.08002335,-0.013133603,-0.14874569,327.09515,-84.44647,-4.5762043
2676375457000.0,0.3636522164731362,9.405757216243233,1.2553610311370262,0.07971791,-0.019242255,-0.15271631,326.63336,-84.44303,-4.6333194
2676380323000.0,0.3558886583790087,9.444574966180758,1.278651721632653,0.09193522,-0.027183503,-0.1600467,326.17633,-84.43646,-4.6949544
2676385267000.0,0.3480006536076634,9.484014948854645,1.302315752419825,0.09193522,-0.027488936,-0.16462818,325.718,-84.42205,-4.75866
2676390254000.0,0.3499627253980191,9.596349916636097,1.2678422659757886,0.09773844,-0.03481932,-0.17012598,325.26508,-84.4075,-4.822779
2676395586000.0,0.3593287472101981,9.76962084583639,1.1882310659024211,0.1001819,-0.043676864,-0.16890424,324.8137,-84.39221,-4.8845468
2676400320000.0,0.3886421516817121,9.854534,1.1389153532001215,0.11056661,-0.035124753,-0.16707164,324.36206,-84.37282,-4.9474835
2676405287000.0,0.4465401164073436,9.854534,1.1147912201237449,0.11636983,-0.025045475,-0.16554448,323.91348,-84.3529,-5.008312
2676410222000.0,0.4768696139672879,9.844680350703689,1.0993620701407378,0.1160644,-0.0030543262,-0.16432275,323.45316,-84.34561,-5.0633917
2676415255000.0,0.4722861045159756,9.821762875237733,1.0947785750475465,0.11575896,0.004276057,-0.1695151,322.99524,-84.33661,-5.1181827
2676420355000.0,0.4657946829255643,9.818791008541794,1.086552741671751,0.1142318,-0.0061086523,-0.1600467,322.54456,-84.34344,-5.1543374
2676425319000.0,0.4561263464643075,9.852630405735203,1.0720502294081755,0.11148291,-0.007330383,-0.16371189,322.09033,-84.344086,-5.194612
2676430280000.0,0.4393511071154231,9.873688,1.059439328825765,0.11789699,-0.0015271631,-0.16279559,321.63657,-84.346634,-5.2313557
2676435266000.0,0.4106953961632326,9.873688,1.0498874334866972,0.122478485,-0.004581489,-0.16187929,321.1863,-84.34664,-5.267736
2676441064000.0,0.3873006098809357,9.871905140635944,1.0563517549236587,0.12492194,-0.0125227375,-0.16829337,320.73627,-84.344124,-5.3059287
2676445577000.0,0.3782194790881075,9.868878035929402,1.0775410453564924,0.1432479,-0.022907447,-0.1740966,320.28845,-84.34285,-5.342361
2676450337000.0,0.3686413309441098,9.86568525542793,1.0998900421347528,0.14966199,-0.034208454,-0.17989981,319.8356,-84.33326,-5.3855104
2676455264000.0,0.3761232345616201,9.870213198073598,1.1251482816497902,0.15515977,-0.051618114,-0.18234327,319.3884,-84.32333,-5.427803
2676460258000.0,0.3997471281122911,9.8820249721742,1.15270951271919,0.17592919,-0.076052725,-0.18234327,318.94745,-84.312996,-5.4695125
2676465291000.0,0.4370758778443598,9.8978353096607,1.1733097333954166,0.18448131,-0.08552113,-0.1826487,318.50656,-84.294334,-5.514721
2676470447000.0,0.6130117999433152,9.953815006640214,1.121328660757956,0.19333886,-0.10415252,-0.1740966,318.07626,-84.27878,-5.555695
2676475359000.0,0.7806218172726537,10.007145548060572,1.071807514754231,0.21899518,-0.12522738,-0.16737708,317.6609,-84.26689,-5.5898585
2676480277000.0,0.882262689726514,10.050618779834844,1.0455480400550523,0.23793201,-0.14019357,-0.15027285,317.25015,-84.25961,-5.617348
2676485257000.0,0.9457849289380216,10.088732229488546,1.0328435568371517,0.26297748,-0.14905111,-0.11728613,316.8448,-84.25962,-5.6371655
2676490260000.0,0.9910767424475212,10.12554964823582,1.0200526575524789,0.26939157,-0.16646078,-0.105374254,316.4735,-84.30174,-5.6132894
2676495573000.0,1.0047118130326038,10.16190964662796,1.006417586967396,0.28221974,-0.17623462,-0.07086037,316.1034,-84.35886,-5.5736456
2676500330000.0,1.0117397945412607,10.189722,0.984810871040492,0.29046643,-0.20341812,-0.03848451,315.75604,-84.4307,-5.516781
2676505311000.0,0.9872897297649555,10.189722,0.9044749673647214,0.30390546,-0.22785273,-0.018020526,315.41168,-84.506874,-5.4541683
2676510273000.0,0.9629329296404774,10.189722,0.8244455045983745,0.31856623,-0.23915374,0.00061086525,315.07297,-84.5919,-5.380995
2676515261000.0,0.921288792,10.1724838,0.737414168,0.3210097,-0.24404067,0.019547688,314.74045,-84.67962,-5.3029227
2676520540000.0,0.8493230110228774,10.126220222064058,0.6346058925917641,0.34330627,-0.24862215,0.020463986,314.41217,-84.764755,-5.225858
2676525289000.0,0.8055784317647059,10.088320823529411,0.5453146670588236,0.35521814,-0.23732115,0.024740042,314.07312,-84.84676,-5.1501794
2676530361000.0,0.7857362787973856,10.052605075816992,0.4540408031895425,0.3631594,-0.21502456,0.023823744,313.73352,-84.92289,-5.076957
2676535529000.0,0.7638715562972381,10.01517529278802,0.3625115994080667,0.3921755,-0.21074851,0.03390302,313.38327,-95.01606,-5.0144496
2676540267000.0,0.6965640108992018,9.951072900473264,0.3208450176294413,0.42149702,-0.204029,0.03176499,313.0276,-94.96532,-4.956675
2676545378000.0,0.6239576654941018,9.88192403447058,0.2758982258458713,0.44226643,-0.19792034,0.036957346,312.66574,-94.92445,-4.9007354
2676550334000.0,0.5626323892721494,9.825804,0.2382205727571506,0.4538729,-0.20861048,0.03940081,312.3087,-94.89381,-4.847108
2676555287000.0,0.5479253462832339,9.825804,0.230867039744981,0.4654793,-0.22174409,0.04917465,311.95255,-94.86886,-4.790792
2676560263000.0,0.5331500089295403,9.825804,0.2234793594969382,0.4792238,-0.24251351,0.06780604,311.58676,-94.87447,-4.75395
2676565283000.0,0.5197380938952746,9.807173736909323,0.1969788889220945,0.47891834,-0.26053402,0.08399397,311.22632,-94.88654,-4.7156196
2676570678000.0,0.5065409225244785,9.771981065559812,0.1529883666828437,0.47158796,-0.2669481,0.1133155,310.87097,-94.898636,-4.6688743
2676575385000.0,0.4825438384188703,9.747371397981537,0.1181366789023627,0.47525316,-0.26847526,0.13072516,310.52243,-94.92262,-4.625878
2676580445000.0,0.4180940737028634,9.739789315365355,0.0915985386269754,0.47952923,-0.2782491,0.14966199,310.18045,-94.94533,-4.574969
2676585337000.0,0.3557841430722892,9.732458969879518,0.065941506566265,0.48808134,-0.28802297,0.17440203,309.83936,-94.97743,-4.5225587
2676590287000.0,0.2489418862713327,9.74672888878236,0.05746084,0.49021935,-0.28130344,0.19303341,309.49887,-95.013435,-4.4673615
2676595718000.0,0.1084066486174496,9.77392933251983,0.05746084,0.4972443,-0.28863382,0.22999077,309.1681,-95.0475,-4.4011745
2676600301000.0,-0.0207228628034486,9.791074466560351,0.0699823745459982,0.49571714,-0.28191432,0.23487769,308.82224,-95.10969,-4.356678
2676605282000.0,-0.1776219435456992,9.800583197049736,0.1032639986514502,0.4718934,-0.28344148,0.24648413,308.48413,-95.16483,-4.3009233
2676610265000.0,-0.3062445314751169,9.810214713706351,0.1458863417081385,0.45142943,-0.26175576,0.25320363,308.12076,-95.252625,-4.278078
2676615259000.0,-0.3851445617170745,9.820077417445695,0.2050613729715424,0.42394048,-0.25350907,0.26175576,307.765,-95.335144,-4.2520585
2676620379000.0,-0.4660352615246081,9.830188959925763,0.265729406625653,0.3921755,-0.24129178,0.2706133,307.38867,-95.436905,-4.257944
2676626354000.0,-0.5521958091296131,9.889568359992042,0.3383185922749428,0.35308012,-0.22357668,0.27885997,307.01215,-95.53068,-4.261122
2676630393000.0,-0.6060633088948573,9.95497862508704,0.3883384232428131,0.30970868,-0.20647246,0.2764165,306.63574,-95.6179,-4.2644906
2676635547000.0,-0.6631527320887284,10.007744486600425,0.4500551344675298,0.28099802,-0.20769419,0.27397305,306.2534,-95.705635,-4.2906013
2676640253000.0,-0.7038649932349694,10.025838709424873,0.5043381335842618,0.24678956,-0.21594086,0.27091873,305.87167,-95.78299,-4.316712
2676645685000.0,-0.735178532417899,10.021810611820626,0.5827956975321682,0.21991149,-0.22602014,0.25900686,305.49606,-95.85583,-4.358531
2676650327000.0,-0.7479849964855003,9.996197817409255,0.6639033478682542,0.18417588,-0.2452624,0.25809056,305.1291,-95.916626,-4.397378
2676655334000.0,-0.7363455940164018,9.966163906297458,0.7200988732712362,0.13744467,-0.24404067,0.24190263,304.76746,-95.970566,-4.451671
2676660257000.0,-0.6838385118659512,9.932750358408423,0.7248722443758226,0.116980694,-0.23854288,0.23365596,304.41336,-96.019485,-4.5029693
2676665235000.0,-0.6225943647521841,9.916766351959172,0.7739610443127758,0.09193522,-0.23396139,0.23732115,304.0731,-96.046326,-4.557657
2676670695000.0,-0.5411819676412075,9.930334884093073,0.9051254422022316,0.07574729,-0.23671028,0.24220806,303.7358,-96.07169,-4.612963
2676675302000.0,-0.4781577228670627,9.938335828913244,0.9956666097799716,0.05681047,-0.22113322,0.23854288,303.40695,-96.08161,-4.6566987
2676680274000.0,-0.47019053482724,9.910450949468752,0.8801424206391701,0.06841691,-0.23548855,0.24190263,303.08987,-96.09126,-4.696657
2676685324000.0,-0.4620983587208232,9.882128616163309,0.7628059051200535,0.064751714,-0.27947086,0.2452624,302.80365,-96.060295,-4.718965
2676690281000.0,-0.4642636576090267,9.862245692925375,0.7141065315104528,0.05100725,-0.26511553,0.22693644,302.50604,-96.03457,-4.7450113
2676696827000.0,-0.4729428488398172,9.840547737505192,0.6880689850062301,0.051618114,-0.2321288,0.19608775,302.217,-96.013725,-4.7735243
2676700340000.0,-0.477600654949467,9.82890323439014,0.6740955812681712,0.07544186,-0.20799962,0.18875736,301.9281,-96.00897,-4.7985773
2676705305000.0,-0.4714939058579994,9.81478411516132,0.6189514063481489,0.07666359,-0.14935656,0.17287487,301.6204,-96.00963,-4.832936
2676710292000.0,-0.4624029090996479,9.801147349481298,0.5553144480251262,0.10293079,-0.0729984,0.1423316,301.30173,-96.023735,-4.8721113
2676715288000.0,-0.4509375866333709,9.823320646312864,0.5508831025657952,0.10415252,-0.03268129,0.12705997,300.9797,-96.03854,-4.9127703
2676720428000.0,-0.4381108333805263,9.861801223052202,0.5722610201893512,0.118507855,0.0012217305,0.10873401,300.6389,-96.06736,-4.960842
2676725296000.0,-0.4249982141444709,9.859432590216604,0.5961013951207379,0.1337795,0.027488936,0.09407325,300.2916,-96.10454,-5.0090957
2676730414000.0,-0.4097590920012436,9.798475931910042,0.6265795969737797,0.15241088,0.049480084,0.09132435,299.93777,-96.14533,-5.0576797
2676735252000.0,-0.4352281520567376,9.747716596117954,0.6478339427025009,0.16432275,0.07147124,0.08399397,299.5842,-96.18442,-5.106871
2676740293000.0,-0.5073098043262412,9.702665598730867,0.661349288960433,0.16982053,0.089186326,0.07147124,299.2274,-96.22649,-5.1569476
2676745406000.0,-0.5676663495023474,9.67606408544601,0.6686319937089202,0.17654006,0.10293079,0.071776666,298.87482,-96.262505,-5.2017865
2676750317000.0,-0.6020139552331768,9.685877887636932,0.663725195086072,0.17806722,0.12308934,0.070249505,298.51724,-96.30118,-5.2492976
2676755232000.0,-0.6375218457261329,9.699243661763257,0.6645570504985685,0.17867808,0.15332718,0.07696902,298.14853,-96.3508,-5.3098216
2676760299000.0,-0.6758479904087273,9.71840661654655,0.6741385779148978,0.17715092,0.17195857,0.070554934,297.77972,-96.40285,-5.3731127
2676765595000.0,-0.7044524825081678,9.740727202228364,0.676389578327888,0.1704314,0.17898351,0.080634214,297.4067,-96.453674,-5.4351
2676770588000.0,-0.7164698140990199,9.76476194906593,0.6683780239339867,0.16401732,0.18784106,0.086132,297.03043,-96.50587,-5.4985027
2676775565000.0,-0.7282480577169875,9.787907744849711,0.6610050788584937,0.15882497,0.20097467,0.09407325,296.65213,-96.55869,-5.5651846
2676780270000.0,-0.7358567784194529,9.795516227203647,0.6648094392097265,0.16982053,0.20861048,0.10720685,296.2759,-96.60932,-5.627312
2676785247000.0,-0.7439053656534954,9.80356456231003,0.6688337328267477,0.16707164,0.20525073,0.118507855,295.9033,-96.6571,-5.6888747
2676790256000.0,-0.7442385685078776,9.801145509453198,0.6978998149212234,0.17898351,0.21166481,0.121256754,295.5284,-96.7065,-5.747457
2676795590000.0,-0.739504309823911,9.791677288693236,0.7452424017608897,0.19608775,0.20738874,0.14477506,295.16074,-96.74731,-5.795843
2676800360000.0,-0.7444495812411275,9.787497,0.7872509682113161,0.19975294,0.20189096,0.15699236,294.79355,-96.79007,-5.847413
2676805438000.0,-0.7592430279253701,9.787497,0.8316313597546137,0.20708331,0.18784106,0.18112154,294.43335,-96.82602,-5.88793
2676810239000.0,-0.7754431581814553,9.794470885617327,0.8895303987423895,0.21502456,0.18081611,0.19272798,294.07623,-96.85689,-5.9277167
2676815261000.0,-0.7946445814492464,9.808871730012974,0.9663360216388862,0.21563543,0.15790866,0.2049453,293.73077,-96.88079,-5.96003
2676820706000.0,-0.8562766456820744,9.816227,1.0288859085682074,0.22082779,0.13439035,0.20158553,293.38892,-96.90561,-5.9965053
2676825291000.0,-0.9387825834780158,9.816227,1.066013596514468,0.22693644,0.10751228,0.21288654,293.05768,-96.923256,-6.0249023
2676830273000.0,-1.0408558576551294,9.819816508574991,1.104319017648893,0.21319197,0.09101892,0.2134974,292.73138,-96.93796,-6.0609384
2676836098000.0,-1.1858119604510964,9.831413229290094,1.1449066925267644,0.21563543,0.0842994,0.20891592,292.41257,-96.95377,-6.094621
2676840279000.0,-1.288642207087166,9.829873910381078,1.1881641696014018,0.2125811,0.06811147,0.19456059,292.08997,-96.98392,-6.1507125
2676845598000.0,-1.418053640175208,9.816486245992117,1.2595636484450283,0.19517145,0.0693332,0.18020524,291.7672,-97.0131,-6.2066135
2676850361000.0,-1.5278442902588387,9.80798719849759,1.3153655264309627,0.16920967,0.062002823,0.15118915,291.43802,-97.06922,-6.2963057
2676855314000.0,-1.6130526334775863,9.815733565934512,1.334731040597697,0.15332718,0.061391957,0.12522738,291.10986,-97.126686,-6.387032
2676860255000.0,-1.6980545361312975,9.823461165673226,1.3540496364987344,0.12950343,0.07666359,0.08735373,290.76102,-97.21247,-6.517177
2676865258000.0,-1.6955656284812255,9.848411515575012,1.362732554201044,0.10995574,0.10476339,0.052534413,290.41245,-97.30238,-6.6505904
2676870426000.0,-1.6538978779508335,9.881745507156088,1.3668993249031824,0.08857546,0.12797627,0.01160644,290.06433,-97.40041,-6.7932
2676875289000.0,-1.589707324538692,9.905486044826588,1.3710173743599652,0.0852157,0.13500121,-0.029932396,289.69894,-97.52748,-6.964676
2676880280000.0,-1.474264785740508,9.914721636943291,1.3756350257656265,0.07086037,0.1695151,-0.052839845,289.32336,-97.65622,-7.137645
2676885268000.0,-1.3435573069232378,9.922860017360383,1.3932280085337796,0.06352998,0.19394971,-0.092240654,288.95343,-97.790436,-7.3129854
2676890264000.0,-1.1684265552813218,9.92786385463292,1.4482691213135328,0.053450707,0.22479841,-0.12614368,288.57605,-97.926865,-7.4887257
2676895411000.0,-1.0093444480759743,9.917917585430027,1.5240989059858576,0.03573562,0.2452624,-0.15210545,288.21112,-98.04635,-7.6459312
2676900384000.0,-0.8918667072520967,9.882673972866304,1.629828844104588,0.025045475,0.269697,-0.17745635,287.83984,-98.174095,-7.8087087
2676905997000.0,-0.7612652017453004,9.839820898267602,1.7529942091043125,0.021991149,0.28252518,-0.19364429,287.4878,-98.26906,-7.939156
2676910269000.0,-0.6896350912845559,9.76442080685588,1.900024544821231,0.010995574,0.26053402,-0.20861048,287.1419,-98.369446,-8.073908
2676915220000.0,-0.6066199515628456,9.677036478068558,2.0704241684482123,-0.01985312,0.24281894,-0.22510384,286.80865,-98.44119,-8.184653
2676920596000.0,-0.5330216400529217,9.593730426240352,2.2017470467916205,-0.06352998,0.2171626,-0.22143865,286.48703,-98.51162,-8.292129
2676925332000.0,-0.4730140101991915,9.523721868210217,2.30175974000735,-0.12461651,0.16249016,-0.22266038,286.18155,-98.58686,-8.404006
2676930348000.0,-0.4128395757666796,9.445396348322278,2.40446986155872,-0.17531833,0.09590584,-0.21594086,285.8988,-98.63852,-8.496696
2676935277000.0,-0.4404658418962153,9.261220888216933,2.422887311412407,-0.23518312,0.043066,-0.21013765,285.63022,-98.691986,-8.588547
2676940623000.0,-0.474317353105251,9.068623417851926,2.4364192839471053,-0.30848694,-0.026572637,-0.20250183,285.39508,-98.72879,-8.66317
2676945731000.0,-0.5984278314784347,9.053579813946335,2.2972651820327514,-0.39584067,-0.09315695,-0.20463985,285.17615,-98.772575,-8.737767
2676951377000.0,-0.7356102435565465,9.036951742753905,2.143454677058507,-0.47616947,-0.16187929,-0.20861048,284.9701,-98.83398,-8.821215
2676955271000.0,-0.8427448895114039,9.0761898733779,2.002444296765631,-0.5488624,-0.24465153,-0.22143865,284.78894,-98.90766,-8.906446
2676960269000.0,-0.99802812591919,9.198533759339364,1.7718721405918207,-0.62125,-0.35002577,-0.2321288,284.63565,-81.00717,-8.990543
2676965218000.0,-1.1423163492972972,9.314603544864866,1.5396657760432433,-0.68294734,-0.48349985,-0.2648101,284.4757,-80.86703,-9.117888
2676970725000.0,-1.2812919687432431,9.432198832162165,1.2724049488081082,-0.7583892,-0.54183745,-0.30604348,284.3261,-80.711296,-9.248069
2676975347000.0,-1.397933572716216,9.530896020810813,1.048094154640541,-0.84421575,-0.6435465,-0.35308012,284.17276,-80.508194,-9.419157
2676980264000.0,-1.4960610452053495,9.641823889594992,0.7295078065427297,-0.872621,-0.7156286,-0.39736784,284.02997,-80.28963,-9.597148
2676985258000.0,-1.552765231812577,9.764304782983972,0.2736062049568434,-0.94714653,-0.745561,-0.49113566,283.90686,-80.03415,-9.798138
2676990238000.0,-1.6093104559423317,9.886442317841222,-0.1810173384748175,-0.98899084,-0.71959925,-0.5815437,283.7091,-79.7419,-10.048563
2676995715000.0,-1.6714988480223845,10.020769080574787,-0.6810119463814854,-1.0170907,-0.6414085,-0.66767573,283.50922,-79.424126,-10.31877
2677000345000.0,-1.680664873908524,10.145830446465697,-0.9790791412266112,-1.0415252,-0.5183192,-0.74067414,283.26956,-79.08283,-10.610593
2677005306000.0,-1.4880546161746362,10.333502188565488,-0.7173266942037422,-1.0567969,-0.3930918,-0.8188649,283.01212,-78.71983,-10.922505
2677010285000.0,-1.2765776425790305,10.593805031426715,-0.4235146578919069,-1.0671816,-0.2883284,-0.9053023,282.59073,-78.3657,-11.284271
2677015258000.0,-1.0072577670900158,11.083878575971076,-0.0305726133994622,-1.061073,-0.20555615,-0.981355,282.1514,-78.00104,-11.657233
2677021472000.0,-0.6313666827080291,11.726191507664232,0.4171782954452555,-1.0516045,-0.15699236,-1.0619892,281.75275,-77.65082,-12.0006
2677025280000.0,-0.3305682764948904,12.173396078759124,0.6141613434802919,-1.0268645,-0.15607607,-1.1398746,281.3531,-77.28976,-12.35693
2677030503000.0,0.0820026467328467,12.786775667737228,0.8843405608875912,-0.99387777,-0.19486602,-1.1933253,281.04288,-76.97734,-12.64102
2677035294000.0,0.5375558825639714,13.35392771328045,1.050843851586489,-0.9636399,-0.22052236,-1.2253957,280.7339,-76.657364,-12.9347925
2677040292000.0,1.1581172908444215,13.954076290301945,1.071257040941658,-0.9502009,-0.22296582,-1.2336423,280.43423,-76.33716,-13.22997
2677045605000.0,1.816975540062085,14.573984262266103,1.0869002937690782,-0.97035944,-0.14813483,-1.1988231,280.20847,-76.12429,-13.395149
2677050282000.0,2.3847289794170905,14.848205398723808,1.00965492627921,-1.0262536,-0.025961773,-1.1206323,279.97052,-75.921684,-13.548298
2677055288000.0,2.992420601698716,15.141716412003104,0.9269757922928344,-1.1148291,0.1001819,-1.029308,279.76016,-75.86207,-13.548449
2677060262000.0,3.33251068822899,14.743286970259891,1.2042999461980888,-1.2324207,0.20647246,-0.9221011,279.51895,-75.816345,-13.527073
2677065289000.0,3.547490610359918,14.003755872912388,1.6600574278074485,-1.3848315,0.258396,-0.82558435,279.25644,-75.776054,-13.487859
2677070639000.0,3.512401275362319,13.335878770186335,2.1043727922705315,-1.5424347,0.2669481,-0.7528914,279.00427,-75.85299,-13.316549
2677075318000.0,3.2252433923395447,12.867590583407276,2.4533800158040027,-1.6227635,0.24984388,-0.732122,278.74496,-75.921,-13.142095
2677080269000.0,2.7950897789971147,12.491544308924484,2.881825141179982,-1.7632625,0.21319197,-0.7134906,278.53586,-75.94277,-12.941079
2677085268000.0,2.175879848124565,12.286728300915332,3.40100886698836,-1.8799378,0.18784106,-0.7089091,278.32916,-75.94111,-12.743876
2677091263000.0,1.305325409548583,12.186761473125417,4.089827510948905,-1.9688187,0.16401732,-0.7449502,278.1516,-75.81591,-12.613595
2677095742000.0,0.5571415678036782,12.223357310550764,4.655031540145986,-2.1230621,0.17959438,-0.7852673,277.9706,-75.646774,-12.4866495
2677100313000.0,-0.1615537811500865,12.291799093538486,5.093353600818511,-2.2101104,0.24953845,-0.8875872,277.79013,-75.30178,-12.485999
2677105322000.0,-0.8449010779581299,12.439040079568707,5.251920422320164,-2.43216,0.2751948,-1.0302242,277.62216,-74.87593,-12.507672
2677110223000.0,-1.5135145939605696,12.583106374744215,5.4070683544782,-2.6984973,0.3036,-1.2055426,277.42294,-74.21463,-12.702719
2677115263000.0,-2.080302621808015,12.838911041175972,5.723061727060917,-2.9220738,0.3023783,-1.3955216,277.23465,-73.47826,-12.938469
2677120276000.0,-2.6009407481826656,13.131770178386851,6.093202950775226,-3.058297,0.16920967,-1.570229,277.08777,-72.670135,-13.20903
2677125316000.0,-3.087167535962827,13.380691322347094,6.389621928193214,-3.2128458,-0.004276057,-1.6636915,276.89368,-71.69575,-13.630085
2677130336000.0,-3.513166775642965,13.557324909984873,6.566255787065053,-3.3695326,-0.1908954,-1.7159204,276.75385,-70.67634,-14.068446
2677135264000.0,-3.9973767666635096,13.495405967515865,6.371995005966474,-3.5219436,-0.364992,-1.7849482,276.64566,-69.5336,-14.591031
2677140274000.0,-4.54719748245099,13.227311420683776,5.853982167629511,-3.6205983,-0.46486846,-1.9031507,276.5812,-68.36829,-15.1178055
2677145281000.0,-4.967549226799537,12.93383411833793,5.279332559240146,-3.6328156,-0.462425,-2.031127,276.5182,-67.15786,-15.692444
2677150443000.0,-5.218267461162025,12.595145097428595,4.606351931479669,-3.5399642,-0.40042216,-2.1239784,276.47723,-65.956505,-16.268492
2677155289000.0,-5.427600019631902,12.272088940066068,4.066228829683813,-3.3826663,-0.41691554,-2.1890357,276.29242,-64.78263,-16.964691
2677160981000.0,-5.5356446557055214,11.865634475129776,3.917024237593204,-3.2119296,-0.51923543,-2.2369885,276.12997,-63.64096,-17.65641
2677165367000.0,-5.5791116314433,11.560975405523926,3.8203952079166026,-3.0112603,-0.65270954,-2.2693644,275.78058,-62.605133,-18.424355
2677170321000.0,-5.130154104639176,11.323721187798125,3.9408471176104016,-2.8264735,-0.73639804,-2.2687535,275.46356,-61.617157,-19.16689
2677175344000.0,-4.674943435051547,11.08316246037852,4.062976698230497,-2.728735,-0.98868537,-2.250733,275.17258,-60.661552,-19.894749
2677180367000.0,-4.206179936915182,10.928521137237146,4.075190802595835,-2.574797,-1.2742649,-2.2333233,274.9319,-59.770973,-20.585321
2677185584000.0,-3.7034915163597946,10.868198360901498,3.959572602867492,-2.557082,-1.509448,-2.212554,274.7608,-58.891747,-21.224857
2677190287000.0,-3.385787300909403,10.819742240048043,3.7724106811599176,-2.567161,-1.6890424,-2.17804,274.92123,-58.035202,-21.707365
2677195778000.0,-3.1737459950669185,10.770115490305422,3.4566044088023338,-2.5482244,-1.8414533,-2.1529946,275.13745,-57.20589,-22.147234
2677200299000.0,-2.9901566305245417,10.733475662523698,3.197305726163893,-2.5024095,-1.9339994,-2.1184807,275.49362,-56.433403,-22.470892
2677205319000.0,-2.731903592395197,10.718284531282915,2.91373383633874,-2.399784,-1.960572,-2.110234,275.8683,-55.69037,-22.771765
2677210312000.0,-2.514056855557895,10.701946499578948,2.7802558730736844,-2.2540927,-1.9291124,-2.1025982,276.25262,-55.028214,-23.023743
2677215298000.0,-2.416881535010526,10.681841198105264,3.105290693831579,-2.1065688,-1.9104811,-2.0665572,276.63574,-54.407528,-23.251287
2677220308000.0,-2.3192384632210525,10.661639120210529,3.431890062463158,-2.0042489,-1.8982637,-2.0503693,277.02246,-53.861115,-23.440975
2677225274000.0,-2.258286611250248,10.713801606241304,3.8945395720731466,-1.9761491,-1.8267925,-2.0152445,277.37262,-53.35135,-23.619627
2677230701000.0,-2.2531213067779765,10.894587262770822,4.638343955436295,-2.0286834,-1.6945401,-1.9840903,277.69403,-52.85845,-23.798414
2677235256000.0,-2.2404485789963,11.105809498150082,5.261195700882269,-2.160325,-1.5137241,-1.9724839,278.07727,-52.322346,-23.940142
2677240258000.0,-2.213181818575088,11.433011287543875,5.942865185940613,-2.3399193,-1.3707817,-1.9550742,278.4223,-51.781864,-24.079035
2677245272000.0,-2.2050361737278847,11.593483032409582,6.531809597275717,-2.543032,-1.2892311,-1.9294178,278.81656,-51.16807,-24.181232
2677250327000.0,-2.2505135639345544,11.286509906528886,6.861521200610616,-2.73576,-1.276403,-1.9168952,279.1833,-50.52931,-24.28496
2677255276000.0,-2.29503732340692,10.985973803663692,7.18431897012682,-2.8805351,-1.3054191,-1.9178114,279.61896,-49.830585,-24.331356
2677260268000.0,-2.2853171441880424,10.716860414989988,6.856927842891198,-2.9703321,-1.3698653,-1.9538525,280.05646,-49.109062,-24.371105
2677265261000.0,-2.253399699971393,10.46152038514351,6.26417385189282,-3.0091221,-1.3848315,-1.9932534,280.4812,-48.377872,-24.40679
2677270288000.0,-2.343304189283109,10.30824613726742,5.780252441809559,-3.0072896,-1.4175128,-2.022575,280.98047,-47.558895,-24.433525
2677275378000.0,-2.512252217648668,10.219325731393653,5.362328344764685,-2.9177978,-1.4804319,-2.0873265,281.49536,-46.75179,-24.459734
2677280318000.0,-2.596332255094614,10.226202924308588,4.865693602037846,-2.7705793,-1.5906931,-2.1303926,281.96545,-46.011177,-24.492529
2677285269000.0,-2.5766129337700145,10.354378126845498,4.249469430650863,-2.6288586,-1.6621643,-2.1337523,282.43677,-45.298893,-24.517466
2677290262000.0,-2.741959020631759,10.361107448491747,3.877609283266932,-2.5228734,-1.6615535,-2.133447,282.83295,-44.65288,-24.584883
2677295286000.0,-3.0979525978656803,10.242442493834186,3.758944805179283,-2.437047,-1.6636915,-2.1762075,283.24768,-44.039173,-24.642323
2677300362000.0,-3.4071865017934826,10.10518881149355,3.753935726406167,-2.3741279,-1.7024814,-2.2812762,283.5912,-43.529297,-24.714512
2677305316000.0,-3.63529761526368,9.94587326803022,3.9168721928184382,-2.329229,-1.7171422,-2.393981,283.93295,-43.03658,-24.796503
2677310359000.0,-3.867506808891093,9.783695576127604,4.08273585856674,-2.2989914,-1.7556267,-2.4914138,284.1811,-42.55745,-24.94766
2677315266000.0,-3.44974381312366,9.526102270050036,4.485464023245175,-2.2815816,-1.7443258,-2.4929411,284.4197,-42.091766,-25.102444
2677320292000.0,-2.8373292697641173,9.23365732880629,4.9671385111508215,-2.296548,-1.6694947,-2.4419339,284.65698,-41.62697,-25.265072
2677325672000.0,-2.180096833404941,8.921531273899035,5.445150273899033,-2.3057108,-1.7831156,-2.4431555,284.9936,-41.104042,-25.423708
2677330418000.0,-1.5698453971643396,8.662784553598282,5.186403553598281,-2.3335052,-1.9956968,-2.4110851,285.3118,-40.596554,-25.55103
2677335289000.0,-1.0014578421723834,8.374028257028732,4.937525338090003,-2.3399193,-2.186592,-2.359467,285.91446,-40.006046,-25.484274
2677340312000.0,-0.8780592546174142,7.8910109591029025,4.8141267137203165,-2.281887,-2.3512204,-2.3130412,286.5397,-39.441326,-25.367594
2677346278000.0,-0.7314942589270008,7.317313726487833,4.667561674303723,-2.189341,-2.5757134,-2.296548,287.3115,-38.90528,-25.10502
2677350289000.0,-0.6508794037558189,6.840334784521794,4.509416407024968,-2.0992384,-2.7000244,-2.2406538,288.06183,-38.40835,-24.80577
2677355355000.0,-0.5738860120292002,6.1114639273275495,4.227107286161659,-1.9822577,-2.7974575,-2.2134702,288.84116,-37.950287,-24.46363
2677360291000.0,-0.54446513818465,5.55564438660552,3.8729518315479794,-1.8466456,-2.843883,-2.2214115,289.6703,-37.46819,-24.09861
2677365350000.0,-0.5612338605866575,5.144810425110323,3.428580469023103,-1.7220291,-2.8658743,-2.1594086,290.47412,-37.03863,-23.695005
2677370287000.0,-0.5627048199638274,4.766543747945914,3.0257966988200846,-1.6487253,-2.783102,-2.1487186,291.28802,-36.57013,-23.335203
2677375321000.0,-0.4962717579881147,4.484203028610801,2.755912343898028,-1.5234979,-2.7409523,-2.158187,292.08746,-36.16326,-22.9502
2677380266000.0,-0.4310132177676341,4.206854030376368,2.490799484325209,-1.434617,-2.6468792,-2.1181753,292.81036,-35.77135,-22.624758
2677385325000.0,-0.3106169932099742,3.8582371556995847,2.3367977152681574,-1.3307699,-2.5011878,-2.0659463,293.49884,-35.425617,-22.317211
2677390358000.0,-0.1818418265030674,3.500528458895705,2.2032531411042946,-1.2425,-2.431549,-2.0341814,294.16473,-35.111397,-22.008371
2677395305000.0,0.0565269110033821,3.228317808483653,2.134351194306652,-1.1539245,-2.3839016,-1.9926424,294.8036,-34.822624,-21.722012
2677400375000.0,0.3211037464036076,2.9637410207158963,2.075049437260428,-1.0549643,-2.341141,-1.9315559,295.40518,-34.57497,-21.44005
2677405293000.0,0.636603683102493,2.8050690508361544,2.038103021668205,-0.958753,-2.3261747,-1.8564194,296.05035,-34.31332,-21.137877
2677410290000.0,0.9802859925761772,2.6823253615574023,2.008644560849492,-0.86132,-2.3267858,-1.7925841,296.6668,-34.092144,-20.832035
2677415809000.0,1.3703378405125366,2.132960085399035,2.227132881990034,-0.77579886,-2.336865,-1.7391334,297.3725,-33.852913,-20.46351
2677420271000.0,1.688045722154552,1.5955605534366843,2.4603440076247725,-0.6826419,-2.2999077,-1.6261233,298.02933,-33.66344,-20.082703
2677425299000.0,1.9893420390901104,1.0245893005193791,2.6819247963487256,-0.600786,-2.257147,-1.5451837,298.7593,-33.480225,-19.626163
2677430355000.0,2.1027939799668065,0.566054446027531,2.7670138260470565,-0.5412266,-2.2018638,-1.459357,299.4431,-33.33606,-19.158792
2677435272000.0,2.1971407674026344,0.1516789038396664,2.841218139382166,-0.45173484,-2.0934353,-1.3628404,300.19516,-33.076794,-18.611057
2677440272000.0,2.219828154875391,-0.1251074128475315,2.8775179119586847,-0.38423425,-1.9645426,-1.2834278,300.90817,-32.839058,-18.06414
2677445535000.0,2.2350835702797203,-0.4036845789554196,2.928175675021853,-0.33200526,-1.8225164,-1.2147056,301.61,-32.5419,-17.514627
2677450304000.0,2.188506892773893,-0.5667030683391608,3.061251931206294,-0.2593123,-1.6203201,-1.1050552,302.24136,-32.282475,-16.984829
2677455268000.0,2.140025737995338,-0.7363872330069929,3.1997695524475525,-0.17256944,-1.4407257,-1.0537425,302.86075,-31.983997,-16.479725
2677460231000.0,2.086859970597275,-0.8446290254031349,3.376113239053376,-0.089186326,-1.3417655,-1.0143417,303.42786,-31.71437,-15.982999
2677465260000.0,2.0227165980534783,-0.8199585165249462,3.6376207238397695,-0.05467244,-1.1478158,-0.95814216,303.92624,-31.461445,-15.537076
2677470238000.0,1.9261635879727488,-0.757335608952747,3.9068638187439952,0.020463986,-0.97341377,-0.9117164,304.40488,-31.176397,-15.117082
2677475351000.0,1.7679183146126298,-0.624751745273823,4.201969797851341,0.10629055,-0.8002335,-0.88606006,304.83734,-30.906239,-14.734677
2677480368000.0,1.612045979337232,-0.4863947348148148,4.4953307289148805,0.16218472,-0.6356053,-0.8784242,305.22452,-30.630856,-14.385444
2677485454000.0,1.44852678317089,-0.2701273404938272,4.827643932250379,0.22418754,-0.49205196,-0.8848383,305.579,-30.381075,-14.069356
2677490291000.0,1.3300944927395566,-0.0803070239461413,5.139686806660958,0.2742785,-0.33200526,-0.8863655,305.86832,-30.142075,-13.818311
2677495272000.0,1.325555331944048,0.0649462210448187,5.448350214730231,0.34025195,-0.19425514,-0.8671232,306.12997,-29.925604,-13.593999
2677500348000.0,1.3177801052360285,0.2322752318312533,5.756183442485079,0.39064834,-0.06169739,-0.8509353,306.3322,-29.736326,-13.422508
2677505382000.0,1.2916218333423766,0.5112965088632664,6.022125501627781,0.4550946,0.0571159,-0.838718,306.50702,-29.57071,-13.27909
2677510238000.0,1.266388506303129,0.7804517176966901,6.278663967896545,0.5213735,0.15577064,-0.8155051,306.64713,-29.427378,-13.136317
2677515255000.0,1.1851163635265882,0.8110369323093077,6.334464861546539,0.5858198,0.24281894,-0.7877107,306.7624,-29.303205,-13.017888
2677520565000.0,1.093578941041026,0.8186650442121053,6.372605421060526,0.66767573,0.32436943,-0.77457714,306.85748,-29.203196,-12.921326
2677525282000.0,0.9690556999597708,0.9540841780750275,6.40838535643166,0.75900006,0.41905355,-0.7724391,306.91956,-29.165737,-12.827013
2677530274000.0,0.7142238650608468,1.4637479181615207,6.451658560897114,0.8546005,0.48349985,-0.77182823,306.96713,-29.152681,-12.744843
2677535262000.0,0.4919890289712943,1.9120771381755035,6.515660422872612,0.95905846,0.5375614,-0.7663304,306.982,-29.168482,-12.706816
2677540257000.0,0.3600474485238533,2.1906205143630606,6.637828713556032,1.058324,0.5561928,-0.7696902,306.99164,-29.207745,-12.677224
2677545263000.0,0.2242598104377653,2.4586123172833685,6.767436288607811,1.1432343,0.5830709,-0.7516697,306.93033,-29.39352,-12.696841
2677550355000.0,0.0778996922642884,2.705333613686061,6.9158872248167045,1.2125676,0.57818395,-0.7501425,306.87466,-29.596502,-12.716257
2677555497000.0,-0.069897583393217,2.9544775465420403,7.06579584893024,1.2751812,0.56321776,-0.732122,306.7812,-29.876709,-12.744228
2677560234000.0,-0.2060538834300905,3.183998124126399,7.203897201016164,1.3381003,0.5479461,-0.7174612,306.6889,-30.168774,-12.771872
2677565254000.0,-0.350344494826566,3.427230824036359,7.35024906664237,1.3628404,0.4905248,-0.6921103,306.59808,-30.462214,-12.782055
2677570262000.0,-0.4868933080126644,3.594375041240461,7.504970644341614,1.3817772,0.44623706,-0.65668017,306.51352,-30.762716,-12.784898
2677575330000.0,-0.6208597535849976,3.7204611870433513,7.666518554651729,1.393689,0.37965274,-0.63194007,306.43753,-31.061533,-12.767593
2677580327000.0,-0.7410454893657563,3.82857560166954,7.853306876962163,1.3906348,0.312763,-0.59528816,306.29614,-31.461975,-12.767338
2677585259000.0,-0.809616847209872,3.867146965284457,8.153306819254151,1.3857478,0.24648413,-0.5516113,306.1608,-31.854507,-12.749115
2677590624000.0,-0.8824628612031261,3.910906439535384,8.463725389259338,1.3817772,0.19150625,-0.5018258,306.0031,-32.254623,-12.733727
2677595270000.0,-0.9111747547859756,3.984281160249516,8.41906189589159,1.3671165,0.14752395,-0.44623706,305.84723,-32.64003,-12.700625
2677600330000.0,-0.9424451339356134,4.064194222413422,8.370418487273248,1.3497068,0.10934488,-0.41355577,305.72293,-32.966236,-12.656683
2677605308000.0,-0.9602107277249284,4.135531142263611,8.317727536389684,1.3487904,0.07360926,-0.3463606,305.58664,-33.288628,-12.592103
2677610261000.0,-0.9239670485157592,4.176305402005731,8.24524059426934,1.3548992,0.061391957,-0.29260445,305.4512,-33.5991,-12.524539
2677615290000.0,-0.8837649208944772,4.219225105045361,8.172800880391533,1.3469579,0.04153884,-0.23854288,305.3058,-33.927944,-12.450499
2677620267000.0,-0.8116965033614516,4.276121174120643,8.112111660830813,1.3368785,0.020463986,-0.20250183,305.15817,-34.249405,-12.371266
2677625336000.0,-0.7382958988858825,4.334068968804711,8.050300599156454,1.3045027,-0.004581489,-0.15882497,304.99567,-34.5785,-12.273813
2677630276000.0,-0.6106070924802911,4.427501669496665,7.980528953001819,1.2880094,-0.0076358155,-0.11911872,304.83005,-34.900208,-12.1755295
2677635452000.0,-0.4352549264968668,4.552753126945623,7.900367915605417,1.29198,0.0070249503,-0.07727446,304.6593,-35.211266,-12.072138
2677640291000.0,-0.1918243082824673,4.776473755657208,7.830846130298049,1.2791518,0.013744468,-0.043066,304.49634,-35.52514,-11.94852
2677645289000.0,0.1092341851804731,5.074111210821242,7.762423792509471,1.2718215,0.027183503,-0.0070249503,304.32343,-35.834553,-11.82696
2677650304000.0,0.41131668712458,5.3727610382817526,7.693768725680795,1.2641857,0.03756821,0.04795292,304.16898,-36.153675,-11.672235
2677655350000.0,0.5930346431441404,5.581768832666394,7.756458758023683,1.2470814,0.035430185,0.10781772,304.0078,-36.46169,-11.515516
2677660220000.0,0.7406265554144549,5.762687940669661,7.846918361739486,1.215011,0.013744468,0.13927728,303.8452,-36.75614,-11.356854
2677665286000.0,0.7518717988621328,5.936695234929875,7.819740371103466,1.1863003,0.009773844,0.1957823,303.6907,-37.12367,-11.104895
2677671258000.0,0.7316926863632355,6.1384866759813,7.759203138960925,1.128879,0.00030543262,0.23732115,303.53955,-37.465477,-10.850463
2677675282000.0,0.6561088620653477,6.292909487709832,7.648320588309352,1.0809261,0.009468411,0.26908615,303.3801,-37.81491,-10.563585
2677680332000.0,0.5304659166716627,6.495870945543565,7.474353235191846,1.0479393,0.01282817,0.29749137,303.21695,-38.14534,-10.27392
2677685278000.0,0.4090773023931797,6.665772263300518,7.31915603145235,1.0085385,-0.01740966,0.31856623,303.0471,-38.496105,-9.9840145
2677690266000.0,0.2878728156419364,6.816065973277175,7.17371080124835,0.9718866,-0.035430185,0.32834008,302.87338,-38.82958,-9.701678
2677695225000.0,0.196347191904167,6.881214732899081,7.049691310422057,0.91813046,-0.07971791,0.34972036,302.69788,-39.196953,-9.435888
2677700332000.0,0.1221570569276345,6.889943022887481,6.936223950700455,0.8713993,-0.12980886,0.35705075,302.53125,-39.545494,-9.172106
2677705275000.0,0.0509729292658702,6.847436837298845,6.847766728808372,0.82772243,-0.1853976,0.36285394,302.36313,-39.918568,-8.924591
2677710268000.0,-0.0198390911973541,6.715254445503011,6.795837951396979,0.79137594,-0.2510656,0.3659083,302.20914,-40.270535,-8.669376
2677715223000.0,-0.0614130797256565,6.575123221658696,6.782317822010649,0.745561,-0.3203988,0.37110063,302.06085,-40.618355,-8.426244
2677720261000.0,-0.0439966168847576,6.414020930150708,6.847629506515657,0.7141015,-0.37201694,0.3652974,301.92712,-40.949997,-8.180377
2677725368000.0,-0.0465083518141592,6.269148440265487,6.882393845251264,0.70738196,-0.39950588,0.37598756,301.7928,-41.254616,-7.9460907
2677730464000.0,-0.1776173829646017,6.242155424336284,6.716579483746839,0.6985244,-0.39614612,0.3744604,301.6695,-41.5407,-7.7166843
2677735296000.0,-0.3019342665044248,6.216560790707965,6.559355191205753,0.6954701,-0.39736784,0.37415496,301.54407,-41.783615,-7.481887
2677741297000.0,-0.3947939635241693,6.24254561513126,6.614431345132229,0.70463306,-0.4092797,0.3643811,301.42496,-42.020172,-7.253341
2677745262000.0,-0.435256271918047,6.279329507410637,6.735818304882302,0.70952,-0.41263947,0.35643986,301.30652,-42.248222,-7.031603
2677750303000.0,-0.4423881669711444,6.271884342639891,6.8016960356599725,0.68477994,-0.40958515,0.3475823,301.17825,-42.49054,-6.856239
2677755288000.0,-0.4098104047124196,6.216036791850264,6.787734147962565,0.6533204,-0.46486846,0.344528,301.06558,-42.72568,-6.6727805
2677760267000.0,-0.3817429580253605,6.147355279808344,6.72802986714742,0.6227771,-0.4538729,0.3387248,300.93237,-42.935123,-6.518441
2677765259000.0,-0.3586051080902139,6.064058848020521,6.616968086951893,0.6035349,-0.4783075,0.34238997,300.8183,-43.13336,-6.348177
2677770225000.0,-0.34476504,5.994166950452184,6.5341167490667695,0.5849035,-0.5235115,0.32834008,300.7149,-43.309937,-6.1782007
2677775318000.0,-0.34476504,5.9425487535597465,6.491883558610737,0.56779927,-0.5522222,0.32253686,300.61273,-43.47705,-6.008479
2677780269000.0,-0.4286482741883808,5.902559161309947,6.505494802747643,0.5702427,-0.57726765,0.31581733,300.50806,-43.652855,-5.8296127
2677785269000.0,-0.6859588085085673,5.883139410726959,6.631722725286424,0.56230146,-0.591623,0.30024028,300.41205,-43.815407,-5.6544175
2677790231000.0,-0.947968386289445,5.924635797170837,6.749377131011969,0.5467244,-0.6236934,0.25992316,300.32715,-43.971893,-5.481073
2677795260000.0,-1.226127019285176,6.08185588310036,6.854190423411735,0.51343226,-0.6273586,0.21624629,300.24506,-44.11596,-5.318733
2677800687000.0,-1.52420727959799,6.262022083752094,6.969974185494138,0.4877759,-0.573297,0.1518,300.13583,-44.237072,-5.23359
2677805275000.0,-1.737643345125628,6.607935765494138,7.117171596616416,0.43585235,-0.5103779,0.065973446,300.0411,-44.335255,-5.165101
2677810300000.0,-1.971408870251256,6.986797197654941,7.278389336566164,0.37690386,-0.43218717,-0.009773844,299.89954,-44.439972,-5.193308
2677815255000.0,-2.133154802787942,7.35712197133647,7.421932051402684,0.30634892,-0.355829,-0.08857546,299.7679,-44.51987,-5.2503567
2677820272000.0,-2.2461766493291515,7.729675308459662,7.555883940756229,0.26236662,-0.33964106,-0.15851954,299.65005,-44.585266,-5.3222275
2677825275000.0,-2.328224929661684,8.044374393154996,7.635955320944138,0.2284636,-0.3894266,-0.20586158,299.57062,-44.67273,-5.432836
2677830567000.0,-2.3322124579071595,8.223809625098347,7.576143396538159,0.21044308,-0.5439755,-0.25809056,299.52658,-44.746357,-5.536185
2677835226000.0,-2.3357230199055863,8.381781799252558,7.523485846309992,0.20280726,-0.6951646,-0.30207285,299.50125,-44.85238,-5.650766
2677840269000.0,-2.4913503751809407,8.58486491344994,7.548201728648975,0.17073683,-0.77091193,-0.35124752,299.50485,-44.94012,-5.7566986
2677845765000.0,-2.721505609740652,8.81898813238842,7.607724850603136,0.14019357,-0.7715228,-0.40469822,299.53415,-45.02068,-5.853727
2677850329000.0,-2.916654334653784,9.037399125603864,7.679714232850241,0.06414085,-0.7687739,-0.48349985,299.58966,-45.12162,-5.942512
2677855350000.0,-3.1683076227616747,9.498118323671497,7.966212007729468,-0.052839845,-0.72112644,-0.5305365,299.64032,-45.197094,-6.0418563
2677860260000.0,-3.414397573888889,9.948652333333332,8.246376133333333,-0.112399206,-0.59956425,-0.65270954,299.7313,-45.28405,-6.223167
2677865257000.0,-3.578092951345119,10.520961199461953,8.641740035357417,-0.25900686,-0.514654,-0.7693848,299.82697,-45.307198,-6.4099636
2677870274000.0,-3.684268732686395,11.171865371925442,9.112606309185242,-0.43585235,-0.4334089,-0.8775079,299.9196,-45.296093,-6.6373124
2677875293000.0,-3.6590789066134217,11.754275802473948,9.508719095451449,-0.6389651,-0.38820487,-0.9810496,300.03635,-45.25627,-6.9266605
2677880362000.0,-3.5125034913022306,12.279110099250024,9.839695616733223,-0.8582657,-0.41996986,-1.0629056,300.16702,-45.15406,-7.2237244
2677885270000.0,-3.2273670888046646,12.500000115451895,9.996901847813412,-1.0751228,-0.57971114,-1.1133019,300.3223,-45.019886,-7.505906
2677890266000.0,-2.7763432113702624,12.402355747327505,9.973653211856172,-1.2702943,-0.79290307,-1.1316279,300.50156,-44.825294,-7.7681293
2677895259000.0,-2.263660705234002,12.089743469054442,9.764624592645657,-1.4477507,-0.9691377,-1.1065824,300.68646,-44.611736,-7.9571786
2677900331000.0,-1.651271978892073,11.454157924068769,9.27749702053486,-1.6099354,-1.0641272,-1.0338894,300.8876,-44.34975,-8.104491
2677905267000.0,-1.055638319050236,10.789486266072366,8.750766507645517,-1.7211128,-1.0500773,-0.9419542,301.06332,-44.063885,-8.148345
2677910269000.0,-0.4527665189797587,10.01580093245936,8.102679584184584,-1.8029687,-1.0057896,-0.8332202,301.22852,-43.75012,-8.158589
2677915533000.0,0.1486128499851752,9.085085066110183,7.32878024190985,-1.8347337,-0.9477574,-0.7305948,301.39633,-43.405876,-8.078004
2677920257000.0,0.6501139089191319,8.115314901168615,6.528191201589316,-1.8289305,-0.89766645,-0.6432411,301.53253,-43.061577,-7.9874506
2677925309000.0,1.1864355324869449,7.078210990651085,5.672015115285475,-1.7718146,-0.8356637,-0.5705481,301.68045,-42.710487,-7.826984
2677930338000.0,1.4317262515499545,6.232400578636041,5.083518954700681,-1.6927075,-0.7254025,-0.5381723,301.79532,-42.377304,-7.680052
2677935478000.0,1.2816354827726395,5.627034375160077,4.848376623162923,-1.5671748,-0.4868596,-0.55863625,301.86548,-42.081245,-7.571775
2677940313000.0,1.1062392049485816,5.236258767382152,4.711454602022224,-1.4462235,-0.3494149,-0.55680364,301.99783,-41.757275,-7.3717513
2677945322000.0,0.8844153858513355,5.04092138837739,4.668414089336738,-1.3539828,-0.13439035,-0.5907067,302.07928,-41.464043,-7.248827
2677950529000.0,0.6538231267099178,4.837862547794879,4.623672234764304,-1.2599095,0.009162978,-0.61636305,302.1398,-41.162647,-7.167185
2677955235000.0,0.397314310138818,4.809163341464711,4.787908681069302,-1.2189816,0.3417791,-0.6951646,302.14066,-40.873554,-7.186754
2677960171000.0,0.0908157752425595,4.899605520461309,5.119530178943452,-1.1655309,0.5039638,-0.72295904,302.14072,-40.62102,-7.1937833
2677965171000.0,-0.1778496465304321,5.147881985938622,5.457513970645592,-1.1664472,0.6282749,-0.768163,302.07153,-40.34031,-7.3330193
2677970202000.0,-0.4251087792837935,5.484154222159499,5.79873148932567,-1.1630874,0.68416905,-0.81000733,301.99042,-40.079628,-7.493056
2677975267000.0,-0.6399374938048499,5.886971245092379,6.117179739607391,-1.1716396,0.69974613,-0.81306165,301.8504,-39.80762,-7.7049084
2677980161000.0,-0.8338715260161663,6.301899983641262,6.414845798691301,-1.2021828,0.68752885,-0.82772243,301.71887,-39.532936,-7.9268694
2677985126000.0,-1.059313081180723,6.663699875180723,6.677966777068273,-1.2776246,0.6658431,-0.8179486,301.5546,-39.262535,-8.169102
2677990120000.0,-1.3042081311566265,6.990226849156627,6.918060045903615,-1.353372,0.6383542,-0.8145888,301.40143,-38.987778,-8.40415
2677995125000.0,-1.5092921763862803,7.355263253543541,7.065761714500346,-1.430341,0.627664,-0.81153446,301.25644,-38.717728,-8.652524
2678000257000.0,-1.6938953955619256,7.753617392398933,7.158063450904418,-1.4987578,0.5891795,-0.8216137,301.12683,-38.434013,-8.883093
2678005128000.0,-1.8386344375248709,8.056703081655392,7.141180503581377,-1.5589281,0.5571091,-0.8136725,301.01807,-38.14507,-9.134064
2678010122000.0,-1.967098181774771,8.318388482928771,7.055537775567052,-1.6261233,0.5207626,-0.80573124,300.92148,-37.84056,-9.369823
2678015122000.0,-2.1975363698894244,8.287709361497024,6.99868507655231,-1.672549,0.48655418,-0.79473567,300.84293,-37.571583,-9.611359
2678020123000.0,-2.500803749730649,8.04781118826198,6.962474263396654,-1.6853772,0.45204028,-0.8038987,300.77515,-37.297882,-9.8397255
2678025182000.0,-2.6623523,7.920019,6.943185,-1.7128662,0.43157628,-0.8038987,300.7156,-37.057438,-10.07087
2678030474000.0,-2.6623523,7.920019,6.943185,-1.7446312,0.37843102,-0.79259765,300.66885,-36.816685,-10.279658
2678035122000.0,-2.652050600601993,7.446140612553044,6.984391743807362,-1.7635679,0.3390302,-0.768163,300.66193,-36.52085,-10.539717
2678040120000.0,-2.6331559607519983,6.576986784861344,7.05997020455936,-1.7867808,0.32406402,-0.7461719,300.65802,-36.221497,-10.784558
2678045124000.0,-2.638636737258933,5.839303169554576,7.128028886010768,-1.7880026,0.30115658,-0.74128497,300.67514,-35.926273,-11.008743
2678050256000.0,-2.6675050034165446,5.209013185805188,7.190576938365149,-1.783421,0.2996294,-0.7058548,300.6786,-35.635853,-11.218966
2678055184000.0,-2.6930991185229303,4.680736979094699,7.295108434335914,-1.7751744,0.31398472,-0.66920286,300.71765,-35.19956,-11.438584
2678060202000.0,-2.716950807226524,4.222784257117332,7.447759192227517,-1.7785342,0.37659842,-0.67256266,300.749,-34.76989,-11.663855
2678065292000.0,-2.7534097478333024,3.887872745472985,7.51863560842707,-1.7809776,0.39920044,-0.63529986,300.79187,-34.244003,-11.885316
2678070172000.0,-2.800808198875161,3.6982792112668266,7.501399930757883,-1.7815884,0.42577308,-0.5992588,300.8241,-33.72717,-12.117122
2678075232000.0,-2.8715439252532797,3.5769756990295405,7.540275507838327,-1.7977765,0.49113566,-0.59589905,300.86606,-33.12145,-12.367976
2678080246000.0,-2.989323090039458,3.623063219217234,7.704142460168497,-1.7825048,0.64568454,-0.6536258,300.8957,-32.53273,-12.644349
2678085181000.0,-3.065171521805183,3.6853760880548103,7.781282663985701,-1.7272215,0.6814202,-0.68508536,300.9395,-31.925732,-12.912841
2678090175000.0,-3.0889163033363123,3.7708570437096616,7.74803991033661,-1.6905695,0.6554584,-0.65209866,300.9678,-31.328804,-13.195424
2678095143000.0,-3.1656154569466213,3.903591099105744,7.733859889278142,-1.6878207,0.6976081,-0.6469063,301.0017,-30.730194,-13.51945
2678101296000.0,-3.355752119553794,4.153485037429704,7.750157426090163,-1.6804903,0.7812967,-0.6722572,301.03424,-30.15354,-13.839686
2678105501000.0,-3.4853527776842106,4.290046517894737,7.739652744842106,-1.6181821,0.79779,-0.7281514,301.0812,-29.616383,-14.153337
2678110259000.0,-3.631332224421053,4.377634220778032,7.685431752732265,-1.5766432,0.77304995,-0.7275405,301.11523,-29.088055,-14.464885
2678115291000.0,-3.784769298885794,4.455684420090529,7.587700340198468,-1.5598444,0.732122,-0.6988298,301.15875,-28.604118,-14.799747
2678120289000.0,-3.926430578272981,4.3681876605153205,7.033554355745125,-1.5583172,0.70921457,-0.68508536,301.20795,-28.135443,-15.126845
2678125268000.0,-4.067553329387187,4.281023521674791,6.481514968671657,-1.5589281,0.73853606,-0.7058548,301.2588,-27.693733,-15.481716
2678130303000.0,-4.26131520391086,4.261679,6.508181260732846,-1.5424347,0.70188415,-0.7483099,301.32538,-27.264902,-15.807292
2678135511000.0,-4.476582124513345,4.261679,6.705875298467365,-1.5268577,0.6081163,-0.698219,301.37756,-26.850428,-16.107807
2678140290000.0,-4.622529190625554,4.142015579691654,6.855226906964381,-1.5735888,0.5635232,-0.6160576,301.4278,-26.456856,-16.46933
2678145286000.0,-4.728513934449761,3.9088492583732055,6.982408440191388,-1.6649132,0.528093,-0.5925393,301.49216,-26.061855,-16.803465
2678150287000.0,-4.784947397850016,3.640748009628639,6.872517716798683,-1.6994271,0.49357912,-0.5558874,301.54205,-25.65815,-17.141758
2678155321000.0,-4.6956793686554885,3.268798224585948,6.064147008065014,-1.7406605,0.49113566,-0.54305923,301.5925,-25.235834,-17.471981
2678160271000.0,-4.6381154332468055,2.9475776681309904,5.59859194702476,-1.7715092,0.5155703,-0.5516113,301.65152,-24.752651,-17.814949
2678165293000.0,-4.647719055591054,2.7218935207667734,5.867492119169329,-1.7916678,0.4297437,-0.4804455,301.7004,-24.279167,-18.109997
2678170795000.0,-4.696011572843309,2.4515949127200707,6.204902256029929,-1.8866574,0.42638394,-0.464563,301.75266,-23.771255,-18.475647
2678175312000.0,-4.7880373297021706,2.197730930685153,6.541272066189848,-1.9382755,0.44104472,-0.44959682,301.79443,-23.284372,-18.809677
2678180262000.0,-4.88888468335534,1.9195315259756456,6.909886314649354,-1.9477439,0.54305923,-0.48166725,301.85028,-22.723623,-19.160057
2678185272000.0,-5.051886562476095,1.7056895393054856,7.198661159033719,-1.9318613,0.5002986,-0.4605924,301.90347,-22.171888,-19.462572
2678190253000.0,-5.258347483331655,1.542441337845999,7.424327783090086,-1.9559906,0.4908302,-0.47555858,301.95865,-21.6093,-19.801987
2678195254000.0,-5.425102328688524,1.414550351918778,7.648831877514903,-1.9602666,0.49449542,-0.5006041,302.041,-20.951824,-20.13535
2678200321000.0,-5.565219415163934,1.3105926064362892,7.874827109770864,-1.9520199,0.4822781,-0.4999932,302.12357,-20.303644,-20.453562
2678205294000.0,-5.701638270056726,1.1653883529376012,8.094506724574554,-1.9477439,0.4801401,-0.4700608,302.21323,-19.612507,-20.797407
2678210430000.0,-5.8411461186790925,0.9611089994529984,8.318715859906808,-1.930945,0.44898596,-0.44135013,302.3078,-18.939346,-21.122166
2678215283000.0,-5.939585141331522,0.8025685019710145,8.515583050452898,-1.9031507,0.4098906,-0.42730024,302.41013,-18.2418,-21.451698
2678220292000.0,-6.004761895434783,0.6765597749565218,8.702423741304347,-1.8848248,0.36987892,-0.39920044,302.5033,-17.564272,-21.759779
2678225265000.0,-6.039823027970161,0.5382022771464469,8.892224531056144,-1.8842138,0.31642818,-0.36163223,302.6069,-16.85065,-22.059454
2678230294000.0,-5.990659152767963,0.3604556820730271,9.096444184923438,-1.8829921,0.23609942,-0.32436943,302.70792,-16.159382,-22.329784
2678235274000.0,-5.941974305182567,0.1844409587750294,9.298674027090694,-1.8894062,0.16340645,-0.27305678,302.8078,-15.44647,-22.577072
2678240605000.0,-5.957052265432338,-0.0145954316227219,9.309400926328037,-1.9022343,0.0061086523,-0.22510384,302.9101,-14.750814,-22.768518
2678245311000.0,-5.992002526754556,-0.1937158778635129,9.25260594765413,-1.8866574,-0.024129177,-0.19639318,302.99506,-14.078896,-22.965296
2678250317000.0,-5.936578887063313,-0.4163928680780898,9.06493860309228,-1.887879,-0.047036625,-0.13164146,303.0857,-13.367574,-23.082937
2678255341000.0,-5.832996828858009,-0.6565149603689207,8.810691951952245,-1.9083431,-0.06780604,-0.08124508,303.1694,-12.671866,-23.186762
2678260263000.0,-5.667678537857277,-0.9556431034544766,8.687439781563505,-1.9291124,-0.109650314,-0.033292156,303.24252,-11.95924,-23.286467
2678265252000.0,-5.459669912360401,-1.2993096082528863,8.642220535680485,-1.9507982,-0.15302174,0.004581489,303.2999,-11.260164,-23.372692
2678270263000.0,-5.274592946244593,-1.6348311401690916,8.67477909762092,-1.96271,-0.19883664,0.042760566,303.35318,-10.538146,-23.446852
2678275311000.0,-5.113003548210775,-1.9627624604994105,8.788841962740857,-1.9847012,-0.23457226,0.08002335,303.39178,-9.825416,-23.506083
2678280288000.0,-4.973842044042056,-2.241431569509346,8.902950378504674,-2.0030272,-0.26633725,0.09621128,303.44385,-9.058001,-23.520155
2678285251000.0,-4.858164380130452,-2.468160030422508,9.018628090732086,-2.0210476,-0.29168814,0.10415252,303.482,-8.301404,-23.52213
2678290249000.0,-4.759152376892317,-2.656080850899743,9.092045457202705,-2.0039434,-0.29871312,0.116980694,303.52673,-7.5003333,-23.482029
2678295256000.0,-4.686104809111683,-2.78391380848329,9.101176570027611,-1.9905044,-0.27885997,0.12889257,303.56146,-6.708258,-23.44066
2678300280000.0,-4.648796142896908,-2.860933749639176,9.103002475257732,-1.9734001,-0.27305678,0.09560041,303.6163,-5.88452,-23.363672
2678305390000.0,-4.694202285886598,-2.8205729151030927,9.087867392783505,-1.9394971,-0.25686884,0.13316862,303.6361,-5.09256,-23.291542
2678310339000.0,-4.73534595177106,-2.75702939015922,9.097876588693271,-1.9040669,-0.21685717,0.1328632,303.67746,-4.2846174,-23.217133
2678315291000.0,-4.771936184947744,-2.653911292943817,9.147772408571228,-1.8777997,-0.20677789,0.102319926,303.70914,-3.4981282,-23.137642
2678320219000.0,-4.808349082583994,-2.551292960335274,9.197426407028129,-1.8115209,-0.2593123,0.09285152,303.73035,-2.7524908,-23.060717
2678325292000.0,-4.8267107,-2.6060145965434565,9.252177101498502,-1.7733418,-0.21105394,0.14355333,303.73346,-2.0232613,-23.014347
2678330311000.0,-4.8267107,-2.812491944515485,9.30979883156843,-1.7437148,-0.17440203,0.14538592,303.74908,-1.3155341,-22.95006
2678335244000.0,-4.809311707283545,-2.943661666844481,9.424381833812063,-1.700038,-0.19150625,0.08674286,303.7597,-0.6593848,-22.888454
2678340290000.0,-4.774610000861715,-3.0081075969224456,9.597890107098891,-1.6643023,-0.2593123,0.1160644,303.73645,-0.030899782,-22.821762
2678345288000.0,-4.676461031100345,-3.237573678030374,9.81882609512718,-1.6099354,-0.23426682,0.19517145,303.7206,0.6112665,-22.773663
2678350341000.0,-4.527674732851952,-3.598267721550359,10.080328849436318,-1.5690074,-0.23945917,0.19425514,303.71442,1.2411927,-22.697485
2678356143000.0,-4.440843012237624,-3.911008739485149,10.14976105940594,-1.5131133,-0.3454443,0.11453723,303.7081,1.8521216,-22.578932
2678360264000.0,-4.43693548819802,-4.063402340237624,10.04035054950495,-1.4333953,-0.3454443,0.1881465,303.64932,2.4174964,-22.491283
2678365217000.0,-4.416730975870924,-4.170761390225113,9.939397517846444,-1.396438,-0.2941316,0.20799962,303.64227,3.0525587,-22.336287
2678370270000.0,-4.371168468886416,-4.1583349806556535,9.885551040571771,-1.3545936,-0.3323107,0.10598512,303.6411,3.6579692,-22.157019
2678375288000.0,-4.331749287657473,-4.152316576098059,9.831084961525368,-1.2840388,-0.35063666,0.124005646,303.59848,4.258005,-22.013971
2678380280000.0,-4.380582121161049,-4.241843685393258,9.76190488389513,-1.2363913,-0.26267207,0.17165314,303.57306,4.848594,-21.89105
2678385224000.0,-4.428945408188628,-4.33050995709908,9.693389999319033,-1.196685,-0.22418754,0.15790866,303.5521,5.414499,-21.745281
2678390491000.0,-4.404693791899302,-4.231626117896311,9.648609254735794,-1.1539245,-0.19761491,0.06963864,303.53577,5.959026,-21.62163
2678395286000.0,-4.355095142140246,-4.071384117979395,9.618087143569293,-1.0916162,-0.24740042,0.06169739,303.49222,6.470376,-21.490458
2678400269000.0,-4.386496900133346,-3.919480798152205,9.557471281264885,-1.0375546,-0.258396,0.1160644,303.46146,6.987983,-21.395018
2678405302000.0,-4.611451962091628,-3.800116868158872,9.428925326126295,-0.9728029,-0.1994475,0.115453534,303.44568,7.482817,-21.304064
2678410256000.0,-4.7172921215951495,-3.7257798297574634,9.366032386660446,-0.9263771,-0.11178834,0.045814894,303.42596,7.9250045,-21.211784
2678415254000.0,-4.360091448964552,-3.824010018227612,9.558027852518656,-0.84635377,-0.081855945,0.06169739,303.37656,8.324246,-21.124382
2678420328000.0,-3.998652724287653,-3.912139735318062,9.74863103950834,-0.80878556,-0.061391957,0.06963864,303.34897,8.704113,-21.111008
2678426495000.0,-3.579117655359566,-3.827289907382872,9.908902652326605,-0.75533485,-0.020463986,0.049785517,303.3248,9.052857,-21.110579
2678430269000.0,-3.32237607109905,-3.775364619458856,10.006983577699735,-0.6933321,0.004581489,0.029932396,303.29663,9.39644,-21.026388
2678435259000.0,-3.024135132430528,-3.72332590406766,10.033415645388644,-0.61666846,0.029932396,0.01740966,303.27145,9.71673,-20.95413
2678440264000.0,-2.758704693294402,-3.6847178621828434,9.975503380990736,-0.59223384,0.09254608,-0.00580322,303.25626,10.031543,-20.898626
2678445255000.0,-2.4985397708714085,-3.711060920433349,9.927461182006594,-0.54550266,0.18020524,-0.028099801,303.23474,10.293416,-20.766544
2678450382000.0,-2.234883059302873,-3.789695431653321,9.885831294394723,-0.5109888,0.28160888,-0.028405234,303.2153,10.547271,-20.658377
2678455271000.0,-2.0000286491604964,-3.837356349442069,9.82430979570341,-0.50518554,0.3726278,-0.060170226,303.2117,10.791714,-20.5246
2678460302000.0,-1.778946078756909,-3.852430146751486,9.733867221712378,-0.48502702,0.45081854,-0.0888809,303.2102,11.018593,-20.417997
2678465257000.0,-1.6210711782366771,-3.873170690094044,9.63489923448276,-0.46914452,0.5198463,-0.11148291,303.22018,11.259186,-20.28399
2678470292000.0,-1.5152609294514106,-3.899623222695925,9.525309855172416,-0.4474588,0.58368176,-0.12980886,303.23947,11.490904,-20.171074
2678475604000.0,-1.4129868852017935,-3.9236564074738416,9.401561175635278,-0.41386122,0.62949663,-0.16707164,303.26758,11.719269,-20.035528
2678480319000.0,-1.53672908836572,-3.856160646055472,9.105330004525827,-0.36163223,0.7119634,-0.15974127,303.29187,11.929997,-19.931534
2678485307000.0,-1.6676360044593923,-3.784756858578309,8.791946954368045,-0.33841935,0.8063421,-0.17684549,303.3332,12.151538,-19.822956
2678490290000.0,-1.7910520882498235,-3.722895739449541,8.664636400582216,-0.30543262,0.91415983,-0.19028452,303.37527,12.351497,-19.742983
2678496062000.0,-1.92758748549753,-3.659504352293578,8.679265233151023,-0.26939157,1.0100657,-0.19028452,303.4218,12.540989,-19.686434
2678500267000.0,-2.0424053526630823,-3.610878804382672,8.702013308613168,-0.23915374,1.1230757,-0.20647246,303.49118,12.725381,-19.721527
2678505454000.0,-2.218789769158973,-3.545364526387339,8.757448483108451,-0.2134974,1.2232577,-0.2144137,303.56274,12.8974,-19.778225
2678510287000.0,-2.374389000352454,-3.503722230681117,8.823455236320381,-0.20005837,1.3078625,-0.22724187,303.64676,13.053094,-19.885843
2678515256000.0,-2.516953415146709,-3.499529163521015,8.919895605868359,-0.18295415,1.3524556,-0.22602014,303.7325,13.197505,-20.00726
2678520447000.0,-2.659741838511739,-3.4955344,9.011426676163948,-0.15149458,1.3732251,-0.22815818,303.8307,13.322026,-20.173168
2678525339000.0,-2.734313672208516,-3.4955344,9.007698010505372,-0.12705997,1.3677273,-0.21135938,303.92365,13.43927,-20.341318
2678530274000.0,-2.809540981957819,-3.4955344,9.003936570393952,-0.08032878,1.3439035,-0.18142697,304.0161,13.534162,-20.532724
2678535265000.0,-2.940920678047151,-3.5178288253125896,8.979903678152143,-0.047036625,1.321607,-0.16615535,304.107,13.623702,-20.718721
2678540268000.0,-3.119272972205784,-3.5589871315262003,8.938745562947409,-0.025350908,1.287704,-0.12950343,304.17926,13.696675,-20.894373
2678545287000.0,-3.3015112889534883,-3.58591101007752,8.859506685804265,0.010079277,1.2666291,-0.106595986,304.25223,13.756235,-21.083733
2678550288000.0,-3.487145501395349,-3.595192711007752,8.734203771705426,0.046731193,1.2727377,-0.06841691,304.30865,13.802789,-21.270899
2678555298000.0,-3.699792844416693,-3.573726654823603,8.579854242533042,0.08032878,1.2938126,-0.05589417,304.37747,13.8507595,-21.49149
2678560327000.0,-3.9554124291913833,-3.503556482422729,8.37936807305651,0.12156218,1.3475688,-0.031154128,304.43405,13.880458,-21.721874
2678565614000.0,-4.215755812224939,-3.3115028426039124,8.227770641198045,0.14294247,1.3967434,-0.019242255,304.50397,13.913661,-21.998272
2678570286000.0,-4.438454206915822,-3.038013582387356,8.145723842734894,0.16554448,1.4538593,-0.020463986,304.57544,13.933537,-22.286871
2678575364000.0,-4.64596439812811,-2.749670515772846,8.083318715188373,0.17073683,1.4886786,-0.009162978,304.65308,13.946037,-22.641924
2678580429000.0,-4.703432165760998,-2.5006440960982546,8.136955068951899,0.19058995,1.4935656,0.011911872,304.73087,13.947122,-22.998123
2678585360000.0,-4.759379562048811,-2.258205937082379,8.189172415528,0.19608775,1.4914275,0.020158553,304.80017,13.892404,-23.419897
2678590291000.0,-4.825225142168675,-2.002260818629518,8.211962941114457,0.1731803,1.457219,0.029626964,304.86087,13.837734,-23.828028
2678595292000.0,-4.897354022891566,-1.735383734006024,8.219175979819276,0.15088372,1.3955216,0.06505715,304.9091,13.777803,-24.22285
2678600643000.0,-4.97273543932663,-1.4546819080274336,8.229712579222195,0.111177474,1.3292428,0.06383542,304.93768,13.671599,-24.611958
2678605306000.0,-5.011019465209259,-1.2841437036396228,8.281918482035694,0.0720821,1.2544118,0.06994407,304.94745,13.567135,-24.977583
2678610293000.0,-5.051963586392331,-1.101755964998831,8.337751816226326,0.04153884,1.1410962,0.06505715,304.92163,13.405102,-25.327993
2678615286000.0,-5.121611810559765,-0.9648385010478286,8.338980402468835,0.010079277,1.0409144,0.081855945,304.88214,13.251937,-25.65667
2678620289000.0,-5.230921551649963,-0.8906640874553899,8.264805516010755,-0.024740042,0.9285152,0.10354166,304.83255,13.109383,-25.94453
2678625522000.0,-5.342579837011756,-0.8160623149639742,8.1874722136898,-0.060170226,0.7984009,0.1432479,304.73737,12.923981,-26.203207
2678630311000.0,-5.246922331532044,-0.9682443856276072,8.13529558650929,-0.09773844,0.77091193,0.15974127,304.64267,12.750892,-26.453974
2678635409000.0,-5.145092729749716,-1.130245679476678,8.079752373862343,-0.09682214,0.7134906,0.18325958,304.52182,12.559375,-26.69336
2678640300000.0,-4.976125265840543,-1.3383092861974906,7.935434929654742,-0.09987647,0.68752885,0.19730948,304.40045,12.380151,-26.92947
2678645247000.0,-4.795200625438391,-1.5561575696672123,7.776664259184787,-0.12492194,0.68783426,0.22479841,304.26666,12.204089,-27.154922
2678650301000.0,-4.64126701356297,-1.7582666566200216,7.667733918622175,-0.13408493,0.8054258,0.23090707,304.15924,12.065093,-27.38796
2678655326000.0,-4.563564908476857,-1.9093539103875132,7.689317799138859,-0.14569137,0.763887,0.2874121,304.01657,11.924559,-27.577976
2678660301000.0,-4.490046359305501,-2.0591778209129927,7.706082536636754,-0.18478674,0.7287622,0.3381139,303.914,11.860831,-27.77375
2678665265000.0,-4.466861012446352,-2.212201303862661,7.655074870386266,-0.21013765,0.6881397,0.38240165,303.79285,11.790442,-27.955875
2678670551000.0,-4.453210144533274,-2.371926827655637,7.610440420682508,-0.21319197,0.6630942,0.43188173,303.66873,11.750612,-28.113935
2678675365000.0,-4.599958104989266,-2.4708963459175366,7.709409832037901,-0.20097467,0.6560693,0.47342056,303.53217,11.708631,-28.264841
2678681244000.0,-4.779171079546969,-2.591760865622918,7.830274221185876,-0.18845193,0.65484756,0.5140431,303.39343,11.693679,-28.41002
2678685247000.0,-4.908178729402516,-2.655253004433962,7.8922595144129986,-0.1994475,0.6597345,0.55833083,303.24112,11.675401,-28.554768
2678690287000.0,-5.085259446383648,-2.695728483679245,7.927675552148847,-0.21868975,0.6560693,0.6133087,303.0727,11.649157,-28.697008
2678695214000.0,-5.238031929957507,-2.7263512856232293,7.96182605417847,-0.23701571,0.6542367,0.65087694,302.91348,11.642632,-28.86442
2678700326000.0,-5.363717211048159,-2.74368723796034,7.996497913597733,-0.23793201,0.6759224,0.6582073,302.7489,11.633022,-29.035362
2678705320000.0,-5.471295832471097,-2.7622352315977707,8.033005979871913,-0.2510656,0.6942484,0.6637051,302.57895,11.630194,-29.231642
2678710298000.0,-5.491121712201614,-2.78999150462447,8.084553101555352,-0.2556471,0.73456544,0.659429,302.4141,11.625508,-29.435726
2678715275000.0,-5.510943609232305,-2.817742201863096,8.136089868252517,-0.2501493,0.8063421,0.6444628,302.26154,11.6236,-29.672321
2678720286000.0,-5.49005674201535,-2.8426139660807133,8.155680756622926,-0.2510656,0.8503244,0.6395759,302.10904,11.623026,-29.907936
2678725331000.0,-5.454170416687298,-2.8665382662375176,8.163655662127589,-0.22571471,0.8848383,0.63194007,301.9679,11.6165285,-30.154621
2678730266000.0,-5.419601661471686,-2.8870966,8.177971262339758,-0.19822577,0.89766645,0.6261369,301.82385,11.612317,-30.400715
2678735270000.0,-5.385741244635106,-2.9016082,8.20699466437872,-0.17959438,0.93401295,0.61208695,301.69025,11.605786,-30.65656
2678740249000.0,-5.358569123711341,-2.9024636092783505,8.216110298969072,-0.13194689,0.95905846,0.5821546,301.56836,11.595348,-30.899181
2678745315000.0,-5.344675536502482,-2.874676628293242,8.183691961053837,-0.08155051,0.98654735,0.5561928,301.45352,11.580754,-31.14672
2678751177000.0,-5.307753151871657,-2.8457258981900453,8.153317181818183,-0.035124753,1.0192287,0.52320606,301.34857,11.563072,-31.388237
2678755311000.0,-5.254824687700535,-2.829440089366516,8.141103090909091,0.031154128,1.0589349,0.48349985,301.25763,11.533176,-31.632114
2678760305000.0,-5.193074482269504,-2.8086191418439714,8.116785283687943,0.086132,1.0913107,0.4560109,301.17072,11.493729,-31.879139
2678765252000.0,-5.1370737795508274,-2.785285596926714,8.070118193853428,0.13408493,1.1307116,0.4370741,301.09836,11.4450445,-32.13193
2678770250000.0,-5.079194674536943,-2.7371888589863627,8.00031010278852,0.19761491,1.1468995,0.41141775,301.03107,11.382806,-32.372288
2678775361000.0,-5.016097283329941,-2.614314856842391,7.860831367053396,0.2565634,1.135293,0.38789943,300.97083,11.313538,-32.60966
2678780265000.0,-4.955555392021168,-2.496417359970147,7.727001642920144,0.2947425,1.1478158,0.35277468,300.9223,11.238709,-32.84702
2678785445000.0,-4.907675150667595,-2.3914026109726,7.596127054673164,0.33964106,1.1795808,0.31795537,300.88263,11.153111,-33.080257
2678790284000.0,-4.893012702018604,-2.329820265405303,7.493489914130229,0.37690386,1.2263119,0.2938262,300.85376,11.065425,-33.31493
2678795301000.0,-4.877810903119661,-2.265972646535468,7.3870773218376256,0.4016439,1.3118331,0.25686884,300.82767,10.953681,-33.57381
2678800325000.0,-4.908767821140858,-2.1747425206770283,7.306276951175848,0.42241332,1.3552046,0.2507602,300.8001,10.834809,-33.829475
2678805346000.0,-5.182667885914232,-1.9399708322971765,7.361056882415168,0.41813725,1.2977833,0.25442538,300.78085,10.722144,-34.073853
2678810332000.0,-5.454658669216372,-1.706835672316706,7.415454957929856,0.41538838,1.271516,0.23182335,300.77036,10.598375,-34.35124
2678815288000.0,-5.631775255460833,-1.568025308685861,7.442310953836255,0.43768495,1.2421945,0.21227567,300.75327,10.470647,-34.60693
2678820812000.0,-5.784942705163262,-1.457404520878237,7.459329440887888,0.46578476,1.2189816,0.20433442,300.73874,10.345936,-34.851295
2678825277000.0,-5.917993430109912,-1.359763656307351,7.471900305233437,0.46273044,1.2024882,0.20005837,300.68954,10.165148,-35.143204
2678830308000.0,-6.102613222042956,-1.2188695805384693,7.481617333971967,0.46761733,1.2030991,0.19120082,300.6448,9.981116,-35.427055
2678835329000.0,-6.275775833602413,-1.104966258138916,7.467270725822762,0.48533243,1.1209377,0.19517145,300.56827,9.768003,-35.709724
2678840291000.0,-6.410668329601704,-1.079673923392176,7.374532077051361,0.49205196,1.0680978,0.20005837,300.49762,9.561192,-35.99432
2678845664000.0,-6.5567916993805175,-1.051588907743534,7.273638928480718,0.48930305,1.0323622,0.19456059,300.40866,9.3277445,-36.29003
2678850371000.0,-6.68594516027567,-1.0131919215541272,7.17590113882608,0.4822781,0.9963212,0.19058995,300.3152,9.096882,-36.56543
2678855303000.0,-6.821272304770017,-0.972959515374787,7.073491370698466,0.473726,0.9828822,0.19242255,300.2232,8.866053,-36.873615
2678860267000.0,-6.958536620499899,-0.9240498684106028,6.960264205301351,0.43401974,0.9663888,0.18875736,300.1334,8.649648,-37.16432
2678865290000.0,-7.099135868111268,-0.861022664694618,6.82936174730901,0.40317106,0.93951076,0.17531833,300.0464,8.438546,-37.442123
2678870267000.0,-7.237255460326087,-0.8290703893478261,6.70792873097826,0.3555236,0.90102625,0.16707164,299.96646,8.236358,-37.75794
2678875313000.0,-7.375483384639589,-0.8428932154576658,6.597346035497711,0.3023783,0.86070913,0.15943582,299.89047,8.048159,-38.05872
2678880266000.0,-7.492655379518452,-0.8690164244769214,6.476312746808958,0.24678956,0.8350528,0.14630222,299.81696,7.866056,-38.388718
2678885310000.0,-7.56883913668384,-0.9248843327515508,6.323945921911471,0.19425514,0.7984009,0.12980886,299.74515,7.7002153,-38.697315
2678890658000.0,-7.597228738501384,-1.0924265408859517,6.09158906441011,0.14630222,0.75808376,0.13622294,299.68414,7.551475,-39.032425
2678895255000.0,-7.565774124211842,-1.351926595579173,5.816361579405198,0.111177474,0.7107417,0.13255776,299.63046,7.418615,-39.34734
2678900287000.0,-7.531968631434465,-1.6171308751269438,5.537365945311013,0.076052725,0.66981375,0.13591751,299.58716,7.30897,-39.67891
2678905313000.0,-7.50141761750238,-1.7851611327435737,5.373154713971755,0.039095376,0.63621616,0.14477506,299.5408,7.2086,-39.99288
2678910294000.0,-7.471140140304666,-1.951686941177404,5.21041373838464,0.01160644,0.6081163,0.15210545,299.5745,7.1882887,-40.32832
2678915257000.0,-7.442892658433391,-2.127394465180103,5.065123501114923,-0.01282817,0.59040123,0.16829337,299.59946,7.17181,-40.65199
2678920307000.0,-7.415240948885077,-2.3117393879931387,4.926864809005146,-0.04886922,0.58062744,0.17715092,299.6224,7.163457,-40.96414
2678925278000.0,-7.354444408714426,-2.5063490414524043,4.849725141118744,-0.076052725,0.5494733,0.18081611,299.68396,7.203098,-41.280228
2678930345000.0,-7.263964844465161,-2.715880779077527,4.8211525319921495,-0.08246681,0.53023106,0.17989981,299.74304,7.24401,-41.59137
2678935324000.0,-7.182037440130409,-2.8763230796680497,4.848861587788974,-0.11056661,0.48472157,0.1908954,299.8345,7.3336096,-41.895023
2678940325000.0,-7.106330985921755,-2.99461402219917,4.929299377326616,-0.12797627,0.4166101,0.19272798,299.9256,7.4223003,-42.180824
2678945279000.0,-7.050663180051814,-3.0784037190414506,5.036314957707254,-0.1600467,0.33933565,0.1853976,300.0475,7.562148,-42.432323
2678950343000.0,-7.014766316987417,-3.127762257161362,5.175416262592524,-0.16829337,0.24495697,0.18967366,300.15622,7.695515,-42.655674
2678955287000.0,-7.002383239658444,-3.1571136504532995,5.315733743200505,-0.2012801,0.14080444,0.17623462,300.2785,7.866572,-42.823566
2678960336000.0,-7.038064436432638,-3.1469189923887835,5.468653614168248,-0.22449298,0.024740042,0.17989981,300.38153,8.030273,-42.959076
2678965315000.0,-7.074376911416113,-3.0984828437914973,5.609460702606283,-0.25350907,-0.06352998,0.1853976,300.47385,8.20895,-43.042393
2678970312000.0,-7.112316130056485,-2.998892945763552,5.737504927955603,-0.28496864,-0.14477506,0.18967366,300.55252,8.389484,-43.093166
2678975304000.0,-7.175113350161725,-2.887394356585804,5.834196086019766,-0.30818152,-0.21563543,0.1957823,300.60776,8.564806,-43.108482
2678980321000.0,-7.274401402911051,-2.757888051877808,5.885998481689128,-0.3472769,-0.26267207,0.20280726,300.65158,8.74592,-43.10714
2678985310000.0,-7.38047348689384,-2.616602030471822,5.925577028833552,-0.3866777,-0.29749137,0.21013765,300.65625,8.904001,-43.08213
2678990331000.0,-7.520020529526306,-2.4185355195656246,5.912072503613556,-0.42332962,-0.29657507,0.2125811,300.6551,9.066601,-43.054142
2678995358000.0,-7.657550822805578,-2.22225565201896,5.894619316926443,-0.45448375,-0.30024028,0.19608775,300.61987,9.202241,-43.027645
2679000383000.0,-7.758438312551271,-2.059957953769028,5.811277417828822,-0.4709771,-0.30787608,0.18325958,300.5789,9.339087,-43.00078
2679005185000.0,-7.854848606234619,-1.9048627205359585,5.731634074651354,-0.48808134,-0.31642818,0.16890424,300.51068,9.438988,-43.004917
2679010128000.0,-7.990067135025487,-1.771321679943826,5.713287286799126,-0.48991394,-0.33353242,0.14508049,300.44745,9.541971,-43.002735
2679015129000.0,-8.134549890356809,-1.641785219213565,5.708305015187767,-0.47647488,-0.3481932,0.12339478,300.38614,9.646087,-42.997738
2679020126000.0,-8.18649173998668,-1.5914273175149842,5.805456448292265,-0.4615087,-0.39706242,0.112704635,300.30005,9.715047,-43.01355
2679025167000.0,-8.227828323660926,-1.5500906858814574,5.915687497954524,-0.44959682,-0.4370741,0.089491755,300.22504,9.787543,-43.024776
2679030133000.0,-8.26355808272078,-1.5615123294026296,5.9887006041515685,-0.4352415,-0.48899764,0.07147124,300.1267,9.828438,-43.04584
2679035123000.0,-8.298191028160264,-1.586249948307278,6.0530185992856405,-0.4266894,-0.528093,0.055283304,300.0334,9.871776,-43.05711
2679040183000.0,-8.319108769326803,-1.5937542587054645,6.0060575199366175,-0.419359,-0.54000485,0.030543262,299.9336,9.904443,-43.051224
2679045122000.0,-8.337278673485066,-1.5982966398828389,5.942464230884472,-0.42241332,-0.5317582,0.0015271631,299.8399,9.941345,-43.038578
2679050275000.0,-8.203250908226655,-1.5447946104574548,6.066191339928464,-0.4034765,-0.5766568,-0.00061086525,299.74097,9.974392,-43.00476
2679055177000.0,-8.035335722044428,-1.4785123632624246,6.23410634154744,-0.40378192,-0.6084218,-0.006414085,299.65604,10.018073,-42.97473
2679060174000.0,-7.9839711154594815,-1.5400596093228154,6.366610251408667,-0.40286562,-0.6114761,-0.0061086523,299.57068,10.058551,-42.953316
2679065169000.0,-7.993772542823481,-1.6674789326503432,6.479327305757606,-0.38973203,-0.6236934,0.021380283,299.47305,10.091898,-42.922207
2679070175000.0,-7.987745557372046,-1.740223277705118,6.565556093896591,-0.37720928,-0.65484756,0.027488936,299.35144,10.113679,-42.83368
2679075329000.0,-7.974834493024675,-1.791867400279013,6.643022390103758,-0.3680463,-0.6835582,0.04886922,299.2138,10.12514,-42.746746
2679080185000.0,-8.016579333775713,-1.8549942259124088,6.728862428511391,-0.3494149,-0.70463306,0.09010262,299.0746,10.148496,-42.638176
2679085175000.0,-8.132852625082945,-1.939556514233577,6.834565219929219,-0.32742378,-0.7171558,0.11362094,298.9331,10.168569,-42.526253
2679090172000.0,-8.21025001053205,-2.00447943090612,6.744242318140548,-0.32467487,-0.7458665,0.12767084,298.7792,10.192305,-42.392635
2679095171000.0,-8.262409995914291,-2.0566397793898674,6.52690777485927,-0.31856623,-0.77396625,0.12522738,298.62302,10.2097025,-42.258503
2679100287000.0,-8.302848776753104,-2.110146996347699,6.486919043873265,-0.31581733,-0.7367035,0.13194689,298.46664,10.232543,-42.138184
2679105324000.0,-8.32487185427319,-2.163001278597517,6.698336310847334,-0.2602286,-0.7489208,0.1386664,298.3054,10.243771,-41.99863
2679110375000.0,-8.304513727164501,-2.189492317748918,6.831964463722944,-0.2519819,-0.79504114,0.14019357,298.16327,10.280792,-41.9017
2679115262000.0,-8.162689708008658,-2.1388409956709955,6.7357269517748914,-0.2593123,-0.81397796,0.14263703,298.02026,10.307965,-41.810818
2679120221000.0,-8.005191489467041,-2.0929372462285216,6.65409395112125,-0.25411993,-0.8136725,0.15393804,297.86777,10.3335085,-41.68623
2679125301000.0,-7.821000187651684,-2.0551542962236677,6.597419476798369,-0.24007004,-0.7602218,0.17134771,297.71597,10.357092,-41.574024
2679130283000.0,-7.679458070509596,-2.082147674606483,6.589427343211385,-0.22174409,-0.67011917,0.19700404,297.55508,10.370635,-41.467655
2679135280000.0,-7.617544906490333,-2.2403697619133185,6.678857301408754,-0.18051068,-0.68936145,0.23518312,297.37912,10.370876,-41.349823
2679140288000.0,-7.555495451735787,-2.398940146790771,6.7684841236325735,-0.14355333,-0.72601336,0.23762658,297.20676,10.368269,-41.23207
2679145887000.0,-7.475541170392197,-2.6003881401950824,6.799391807132697,-0.11789699,-0.77763146,0.21930063,297.0266,10.3566885,-41.1079
2679150360000.0,-7.405901532412111,-2.774487189697216,6.78633439205446,-0.099265605,-0.7690793,0.21380283,296.84494,10.336678,-40.993347
2679155271000.0,-7.358477367014812,-2.8486672980915304,6.890025221572351,-0.064446285,-0.7351763,0.20525073,296.6849,10.354639,-40.833538
2679160308000.0,-7.33099644770224,-2.839507007595898,7.082392517622484,-0.054367006,-0.72204274,0.20097467,296.52518,10.37438,-40.673298
2679165367000.0,-7.251473721391122,-2.7165479216183157,7.266151226642782,-0.090713486,-0.691194,0.17073683,296.40366,10.444709,-40.512836
2679170268000.0,-7.120230217546313,-2.4786691244320167,7.434306703635093,-0.1301143,-0.6417139,0.20280726,296.26358,10.502161,-40.36814
2679175327000.0,-6.99882017044601,-2.237234221314554,7.603759614812207,-0.16401732,-0.59864795,0.2312125,296.12415,10.564417,-40.199665
2679181140000.0,-6.9291238924256655,-1.9802288464475744,7.778000560031299,-0.19639318,-0.6053675,0.23701571,295.98108,10.632461,-40.03492
2679185260000.0,-6.879726220751174,-1.7980746843192488,7.901494916525822,-0.23854288,-0.6414085,0.24281894,295.78485,10.645616,-39.83842
2679190232000.0,-6.810066014982812,-1.7463568418546156,7.869410712073447,-0.23273966,-0.6582073,0.2501493,295.58893,10.654509,-39.64954
2679195256000.0,-6.733419496931332,-1.7987992384338056,7.724185772625136,-0.20372356,-0.6411031,0.28008172,295.38437,10.662581,-39.465775
2679200289000.0,-6.675968104462048,-1.8816927345000405,7.617296037345405,-0.10476339,-0.6215554,0.3155119,295.14166,10.591277,-39.25449
2679205447000.0,-6.67996108274998,-2.0653698608277424,7.6332680338857,-0.03023783,-0.6261369,0.3210097,294.90247,10.520722,-39.045235
2679210250000.0,-6.683679243804058,-2.2364053857893462,7.648140755751354,0.042455133,-0.63529986,0.30940324,294.66986,10.446918,-38.849167
2679215269000.0,-6.613362958893313,-2.329747518119769,7.669680992280815,0.10048734,-0.6310238,0.30818152,294.43622,10.359027,-38.65997
2679220221000.0,-6.520880184277241,-2.3952560763711706,7.692801565223044,0.1255328,-0.60994893,0.3032946,294.2126,10.2673645,-38.47524
2679225285000.0,-6.396369480363188,-2.4106405312711603,7.704837404001231,0.16126843,-0.5552765,0.32986724,294.00137,10.200918,-38.296936
2679230323000.0,-6.203318147994255,-2.3066899013132245,7.689987218015799,0.1777618,-0.44837508,0.3390302,293.8069,10.138858,-38.141075
2679235222000.0,-6.074728428343632,-2.183716214909309,7.714952964719952,0.18203785,-0.40439278,0.32834008,293.6083,10.089525,-37.959595
2679240254000.0,-6.055517662547339,-2.01562103627666,7.815810112019135,0.15699236,-0.3979787,0.3222314,293.41284,10.042116,-37.801247
2679245222000.0,-6.024136417203042,-1.866558353071972,7.895833404330018,0.12767084,-0.40408736,0.31215215,293.211,9.9823885,-37.62625
2679250913000.0,-5.96035459297835,-1.7336794416032768,7.943669661497952,0.09560041,-0.43249258,0.31123585,293.00934,9.930007,-37.449944
2679255280000.0,-5.914518946582078,-1.6855240874544013,7.930710735448057,0.08368854,-0.47250426,0.31520647,292.7924,9.845177,-37.259666
2679260262000.0,-5.869115424393339,-1.7498458953370342,7.805850990166534,0.07971791,-0.50915617,0.31306845,292.57938,9.769009,-37.065247
2679265223000.0,-5.823903285979381,-1.8138965755670104,7.681517550515464,0.07880162,-0.537256,0.3118467,292.35324,9.670869,-36.85203
2679270260000.0,-5.751433590429275,-1.897351760503167,7.56095996111893,0.08032878,-0.56199604,0.3277292,292.12354,9.572817,-36.6342
2679275349000.0,-5.669977358902181,-1.9873819811312452,7.440919458040113,0.09315695,-0.5876524,0.34269542,291.89664,9.475089,-36.41201
2679280326000.0,-5.577766311776945,-2.068422868331252,7.363376765210154,0.09132435,-0.61483586,0.36102137,291.67273,9.401362,-36.194065
2679285271000.0,-5.474301704307116,-2.14232633576779,7.323961637453183,0.09101892,-0.61300325,0.36835176,291.45126,9.325693,-35.98104
2679290270000.0,-5.379713953086794,-2.117307753785405,7.286130509894448,0.09040806,-0.56596667,0.39736784,291.23166,9.272112,-35.77684
2679295292000.0,-5.292063254613106,-2.018700598830587,7.249609407775837,0.080634214,-0.4981606,0.4538729,291.00443,9.216521,-35.584614
2679300741000.0,-5.20035444256487,-1.9095837765469064,7.215039301247505,0.07544186,-0.47219884,0.4718934,290.78076,9.180701,-35.379513
2679305355000.0,-5.204029333932136,-1.7662614399201595,7.306912506387226,0.042455133,-0.47403142,0.46731192,290.55084,9.1494875,-35.19066
2679310394000.0,-5.208042723095476,-1.6097375443280106,7.407248241259149,0.0015271631,-0.46639562,0.4831944,290.29816,9.092683,-35.00498
2679315290000.0,-5.212049147071659,-1.2812643161473334,7.5527301832591425,-0.028099801,-0.44501534,0.48716503,290.0551,9.045558,-34.824673
2679320358000.0,-5.216285529719822,-0.7940900875360041,7.743363598219429,-0.042455133,-0.43799037,0.47708577,289.8141,9.005836,-34.645473
2679325258000.0,-5.221592078676331,-0.4103998607343124,7.909613129124547,-0.08674286,-0.4550946,0.47311515,289.55212,8.936417,-34.458687
2679330306000.0,-5.230812645908831,-0.2859214713618158,8.024870821285523,-0.115453534,-0.5216789,0.46486846,289.2963,8.871225,-34.262054
2679335304000.0,-5.214580208637692,-0.1648641352465303,8.112926283783784,-0.13500121,-0.6059783,0.441961,289.00372,8.694945,-34.044247
2679340249000.0,-5.063237336787801,-0.056762168423119,8.061037195945945,-0.15149458,-0.70616025,0.43249258,288.71124,8.52768,-33.806774
2679345904000.0,-4.900280882546201,0.0466372787433264,8.0031658825462,-0.16126843,-0.74128497,0.4578435,288.40677,8.333567,-33.556236
2679350335000.0,-4.868912314086242,-0.0648957443457905,7.971797314086242,-0.13683382,-0.7800749,0.5015204,288.10156,8.138085,-33.28134
2679355276000.0,-4.83393328073922,-0.1892660145067762,7.936818280739219,-0.113926366,-0.7696902,0.5143485,287.79135,7.92815,-32.99055
2679360260000.0,-4.882989968658833,-0.2945896346910454,8.04919843658833,-0.106595986,-0.70554936,0.52015173,287.47903,7.7148347,-32.71064
2679365418000.0,-5.013087665457861,-0.3846574112044165,8.304390904578606,-0.11942416,-0.7284568,0.5540548,287.15808,7.499165,-32.415585
2679370235000.0,-5.168661018333803,-0.4946154912463605,8.452378462195924,-0.124311075,-0.7706065,0.5907067,286.85538,7.3180127,-32.12902
2679375320000.0,-5.360763883929746,-0.631831782877806,8.534707988823142,-0.12858713,-0.81245077,0.63255095,286.54642,7.137912,-31.84235
2679380269000.0,-5.545800950566941,-0.7463593093311142,8.589191309060647,-0.12614368,-0.86315256,0.6267477,286.24625,6.9747543,-31.538372
2679385466000.0,-5.737366057609487,-0.8395530940497243,8.609900918859877,-0.12034045,-0.89827734,0.6267477,285.93698,6.8090377,-31.234398
2679390226000.0,-5.896075288979805,-0.9136780262970056,8.68231141478064,-0.099265605,-0.90194255,0.6423248,285.64417,6.6688128,-30.957594
2679395290000.0,-6.048050566277855,-0.9812225205170612,8.813178875087047,-0.086437434,-0.9260717,0.63163465,285.36414,6.5370245,-30.66954
2679400278000.0,-6.176120850388214,-1.0285238530161258,8.94582512950428,-0.08307768,-0.9550878,0.6068946,285.09198,6.4215713,-30.413952
2679405274000.0,-6.2189847002787175,-0.9999478867808084,9.09346772118256,-0.08307768,-1.0189233,0.6017023,284.82007,6.3060594,-30.146841
2679410277000.0,-6.248076487334746,-0.9554500564638208,9.234272282369565,-0.09743301,-1.0592403,0.5879578,284.5677,6.212591,-29.89552
2679415301000.0,-6.218942965889595,-0.843771844898577,9.345950696740337,-0.086437434,-1.108415,0.56138515,284.32333,6.1186156,-29.628092
2679420281000.0,-6.145112923681592,-0.7054866352507463,9.341784599502487,-0.07696902,-1.1652255,0.5510005,284.07135,6.021296,-29.345055
2679425315000.0,-5.901837485472637,-0.4622112521402985,8.906629825515282,-0.084910266,-1.1646146,0.5357288,283.83508,5.933211,-29.06911
2679430302000.0,-5.660833391243781,-0.2212072124955224,8.475537879175551,-0.084910266,-1.1304061,0.5216789,283.59482,5.819051,-28.775146
2679435448000.0,-5.427823944831105,-0.0197751917552811,8.065328653944281,-0.08979719,-1.0919216,0.5155703,283.3627,5.7126865,-28.488674
2679440291000.0,-5.229030137503827,0.1080207910911317,7.724539411164405,-0.09712757,-1.0317514,0.5204572,283.1388,5.6107345,-28.223974
2679445263000.0,-4.978801480528053,0.1741208868976897,7.462702915511551,-0.093767814,-0.98624194,0.52442783,282.9143,5.451551,-27.973858
2679450278000.0,-4.666315861103254,0.1560057753041018,7.313253409193777,-0.087964594,-0.93676186,0.5164866,282.69986,5.2979293,-27.746088
2679455975000.0,-4.32625132667991,0.1317025758784848,7.193411347530653,-0.094989546,-0.91904676,0.5177083,282.48764,5.1275187,-27.523724
2679460348000.0,-4.082416393246112,0.1087534019727378,7.15898745936708,-0.100792766,-0.90316427,0.5186246,282.28464,4.9594464,-27.318075
2679465301000.0,-3.806241130200698,0.0827604318480717,7.11999785999041,-0.1414153,-0.9034697,0.5207626,282.07568,4.815835,-27.068398
2679470645000.0,-3.503825167638817,0.0086921845967825,7.129087159273483,-0.18478674,-0.92087936,0.5140431,281.87408,4.678028,-26.822008
2679475351000.0,-3.232525806185781,-0.1082472362667358,7.194573432672549,-0.22815818,-0.9370673,0.5021312,281.67813,4.553395,-26.579687
2679480264000.0,-3.0033814025670944,-0.2158152580863477,7.2370041832749905,-0.27091873,-0.9379836,0.50701815,281.47092,4.4554076,-26.26384
2679485283000.0,-2.8304484486581094,-0.3092924932730455,7.251025709500194,-0.31337386,-0.9434814,0.4990769,281.27576,4.373546,-25.94664
2679490233000.0,-2.7129954458600527,-0.387599672290645,7.244646698915504,-0.32620203,-0.92179567,0.49205196,281.07465,4.3262844,-25.573858
2679495259000.0,-2.672143175603546,-0.4466084813004526,7.2083336593266685,-0.3378085,-0.88514376,0.48808134,280.8798,4.291746,-25.21018
2679500324000.0,-2.6634101113661424,-0.5158469247218603,7.1826053,-0.3491095,-0.8359691,0.46944994,280.68433,4.2887,-24.818031
2679506499000.0,-2.7463924685376364,-0.6284658468677959,7.1826053,-0.35308012,-0.77732605,0.4550946,280.49402,4.287864,-24.445993
2679510339000.0,-2.7997049646844383,-0.7455202902483482,7.148958817840055,-0.35063666,-0.74281216,0.4529566,280.30762,4.305931,-24.079067
2679515267000.0,-2.871390952988532,-0.9856685382015644,7.041429723103212,-0.35369098,-0.6582073,0.44226643,280.13443,4.329861,-23.749031
2679520271000.0,-2.9441824881901724,-1.229520371147566,6.932242306288448,-0.355829,-0.57451874,0.41508293,279.96527,4.376892,-23.44538
2679525284000.0,-2.9658217815789474,-1.479364672556391,6.8385242259398495,-0.35735616,-0.4972443,0.3903429,279.8031,4.4257026,-23.169266
2679530285000.0,-2.9613205525657897,-1.7314362704041353,6.752999934652256,-0.36071593,-0.4034765,0.3555236,279.6574,4.4797807,-22.925785
2679535264000.0,-2.933809858882236,-1.990695102994012,6.741307485229541,-0.35430184,-0.30634892,0.3109304,279.5121,4.616544,-22.738194
2679540257000.0,-2.886088339520958,-2.257935860568862,6.793801156526946,-0.36071593,-0.22113322,0.27855456,279.37698,4.7587404,-22.576773
2679545272000.0,-2.854916696393056,-2.4978937690544414,6.822960768329682,-0.36987892,-0.13744467,0.23182335,279.24512,4.9738693,-22.445251
2679550362000.0,-2.838484524051913,-2.715619612893983,6.83117679015675,-0.38148534,-0.067500606,0.19792034,279.122,5.1909223,-22.335918
2679555281000.0,-2.8270611760740305,-2.9169369094715685,6.83847440306507,-0.3817908,0.0018325958,0.16065755,278.99524,5.476938,-22.227448
2679560262000.0,-2.8390456514529774,-3.0727345888367807,6.842469297713759,-0.3885103,0.056199603,0.12858713,278.8798,5.7667103,-22.13573
2679565221000.0,-2.8509771939954778,-3.227844143539067,6.846446547776568,-0.37598756,0.10140363,0.1001819,278.76144,6.1147103,-22.048702
2679570267000.0,-2.8478735326647566,-3.4130585947277936,6.856439466704871,-0.3585779,0.14996742,0.0720821,278.6558,6.46098,-21.978481
2679576114000.0,-2.8387052547687266,-3.6376827674007366,6.870191907482604,-0.3399465,0.20341812,0.049785517,278.55994,6.800361,-21.922817
2679580268000.0,-2.831616996386993,-3.742749446246487,6.907326636150141,-0.3191771,0.23090707,0.03023783,278.4586,7.1777754,-21.867052
2679585329000.0,-2.8218881330790846,-3.767071096587716,7.004613085136492,-0.2874121,0.30085114,0.005497787,278.37073,7.543637,-21.837992
2679590225000.0,-2.796462941991877,-3.760989358255341,7.101822525781388,-0.25595254,0.36102137,-0.01863139,278.28284,7.9582057,-21.803083
2679595334000.0,-2.7359835869680382,-3.691869992265584,7.209821805791982,-0.22510384,0.4260785,-0.042760566,278.20746,8.3593025,-21.788319
2679600448000.0,-2.674922579162192,-3.6155651890440383,7.309298069029717,-0.21074851,0.47403142,-0.06169739,278.1456,8.753584,-21.77281
2679605411000.0,-2.611107115064447,-3.479425727765843,7.330569845972073,-0.17654006,0.50823987,-0.08368854,278.09616,9.129333,-21.770014
2679610268000.0,-2.54865462481203,-3.346193939849624,7.35138729924812,-0.1591304,0.5696318,-0.090713486,278.0506,9.475513,-21.76356
2679615257000.0,-2.53487895055776,-3.230933711170173,7.328214575458562,-0.15118915,0.61666846,-0.099571034,278.01477,9.810332,-21.761139
2679620235000.0,-2.5313098248109607,-3.1202895458785656,7.296092108317736,-0.14019357,0.6627888,-0.10903945,277.98608,10.133384,-21.774601
2679625296000.0,-2.5413739541819944,-3.003158626021297,7.266485174211036,-0.10781772,0.72387534,-0.13439035,277.9675,10.406524,-21.78617
2679630345000.0,-2.620948589157793,-2.8627327880929334,7.252442600193611,-0.07788532,0.784351,-0.15271631,277.95352,10.671762,-21.809525
2679635328000.0,-2.7007903731281258,-2.7278208541875046,7.240066,-0.051618114,0.8503244,-0.17104226,277.94492,10.891814,-21.855255
2679640288000.0,-2.791128194357963,-2.62409966238642,7.240066,-0.032070424,0.9098838,-0.19394971,277.9475,11.103596,-21.913204
2679645401000.0,-2.884252645960414,-2.517179006402761,7.240066,-0.018020526,0.95539325,-0.2144137,277.96442,11.272096,-22.007347
2679650273000.0,-3.001681086631664,-2.360332807714055,7.273510343861066,-0.0012217305,0.9984592,-0.22632557,277.9899,11.432718,-22.113947
2679655370000.0,-3.208682896203554,-2.035044367447496,7.406582803392569,0.018020526,1.035722,-0.23732115,278.02432,11.5876665,-22.227587
2679660228000.0,-3.3799344149058226,-1.7905021205373362,7.504737839602257,0.021380283,1.0531317,-0.2434298,278.06238,11.702149,-22.378763
2679665289000.0,-3.486519055550244,-1.7163562688402332,7.527908403136055,0.02443461,1.0708468,-0.23793201,278.1028,11.809148,-22.536734
2679670304000.0,-3.584318082508809,-1.647180416222692,7.552287915616632,0.037873644,1.0708468,-0.2574797,278.16162,11.82998,-22.733797
2679675357000.0,-3.6491129970683582,-1.5960264650880902,7.58298031478506,0.03634648,1.0705414,-0.26267207,278.21478,11.851205,-22.932554
2679680420000.0,-3.714036142212826,-1.5447712791402397,7.613733454897815,0.03970624,1.0641272,-0.2733622,278.27905,11.849336,-23.149368
2679685291000.0,-3.785667392576282,-1.4728098118276187,7.63622164611513,0.03848451,1.0519099,-0.28680122,278.3442,11.849947,-23.359299
2679690489000.0,-3.879621964747824,-1.352756886672958,7.646661248925239,0.022296581,1.0467176,-0.29168814,278.409,11.853801,-23.56475
2679695272000.0,-3.9854695994887086,-1.269634938219003,7.659017899020025,0.00580322,1.0372492,-0.3023783,278.47742,11.840082,-23.779642
2679700373000.0,-4.12284441966766,-1.215517609842352,7.675669284363017,-0.01282817,1.0329732,-0.3036,278.5432,11.8308935,-23.990242
2679705266000.0,-4.273455563616594,-1.1590195736492137,7.708158532619605,-0.0143553335,1.0363328,-0.30848694,278.60968,11.796,-24.216616
2679710306000.0,-4.620642683054533,-1.054055946014553,7.9100114600200735,-0.014966198,1.0204504,-0.30207285,278.66998,11.765176,-24.432365
2679715227000.0,-4.959632328839077,-0.9515706262546002,8.107098415523586,0.01282817,1.0118983,-0.29749137,278.73956,11.711923,-24.683653
2679720266000.0,-5.203347760935591,-0.92229296146797,8.209889099581078,0.0012217305,1.001819,-0.31031954,278.80975,11.67146,-24.924164
2679725383000.0,-5.404361277256066,-0.9265698409931924,8.269765323616687,0.005497787,0.98807454,-0.3173445,278.87442,11.619585,-25.156916
2679730410000.0,-5.591913300575938,-0.9311759162969284,8.311993851109214,0.010995574,0.9602802,-0.33567044,278.94754,11.529723,-25.444937
2679735288000.0,-5.761317354458191,-0.9361583854095564,8.33192414377133,0.008246681,0.93859446,-0.33933565,279.01605,11.442438,-25.72487
2679740282000.0,-5.889356631448078,-0.9406863504045854,8.31548730495617,0.008552114,0.9108001,-0.34238997,279.09985,11.353404,-26.02914
2679745238000.0,-5.977368950497302,-0.944686908462576,8.267480441166553,0.013744468,0.89827734,-0.33017266,279.17798,11.264928,-26.325396
2679750280000.0,-6.051173216091142,-0.9549462445376666,8.221687302746622,0.013744468,0.88361657,-0.33505958,279.26187,11.180565,-26.636257
2679755496000.0,-6.042349962607083,-0.9990623507286054,8.19080589251965,0.0021380284,0.8668178,-0.3381139,279.33908,11.098657,-26.936651
2679760283000.0,-6.034252394656893,-1.0395500425108186,8.162464383555596,-0.0033597588,0.8561276,-0.34147367,279.42172,11.020549,-27.25683
2679765293000.0,-6.001340846345257,-1.0933995437352086,8.13613205659612,-0.019242255,0.8200866,-0.3539964,279.50406,10.951937,-27.55711
2679770232000.0,-5.966159496734059,-1.1477708570288727,8.110545705524377,-0.049480084,0.7761043,-0.35918877,279.5827,10.889949,-27.845356
2679775900000.0,-5.914490511424513,-1.2263909959821429,8.081284899756493,-0.07452556,0.7651087,-0.3585779,279.6642,10.845279,-28.128437
2679780315000.0,-5.725733403977273,-1.5009468375,8.059835238636364,-0.09254608,0.7150178,-0.36346483,279.74228,10.809257,-28.381409
2679785652000.0,-5.506664,-1.8195933,8.034941,-0.09101892,0.6230826,-0.38789943,279.82538,10.797881,-28.603893
2679790291000.0,-5.506664,-1.8195933,8.034941,-0.08277224,0.5546656,-0.39003745,279.90005,10.787449,-28.81472
2679799112000.0,-5.506664,-1.8195933,8.034941,-0.09407325,0.5476407,-0.31978795,279.97763,10.844717,-28.972782
2679800736000.0,-5.529450713619491,-1.8720027770153231,8.00303957713905,-0.058337633,0.5537493,-0.30085114,280.06708,10.894469,-29.108978
2679805301000.0,-5.612667791757875,-2.0634021870752832,7.886535580850861,-0.03634648,0.5510005,-0.2950479,280.13614,10.94139,-29.241148
2679810376000.0,-5.705576404496157,-2.25459409525246,7.760204318465847,-0.016798794,0.5170974,-0.31520647,280.2038,10.980364,-29.365181
2679815292000.0,-5.800256311814983,-2.1835841471091,7.675668608748115,0.029932396,0.47067168,-0.33383787,280.26715,11.005463,-29.482407
2679820233000.0,-5.895417707677943,-2.112213082467859,7.590702998146951,0.051618114,0.49938235,-0.27947086,280.3437,11.074416,-29.640697
2679825377000.0,-6.038368905991353,-2.0806189038295244,7.511525955836936,0.08124508,0.5421429,-0.25473082,280.4322,11.135245,-29.783798
2679830353000.0,-6.283655073419807,-2.154204795038089,7.457562941630636,0.11056661,0.5653558,-0.25900686,280.51233,11.185974,-29.9278
2679835260000.0,-6.517796539939333,-2.259487317593529,7.466219755308392,0.13927728,0.54428095,-0.27916542,280.58618,11.209018,-30.11033
2679840290000.0,-6.741849218402427,-2.4348328632962586,7.602599889787664,0.17165314,0.48716503,-0.34238997,280.6739,11.230528,-30.281935
2679845233000.0,-6.94477754762419,-2.4957586843682504,7.660649195356371,0.19303341,0.44409904,-0.36926803,280.7687,11.258543,-30.499304
2679850359000.0,-7.121490031641469,-2.3411353761789058,7.572292861087113,0.20525073,0.5021312,-0.32345316,280.86322,11.27883,-30.724781
2679855293000.0,-7.273969593789158,-2.2139667979297197,7.507836424970489,0.2284636,0.571159,-0.27855456,280.9709,11.321079,-30.959116
2679860291000.0,-7.313085512939254,-2.227005437646418,7.577376109089258,0.24740042,0.61391956,-0.27916542,281.08054,11.36039,-31.196585
2679866070000.0,-7.345675635660997,-2.2389484590072617,7.6470105647070525,0.22327125,0.605062,-0.2837469,281.17395,11.364126,-31.485914
2679870291000.0,-7.253191396896449,-2.2188431805829105,7.598757728538744,0.19730948,0.5751296,-0.3203988,281.28,11.368864,-31.771938
2679875861000.0,-7.132739972795736,-2.1944096806650872,7.53628655897783,0.16340645,0.54153204,-0.3210097,281.37595,11.376199,-32.05033
2679880328000.0,-7.0784418830935865,-2.2306082937383653,7.518187233542054,0.15974127,0.52931476,-0.3032946,281.47702,11.385107,-32.318447
2679885291000.0,-7.018114724107294,-2.270826273743442,7.498078222541885,0.15699236,0.5140431,-0.2837469,281.57788,11.401298,-32.559116
2679890289000.0,-6.962271709793291,-2.2330620042561846,7.505261417011183,0.15821409,0.4783075,-0.27916542,281.6748,11.416694,-32.7853
2679895300000.0,-6.910233043646222,-2.1322371862351748,7.534533060589631,0.14569137,0.44837508,-0.27977628,281.76584,11.433545,-33.00447
2679900279000.0,-6.8585266938664855,-2.0320562305523557,7.56361777688919,0.13255776,0.39553526,-0.25625798,281.85107,11.457808,-33.195255
2679905278000.0,-6.850832888287313,-2.075130312172893,7.351776267190038,0.12644911,0.42180246,-0.21991149,281.9356,11.48085,-33.396126
2679910289000.0,-6.872484821512362,-2.2137027300306804,6.979362925284244,0.12461651,0.44837508,-0.19792034,282.01224,11.503982,-33.578968
2679915284000.0,-6.883176093655277,-2.3022553927734912,6.740183348284651,0.14660765,0.41722095,-0.17501289,282.06033,11.487344,-33.73851
2679920556000.0,-6.87621982112841,-2.312689892360154,6.708879922161753,0.14630222,0.4175264,-0.1685988,282.1111,11.475751,-33.910767
2679925319000.0,-6.869935161408101,-2.3221169639707906,6.6805987729539815,0.16646078,0.3924809,-0.14172074,282.16534,11.491389,-34.11402
2679930268000.0,-6.8579753846988405,-2.344354275476992,6.63537468425926,0.16523905,0.4083634,-0.12522738,282.22418,11.512327,-34.32424
2679935697000.0,-6.838524413056491,-2.3832563203142536,6.567296029629629,0.18906279,0.38789943,-0.098043874,282.26523,11.516208,-34.515984
2679940287000.0,-6.847455806255442,-2.400180002728592,6.5745652298838895,0.17989981,0.39706242,-0.0888809,282.31403,11.532714,-34.718834
2679945290000.0,-6.903087387249637,-2.3897490744847607,6.699736550341074,0.17745635,0.3866777,-0.08155051,282.35107,11.537748,-34.90841
2679950295000.0,-6.958741207532656,-2.379313976371553,6.824957909303339,0.16340645,0.31337386,-0.0693332,282.38678,11.5557,-35.08423
2679955414000.0,-6.927968499760697,-2.2510987876519577,6.89586653538815,0.13103059,0.3036,-0.0720821,282.42975,11.579456,-35.270447
2679960292000.0,-6.843006692351872,-2.054344725356562,6.927168335005264,0.12675454,0.23762658,-0.04428773,282.44702,11.592426,-35.420338
2679965283000.0,-6.8090915897839785,-1.9680065033903391,6.974250482298229,0.0983493,0.23396139,-0.01740966,282.46616,11.60841,-35.57436
2679970388000.0,-6.828649345634564,-1.997343175457546,7.0378133228322834,0.087659165,0.20616703,0.015882496,282.4657,11.615252,-35.702896
2679975369000.0,-6.847732045319533,-2.0259672623462346,7.099832227572757,0.071776666,0.17287487,0.016493361,282.4463,11.590118,-35.814526
2679980544000.0,-6.867557978037804,-2.055706200240024,7.164266644764476,0.05009095,0.13194689,0.046731193,282.4027,11.558598,-35.918438
2679985447000.0,-6.794122234202948,-2.1225540223022192,7.149010870032187,0.032070424,0.1133155,0.08246681,282.35657,11.529319,-36.017593
2679990308000.0,-6.64428238270371,-2.2211328047941725,7.070147712281891,0.028710667,0.0888809,0.122783914,282.2949,11.496189,-36.10432
2679995331000.0,-6.507426019656187,-2.30534226093644,6.992107868310337,0.025961773,0.05222898,0.13652839,282.22937,11.472353,-36.170837
2680000339000.0,-6.4748809295860665,-2.287261693101108,6.934250005926261,0.026572637,-0.020463986,0.13958271,282.14923,11.444033,-36.221046
2680005427000.0,-6.441815949898213,-2.268892298303551,6.875467896539245,0.025045475,-0.069027774,0.19914207,282.06186,11.436782,-36.249798
2680010299000.0,-6.430526764160353,-2.2466580778363863,6.869864203606023,0.013133603,-0.09560041,0.24801129,281.9731,11.433226,-36.263466
2680015340000.0,-6.439786743224322,-2.218878285681404,6.91616385719766,0.015271631,-0.12308934,0.27458394,281.86798,11.420742,-36.265717
2680020328000.0,-6.450530467145064,-2.1813076570805703,6.957423554273776,0.017715093,-0.16676621,0.28405234,281.75012,11.404852,-36.262096
2680025340000.0,-6.463610334853302,-2.128988004142065,6.992303140793895,0.002443461,-0.22693644,0.30207285,281.6175,11.387073,-36.24854
2680030294000.0,-6.489412984627227,-2.083518988417272,7.012053194450553,0.00061086525,-0.27000242,0.321926,281.48227,11.3575,-36.22746
2680035345000.0,-6.567427440312294,-2.062242285023092,6.973046151748405,-0.003970624,-0.2864958,0.3408628,281.33972,11.329893,-36.19859
2680043401000.0,-6.702311864075235,-2.0206281403761754,6.908017929717868,-0.003970624,-0.28405234,0.35979962,281.18463,11.286156,-36.16555
2680045337000.0,-6.775378584863413,-1.9807735386027765,6.881448206762203,-0.0036651916,-0.2779437,0.35369098,281.03247,11.245566,-36.129086
2680051287000.0,-6.999937979847738,-1.8582865135244069,6.79979022557098,-0.005192355,-0.25900686,0.36377025,280.87018,11.19378,-36.124554
2680055174000.0,-7.1059904,-1.8004397,6.7612257,-0.007941248,-0.22204952,0.3622431,280.71802,11.146428,-36.125515
2680060159000.0,-7.116074109492181,-1.793717246503844,6.7724297696616285,-0.017104227,-0.17012598,0.3491095,280.57123,11.102302,-36.135677
2680065131000.0,-7.138486359646461,-1.7787757897390304,6.797332154264944,-0.027794369,-0.118202426,0.33383787,280.42975,11.035403,-36.204422
2680070147000.0,-7.161096948297683,-1.7637021076931123,6.822454913953245,-0.03756821,-0.07880162,0.32284227,280.30423,10.973719,-36.28159
2680075211000.0,-7.183923906218294,-1.7484841798859891,6.847818082825167,-0.03604105,-0.04520403,0.29077184,280.1967,10.91927,-36.367374
2680080156000.0,-7.18278039967413,-1.7398449223168295,6.875796966099022,-0.046120327,-0.016493361,0.27580565,280.09137,10.869668,-36.461277
2680085159000.0,-7.167670792725744,-1.7348083691369705,6.906016285178177,-0.038179077,-0.0027488936,0.25961772,280.00024,10.822236,-36.556118
2680090139000.0,-7.146363068036189,-1.733402,6.945783296771248,-0.029932396,0.004886922,0.24801129,279.90857,10.77108,-36.656796
2680095146000.0,-7.122482861437583,-1.733402,6.989563169903718,-0.02687807,-0.00061086525,0.23487769,279.8241,10.723295,-36.75426
2680100202000.0,-7.094517146792331,-1.726845835750241,7.026355198479169,-0.02321288,0.009773844,0.21502456,279.74432,10.675869,-36.848057
2680105279000.0,-7.0580655156688445,-1.7060162701081718,7.047184872871372,-0.02321288,0.017104227,0.204029,279.66635,10.630235,-36.937225
2680110159000.0,-7.019917621786319,-1.7014399187095488,7.0581064,-0.02687807,0.02443461,0.19425514,279.59848,10.588052,-37.014473
2680115176000.0,-6.976860591805237,-1.715792245384845,7.0581064,-0.032070424,0.032070424,0.17470746,279.53937,10.550668,-37.09079
