timestamp,acc_x,acc_y,acc_z,gyro_x,gyro_y,gyro_z,ori_azimuth,ori_pitch,ori_roll
388581893000.0,3.911932775203741,-0.2425174195921735,-0.0254099880422652,7.6797976,5.6104918,4.9974885,253.6383,-100.938705,-4.5034895
388586945000.0,3.7734873118918064,-0.037598988118572,-0.046212674464493,7.6797976,0.7507534,0.03848451,254.80865,-101.600204,-6.0995216
388591874000.0,3.638412551665258,0.1623303366505059,-0.0665088821792913,-1.1771374,0.7583892,0.034208454,253.49821,-100.61323,-4.64331
388597068000.0,3.496075707555562,0.3730085498480289,-0.0878962838572508,-1.1863003,0.7632761,0.038179077,253.37674,-102.54326,-4.782801
388601852000.0,3.364974540397151,0.5670564073638067,-0.1075954231771118,-1.1905763,0.7663304,0.03481932,253.24802,-102.16641,-4.927765
388606888000.0,3.226967542527219,0.7713258493473889,-0.1283322261902431,-1.1942415,0.77640975,0.035430185,253.1128,-101.802284,-5.0678287
388611902000.0,3.0895634346400382,0.9747029307821944,-0.1489784395158667,-1.1905763,0.7724391,0.03390302,252.97716,-101.455696,-5.208085
388618201000.0,2.9169450709421225,1.230201980634177,-0.174915914134555,-1.1691961,0.75686204,0.03145956,252.83914,-101.12895,-5.346602
388621924000.0,2.814919643406428,1.3812137225930483,-0.1902461598887027,-1.1551461,0.7620544,0.032070424,252.69394,-100.81745,-5.4820676
388626872000.0,2.679324205467503,1.5819137223815245,-0.2106206041518031,-1.207986,0.79168135,0.037873644,252.47836,-100.40267,-5.1993585
388631895000.0,2.5416734607691964,1.7856558604044657,-0.2313038768950435,-1.2293663,0.8567385,0.06780604,252.25343,-99.994606,-4.904907
388636969000.0,2.40262510747451,1.991466652426844,-0.2521971530047791,-1.212873,0.9465357,0.101098195,252.01447,-99.58098,-4.602826
388642027000.0,2.264015219621826,2.1966284549592023,-0.2730245457054181,-1.3100005,0.96974856,0.13347405,251.77818,-99.12916,-4.2901645
388646921000.0,2.1298996025496564,2.395138115218863,-0.2931766334628177,-1.3603969,0.9779953,0.16554448,251.52303,-98.68888,-3.9625418
388651870000.0,1.9942767605206064,2.5958786768504654,-0.3135551954389867,-1.4367551,0.9841039,0.2049453,251.2644,-98.212845,-3.6207519
388656906000.0,1.8562697626506737,2.800148118834048,-0.334291998452118,-1.5332718,0.9776898,0.25320363,251.00945,-97.71484,-3.2655635
388661973000.0,1.7174132379868636,3.005674977954542,-0.3551564505703738,-1.6319265,0.9502009,0.28985557,250.76059,-97.195244,-2.9012334
388667128000.0,1.576145153392046,3.214771279270143,-0.3763832614386605,-1.7369953,0.88331115,0.3481932,250.52792,-96.64387,-2.5169227
388671919000.0,1.4448521576027595,3.409103069687804,-0.3961112247500012,-1.7803668,0.78984874,0.40408736,250.31241,-96.08404,-2.1229637
388676869000.0,1.3092019114835844,3.609884193162532,-0.4164939044392387,-1.6902641,0.70280045,0.48075095,250.117,-95.53204,-1.7066983
388681893000.0,1.171523762695153,3.8136668930286,-0.4371812948955476,-1.4999796,0.59742624,0.5665775,249.95552,-95.003265,-1.2733595
388687901000.0,1.006879989223637,4.057362446530856,-0.4619205150112928,-1.2324207,0.48808134,0.6640105,249.8224,-94.53664,-0.81527543
388691897000.0,0.8973732450837941,4.219447571663182,-0.47837489643315,-0.9053023,0.34269542,0.75533485,249.73157,-94.17231,-0.33564085
388696909000.0,0.7600239453768634,4.422743529411735,-0.4990128743326365,-0.57726765,0.030543262,0.79168135,249.72067,-93.93538,0.15264297
388701874000.0,0.6239626379058123,4.624133080533357,-0.519457319717902,-0.06352998,-0.2556471,0.73792523,249.74431,-93.90762,0.64133567
388706917000.0,0.485763811405004,4.828686455418823,-0.540222946722513,0.39920044,-0.33933565,0.6969972,249.80042,-94.02381,1.1441735
388711895000.0,0.3493462507623266,5.030603310501085,-0.5607209223776695,0.4709771,-0.36987892,0.6206391,249.92163,-94.22085,1.6192197
388716932000.0,0.2113118488022691,5.234913314327794,-0.5814618431038693,0.47800204,-0.43066,0.57360244,250.07558,-94.56108,2.0904112
388721914000.0,0.0747846717990912,5.4369924167825605,-0.6019762896112998,0.505491,-0.5039638,0.46089783,250.2392,-94.931114,2.5217364
388726872000.0,-0.0610848070410843,5.638098035002298,-0.6223919110050855,0.5390886,-0.57787853,0.33444872,250.41908,-95.31182,2.93593
388731896000.0,-0.1987629558295158,5.841880734868366,-0.6430793014613945,0.5323691,-0.6435465,0.22724187,250.61543,-95.68636,3.3235276
388736967000.0,-0.3377290968538262,6.047569841361366,-0.6639602244319245,0.4908302,-0.6826419,0.14355333,250.82274,-96.05157,3.6821527
388742073000.0,-0.4776543810325147,6.254678612363782,-0.6849852673598531,0.41874814,-0.72204274,0.09010262,251.04675,-96.40092,4.018797
388746917000.0,-0.6103997935984307,6.451160180467133,-0.704931469463826,0.3454443,-0.7461719,0.05009095,251.2754,-96.73302,4.336382
388751868000.0,-0.7460774438077311,6.651981865784987,-0.725318266866132,0.24831672,-0.7443393,0.033292156,251.50665,-97.04315,4.6466746
388756864000.0,-0.8829882780726601,6.854628834043521,-0.745890361356522,0.15882497,-0.7263188,0.015577064,251.73862,-97.33602,4.9468064
388761880000.0,-1.020447194140091,7.058087039164579,-0.7665448101082826,0.07696902,-0.6835582,-0.007330383,251.96193,-97.61046,5.243168
388766926000.0,-1.1587282329112738,7.262762099579423,-0.7873227902520992,0.0067195175,-0.64843345,-0.029321533,252.1814,-97.87048,5.536859
388771909000.0,-1.2952828140045765,7.464881763877316,-0.8078413544725984,-0.042455133,-0.61117065,-0.054061573,252.38696,-98.11823,5.8263435
388776866000.0,-1.4311248887546273,7.665946820253928,-0.8282528581533155,-0.05955936,-0.57940567,-0.081855945,252.58304,-98.35848,6.1113844
388781902000.0,-1.5691318866245596,7.87021626223751,-0.8489896611664469,-0.05589417,-0.52564955,-0.11484267,252.76106,-98.59206,6.3914795
388786889000.0,-1.7057960840783628,8.072498173907908,-0.86952469623922,-0.03176499,-0.47800204,-0.15210545,252.93057,-98.82423,6.6650133
388791871000.0,-1.8423232610815408,8.274577276362676,-0.8900391427466505,-0.005497787,-0.42546764,-0.18600847,253.08217,-99.055435,6.9336066
388796854000.0,-1.978877842174844,8.476696940660569,-0.9105577069671495,0.015882496,-0.37201694,-0.22785273,253.21832,-99.28412,7.192502
388801846000.0,-2.1156790600792728,8.679181661546597,-0.9311133306052656,0.026267206,-0.2950479,-0.267559,253.33148,-99.51193,7.446358
388806924000.0,-2.254837029734459,8.88515470094148,-0.9520230775672752,0.025045475,-0.2284636,-0.3286455,253.43016,-99.7303,7.6852083
388812020000.0,-2.394488273011896,9.091857853512634,-0.9730069433645184,0.019242255,-0.19058995,-0.37690386,253.51398,-99.94635,7.9195843
388816878000.0,-2.527617342839564,9.288907287419752,-0.9930107934514508,0.03145956,-0.12736541,-0.39492437,253.5703,-100.16083,8.149715
388821936000.0,-2.5293589240431045,9.319704439141857,-0.9774960531151616,0.03390302,-0.06291912,-0.42760566,253.61328,-100.36059,8.36492
388827129000.0,-2.507710551737647,9.321466512259194,-0.955344228230971,0.02076942,-0.014660766,-0.44165558,253.64264,-100.56223,8.583497
388831928000.0,-2.4877046709955155,9.323094894483363,-0.934873092544618,0.022907447,0.061086524,-0.44959682,253.81256,-99.58805,7.3018146
388836962000.0,-2.4667191315798265,9.324803016199647,-0.913399515331636,0.014660766,0.10842858,-0.43982297,253.96048,-98.75596,6.1273336
388842028000.0,-2.4456001918341213,9.326521996059544,-0.8917894354426875,0.009468411,0.13408493,-0.43188173,254.07892,-98.060326,5.044822
388846921000.0,-2.425202447622566,9.32818227408056,-0.870917323145683,0.0018325958,0.1423316,-0.43554693,254.17715,-97.492615,4.0449166
388851874000.0,-2.4045545777922315,9.32986291112084,-0.8497892683312412,-0.005192355,0.16126843,-0.42821655,254.25562,-97.05002,3.1244931
388856910000.0,-2.3835607008559165,9.331571711471105,-0.8283071597010113,-0.02443461,0.1600467,-0.43004912,254.3284,-96.71594,2.2643476
388862111000.0,-2.361878978467955,9.333336499124345,-0.8061212091478291,-0.042760566,0.16462818,-0.43066,254.38689,-96.48745,1.4650031
388866947000.0,-2.3417188535942417,9.334977436077056,-0.7854922422423899,-0.06261369,0.16554448,-0.43585235,254.4397,-96.34877,0.7155764
388871916000.0,-2.3210042835988984,9.336663502189142,-0.7642959360899648,-0.070554934,0.15607607,-0.4251622,254.4885,-96.29276,0.017215492
388876887000.0,-2.3002813760829293,9.3383502469352,-0.7430910985202919,-0.07086037,0.15424347,-0.38912117,254.52994,-96.30381,-0.63254476
388881911000.0,-2.27933752427037,9.34005497548161,-0.7216601783935495,-0.052534413,0.1591304,-0.3203988,254.56837,-96.373184,-1.2313918
388887121000.0,-2.257618283039592,9.34182281698774,-0.6994358364627518,-0.03268129,0.14172074,-0.24770586,254.61026,-96.48389,-1.7847674
388891874000.0,-2.2378041652718585,9.343435590630472,-0.6791609233731006,-0.002443461,0.10751228,-0.15210545,254.65424,-96.62594,-2.2813272
388896904000.0,-2.2168353008974218,9.345142355078808,-0.6577044089946145,0.039095376,0.0580322,-0.07086037,254.7055,-96.7908,-2.7345767
388901845000.0,-2.1962374561908424,9.346818920315236,-0.6366275426836601,0.07788532,0.01282817,-0.0106901415,254.76393,-96.966805,-3.143065
388906910000.0,-2.17512268520545,9.348537560858142,-0.6150217285033356,0.10629055,-0.0143553335,0.03970624,254.8299,-97.148094,-3.5104454
388912148000.0,-2.153286718685908,9.35031490323993,-0.592677946731067,0.14110987,-0.111177474,0.06627888,254.92618,-97.33791,-3.8515599
388917007000.0,-2.133030712324995,9.351963644483362,-0.571950868527277,0.16279559,-0.14508049,0.07513642,255.00981,-97.52627,-4.16474
388921850000.0,-2.1128414061290908,9.35360695665499,-0.5512920416614701,0.17989981,-0.21471913,0.0852157,255.12831,-97.715324,-4.458016
388926854000.0,-2.0919809295227925,9.355304898861649,-0.5299464357072067,0.20799962,-0.2947425,0.06872234,255.25507,-97.91159,-4.7428246
388931921000.0,-2.0708578210167743,9.357024218038529,-0.5083320901096342,0.22571471,-0.3494149,0.0580322,255.39093,-98.102646,-5.010616
388937046000.0,-2.049492924412601,9.3587632176007,-0.4864703334118724,0.24373524,-0.4098906,0.06078109,255.54684,-98.29581,-5.2687473
388942925000.0,-2.02498478253242,9.360758062171628,-0.4613922324116497,0.2565634,-0.4541783,0.062308256,255.70886,-98.488655,-5.518941
388946857000.0,-2.0085932169816667,9.362092256567426,-0.4446194661022645,0.2724459,-0.48624873,0.062308256,255.88004,-98.6804,-5.7585273
388951844000.0,-1.9878036093006892,9.363784430385287,-0.4233463771946083,0.2779437,-0.50610185,0.071776666,256.05594,-98.86492,-5.984899
388957027000.0,-1.966196924598362,9.36554311033275,-0.4012372093966573,0.27366763,-0.5018258,0.08002335,256.2293,-99.045265,-6.201407
388961877000.0,-1.9459784370802669,9.367188797723292,-0.3805485225704828,0.2657264,-0.47616947,0.09437868,256.39804,-99.21729,-6.403668
388966904000.0,-1.925022078986769,9.368894544220666,-0.3591048053178683,0.25686884,-0.4370741,0.09682214,256.55707,-99.38353,-6.597292
388971847000.0,-1.904415896759564,9.370571788091068,-0.3380194075896662,0.23579398,-0.38545597,0.08246681,256.70093,-99.54102,-6.78196
388976849000.0,-1.8835637576738915,9.372269051663748,-0.3166823330526507,0.21960606,-0.3417791,0.06627888,256.83212,-99.69269,-6.9576254
388981926000.0,-1.862398961564743,9.373991764010508,-0.2950253303688387,0.1966986,-0.30085114,0.04337143,256.94528,-99.83842,-7.1302195
388986924000.0,-1.8415634975203223,9.375687670315235,-0.2737053186663191,0.1872302,-0.27305678,0.011911872,257.04593,-99.98419,-7.3017397
388991888000.0,-1.820869771326544,9.37737203984238,-0.2525303410570138,0.18875736,-0.26450464,-0.021991149,257.13696,-100.128525,-7.4728646
388996853000.0,-1.8001718763724528,9.379056748686514,-0.2313510977390845,0.2049453,-0.26816985,-0.059253927,257.2201,-100.276794,-7.6466103
389001845000.0,-1.77936142488991,9.380750619089316,-0.2100566802883086,0.22968534,-0.27214047,-0.08582657,257.29788,-100.427414,-7.819946
389006895000.0,-1.758309185309213,9.382464169877409,-0.1885148517373434,0.25961772,-0.2751948,-0.1020145,257.37354,-100.583084,-7.9942365
389013130000.0,-1.7323169647576,9.384579811295971,-0.1619181584669932,0.28405234,-0.25411993,-0.106595986,257.44098,-100.740654,-8.16538
389016905000.0,-1.723741760665731,9.3896932812312,-0.162657561655404,0.35277468,-0.23762658,-0.10415252,257.5085,-100.90884,-8.332819
389021861000.0,-1.723503828939242,9.402303652797272,-0.1895438663758772,0.36254853,-0.20250183,-0.0870483,257.56354,-101.06325,-8.489718
389026847000.0,-1.723264456948065,9.414990358331664,-0.2165929211249248,0.3866777,-0.15088372,-0.06658431,257.62378,-101.05296,-8.509197
389031951000.0,-1.7230194199157811,9.4279773108081,-0.2442821259863645,0.40500367,-0.10170906,-0.041233405,257.67453,-101.039185,-8.520411
389036939000.0,-1.7227799519069582,9.440669105273711,-0.271342030737317,0.43401974,-0.045814894,-0.020158553,257.70844,-101.028694,-8.524378
389041872000.0,-1.7225431243833969,9.45322095413074,-0.2981035604358832,0.44104472,0.0143553335,0.01863139,257.72803,-101.00852,-8.513938
389046848000.0,-1.7223042324804492,9.465882215009024,-0.325098365175406,0.41691554,0.05497787,0.04917465,257.73755,-100.98559,-8.49854
389051843000.0,-1.7220644284098656,9.478591820733907,-0.3521962449330258,0.3817908,0.11178834,0.08674286,257.7268,-100.952446,-8.467868
389056918000.0,-1.721820783633447,9.49150498370764,-0.3797281247668437,0.34483343,0.1740966,0.12186762,257.70407,-100.909294,-8.428316
389061882000.0,-1.7215824678363747,9.504135710998597,-0.4066578294949368,0.2846632,0.22571471,0.1563815,257.66977,-100.84863,-8.3777685
389066858000.0,-1.721343575933427,9.51679697187688,-0.4336526342344595,0.21380283,0.26267207,0.17562376,257.62308,-100.776505,-8.321415
389071854000.0,-1.7211037238540206,9.529509122067376,-0.4607559389930318,0.12858713,0.29443705,0.18387043,257.56454,-100.68763,-8.258628
389076837000.0,-1.7208644958893122,9.542188194204932,-0.4877887187392219,0.067500606,0.31764993,0.1863139,257.49908,-100.58967,-8.19311
389082540000.0,-1.7205907015720874,9.556699281582114,-0.5187274991711951,0.015577064,0.3463606,0.16554448,257.42307,-100.48408,-8.132811
389086892000.0,-1.7203817671746542,9.56777279591939,-0.5423371033163725,-0.036957346,0.3640757,0.12980886,257.34384,-100.37327,-8.077931
389091939000.0,-1.7201394666452778,9.580614713856026,-0.5697170831235211,-0.0571159,0.37812558,0.09254608,257.25745,-100.26718,-8.030689
389100573000.0,-1.719724958468017,9.602583629937838,-0.6165565413472027,-0.06994407,0.42394048,0.0711658,257.157,-100.16077,-7.989373
389102294000.0,-1.7196423352837378,9.60696265525366,-0.6258929679864147,-0.07544186,0.43310347,0.074830994,257.06354,-100.058014,-7.9537954
389106871000.0,-1.719422598901143,9.618608674353318,-0.6507231973458993,-0.07422013,0.44959682,0.08368854,256.95538,-99.9609,-7.922583
389111870000.0,-1.7191826027952677,9.631328457940644,-0.677842777107329,-0.07238753,0.46120325,0.09590584,256.84735,-99.86435,-7.8906536
389116973000.0,-1.7189376137718066,9.644312865951472,-0.7055265569678162,-0.06627888,0.45845437,0.09682214,256.73984,-99.772285,-7.8608274
389121904000.0,-1.7187008822658911,9.65685962587728,-0.7322772366644776,-0.06872234,0.4361578,0.099571034,256.63626,-99.67881,-7.828751
389126898000.0,-1.7184611262041307,9.669566687136555,-0.759369691421145,-0.059253927,0.4083634,0.09193522,256.53607,-99.59342,-7.801078
389131922000.0,-1.718219929877682,9.682350082364149,-0.7866248962063866,-0.064751714,0.36987892,0.076052725,256.4464,-99.5093,-7.7773147
389136944000.0,-1.7179788295688792,9.695128388660518,-0.8138692509897232,-0.06811147,0.3210097,0.055588737,256.36838,-99.432724,-7.7593226
389141935000.0,-1.7177392175335873,9.70782781652296,-0.8409454307435331,-0.07086037,0.2565634,0.03481932,256.3063,-99.36186,-7.7484117
389147040000.0,-1.7174941324924804,9.720817313465009,-0.8686400606059252,-0.076358154,0.17562376,0.007941248,256.2629,-99.29896,-7.747525
389152227000.0,-1.7172451107278923,9.734015456587128,-0.8967795405464205,-0.07971791,0.100792766,-0.011301007,256.2362,-99.241646,-7.7523055
389156794000.0,-1.7170258544335273,9.74563603103068,-0.9215555198963804,-0.101098195,0.025045475,-0.03970624,256.23203,-99.19187,-7.769507
389161758000.0,-1.7167875386364548,9.758266758321636,-0.9484852246244736,-0.11209377,-0.050701816,-0.05589417,256.24866,-99.14736,-7.7903233
389166769000.0,-1.7165469664247042,9.77101707549629,-0.9756699043973328,-0.116980694,-0.10262536,-0.08246681,256.27835,-99.1125,-7.8229136
389171810000.0,-1.7163049539482655,9.783843726639262,-1.0030173341987667,-0.14019357,-0.13622294,-0.09682214,256.32315,-99.07686,-7.8572044
389176807000.0,-1.7160650538600362,9.796558421295368,-1.0301260639582914,-0.16584991,-0.15057829,-0.11728613,256.37497,-99.05078,-7.9005384
389181818000.0,-1.7158244816482855,9.809308738470024,-1.0573107437311509,-0.18448131,-0.1591304,-0.1255328,256.433,-99.02548,-7.943913
389186790000.0,-1.7155857817806297,9.821959821485864,-1.0842838484668638,-0.23182335,-0.15668693,-0.12522738,256.48987,-98.998436,-7.989443
389191796000.0,-1.7153454496129938,9.834697416332466,-1.1114414032349609,-0.26145032,-0.13744467,-0.12675454,256.5422,-98.97656,-8.03634
389196776000.0,-1.7151063656747545,9.84736885507319,-1.1384579079782935,-0.29901853,-0.12339478,-0.12950343,256.59338,-98.95089,-8.082289
389201760000.0,-1.7148670897012233,9.86005047167636,-1.165496112725436,-0.31703907,-0.086437434,-0.12583824,256.63058,-98.92584,-8.124821
389206827000.0,-1.714623828995388,9.872943278925206,-1.192984592551634,-0.33628133,-0.04520403,-0.10995574,256.66083,-98.89699,-8.163183
389211793000.0,-1.7143854171806698,9.885579095147383,-1.219925147281632,-0.35216382,-0.0018325958,-0.11209377,256.67786,-98.873604,-8.20397
389216791000.0,-1.705558208697973,9.896214843143309,-1.2193568043822478,-0.36835176,0.03481932,-0.10567969,256.68396,-98.845085,-8.23642
389221793000.0,-1.6852837978338222,9.904086094730449,-1.1819087723486676,-0.37995818,0.04642576,-0.09285152,256.6836,-98.81766,-8.266674
389226771000.0,-1.6651066652305149,9.91191957941673,-1.1446404189973758,-0.3744604,0.059864793,-0.09621128,256.7091,-98.79563,-8.261685
389231840000.0,-1.6445606858881758,9.919896263602098,-1.106690783975741,-0.364992,0.065973446,-0.09254608,256.73352,-98.76812,-8.250989
389236800000.0,-1.6244565119805012,9.927701423112737,-1.0695571896361653,-0.36468655,0.05497787,-0.08460484,256.75888,-98.74059,-8.240116
389241784000.0,-1.6042550598119831,9.935544349524232,-1.0322439166143014,-0.34788775,0.04642576,-0.07086037,256.7818,-98.71352,-8.226468
389246791000.0,-1.5839603826434898,9.943423469215718,-0.9947584515219112,-0.33383787,0.022602014,-0.06505715,256.81213,-98.686745,-8.213309
389251772000.0,-1.5637710902575772,9.951261674764606,-0.9574676383353332,-0.31642818,-0.006414085,-0.05222898,256.84656,-98.65681,-8.194607
389256903000.0,-1.542973808741392,9.959335923443858,-0.9190538333844536,-0.2770274,-0.032986723,-0.047036625,256.8869,-98.63122,-8.176953
389261937000.0,-1.5225696935294497,9.967257530898808,-0.8813662297744892,-0.23793201,-0.070249505,-0.04337143,256.9386,-98.60465,-8.156907
389267849000.0,-1.4986068152749796,9.97656077747681,-0.8371053810374789,-0.19272798,-0.09682214,-0.04917465,256.99445,-98.58386,-8.138614
389271917000.0,-1.4821181500619918,9.982962267172228,-0.8066498443896172,-0.1563815,-0.1282817,-0.056199603,257.06207,-98.565575,-8.120519
389276867000.0,-1.462054508763002,9.990751690474177,-0.7695911161676616,-0.10140363,-0.15149458,-0.04520403,257.1347,-98.55008,-8.099443
389281902000.0,-1.4416463402901911,9.998674871549994,-0.7318960259459352,-0.07849618,-0.17104226,-0.056505036,257.2144,-98.543175,-8.087351
389286974000.0,-1.4210882011652468,10.00665627659797,-0.6939239310890142,-0.03848451,-0.17470746,-0.06047566,257.2959,-98.538216,-8.070395
389291907000.0,-1.4010934653010212,10.014418948345144,-0.6569924752670129,-0.005497787,-0.13316862,-0.042760566,257.36954,-98.53216,-8.050285
389296915000.0,-1.3807947348716594,10.022299641657495,-0.6194995235628606,0.026572637,-0.06872234,-0.044898596,257.4367,-98.53646,-8.036874
389301863000.0,-1.3607392000944067,10.030085917717706,-0.5824557685644292,0.054367006,-0.029321533,-0.043066,257.49902,-98.53806,-8.017319
389306896000.0,-1.340339138143333,10.038005951551789,-0.5447756515662266,0.07391469,0.070249505,-0.039095376,257.52518,-98.54243,-7.996225
389311874000.0,-1.3201620055400258,10.045839436238069,-0.5075072982149348,0.096516706,0.1826487,-0.035430185,257.53625,-98.54996,-7.9741845
389317070000.0,-1.2991012620673894,10.05401597027381,-0.4686068634995245,0.1328632,0.28985557,-0.05467244,257.52008,-98.56657,-7.9564257
389321853000.0,-1.2797145153334362,10.061542598890622,-0.4327983994418248,0.16523905,0.39950588,-0.06078109,257.47177,-98.58137,-7.932412
389326841000.0,-1.259496850121444,10.069391819785594,-0.3954551799729128,0.19730948,0.49541172,-0.07788532,257.39703,-98.60869,-7.91572
389331912000.0,-1.238942764257368,10.0773716512127,-0.3574905717277539,0.20891592,0.573297,-0.09315695,257.2973,-98.639,-7.8988976
389338178000.0,-1.213545031655455,10.087231959578356,-0.3105794624269916,0.22449298,0.6423248,-0.098043874,257.17416,-98.675644,-7.88251
389341868000.0,-1.1985884990507536,10.093038620585263,-0.2829538650251701,0.22204952,0.65148777,-0.105068825,257.0476,-98.71634,-7.870751
389346848000.0,-1.1784032599257093,10.100875252513282,-0.2456705384503542,0.22052236,0.6786713,-0.11484267,256.89813,-98.76113,-7.859491
389351849000.0,-1.1581329023224272,10.108744930479553,-0.2082299930285363,0.23701571,0.68600166,-0.12492194,256.75397,-98.80985,-7.8504214
389356904000.0,-1.1376436686322466,10.116699583972752,-0.1703851705715695,0.22999077,0.6759224,-0.122783914,256.6095,-98.85461,-7.840332
389361903000.0,-1.1173814175507013,10.124566114697286,-0.1329595983732754,0.2406809,0.6649268,-0.1328632,256.4652,-98.90926,-7.8362694
389366887000.0,-1.0971799653821832,10.13240904110878,-0.0956463253514114,0.25228736,0.6423248,-0.12767084,256.33,-98.95844,-7.8275256
389371857000.0,-1.077035258865824,10.140229936828112,-0.0584378648942156,0.267559,0.6178902,-0.12767084,256.2005,-99.013054,-7.8231964
389376840000.0,-1.0568378599581745,10.148071289618738,-0.0211320784841138,0.28985557,0.591623,-0.124005646,256.0806,-99.06771,-7.816684
389381909000.0,-1.036291880615835,10.156047973804109,0.0168175565375212,0.31642818,0.5513059,-0.1151481,255.97415,-99.123535,-7.8093777
389386889000.0,-1.0161066414907909,10.163884605732123,0.054100883112337,0.3323107,0.47769663,-0.08674286,255.88763,-99.17501,-7.7967024
389391859000.0,-0.9959619349744314,10.171705501451456,0.0913093435695329,0.3475823,0.40194935,-0.07147124,255.8153,-99.23112,-7.7861867
389396846000.0,-0.9757483230233078,10.179553148725558,0.1286450764266828,0.35277468,0.36468655,-0.06352998,255.75546,-99.28283,-7.770587
389401845000.0,-0.9554860719417624,10.187419679450093,0.166070648624977,0.3643811,0.28130344,-0.044593163,255.73294,-99.331566,-7.750721
389407641000.0,-0.9319933719480364,10.19654038600728,0.2094630503975938,0.35033122,0.14508049,-0.0143553335,255.73831,-99.37242,-7.7279525
389411908000.0,-0.9146981078222204,10.203255026255643,0.2414084227860957,0.35979962,0.099571034,-0.011911872,255.74246,-99.42113,-7.7078624
389416882000.0,-0.9034961122126776,10.209878940605844,0.2897471200980026,0.35308012,0.03940081,0.007330383,255.79195,-99.45408,-7.678824
389421850000.0,-0.915105542307244,10.213432869942384,0.3662745893183142,0.33017266,-0.008552114,0.019242255,255.85133,-99.48723,-7.652541
389426841000.0,-0.9267687197633596,10.217003252655482,0.4431563523776088,0.30818152,-0.0571159,0.03940081,255.91476,-99.345795,-7.529457
389431918000.0,-0.9386328656148318,10.220635156689625,0.5213628663131004,0.28160888,-0.11178834,0.04886922,255.99321,-99.20222,-7.409757
389436906000.0,-0.950289032545528,10.224203393310129,0.5981984171325276,0.2742785,-0.1600467,0.040927973,256.0832,-99.06047,-7.2927046
389441887000.0,-0.9619288415835786,10.227766622381244,0.6749261393922643,0.26633725,-0.18203785,0.029626964,256.1807,-98.915764,-7.176927
389446846000.0,-0.9735172401018868,10.231314113440002,0.7513149718929739,0.24953845,-0.21746802,0.01740966,256.29477,-98.77334,-7.0673966
389451846000.0,-0.9852014491342606,10.234890934430885,0.8283353716718705,0.2443461,-0.25595254,-0.007330383,256.4145,-98.639984,-6.9672966
389456915000.0,-0.9970469002512812,10.23851711555144,0.9064186529677158,0.22479841,-0.28130344,-0.0290161,256.53934,-98.5064,-6.872197
389461921000.0,-1.0087451303344936,10.24209822872751,0.9835314772263472,0.20799962,-0.2929099,-0.05222898,256.6696,-98.38128,-6.7868285
389466858000.0,-1.0202821183330597,10.245629981773908,1.0595814199680296,0.19639318,-0.2910773,-0.09010262,256.80124,-98.26493,-6.7135496
389471852000.0,-1.0319523063145943,10.2492025105796,1.1365093952671916,0.17745635,-0.27672195,-0.115453534,256.93127,-98.14975,-6.6445556
389477210000.0,-1.044473104713686,10.253035431953428,1.219044455670257,0.15057829,-0.25045475,-0.14446963,257.05527,-98.0436,-6.588091
389481897000.0,-1.055425882260633,10.25638834395028,1.2912433784229946,0.12614368,-0.21930063,-0.16187929,257.17242,-97.9405,-6.5359526
389486892000.0,-1.0670984070839744,10.259961588120174,1.3681867578021123,0.102319926,-0.19333886,-0.17745635,257.282,-97.84205,-6.4917803
389492046000.0,-1.0791424897545454,10.263648575197577,1.447579385894199,0.08032878,-0.16798794,-0.20066923,257.38135,-97.74848,-6.454681
389496847000.0,-1.0903616672674306,10.267083038713018,1.5215343737618954,0.048563786,-0.15974127,-0.1994475,257.47757,-97.65011,-6.415378
389501857000.0,-1.102069244717869,10.270667013345882,1.5987088143403498,0.03390302,-0.14172074,-0.21380283,257.5621,-97.56291,-6.3868146
389506893000.0,-1.1138375800552758,10.2742695874479,1.6762837609976544,0.008246681,-0.11362094,-0.21410827,257.64093,-97.468285,-6.3539414
389511925000.0,-1.1255965680254567,10.277869300093124,1.753797091335136,-0.01740966,-0.07788532,-0.19822577,257.71167,-97.37383,-6.3204
389517016000.0,-1.1374934296622197,10.281511219226038,1.8322192623900084,-0.04520403,-0.06078109,-0.19394971,257.77875,-97.28117,-6.290467
389521856000.0,-1.1488037440055574,10.284973581945213,1.9067750093759803,-0.060170226,-0.046731193,-0.16371189,257.83655,-97.179405,-6.2484784
389526856000.0,-1.1604879530379313,10.288550402936094,1.9837954091548768,-0.05955936,-0.034208454,-0.14508049,257.88904,-97.080894,-6.208878
389531894000.0,-1.172260962058951,10.292154407766509,2.061401163972093,-0.054061573,-0.028405234,-0.12858713,257.93924,-96.97725,-6.16188
389536968000.0,-1.1841180973850038,10.295784165708056,2.1395614656677173,-0.032375857,-0.01160644,-0.109650314,257.9823,-96.87376,-6.109372
389541947000.0,-1.1957532327394416,10.299345964050774,2.2162583797675426,-0.01740966,0.025045475,-0.103847094,258.0173,-96.77242,-6.056528
389546951000.0,-1.2074467891390412,10.30292564649845,2.293340395866262,0.0143553335,0.08277224,-0.100792766,258.04102,-96.67488,-5.9996514
389551875000.0,-1.218953398194123,10.30644809981027,2.36919008556852,0.062002823,0.12003502,-0.0983493,258.05957,-96.58258,-5.9422674
389556893000.0,-1.230679670379013,10.31003779735672,2.4464877587866205,0.094989546,0.09590584,-0.09040806,258.07898,-96.4926,-5.883711
389562009000.0,-1.242634953060938,10.313697600594589,2.525295031840387,0.102319926,0.065973446,-0.065973446,258.08932,-96.402534,-5.8205338
389566875000.0,-1.2540060252912442,10.317178562782916,2.600251284905209,0.10720685,0.047036625,-0.034513887,258.1034,-96.314186,-5.7545114
389571865000.0,-1.265666865905553,10.320748230131816,2.6771176438845483,0.1328632,0.04337143,-0.015882496,258.12152,-96.228096,-5.6867423
389576906000.0,-1.2774468854519925,10.324354381054825,2.754769610941632,0.1600467,0.04642576,0.004581489,258.14313,-96.13611,-5.611139
389581905000.0,-1.2891287576425594,10.327930486681508,2.8317746066405727,0.16584991,0.06505715,0.007941248,258.16092,-96.04626,-5.536583
389586977000.0,-1.3009812192849994,10.331558813894658,2.909904100176285,0.16065755,0.076358154,-0.0070249503,258.1796,-95.95976,-5.463206
389593028000.0,-1.3151214490559782,10.335887482657824,3.0031141879887056,0.10934488,0.06383542,-0.025961773,258.19946,-95.87086,-5.391799
389596932000.0,-1.3242444794684554,10.338680264487504,3.063251716136068,0.005497787,0.016187929,-0.031154128,258.22595,-95.77777,-5.3225965
389601873000.0,-1.3357908148342472,10.342214878990694,3.139363275197573,-0.07544186,-0.08307768,-0.047036625,258.27017,-95.69156,-5.264008
389606927000.0,-1.3476012133241706,10.345830329648276,3.2172154952940826,-0.2782491,-0.20433442,-0.06780604,258.3337,-95.58681,-5.2102966
389611897000.0,-1.35921531710235,10.349385689713213,3.2937737726743057,-0.5186246,-0.3118467,-0.06536258,258.421,-95.47302,-5.1563773
389616884000.0,-1.3700542243028089,10.339542741970178,3.337456132717349,-0.7831292,-0.34300083,-0.08002335,258.51923,-95.35611,-5.1144586
389621859000.0,-1.3748431803002357,10.230593949898733,3.1360804881453634,-1.0118983,-0.29077184,-0.08735373,258.6223,-95.23283,-5.0706205
389626844000.0,-1.3796417623398685,10.12142616528041,2.934300068408409,-1.2070698,-0.16218472,-0.1020145,258.6727,-95.10386,-5.0647
389631949000.0,-1.3845558568859715,10.00963047009956,2.7276623466918286,-1.3432927,0.0012217305,-0.119729586,258.69586,-84.93849,-5.061112
389636905000.0,-1.3893265234032075,9.90109776386718,2.527055774933284,-1.452943,0.17592919,-0.12217305,258.6768,-84.88174,-5.0573306
389641868000.0,-1.3941039281499872,9.792411762851987,2.326165860559261,-1.5259414,0.32528573,-0.12705997,258.61627,-84.71588,-5.060201
389646847000.0,-1.3988967345642964,9.683375373761791,2.124628305921288,-1.5861117,0.42394048,-0.119729586,258.5185,-84.45395,-5.061925
389651845000.0,-1.4037078304587969,9.573922898832528,1.9223216784698731,-1.6371188,0.46211955,-0.12675454,258.39407,-84.10197,-5.0711493
389656904000.0,-1.408577645210753,9.463134569367314,1.7175459225121497,-1.6694947,0.4560109,-0.13469578,258.25287,-83.68355,-5.0805583
389663199000.0,-1.4146372387793564,9.325278761108068,1.4627399561642802,-1.702176,0.41996986,-0.1563815,258.1087,-83.20422,-5.0973687
389666869000.0,-1.4181699962689156,9.244908496404108,1.314187470620725,-1.7363845,0.36102137,-0.17684549,257.9721,-82.68217,-5.1166706
389671850000.0,-1.422964727891666,9.135828308804536,1.112568960949758,-1.7898352,0.2855795,-0.19394971,257.8501,-82.12104,-5.140791
389676842000.0,-1.4277700481608426,9.026507229403398,0.9105051985973254,-1.8616118,0.20677789,-0.21380283,257.74554,-81.52734,-5.1703267
389681891000.0,-1.432630236870593,8.915937892485061,0.7061342178045704,-1.921782,0.12370021,-0.21624629,257.66266,-80.913536,-5.197499
389687175000.0,-1.4377166375721817,8.800222230715107,0.4922510206350483,-2.0060816,0.024129177,-0.204029,257.60565,-80.27014,-5.222641
389692060000.0,-1.4424189591897556,8.693244371565559,0.2945183525477817,-2.083356,-0.028099801,-0.18753563,257.557,-79.61139,-5.2456546
389696910000.0,-1.447087589659609,8.58703298633008,0.0982023975379062,-2.125811,-0.13439035,-0.16523905,257.54913,-78.94297,-5.2566204
389701866000.0,-1.4518582561768445,8.4785002800977,-0.1024041742206387,-2.2149973,-0.22204952,-0.116675265,257.54614,-78.25092,-5.2533307
389706891000.0,-1.4566953423853009,8.368456525291869,-0.3058036946174685,-2.312125,-0.29871312,-0.07269296,257.56604,-77.55114,-5.2398615
389712105000.0,-1.4617143607914482,8.254273811350057,-0.516853465632209,-2.4156666,-0.39461896,-0.021685716,257.6094,-76.837364,-5.204626
389716936000.0,-1.4663647017811103,8.148478511953643,-0.7124003478286438,-2.4969118,-0.50823987,0.04520403,257.67145,-76.11562,-5.1467967
389721915000.0,-1.4711575081954196,8.039442122863447,-0.9139379024666168,-2.5552492,-0.64751714,0.09285152,257.76062,-75.381584,-5.072303
389726869000.0,-1.475926249504214,7.930953215140444,-1.114463519192168,-2.600148,-0.82924956,0.15607607,257.88217,-74.6439,-4.964319
389731885000.0,-1.480754672274685,7.821106553626802,-1.3174987419405255,-2.5689938,-1.0384709,0.21685717,258.04034,-73.922,-4.83191
389736905000.0,-1.4855869454620385,7.711172295094408,-1.5206958747548711,-2.4715607,-1.2831224,0.25045475,258.24878,-73.216576,-4.6733184
389741937000.0,-1.4904307699000388,7.6009752455057615,-1.7243787377671795,-2.336865,-1.5503759,0.26267207,258.51022,-72.54094,-4.4857593
389746913000.0,-1.495220688501686,7.492004554179629,-1.925794859855662,-2.2461514,-1.7162259,0.26175576,258.8009,-71.889435,-4.281314
389751868000.0,-1.4999903924147011,7.383493747201938,-2.12636095409771,-2.2770002,-1.7635679,0.21624629,259.1264,-71.24703,-4.0742507
389756892000.0,-1.504826516018937,7.273471891650794,-2.329719996978043,-2.3979516,-1.704314,0.12522738,259.46375,-70.61002,-3.8761716
389761941000.0,-1.5096867047286873,7.162902554732456,-2.5340909777707976,-2.5185974,-1.6276505,0.018020526,259.8066,-69.97008,-3.6933744
389766930000.0,-1.5144891371852025,7.053647173095383,-2.73603330757374,-2.6181684,-1.5415184,-0.1301143,260.13544,-69.30579,-3.5530634
389771915000.0,-1.519287719224835,6.94447938847706,-2.9378137273106946,-2.7036896,-1.3292428,-0.26511553,260.41168,-68.61904,-3.4579544
389776867000.0,-1.5240545353251884,6.8360342792634325,-3.1382583890032514,-2.7711902,-1.0213667,-0.35308012,260.6429,-67.917656,-3.408262
389781921000.0,-1.5289195370560416,6.7253554460716565,-3.342831757378491,-2.7601945,-0.6737844,-0.408058,260.812,-67.223495,-3.4115179
389787033000.0,-1.5338403698316891,6.613406456107993,-3.549752821710549,-2.6410758,-0.50946164,-0.410196,260.94708,-66.55341,-3.435931
389791867000.0,-1.538493598634013,6.507545458947517,-3.745421136456475,-2.4535403,-0.23579398,-0.40958515,260.96356,-65.91722,-3.5229359
389796853000.0,-1.5432931432778665,6.398355775074506,-3.947242033709927,-2.3295345,-0.04520403,-0.40408736,260.9558,-65.30955,-3.617246
389802334000.0,-1.548569177010911,6.27832596013107,-4.169099301629334,-2.0295997,0.18112154,-0.3930918,260.8644,-64.81623,-3.7445154
389806892000.0,-1.5529567270483524,6.178509157264408,-4.35359582182212,-1.4899004,0.27672195,-0.3811799,260.7553,-64.436264,-3.8755035
389811894000.0,-1.557771673359735,6.068969085316393,-4.556064359339522,-1.29198,0.46975538,-0.37201694,260.5606,-64.052864,-4.041523
389816859000.0,-1.5117629343570402,6.0114998314026575,-4.553075183054957,-0.8756753,0.6814202,-0.35063666,260.333,-63.889816,-4.212849
389821845000.0,-1.3573988637751435,6.062954446973778,-4.11571016716056,-0.47647488,0.85918194,-0.33475417,260.06418,-63.78142,-4.3998656
389826882000.0,-1.204051659351585,6.118247672838617,-3.683479969308357,-0.098043874,0.9807441,-0.29932398,259.8497,-64.2635,-4.57953
389831891000.0,-1.0761771220965417,6.204649494488472,-3.344785319236311,0.20158553,1.0534371,-0.2611449,259.59814,-64.8362,-4.7649302
389836886000.0,-0.9486599902161384,6.290809825720461,-3.0070373102305474,0.44135013,1.0952814,-0.22357668,259.37793,-65.42267,-4.8837285
389841870000.0,-0.7442633845958292,6.435397429791459,-2.5842086135253224,0.61819565,1.1597277,-0.18906279,259.12787,-66.07568,-4.999046
389846859000.0,-0.3741801969215491,6.7058428460774575,-1.9768925901191656,0.75747293,1.2797627,-0.1554652,258.8476,-66.78459,-5.1095343
389851840000.0,-0.1106161733319887,6.961318752924567,-1.4552863854134732,0.8753699,1.4278975,-0.112399206,258.58356,-67.46847,-5.149406
389856904000.0,-0.0959438410528439,7.186294460064542,-1.1276043012505044,0.9764681,1.5607607,-0.051923547,258.28613,-68.18577,-5.1808934
389861910000.0,-0.1014209485401974,7.402290865303244,-0.8004197991043723,1.0534371,1.6951511,0.028710667,257.9942,-68.85585,-5.103306
389866932000.0,-0.1480572264968265,7.605794754055007,-0.4654865092154442,1.128879,1.7876972,0.12767084,257.6696,-69.55298,-5.0088243
389872104000.0,-0.1926942334715367,7.812892539980257,-0.1080628734007897,1.1878275,1.8597792,0.22999077,257.3386,-70.220955,-4.8515587
389876897000.0,-0.2040223762043435,7.982814562685093,0.3337347050074037,1.2721269,1.9080375,0.33964106,256.97913,-70.91559,-4.66839
389881878000.0,-0.2157948525139848,8.159401584402763,0.7928612933761106,1.3362677,1.9068159,0.4437936,256.6458,-71.55476,-4.4070773
389886939000.0,-0.1884792782683076,8.348328189403857,1.3884388704983852,1.4031575,1.8799378,0.53969944,256.29782,-72.212326,-4.1194305
389891938000.0,-0.138335835104303,8.540544691716853,2.052839524055163,1.4401149,1.7959439,0.5910121,255.96156,-72.86959,-3.810357
389896878000.0,-0.0631002805364967,8.749809317409426,2.800889982964625,1.4630222,1.6389514,0.68783426,255.6992,-73.426506,-3.3757548
389901762000.0,0.0618679955263439,8.994746849951907,3.720656586234904,1.4611896,1.3790283,0.75747293,255.48518,-73.96743,-2.9249089
389906826000.0,0.1891568179398125,9.233725119190922,4.546576568248644,1.41904,1.0201449,0.83199847,255.39035,-74.33065,-2.3322175
389911762000.0,0.3104246023068574,9.448276261174149,5.19489257827331,1.3374895,0.58123827,0.91232723,255.37614,-74.653946,-1.7055948
389916741000.0,0.4028418442756508,9.622276918529865,5.583278,1.2470814,0.10140363,0.99021256,255.53717,-74.732925,-0.89466465
389921746000.0,0.4517769428412456,9.734827335068912,5.583278,1.1404854,-0.35521814,1.0711522,255.78824,-74.7403,-0.051226422
389926733000.0,0.4474257415354292,9.803356048093033,5.378035917315462,1.0445796,-0.7254025,1.1508701,256.27243,-74.46624,1.0803437
389931828000.0,0.3752953088508919,9.817782424854636,4.90678381669459,1.0158689,-0.95233893,1.2333369,256.80298,-74.11795,2.224716
389936735000.0,0.2727343224722413,9.78091515672595,4.428114047577872,1.0167851,-1.0680978,1.2950343,257.41205,-73.68962,3.3843403
389941760000.0,0.1214175743637614,9.672156025842586,3.903234256873342,1.054048,-1.1191051,1.3451253,258.03223,-73.21298,4.542765
389946728000.0,-0.0803174877333333,9.541180866666666,3.41904776,1.1285735,-1.0943651,1.382999,258.75485,-72.737274,5.7479415
389951781000.0,-0.3718619733293828,9.369121849876542,2.984120703851852,1.2116512,-0.9896017,1.4031575,259.44754,-72.2308,6.9261584
389956811000.0,-0.7387667771751413,9.194113143502824,2.625246205762712,1.3063353,-0.8142834,1.4294246,260.33264,-71.64009,8.265087
389961861000.0,-1.2397004810357817,9.011955554048964,2.3929951365536724,1.4031575,-0.55833083,1.4230106,261.1513,-71.03452,9.547236
389966812000.0,-1.7813983030288227,8.824801606546165,2.2873672035368835,1.4807373,-0.25137106,1.3933836,262.36096,-70.10155,11.217909
389971784000.0,-2.4792373271617003,8.610797690962384,2.552545945266244,1.5118915,0.064446285,1.3329079,263.47107,-69.15921,12.800098
389976787000.0,-3.194531147061311,8.375170011247357,2.933283858224101,1.4724907,0.32528573,1.2021828,264.6032,-68.2402,14.258646
389981927000.0,-3.985458046849895,8.046310855221988,3.811629009175476,1.2657127,0.43066,1.0115929,265.67172,-67.31647,15.621147
389987432000.0,-4.832549989133192,7.694098860295983,4.752346918900635,1.1175779,0.6041457,0.89827734,266.64883,-66.44923,16.766691
389991794000.0,-5.283599894765343,7.541071784997994,5.53387785193542,0.77518797,0.68325275,0.68325275,267.6157,-65.586525,17.794119
389996795000.0,-5.787894776895307,7.372973591255516,6.432002938427597,0.44806966,0.66675943,0.505491,268.5373,-64.7423,18.760504
390001836000.0,-5.608212793574409,7.6115289057023645,7.358879416411683,0.1966986,0.54336464,0.39370266,269.2407,-63.937267,19.445353
390006865000.0,-5.295619153082985,7.928588121001391,8.287729421418637,0.081855945,0.3173445,0.3408628,269.95508,-63.149635,20.091625
390011963000.0,-4.979826225159018,8.25910049584108,8.771587269008709,0.09712757,-0.036651913,0.3222314,270.55243,-62.37923,20.57984
390016905000.0,-4.674151700919856,8.583300822096096,9.04947284841961,0.21013765,-0.47036624,0.33750305,271.20587,-61.631763,21.084452
390021858000.0,-4.363050620729218,8.92193877734565,9.215217664803111,0.41996986,-0.99112886,0.3643811,271.9385,-60.6931,21.783092
390026846000.0,-4.047221857715119,9.270279164316968,9.322042583616918,0.6560693,-1.5329664,0.39003745,272.76056,-59.814568,22.515806
390031903000.0,-3.710582204679081,9.536171058039512,8.96702819015975,0.8491027,-2.033876,0.40439278,273.64786,-58.96744,23.309952
390036872000.0,-3.3687140183004067,9.738592871443426,8.305782848180357,0.9410379,-2.3900104,0.39706242,274.6217,-58.18362,24.12479
390041904000.0,-3.030090724166234,9.844957,7.129672381319481,0.9016371,-2.5415049,0.36987892,275.6542,-57.434914,24.974709
390046860000.0,-2.7046324440207794,9.844957,5.433344904664935,0.7974846,-2.440712,0.31490102,276.70508,-56.739212,25.797594
390051849000.0,-2.4004076040848457,9.844957,3.91570634181788,0.7440339,-2.1282544,0.21197024,277.83203,-56.142918,26.625711
390057998000.0,-2.049100953160991,9.844957,2.2372409827657638,0.72692966,-1.640784,0.069027774,278.8879,-55.593246,27.3674
390062040000.0,-1.8027924998380715,9.871723120457,1.2185521996221662,0.70371675,-1.1136073,-0.09468412,280.07117,-55.21555,28.080532
390066880000.0,-1.4400179543181002,10.021836704480029,0.3720782600755667,0.6435465,-0.6383542,-0.2510656,281.15335,-54.886436,28.682226
390071823000.0,-1.0695232066930551,10.175144854444044,-0.4924094843828714,0.52015173,-0.22052236,-0.36896262,282.28677,-54.778946,29.161055
390076849000.0,-0.8768516817919386,10.360565179117083,-0.8325476779424184,0.32589662,0.13164146,-0.4456262,283.32333,-54.689457,29.547567
390081897000.0,-0.7024060331715931,10.549857621650672,-1.118341680368522,0.09101892,0.28680122,-0.50762904,284.31653,-54.61114,29.867886
390086939000.0,-0.5747232304876067,10.805877072429908,-1.3482936112149533,-0.037873644,0.55955255,-0.5213735,285.13156,-54.80254,29.921177
390091868000.0,-0.5459519504835433,11.19428918224299,-1.4585834411214953,-0.2910773,0.8216137,-0.54153204,285.91345,-54.95769,29.93915
390096854000.0,-0.5626187386304536,11.63957523288067,-1.518243411904074,-0.5342017,1.0693196,-0.54092115,286.64673,-55.15677,29.906387
390101844000.0,-0.6684773377829144,12.187278555619764,-1.4768205486660888,-0.74189585,1.2932017,-0.5412266,287.3083,-55.32669,29.847511
390106846000.0,-0.7981871797253959,12.768317561735818,-1.3911555408498697,-0.9315695,1.4468343,-0.5476407,287.93958,-55.51107,29.745907
390111935000.0,-0.9984468780517136,13.452131153337342,-1.1762426540589297,-1.094976,1.575116,-0.54611355,288.50748,-55.663475,29.633694
390116922000.0,-1.0786311096745298,14.105278930277692,-0.8016857953642877,-1.2342533,1.7125608,-0.52503866,289.06372,-55.828697,29.482857
390121852000.0,-0.8636390944461033,14.70796149372947,-0.015731365161242,-1.3432927,1.892766,-0.4447099,289.5597,-55.954487,29.340801
390127440000.0,-0.619952404568528,15.391083230964467,0.8751232709390866,-1.4172074,2.0253236,-0.30024028,290.0635,-56.06903,29.190172
390131906000.0,-0.5041130264453086,15.126925966497158,1.4303695031608337,-1.4312572,1.9889772,-0.1160644,290.55157,-56.14109,29.07985
390136963000.0,-0.4171912491215475,14.373603903081063,1.971216081762888,-1.4181237,1.738217,0.055588737,291.05215,-56.1691,29.020695
390141876000.0,-0.3915677831024035,13.41242322884266,2.3194403637245,-1.3912456,1.3035865,0.19792034,291.8654,-55.81813,29.402422
390146848000.0,-0.4059939241082609,12.282375299131488,2.550258609775803,-1.3435981,0.7156286,0.2941316,292.802,-55.46437,29.834925
390151866000.0,-0.4355060594210683,11.30803653118472,2.5785531340793795,-1.3322971,0.058643065,0.37323865,293.79907,-54.995987,30.378502
390156906000.0,-0.4751164812652939,10.440208241122054,2.470524734795584,-1.3561208,-0.6059783,0.40103304,294.9911,-54.54787,30.961344
390162657000.0,-0.5216618996023059,9.457112362202356,2.3271961784108948,-1.3762794,-1.2034045,0.43004912,296.28622,-54.012547,31.652039
390166877000.0,-0.5689338537505222,8.805435063179882,2.0266816893140613,-1.4110987,-1.6621643,0.4578435,297.76126,-53.4983,32.36494
390171823000.0,-0.6243383763138107,8.041644560581503,1.674467314178294,-1.4337007,-1.9443841,0.48747048,299.35477,-52.923935,33.167107
390176841000.0,-0.7335491271442787,7.39161206481592,1.2441062400517413,-1.4257594,-2.022575,0.5164866,301.04498,-52.375847,33.961903
390181905000.0,-0.8927928300696517,6.8511483759801,0.7422472825353233,-1.391551,-2.110234,0.52320606,302.84836,-51.861336,34.74319
390186932000.0,-1.1290542983193277,6.512302107296577,0.3092391808577577,-1.3607023,-2.1453588,0.5021312,304.6925,-51.328102,35.557865
390191888000.0,-1.4306206512605042,6.351791092088543,-0.0604228000030744,-1.2825116,-2.1832323,0.44409904,306.5877,-50.843582,36.329197
390197118000.0,-1.8810285875825448,6.471573069078902,-0.5000228829736537,-1.1924089,-2.2348504,0.32284227,308.25,-50.57503,36.83294
390201849000.0,-2.3714603962488936,6.761513896909252,-0.9287650958982911,-1.0818423,-2.2779164,0.14844026,309.94897,-50.3645,37.2811
390206949000.0,-2.900144020049016,7.074069006174688,-1.390947570198788,-0.97585726,-2.2879958,-0.03573562,311.3816,-50.42508,37.402756
390211900000.0,-3.2227233983530112,7.466631358735985,-1.9110076568409564,-0.8179486,-2.2149973,-0.22479841,312.8239,-50.559067,37.454376
390216911000.0,-3.4417441207262627,7.914195692171842,-2.477605140718325,-0.65179324,-1.9895881,-0.3885103,314.2348,-50.75549,37.434845
390221865000.0,-3.5057719924982504,8.327341181945416,-2.923270322155353,-0.46028697,-1.6108516,-0.5137377,315.51993,-51.28496,37.071358
390226847000.0,-3.4757226882015395,8.724660039888033,-3.300556275703289,-0.258396,-1.1181889,-0.57635134,316.6845,-51.86102,36.6454
390231902000.0,-3.44523307896431,9.127800711686492,-3.6833705059692097,-0.03481932,-0.57726765,-0.5852089,317.7822,-52.58749,36.078735
390236876000.0,-2.8721590480554458,9.756780254019802,-3.3366170404831683,0.16157386,-0.17470746,-0.5571091,318.73926,-53.33227,35.477486
390243103000.0,-1.9416203855366336,10.63535989140594,-2.6186379231049504,0.32620203,0.017104227,-0.5525276,319.5649,-54.09639,34.844578
390246848000.0,-1.396074114216574,11.054989574537704,-2.276265679499277,0.4025602,-0.012217305,-0.59803706,320.41287,-54.938286,34.150467
390251917000.0,-0.701573795577962,11.284026906399816,-2.091558201088197,0.40194935,-0.16218472,-0.700357,321.2115,-55.790092,33.43641
390256916000.0,-0.0166641303827712,11.509901363290464,-1.9094014276462976,0.35827246,-0.23273966,-0.8005389,322.05875,-56.47547,32.87306
390261944000.0,0.8075115074642745,12.017170420882444,-1.9837754983310731,0.3191771,-0.21624629,-0.80848014,322.90744,-57.149403,32.31144
390266918000.0,1.7068482861458223,12.692915325857934,-2.2173048761552105,0.37934732,-0.045814894,-0.7113526,323.7088,-57.8096,31.75189
390271924000.0,2.3602903584942845,13.2515620819866,-2.305286847083169,0.46670106,0.2049453,-0.52534413,324.65958,-58.193913,31.4663
390276915000.0,2.9019491092826173,13.755539963145448,-2.3288373537150178,0.59589905,0.34269542,-0.28313604,325.57138,-58.526253,31.22073
390281966000.0,3.2470492950684933,14.076922171232876,-2.184495973287671,0.77396625,0.5684101,-0.14844026,326.60284,-58.647427,31.186373
390286957000.0,3.488493791421233,14.301997896832193,-1.959420461344178,0.88147855,0.6936375,0.13072516,327.59265,-58.65054,31.250504
390292031000.0,3.6184053934561615,14.397828926620075,-1.6617980676620077,1.0919216,0.77182823,0.42180246,328.68958,-58.47955,31.476706
390296960000.0,3.5334340054637865,14.24787908068615,-1.246937958068615,1.2932017,0.82650065,0.68325275,329.72336,-58.23645,31.751919
390301906000.0,3.32133498276644,13.997491123960696,-0.7969669337127739,1.4340062,0.8335256,0.88697636,330.95285,-57.77853,32.22147
390306950000.0,2.942522719387755,13.61411519387755,-0.2949265539897959,1.539075,0.7837401,1.0430524,332.1467,-122.724915,32.714108
390313030000.0,2.332709800259948,13.142529573285342,0.3182043070875825,1.5784758,0.6627888,1.1841623,333.33374,-123.29318,33.252678
390316952000.0,1.8182374310137968,12.830841935812838,0.7200184901415717,1.5418239,0.62949663,1.201572,334.47357,-123.84838,33.762558
390321829000.0,1.1535926232883054,12.452728780275836,1.2234809918760627,1.4984524,0.57848936,1.2250903,335.57404,-124.40692,34.26702
390326875000.0,0.4095057119166825,12.082967471755149,1.753015267485358,1.3655893,0.5213735,1.2009611,336.6577,-124.92992,34.729263
390331933000.0,-0.2832671202266938,11.736266794701988,2.3527136768721344,1.1643091,0.4297437,1.1725558,337.69406,-125.38106,35.12316
390336895000.0,-0.7633905730489048,11.48611846357616,3.1999904698420782,0.91232723,0.19883664,1.1902709,338.77362,-125.80997,35.492043
390341931000.0,-1.250674270834607,11.232239584988964,4.059902990881303,0.65270954,-0.18478674,1.2415836,339.87375,-126.14837,35.77875
390346913000.0,-2.5784905531756754,10.54327466891892,4.263620520202703,0.4605924,-0.6704246,1.2837334,341.06732,-126.46118,36.035244
390351824000.0,-4.031207063706563,9.789677926640929,4.354415097683398,0.38331795,-1.1227703,1.2562444,342.35938,-126.74138,36.251713
390356928000.0,-4.925817078794481,8.984442566303558,4.369812751125635,0.41080686,-1.5103643,1.0861185,343.66595,-126.918205,36.376656
390362124000.0,-5.644046395243283,8.157801511619462,4.360778380646332,0.5235115,-1.7928895,0.782213,345.06052,-127.0278,36.41987
390366922000.0,-5.662688102686444,7.549523650492687,4.254385831034125,0.63713247,-1.9969184,0.3839288,345.9513,-126.678055,36.0244
390371913000.0,-5.236319723265221,7.024000185540919,4.075906200809045,0.6768387,-2.125811,-0.0030543262,346.89377,-126.2431,35.532722
390376865000.0,-4.598434251984034,6.849772586366126,3.917221259231432,0.643852,-2.1700988,-0.15699236,347.7187,-125.67554,34.906517
390382995000.0,-3.661126162996008,6.872745813258198,3.733435348141191,0.59895337,-2.4129176,-0.46181414,348.62393,-124.95344,34.108982
390386904000.0,-3.065815945719603,6.919286403804797,3.598255460483871,0.45265114,-2.5262332,-0.52198434,349.51196,-124.3495,33.4336
390391936000.0,-2.323427223883374,7.297954600992556,3.244499773387097,0.40653083,-2.7504208,-0.64568454,350.49435,-123.63955,32.631554
390396873000.0,-1.623726452603451,7.688530935333638,2.867081580004581,0.29626966,-2.9755247,-0.7687739,351.66953,-123.10571,31.996637
390401866000.0,-1.0797707043518094,8.192328904809894,2.31217367214842,0.1881465,-3.1334333,-0.8491027,352.8814,-122.539,31.323118
390406848000.0,-0.5370133364788519,8.695016964880136,1.7584882732020155,0.112399206,-3.218038,-0.8558222,354.40875,-122.14369,30.78547
390412177000.0,0.1297812733547821,9.403245244223458,0.987349407721556,0.08460484,-3.200323,-0.786489,355.93076,-121.731026,30.23055
390416935000.0,0.7872672916057326,10.158465601637907,0.1699343780637612,0.07544186,-3.075401,-0.634689,357.42697,-121.322815,29.685884
390421910000.0,1.3527234639040129,10.846548858035897,-0.6029960327989514,0.08552113,-2.9071076,-0.4550946,359.1395,-121.094734,29.27292
390426913000.0,1.792334420568663,11.431086706594073,-1.2938132287961284,0.105068825,-2.6911669,-0.2828306,0.76855344,-120.88927,28.892828
390431891000.0,2.020255926247247,11.790460827731494,-1.854389041319544,0.11942416,-2.4397957,-0.15424347,2.38424,-120.78372,28.577576
390436975000.0,2.0389051462798045,11.930329734559034,-2.2973083091927604,0.116980694,-2.162463,-0.057421334,3.8945985,-120.70154,28.301872
390441858000.0,1.9023793201672765,11.948881141191844,-2.7206761106638786,0.13103059,-1.8732183,-0.0076358155,5.282419,-120.65059,28.038258
390446845000.0,1.5378789948562468,11.799086833350758,-3.150087572085729,0.16615535,-1.5650368,0.04642576,6.5534286,-120.61937,27.8143
390452537000.0,1.1004665934394409,11.431473296001553,-3.6499531072981366,0.22327125,-1.2538009,0.06383542,7.643277,-120.55735,27.552423
390456936000.0,0.7488516716032608,11.022618606657607,-4.04245354076087,0.3115413,-0.915687,0.06627888,8.610434,-120.51117,27.323729
390461985000.0,0.4030697655543359,10.475803602534675,-4.375015383654326,0.42363504,-0.54550266,0.053450707,9.362692,-120.40271,27.020674
390466865000.0,0.1372395381997804,9.855533250274425,-4.55689918287596,0.50793445,-0.19456059,0.0033597588,10.000694,-120.29767,26.736034
390471857000.0,-0.0638185766452773,9.232777233883056,-4.499456715202399,0.5119051,-0.027488936,-0.062308256,10.51669,-120.16333,26.38944
390476848000.0,-0.1689212775234382,8.626047728135932,-4.112487648995503,0.48197266,0.25503623,-0.10048734,10.878506,-120.037796,26.078112
390481850000.0,-0.1694396656330841,8.106363184672897,-3.1652268655654208,0.3827071,0.4615087,-0.19272798,11.172411,-119.88985,25.730583
390486887000.0,-0.025175365715514,7.70512800411215,-1.43856348417757,0.26083946,0.5885687,-0.2782491,11.395786,-119.73453,25.395979
390491824000.0,0.0846108667609177,7.492660006339303,0.0689370151187361,0.14172074,0.6160576,-0.38362336,11.5513525,-119.55625,25.07699
390496846000.0,0.1136477321877641,7.749152415475951,1.1191035400835176,0.03634648,0.56230146,-0.4868596,11.683884,-119.34736,24.742924
390501822000.0,0.0974114029872908,8.018890339252856,1.9826760227395264,-0.058643065,0.43035457,-0.57787853,12.018375,-119.17818,24.589289
390506906000.0,-0.0317634081094612,8.333493541443794,2.4222870813727586,-0.110872045,0.20066923,-0.64476824,12.3908825,-118.97885,24.401241
390512080000.0,-0.1632249487496255,8.653666037143223,2.8696803971415124,-0.14049901,-0.116675265,-0.68691796,13.054933,-118.7984,24.290096
390516857000.0,-0.2845994712927381,8.949271760366297,3.282745311990244,-0.14049901,-0.4859433,-0.72326446,13.785443,-118.59058,24.131512
390522185000.0,-0.4199738602627412,9.278973936069152,3.743454934413111,-0.1591304,-0.8573494,-0.75655663,14.615751,-118.3687,23.931242
390526841000.0,-0.6543518888533595,9.483195697498774,3.654887152005885,-0.21471913,-1.1664472,-0.7816021,15.518787,-118.12329,23.691904
390531939000.0,-0.9752063925179008,9.660384075723394,3.2861439365277096,-0.2657264,-1.3897184,-0.7910705,16.486942,-117.859634,23.41859
390537094000.0,-1.2286732897352042,9.714118447093576,2.7273359920139253,-0.3145956,-1.5409076,-0.79534656,17.46852,-117.40093,23.02412
390541880000.0,-1.4220885813482431,9.689941548264583,2.098736117554594,-0.34055737,-1.6297885,-0.7828238,18.482952,-116.93039,22.613987
390546862000.0,-1.4752682175279652,9.58773851751872,1.497234579171674,-0.3567453,-1.6514742,-0.7535023,19.37066,-116.342026,22.06753
390551847000.0,-1.4620278510677638,9.450921305260238,0.9190714956457428,-0.35521814,-1.6276505,-0.7302894,20.26575,-115.75254,21.522903
390556926000.0,-1.3791811389131443,9.246626542498838,0.4002135112605667,-0.3594942,-1.5647314,-0.70280045,21.041962,-115.12532,20.904747
390562114000.0,-1.2314892609382255,8.978934899210403,-0.0659389828146771,-0.36041048,-1.4810427,-0.6835582,21.804018,-114.50572,20.301487
390566862000.0,-1.0568619280480358,8.733839313861184,-0.3781269609851414,-0.3475823,-1.4376713,-0.6899723,22.529367,-113.933876,19.692719
390571859000.0,-0.8084780232342764,8.475714717178914,-0.519364882601262,-0.34666604,-1.3573426,-0.68661255,23.218813,-113.37159,19.108383
390576825000.0,-0.6008444749429441,8.291358924496008,-0.6106061264397109,-0.3555236,-1.2928963,-0.72051555,23.89545,-112.8845,18.55459
390581901000.0,-0.4482967444218334,8.21277360155953,-0.629096725922404,-0.37293324,-1.2513574,-0.7809912,24.55017,-112.39528,18.00533
390587070000.0,-0.3127028700689387,8.178676355859793,-0.5887434287367705,-0.41263947,-1.1792754,-0.82344633,25.20194,-111.983475,17.53088
390591939000.0,-0.2221514168239635,8.233007380036897,-0.4393335566482182,-0.4361578,-1.087951,-0.8756753,25.827158,-111.55864,17.04718
390596836000.0,-0.1181051560243111,8.302090356158834,-0.2618340964927066,-0.46670106,-1.0051788,-0.93034774,26.471508,-111.17306,16.60819
390601856000.0,0.029939550069692,8.418968079011346,0.0069839256790923,-0.5180137,-0.93676186,-0.9624182,27.08711,-110.775604,16.171999
390607949000.0,0.2096280748168557,8.56082783306321,0.3332604613549432,-0.5830709,-0.9016371,-0.9923506,27.74197,-110.38686,15.768252
390612031000.0,0.4283515537074864,8.668517839240119,0.5805524614748239,-0.6826419,-0.9086621,-1.0015136,28.383623,-109.981636,15.368565
390616835000.0,0.6867913226177101,8.795387892554388,0.8718845721928301,-0.7153232,-0.93767816,-1.0467176,29.146494,-109.61325,15.037299
390621934000.0,0.4653964507833017,9.1451492227704,1.3331987224193549,-0.7828238,-1.0073168,-1.1044444,29.91205,-109.21344,14.698983
390626821000.0,0.1456873955351044,9.527024224857684,1.808321927016129,-0.85918194,-1.0180069,-1.1496484,30.657425,-108.797005,14.355909
390631937000.0,-0.252536565287398,9.706723535509218,2.0235338745240257,-0.9636399,-0.98715824,-1.1777482,31.49837,-108.401566,14.084662
390638540000.0,-0.7995758763381078,9.813814756596306,2.134483682133434,-1.0644327,-1.0082331,-1.219287,32.339314,-107.97543,13.791895
390641916000.0,-1.070729789191481,9.786394777704484,2.0126166992461365,-1.1523973,-1.0659598,-1.284955,33.16763,-107.38408,13.396462
390646858000.0,-1.4676618500094234,9.746255697229552,1.834220185789672,-1.2082914,-0.9434814,-1.357648,33.787163,-106.62016,12.85305
390651842000.0,-1.5863954648006553,9.76648985263062,1.8142094643910431,-1.2623531,-0.70616025,-1.389413,34.391247,-105.84476,12.3145895
390656884000.0,-1.5160714056526488,9.828023272437648,1.902114572747133,-1.3161092,-0.88422745,-1.3897184,35.080833,-105.06078,11.760026
390661943000.0,-1.4573319274360212,9.815510242877837,1.8817394185610816,-1.2599095,-1.135293,-1.3625349,35.602642,-104.19564,11.099543
390666929000.0,-1.4158303027909225,9.700227952197006,1.7111214839014968,-1.1734722,-1.2012665,-1.3417655,36.12856,-103.33914,10.451893
390671879000.0,-1.3163462236043515,9.517023809332953,1.5947123987117091,-1.1096367,-1.2565498,-1.349096,36.757923,-102.51369,9.827155
390676848000.0,-1.102910176123676,9.199140107357572,1.5810888318064702,-1.0729848,-1.2614367,-1.3836098,37.395153,-101.70973,9.213638
390681891000.0,-0.8695070656704698,8.906862793599052,1.5697335507927102,-1.0354166,-1.3069462,-1.4049901,38.06592,-100.96434,8.622509
390686870000.0,-0.5868997449659208,8.712570395021485,1.566200961727663,-1.0027353,-1.3631458,-1.4370605,38.741486,-100.224915,8.031214
390691877000.0,-0.3027031483064157,8.517185369980739,1.5626485067269225,-0.9779953,-1.3756685,-1.4538593,39.470795,-99.572945,7.518189
390696847000.0,-0.0085189697220182,8.38998177341865,1.569078357610406,-0.98654735,-1.3787229,-1.4721853,40.210705,-98.92002,7.0047817
390701838000.0,0.2973310599853142,8.319786313857128,1.584120152050771,-1.0048733,-1.3713925,-1.5015068,40.948425,-98.270226,6.4941087
390707055000.0,0.5164006439191204,8.422020328876258,1.6046924564666418,-1.0458013,-1.3692545,-1.5109752,41.815678,-97.75346,6.1235695
390711904000.0,0.6678475018002237,8.608083986302645,1.6263277076779723,-1.1169671,-1.3228287,-1.5048665,42.65717,-97.2272,5.756301
390716874000.0,0.7493259099889901,8.850088094935442,1.6306288700330298,-1.1972959,-1.2519683,-1.4853189,43.515377,-96.759544,5.456596
390721852000.0,0.7540975354919427,9.145928826293664,1.6163139935241717,-1.2727377,-1.1749994,-1.4639386,44.346573,-96.285904,5.1637096
390726844000.0,0.679166238319234,9.40228101775588,1.6110535392302687,-1.3096951,-1.1090258,-1.4587462,45.14786,-95.82881,4.8894544
390732011000.0,0.5135623656465558,9.623086328623222,1.6156536438691085,-1.3060299,-1.0995574,-1.4501941,45.934288,-95.38112,4.6255946
390736843000.0,0.3489953474579731,9.783558351213417,1.6267444343297577,-1.2678508,-1.1582005,-1.402852,46.71608,-94.95304,4.3706737
390741855000.0,0.1590192758221018,9.858548854702637,1.6517413210290597,-1.1884383,-1.2400564,-1.3720033,47.49296,-94.54412,4.1169305
390746837000.0,-0.0263333612152805,9.9004648712694,1.6780829276561875,-1.0821478,-1.3206906,-1.3399329,48.290985,-94.137405,3.8377583
390751844000.0,-0.2076048186927974,9.895694473438123,1.7067047169120573,-0.9804387,-1.3787229,-1.2956452,49.095913,-93.76755,3.5749514
390756879000.0,-0.3494099229352383,9.798783345084642,1.7920928701351142,-0.8698721,-1.4178182,-1.255328,49.918625,-93.402336,3.2917588
390762063000.0,-0.4342224574530206,9.55976624553502,1.9655730671843452,-0.7867944,-1.4495832,-1.2287555,50.743725,-93.07197,3.0222113
390766907000.0,-0.5134724414815965,9.336425421804629,2.1276753192110576,-0.7305948,-1.466382,-1.1979067,51.570244,-92.74626,2.73404
390771928000.0,-0.2911410968014798,9.240183218479212,2.1901190689124723,-0.7067711,-1.4987578,-1.1914927,52.397182,-87.54764,2.4522607
390776820000.0,-0.0174594251683379,9.171762852010517,2.231171288793691,-0.6737844,-1.5488489,-1.210124,53.220795,-87.80329,2.1777785
390781944000.0,0.3982895742315945,9.267556841657418,2.1849079523492416,-0.675617,-1.5766432,-1.2302825,54.04936,-88.03093,1.8782848
390786857000.0,0.8334620790303368,9.40681212782094,2.1152804001479835,-0.6985244,-1.5958854,-1.2431108,54.877605,-88.18208,1.582382
390791868000.0,1.2931243342439234,9.71468450440955,2.0466640145407613,-0.7495316,-1.6053538,-1.258077,55.68629,-88.213066,1.317827
390796858000.0,1.760830519014842,10.125854493654549,1.9798487839535384,-0.8023715,-1.5903877,-1.2675453,56.48224,-88.14059,1.0569463
390801852000.0,2.12108978579962,10.53714095022174,1.8623773328446007,-0.86162543,-1.5803084,-1.2394456,57.25515,-87.966576,0.8724691
390806984000.0,2.454704900217214,10.959720206625034,1.724483107846864,-0.915687,-1.5515977,-1.1872166,58.00789,-87.73062,0.69578284
390811866000.0,2.7119856669063247,11.306049286235282,1.5496934047619046,-0.9767735,-1.4798211,-1.1203269,58.65948,-87.44627,0.5679651
390816869000.0,2.926661962394498,11.615582607689904,1.3350170571428572,-1.0534371,-1.3231341,-1.0372492,59.272953,-87.124306,0.46162152
390821923000.0,2.965070799191082,11.698551739173324,1.263571626378613,-1.1068878,-1.1633929,-0.96761054,59.81972,-86.81792,0.41156846
390826914000.0,2.89905818971096,11.646685121436322,1.2777171257669924,-1.151481,-1.0381655,-0.88453287,60.3273,-86.48975,0.3880465
390831902000.0,2.616247300790514,11.397536221343874,1.2170871442687747,-1.1777482,-0.90408057,-0.79381937,60.770786,-86.202095,0.41195956
390836997000.0,2.18315594280563,11.011814231190623,1.1054308251854934,-1.2382239,-0.68691796,-0.689056,61.151184,-85.89237,0.4579058
390841837000.0,1.7717404035226405,10.64539726704112,0.9993628007766452,-1.287704,-0.35979962,-0.6386596,61.454834,-85.57983,0.4881373
390846912000.0,0.9087525431849424,9.967848932642486,0.7003889466532727,-1.3139712,0.08124508,-0.64843345,61.662895,-85.259964,0.52117276
390851816000.0,-0.0944050194247645,9.19809879792746,0.3378616930210426,-1.3170254,0.5684101,-0.70371675,61.765545,-84.93782,0.54375595
390856915000.0,-0.8451628312202273,8.805791360571638,0.3119042111176255,-1.2302825,1.0112875,-0.77091193,61.819885,-84.67986,0.4652725
390861860000.0,-1.5089286953646028,8.515123118999632,0.3639642705441553,-1.0790935,1.1972959,-0.8145888,61.813145,-84.44345,0.3725297
390866922000.0,-2.110284209895612,8.431622890391989,0.8832298746655305,-0.9966267,1.500285,-0.81122905,61.721436,-84.27767,0.13647924
390871895000.0,-2.658169758713251,8.467133648913507,1.649255072611845,-0.8347474,1.717753,-0.7825184,61.604862,-84.17224,-0.10020234
390876906000.0,-4.018888900302039,7.224908793103448,3.1878087274603573,-0.7076874,1.7660115,-0.76083267,61.352375,-83.99873,-0.47142327
390882158000.0,-5.702642381433005,5.5158355517241375,5.044579498061918,-0.61636305,1.645671,-0.83291477,61.093327,-83.84487,-0.8548743
390886832000.0,-6.778977348449647,4.46229881663837,6.111040685372174,-0.5708536,1.3805555,-1.0015136,60.884186,-83.52132,-1.349181
390891941000.0,-7.251161756411403,4.09067241188455,6.2990399700026805,-0.56596667,1.0296134,-1.183246,60.741524,-83.18582,-1.8532408
390896921000.0,-7.662103323315664,3.840621694814473,6.445412344418837,-0.5861252,0.6123924,-1.3115277,60.777332,-82.22426,-2.7235475
390901880000.0,-7.793446040324191,4.22370507340401,6.383389338634093,-0.6239988,0.183565,-1.3274102,60.92164,-81.222046,-3.593007
390907000000.0,-7.929052959276331,4.619225722401476,6.319352680110624,-0.6740898,-0.19425514,-1.2733486,61.189396,-80.0949,-4.5428643
390911915000.0,-8.009431787405925,5.29557189692293,6.190031112603601,-0.7635816,-0.4831944,-1.1893547,61.55524,-78.93911,-5.4630766
390916866000.0,-8.050084652634085,6.21703638615795,6.004834847099171,-0.87598073,-0.65270954,-1.1102476,61.993813,-77.77049,-6.3453984
390921878000.0,-8.05301109022458,7.022497812276109,5.897867477335354,-1.0106765,-0.7360926,-1.0461067,62.477894,-76.61262,-7.2014437
390926843000.0,-8.007152460815652,7.657967532929182,5.894591794984844,-1.0925325,-0.77396625,-1.0525209,62.996227,-75.45215,-8.033352
390931914000.0,-7.960314775068889,8.307004180146047,5.891246178630476,-1.1527027,-0.8304713,-1.0763446,63.520473,-74.37069,-8.812345
390936956000.0,-7.622883746158241,9.26267354536799,6.070472560030467,-1.171945,-0.9398162,-1.1087204,64.06922,-73.29503,-9.57141
390941949000.0,-7.049243809168809,10.464585576978006,6.398266836903741,-1.1621711,-1.0916162,-1.1142182,64.64381,-72.231155,-10.304275
390946913000.0,-6.555624865596235,11.022126928661088,6.53947021170502,-1.151481,-1.2009611,-1.0711522,65.22784,-71.25742,-10.965983
390951855000.0,-6.159569728838912,10.784494270502092,6.450357939048117,-1.1603385,-1.2428054,-0.9978484,65.830505,-70.30818,-11.594328
390956993000.0,-5.659808517496561,10.3069390434663,6.244033236643741,-1.174083,-1.2596041,-0.8943067,66.48023,-69.50714,-12.016992
390962235000.0,-5.070555273461715,9.611804177258138,5.930992485300321,-1.1820242,-1.2394456,-0.7819075,67.11958,-68.744026,-12.3989725
390966889000.0,-4.641096434378246,8.807684663733358,5.594098599471249,-1.1838568,-1.2067643,-0.73426,67.76394,-68.042625,-12.701731
390971892000.0,-4.351565818950053,7.599799901019733,5.12361158559154,-1.1893547,-1.1597277,-0.6658431,68.38245,-67.3796,-12.958956
390976824000.0,-4.1215555941922695,6.372134047294351,4.651818595559961,-1.1710287,-1.1068878,-0.63621616,68.99941,-66.79231,-13.140176
390982069000.0,-4.09168622888008,4.923468738027751,4.119147831635282,-1.1368202,-1.0363328,-0.6270532,69.59105,-66.22701,-13.307001
390986880000.0,-4.083630303444564,3.6628057887073098,3.651139040865056,-1.0760391,-0.8943067,-0.6252206,70.11512,-65.669945,-13.493029
390991939000.0,-4.150005581485468,2.600804508425482,3.2386653894412367,-1.0665708,-0.7089091,-0.6441574,70.60824,-65.114105,-13.688257
390996945000.0,-4.214611511854503,1.6789909643415384,2.885877139690308,-1.0882565,-0.45875978,-0.6826419,70.99871,-64.50769,-13.981724
391001916000.0,-4.27372382195603,1.3695204171353446,2.795470004565043,-1.1655309,-0.16615535,-0.7483099,71.33317,-63.886158,-14.308459
391006888000.0,-4.332848023489884,1.05998761473961,2.7050446825286687,-1.2315043,0.12370021,-0.8200866,71.57783,-63.206745,-14.7449465
391011996000.0,-4.404239541491865,0.9182818100685562,2.7950703734472526,-1.2944235,0.37812558,-0.8717047,71.76068,-62.502266,-15.221428
391016901000.0,-4.485950477489,0.9999928966335824,3.107494882963266,-1.349096,0.5109888,-0.93676186,71.91157,-61.770424,-15.738716
391021876000.0,-4.523360508896797,1.2595044213330768,3.484431342810426,-1.3817772,0.58459806,-0.97341377,72.01261,-60.992706,-16.322485
391026902000.0,-4.50947193594306,1.722455531807252,3.9334941220352015,-1.3942999,0.6432411,-1.01312,72.0953,-60.194454,-16.938332
391031994000.0,-4.54552867955002,2.510906332229811,4.638993858722379,-1.4294246,0.68691796,-1.0598512,72.196396,-59.332016,-17.57311
391036996000.0,-4.653306204821214,3.7464967146805934,5.693672250831659,-1.4822645,0.70157874,-1.1026118,72.30114,-58.457108,-18.2196
391041840000.0,-4.757679322057052,4.94305805266372,6.715036131554841,-1.5283848,0.6227771,-1.1462886,72.46517,-57.561504,-18.822409
391046920000.0,-5.0622735,5.801706154815038,7.466792133845999,-1.5671748,0.4202753,-1.151481,72.66705,-56.6597,-19.406744
391051877000.0,-5.382000000000001,6.593864602452754,8.163509595737835,-1.5873333,0.086437434,-1.1456778,72.93757,-55.75145,-19.964993
391057050000.0,-5.817526987784331,7.330468742544227,8.43402847430497,-1.5882497,-0.28619036,-1.1453724,73.37985,-54.862473,-20.33877
391061882000.0,-6.233366338678274,8.010539294411682,8.646280056070392,-1.5796975,-0.47555858,-1.1374311,73.863235,-53.989937,-20.676224
391067767000.0,-6.6241576186591615,8.406925813971341,8.611772658444217,-1.5625933,-0.93828905,-1.0937542,74.55121,-53.12884,-20.875118
391071825000.0,-6.87475623120778,8.609791547338792,8.54017284124872,-1.4459181,-1.0299188,-1.0589349,75.18746,-52.314156,-21.08783
391076857000.0,-7.007847018162896,8.57612426438914,8.36073952877828,-1.3903292,-1.1582005,-0.95233893,75.90734,-51.5569,-21.219688
391081940000.0,-7.100359136162896,8.474801674389141,8.158094348778281,-1.2990049,-1.2776246,-0.8210029,76.63024,-50.866764,-21.313318
391086887000.0,-7.084410777735124,8.093872355086372,7.872705043378119,-1.2519683,-1.3817772,-0.64904433,77.32525,-50.241745,-21.393877
391091926000.0,-7.001535746125871,7.528373265279321,7.526580668936257,-1.2137892,-1.4321736,-0.4831944,78.00651,-49.674465,-21.425505
391096912000.0,-6.916785437272819,6.823962767647354,7.209917142624762,-1.2098186,-1.421178,-0.37110063,78.65008,-49.145416,-21.455162
391101920000.0,-6.83010102542424,6.034170141078421,6.906521248579175,-1.2360858,-1.3277156,-0.35918877,79.26604,-48.642647,-21.469036
391106958000.0,-6.755052351169005,5.407665248830996,6.755052351169005,-1.2895365,-1.1985176,-0.40744713,79.84613,-48.12253,-21.513487
391112078000.0,-6.68544937989312,4.86312422010688,6.68544937989312,-1.3796391,-1.0155635,-0.46303585,80.3829,-47.59985,-21.57683
391116927000.0,-6.573555547294372,4.40685464448052,6.753535276731602,-1.4963144,-0.80909103,-0.5308419,80.88489,-46.98834,-21.722738
391121923000.0,-6.3240645777154665,4.1102902854486425,7.214857531080284,-1.6065756,-0.6444628,-0.5897904,81.3574,-46.36088,-21.897528
391126822000.0,-6.048386484435484,3.905529945080645,7.7348700282258065,-1.6985108,-0.6105598,-0.6267477,81.827126,-45.63745,-22.118156
391132102000.0,-5.620210739274193,4.048255051532258,8.581027286290322,-1.745242,-0.7309003,-0.64660084,82.299805,-44.903736,-22.341303
391137673000.0,-5.251499858872839,4.311122484881371,9.308651097971708,-1.7470746,-0.9605856,-0.63194007,82.835625,-44.095078,-22.490374
391141863000.0,-5.09232608340693,4.668512926839308,9.620992219145274,-1.7302758,-1.2751812,-0.61422503,83.41856,-43.29051,-22.59469
391146848000.0,-4.902951078467181,5.093713727116233,9.992596154479456,-1.7146988,-1.5448782,-0.57543504,84.100266,-42.47516,-22.520893
391151848000.0,-5.181773605502686,5.564409998772064,9.945431387643898,-1.752267,-1.7733418,-0.58032197,84.83972,-41.661625,-22.391745
391156891000.0,-5.852651945725249,6.075908368457405,9.548834463852648,-1.8484782,-1.8658879,-0.6047566,85.59357,-40.85436,-22.225485
391162297000.0,-6.56772001827112,6.61226122167649,9.13690016437459,-1.9129245,-1.822211,-0.589485,86.39497,-40.13457,-21.919603
391166889000.0,-7.06090995265226,6.734658733791749,9.154899781925344,-2.1707096,-1.6963727,-0.5681047,87.188286,-39.353123,-21.61464
391171920000.0,-7.601249360289784,6.868757576006876,9.17462018172888,-2.2559254,-1.3261884,-0.5326745,87.81601,-38.70741,-21.522688
391176906000.0,-7.899835047592682,7.200430507221955,9.59223874675012,-2.3924537,-0.9016371,-0.47494772,88.38821,-38.00474,-21.457232
391181894000.0,-7.972665411161932,7.721742949847536,10.389540647568609,-2.4764478,-0.57940567,-0.41050145,88.88926,-37.314476,-21.436926
391187104000.0,-8.038172171702284,8.267553053467617,11.235280554491116,-2.515543,-0.47494772,-0.3023783,89.28468,-36.610912,-21.546022
391192054000.0,-7.929489212969786,8.80708684123475,12.248361505117495,-2.509129,-0.539394,-0.1469131,89.61843,-35.929363,-21.65806
391196925000.0,-7.822540790346352,9.338009887742569,13.24527409309752,-2.4862216,-0.7449502,-0.03390302,89.98455,-35.286026,-21.675438
391201913000.0,-7.611270638565891,9.348588979731913,13.414649467861755,-2.4657576,-0.9230174,0.03756821,90.3264,-34.67468,-21.65706
391207349000.0,-7.300191324612403,8.936619279150516,12.922808229489664,-2.4987442,-1.0143417,0.10934488,90.65917,-34.084404,-21.587582
391212007000.0,-7.075890909549229,8.567868106761566,12.4851855599051,-2.579073,-0.9828822,0.1386664,91.07608,-33.53348,-21.386967
391216909000.0,-7.143513048390103,8.066670381291306,11.908410142518218,-2.701246,-0.89644474,0.13469578,91.485596,-32.977875,-21.17555
391221829000.0,-7.211383493738349,7.563632272496187,11.329516822741908,-2.8460212,-0.7290677,0.12675454,91.87779,-32.401215,-20.983164
391226888000.0,-7.295543716252862,7.118437379116042,10.881555429124846,-2.994767,-0.52778757,0.14508049,92.23964,-31.804781,-20.818027
391231953000.0,-7.385228152377179,6.699909534865293,10.48865181141046,-3.2027664,-0.36743546,0.17195857,92.576614,-31.166328,-20.684017
391236955000.0,-7.447986677005128,6.256453092307693,10.135687287692308,-3.350596,-0.27763826,0.21105394,92.82693,-30.46221,-20.648617
391241860000.0,-7.481711746543589,5.789119784615385,9.827343895384615,-3.4193182,-0.24312437,0.24801129,93.05215,-29.742548,-20.631496
391246906000.0,-7.489247266306101,5.371397345858241,9.620917066609737,-3.395189,-0.25381452,0.2874121,93.21184,-28.972565,-20.670702
391251886000.0,-7.471145942081792,5.018421239965841,9.521359594363792,-3.3356297,-0.2687807,0.35521814,93.34871,-28.217962,-20.704138
391257021000.0,-7.455744711377246,4.746081905389222,9.424265934131736,-3.2684345,-0.31612277,0.42210788,93.46025,-27.43696,-20.75686
391262352000.0,-7.444422040984698,4.594357956606786,9.33141998962076,-3.2366695,-0.43127087,0.48258355,93.5666,-26.684763,-20.777842
391267083000.0,-7.434373728542914,4.4597104229940125,9.249023785628744,-3.1807754,-0.4642576,0.50976706,93.64652,-25.92251,-20.81767
391271963000.0,-7.424008950543357,4.320822246280772,9.164032562741184,-3.1795535,-0.50640726,0.53786683,93.726364,-25.175447,-20.817268
391277704000.0,-7.383500955100469,4.157482966533993,9.035158627720357,-3.1670308,-0.6072,0.548557,93.814415,-24.460878,-20.791801
391281938000.0,-6.972214103742697,4.0377412769532,8.550985492713616,-3.1031954,-0.6270532,0.54825157,93.89038,-23.775688,-20.773842
391287107000.0,-6.470102215535726,3.8915568665981897,7.959891743339539,-3.0778446,-0.66706485,0.5363397,93.962166,-23.051815,-20.745192
391293252000.0,-5.878312887394886,3.713661947485842,7.265844619160804,-3.0344732,-0.6429357,0.4999932,94.03277,-22.359741,-20.73161
391296900000.0,-5.593523256229621,3.5547793081860304,6.966066071571992,-2.9843822,-0.6065892,0.4822781,94.10306,-21.689487,-20.710775
391301796000.0,-5.211305593349923,3.3415420817573365,6.563731705071221,-2.9611692,-0.45265114,0.44532076,94.19439,-21.067799,-20.6748
391306792000.0,-4.844380142669065,3.124987401790825,6.370772374331508,-2.8903089,-0.19975294,0.40866885,94.27433,-20.480583,-20.678396
391311811000.0,-4.506357695502494,2.90881034220296,6.465104128424238,-2.8576276,0.07147124,0.35124752,94.350914,-19.893904,-20.735052
391317072000.0,-4.156480388060336,2.6772515680900786,6.585888704057786,-2.886949,0.24312437,0.2678644,94.4551,-19.315983,-20.803814
391322184000.0,-3.9224621616741024,2.3340246441895047,7.225538971744211,-2.9626966,0.35369098,0.15393804,94.56251,-18.735376,-20.936306
391326760000.0,-3.735392855696444,2.028773734064258,7.794595021451044,-3.0720413,0.4251622,0.009162978,94.76557,-18.123842,-21.038536
391331798000.0,-3.739992714443703,1.7113832403470302,8.387977184097625,-3.1768048,0.4370741,-0.12950343,94.99668,-17.492197,-21.161047
391337125000.0,-3.76456775830498,1.3757167489040103,8.98541949149397,-3.2467487,0.41325033,-0.2855795,95.355064,-16.785349,-21.231089
391341759000.0,-4.025378107701825,1.0828772225590266,9.14099031054748,-3.261715,0.3735441,-0.4175264,95.749504,-16.064217,-21.304115
391346846000.0,-4.362629698254365,0.7501553490773067,9.28714978054863,-3.2528574,0.3032946,-0.5369505,96.22119,-15.245803,-21.34072
391351767000.0,-5.302828384788031,0.2926478841022444,9.131849016209475,-3.2082644,0.25900686,-0.6078109,96.720184,-14.437024,-21.372894
391357907000.0,-6.454851269054863,-0.2724563332819707,8.944737,-3.1859677,0.053450707,-0.7855727,97.24428,-13.515518,-21.41006
391361787000.0,-6.808598207125331,-0.5277375917371675,8.944737,-3.1453452,-0.03848451,-0.840856,97.74862,-12.631765,-21.452782
391366756000.0,-7.261631334772794,-0.8546686673206398,8.944737,-3.1453452,-0.24465153,-0.95081174,98.18394,-11.564698,-21.652449
391371770000.0,-7.484077482714314,-1.1978545106153382,8.974615465669544,-3.1780264,-0.4868596,-1.0806206,98.65077,-10.510051,-21.80824
391376762000.0,-7.637644872395102,-1.5433809119002209,9.01300756364184,-3.2510247,-0.7290677,-1.2253957,99.1665,-9.44943,-21.901304
391381816000.0,-7.551603471280725,-1.8397565977360928,9.063499611254851,-3.3350189,-0.93554014,-1.3750577,99.69943,-8.30443,-22.020462
391386840000.0,-7.400441793808908,-2.119850354306043,9.116850480225466,-3.397327,-1.097114,-1.5091426,100.27605,-7.152016,-22.076578
391392281000.0,-6.903313684538654,-2.3332420814214467,9.387873345386533,-3.450167,-1.2452488,-1.6111571,100.88445,-5.918033,-22.100431
391396811000.0,-6.3488560879052365,-2.4729834028054865,9.703418629052369,-3.4174857,-1.4566082,-1.6826283,101.52183,-4.701132,-22.050034
391401786000.0,-5.5899941649433424,-2.438742775805595,10.085020083215298,-3.3347135,-1.7736472,-1.7159204,102.18758,-3.443529,-21.88685
391406952000.0,-4.735940581232295,-2.3204892582595606,10.49671772131728,-3.1936035,-2.1261165,-1.7150042,102.852104,-2.2290983,-21.642263
391411891000.0,-3.953846544343925,-2.164525880403738,10.790932499738318,-3.0164526,-2.5189028,-1.6612481,103.54878,-1.0571827,-21.153404
391416929000.0,-3.196308493607477,-1.955301111626168,10.974905946168224,-2.8212812,-2.9211576,-1.5723672,104.21203,0.045607734,-20.558323
391422165000.0,-2.4089982050691594,-1.737853535342056,11.166109790056074,-2.638938,-3.2968397,-1.4462235,104.9303,1.001589,-19.637167
391426910000.0,-1.8070004400633768,-1.5478544815602835,11.169626091142296,-2.4526238,-3.6538904,-1.2962561,105.58466,1.8731664,-18.621668
391431922000.0,-1.1949721646446358,-1.3486736914893618,11.137032965142598,-2.293188,-3.9651263,-1.1346822,106.16743,2.671478,-17.53222
391436933000.0,-0.6352729701969241,-1.1857480844006836,10.990412632761004,-2.1749856,-4.2018366,-0.95569867,106.866776,3.239884,-16.135118
391441930000.0,-0.38994102834242,-1.2402662937016844,10.160956987875336,-2.096184,-4.3460007,-0.79534656,107.49353,3.7573328,-14.723367
391446954000.0,-0.1432834986491984,-1.2950790780779555,9.327019593457564,-2.0363193,-4.382042,-0.66156703,108.27364,4.0566764,-13.130647
391451804000.0,-0.2253474754732426,-1.450947512739179,8.629845521825438,-2.005165,-4.3719625,-0.60139686,108.99166,4.3506074,-11.584014
391456811000.0,-0.4657652177069478,-1.661926292868106,7.962563712841502,-1.9960022,-4.269643,-0.49663344,109.629654,4.6365404,-10.124015
391462046000.0,-0.6907439891553367,-1.9091565873032863,7.237823748870571,-1.983174,-4.116926,-0.42302418,110.18367,4.982667,-8.716926
391466778000.0,-0.8848022149341612,-2.142026508896264,6.573174202098276,-1.992337,-3.9159517,-0.37293324,110.69907,5.334784,-7.4048653
391471767000.0,-0.7573749465369688,-2.282291553647129,6.103112429604936,-2.02624,-3.6706893,-0.34300083,111.0324,5.8191905,-6.2377825
391476745000.0,-0.5628673367349986,-2.400893728769032,5.680888614837297,-2.0448713,-3.422678,-0.3109304,111.34773,6.2957907,-5.1600957
391481808000.0,-0.135702948425292,-2.3870220343737416,5.606421928594442,-2.0754147,-3.199712,-0.27305678,111.50457,6.9068327,-4.2006598
391486755000.0,0.3317651813330647,-2.344091368677004,5.6111919084776485,-2.1111503,-3.0268373,-0.21930063,111.64728,7.5157456,-3.3164017
391491741000.0,0.8536195450305781,-2.2820025821069243,5.897430210465576,-2.1453588,-2.9123,-0.14660765,111.7467,8.171816,-2.455908
391496745000.0,1.3877706908660483,-2.215824509350957,6.242501420605643,-2.2000313,-2.8744264,-0.06291912,111.82496,8.835612,-1.6391639
391501763000.0,1.7987934750516947,-2.1818830055200937,6.525869320965567,-2.230269,-2.9263499,0.028405234,111.955246,9.452086,-0.7601818
391506996000.0,2.195283531115706,-2.154849618268453,6.805214510752495,-2.233018,-3.057075,0.11301007,112.057205,10.068973,0.11034091
391511854000.0,2.4995271852562726,-2.166704849496033,6.963235009275145,-2.214081,-3.2241468,0.19120082,112.199585,10.630034,1.088473
391516801000.0,2.768769331181643,-2.202265111902209,7.059755774565731,-2.1560488,-3.368311,0.27183503,112.30751,11.175879,2.0688643
391521795000.0,2.861485929560374,-2.3530711899940324,7.1314901044559385,-2.0775528,-3.4049628,0.34605515,112.30456,11.744507,3.132666
391526795000.0,2.8852993371593394,-2.5483412814999005,7.193405113407599,-2.019215,-3.3716707,0.41141775,112.273994,12.295919,4.188231
391531868000.0,2.748117710869565,-2.927351619812253,7.159879075741107,-2.0027218,-3.2583551,0.46517387,112.1967,12.851489,5.264933
391536801000.0,2.552052408695652,-3.366164246304348,7.089855481956522,-2.0118847,-3.0772338,0.4905248,112.11271,13.391069,6.2858334
391541772000.0,2.2950977775969963,-3.879139512140176,6.819378588167902,-2.0479257,-2.9691105,0.46639562,112.03104,13.95029,7.2899227
391546765000.0,2.009678150563204,-4.426960973717147,6.455698937749109,-2.038152,-2.8081474,0.44868052,111.95421,14.491926,8.202639
391551837000.0,1.7976258590403853,-4.998002734975917,6.001678262708411,-2.005165,-2.7275133,0.4083634,111.911606,15.083755,9.066779
391556964000.0,1.633897612004446,-5.584695849722119,5.48775350048166,-1.9443841,-2.723848,0.355829,111.881195,15.654325,9.8872175
391561898000.0,1.590496142774095,-6.146641743620602,4.888941966700664,-1.8683313,-2.6917777,0.27550024,111.70158,16.382797,10.654308
391566880000.0,1.673219038990311,-6.711103918755738,4.1687660477817445,-1.8408424,-2.5488353,0.17134771,111.54737,17.091463,11.3786745
391571845000.0,1.8827296695992943,-7.159550220730871,3.5331071240325267,-1.8741345,-2.2226331,0.062002823,111.3303,17.947931,12.040164
391576837000.0,2.2199624273537766,-7.496782880670128,2.97573636090918,-1.915368,-1.754405,-0.029626964,111.15512,18.781816,12.617232
391581902000.0,2.6898112353255894,-7.694821642844069,2.999049340872932,-1.951409,-1.2486086,-0.09743301,110.97535,19.759254,13.142135
391586885000.0,3.2978746405420623,-7.725056894248504,3.694458965561422,-1.9511036,-0.7883216,-0.12736541,110.84519,20.723257,13.548402
391591836000.0,3.902033163365012,-7.755097979880324,4.3854027849137625,-1.9263636,-0.45540005,-0.17012598,110.7518,21.770884,13.949898
391596851000.0,4.1371803,-7.48648955622435,5.108010840726988,-1.8707749,-0.3231477,-0.21594086,110.690834,22.796038,14.280415
391601903000.0,4.1371803,-7.027914471135431,5.850240669532929,-1.7602082,-0.41416663,-0.28191432,110.65549,23.78312,14.585013
391606907000.0,4.167671119748359,-6.586291619256017,6.081660176148796,-1.6307048,-0.7089091,-0.3304781,110.68756,24.629635,15.04362
391612178000.0,4.222900367478118,-6.130651923413566,5.943587465317286,-1.491122,-1.1007792,-0.3594942,110.703575,25.422283,15.547459
391616931000.0,4.199105547832614,-5.7925752396322014,5.65329567950835,-1.3460416,-1.3729197,-0.35735616,110.7502,26.005486,16.07423
391621887000.0,4.06550819313192,-5.547647097016326,5.105546962338149,-1.2281445,-1.4202617,-0.3368922,110.77404,26.543224,16.630714
391626821000.0,3.8970837727272727,-5.287212433579986,4.603697392019027,-1.1606439,-1.2544118,-0.3032946,110.81588,26.96263,17.230682
391631970000.0,3.60604825,-4.961426150193799,4.221441700872093,-1.1447614,-1.024421,-0.27366763,110.85366,27.35599,17.807804
391636873000.0,3.328917318181818,-4.651204719344609,3.8574487597780127,-1.1133019,-0.80848014,-0.22968534,110.881386,27.737425,18.344126
391641865000.0,3.196171110629068,-4.253649754663774,3.920985698047722,-1.1099422,-0.6945538,-0.19517145,110.92077,28.116825,18.83456
391646909000.0,3.086660904703161,-3.875704938679003,4.019684330352095,-1.1847731,-0.51343226,-0.19272798,110.998314,28.502962,19.243612
391651918000.0,3.1072083608069905,-3.653791777674976,4.270363947065879,-1.244027,-0.37965274,-0.19883664,111.0616,28.873058,19.60536
391658188000.0,3.1477129084996656,-3.382872779065992,4.591843211316971,-1.3845261,-0.2919936,-0.21655174,111.170425,29.206427,19.926908
391661976000.0,3.3382612466144588,-3.2962599112596696,4.872469039031611,-1.4810427,-0.28863382,-0.2171626,111.28386,29.540297,20.230637
391666948000.0,3.5883685161780154,-3.182574805997517,5.240808958619043,-1.4718798,-0.32284227,-0.2134974,111.442665,29.793213,20.52962
391671903000.0,3.9330288277750514,-3.177568373451762,5.561599186711159,-1.3976597,-0.4156938,-0.18570304,111.585724,30.052782,20.834036
391676907000.0,4.318702759701639,-3.2151950745608007,5.867316329669252,-1.2538009,-0.57971114,-0.12889257,111.70228,30.29137,21.154243
391681972000.0,4.702122072217868,-3.408322476449843,5.898498739263323,-1.0558805,-0.73426,-0.056199603,111.82972,30.415932,21.53254
391686905000.0,5.072360297639106,-3.667489142427508,5.801311390536834,-0.86651236,-0.8558222,0.02076942,111.91836,30.511421,21.923464
391691870000.0,5.356381098325359,-4.122700757376395,5.448107409110845,-0.68539083,-0.86284715,0.10323623,111.96019,30.550896,22.344896
391696855000.0,5.589562821411484,-4.693758048544657,4.94367346029705,-0.54428095,-0.7657196,0.17012598,111.98375,30.559727,22.748991
391701844000.0,5.703005098680643,-5.298899416591361,4.446622437393819,-0.41599923,-0.59498274,0.23090707,111.97297,30.584963,23.184978
391706980000.0,5.743008625736491,-5.943399654437014,3.93991185275619,-0.3032946,-0.36071593,0.28008172,111.97612,30.585882,23.561344
391711902000.0,5.690124762831858,-6.533137875600506,3.581140531226296,-0.20311269,-0.11453723,0.2929099,111.973076,30.683058,23.960615
391717763000.0,5.477243388053098,-7.1895213426675095,3.362345918710493,-0.12370021,0.116675265,0.2874121,112.00027,30.760515,24.290707
391721859000.0,5.231901024377118,-7.485443734243572,3.37410822698824,-0.07727446,0.32528573,0.25595254,111.97384,31.009912,24.568022
391726847000.0,4.86056465674706,-7.72348010187363,3.5121693460633847,-0.031154128,0.4990769,0.21197024,111.98766,31.232212,24.794674
391731938000.0,4.184325843479607,-7.74595588172742,3.833946917018807,0.007330383,0.6102544,0.16737708,111.97408,31.561228,24.940388
391736907000.0,3.2414953773237367,-7.558126297283492,4.320093825655909,0.047647487,0.6637051,0.13133603,111.9921,31.866772,25.06081
391741872000.0,2.2994238811547096,-7.370447913954028,4.805849390434177,0.09285152,0.6704246,0.09712757,112.0081,32.19767,25.078993
391746852000.0,1.820565739280947,-7.090082509264039,5.048438840971789,0.09560041,0.64996064,0.08246681,112.03517,32.520542,25.092838
391751866000.0,1.3804246646702856,-6.7995040527008985,5.27064596160897,0.10476339,0.56138515,0.05467244,112.06435,32.818005,25.127823
391756986000.0,1.161125964612326,-6.50292801222664,5.387877209145129,0.12583824,0.43127087,0.028099801,112.09639,33.0653,24.914
391761991000.0,1.0539223638005302,-6.2130810907140495,5.451405219748177,0.14263703,0.28069258,0.014049901,112.113525,33.30573,24.73147
391766855000.0,1.0474484265466817,-5.927849381102362,5.446294384701912,0.15943582,0.1328632,0.029321533,112.12675,33.483864,24.483528
391771923000.0,1.3303515042846916,-5.620130361202577,5.242802705389099,0.16523905,0.046731193,0.0571159,112.12475,33.658,24.259686
391776820000.0,1.624112874314069,-5.374391773623273,5.059821726454564,0.17165314,0.036957346,0.093462385,112.1259,33.769104,24.035223
391781976000.0,1.9844311904845304,-5.244677237993773,4.90128174961082,0.13897185,0.055283304,0.13103059,112.10966,33.89106,23.82165
391787015000.0,2.320227051236192,-5.1523223,4.76428261120463,0.12980886,0.10445796,0.1600467,112.10713,33.963863,23.679941
391791911000.0,2.60387384513414,-5.1523223,4.67795521972646,0.12095132,0.16432275,0.20158553,112.09836,34.050663,23.524778
391797228000.0,2.909098866916859,-5.152736999769053,4.584387401616628,0.1142318,0.23762658,0.23854288,112.1087,34.11452,23.441639
391801849000.0,3.1025568184757506,-5.1636874433850215,4.50773429630485,0.11148291,0.32406402,0.27580565,112.12323,34.184498,23.336128
391806916000.0,3.31468653943418,-5.175694778983834,4.423682947113163,0.08246681,0.44257188,0.3295618,112.151054,34.258244,23.276396
391811903000.0,3.53163378077393,-5.191686681649695,4.42073787790224,0.062002823,0.5849035,0.37965274,112.19217,34.334316,23.187077
391816933000.0,3.757283678533605,-5.211308445295316,4.484508494501019,0.046731193,0.7626653,0.4364632,112.24836,34.423546,23.054302
391821901000.0,3.9001221582655834,-5.2416914189701895,4.639081884974406,0.026572637,0.91599244,0.4914411,112.321594,34.520573,22.948568
391826918000.0,3.986927588437218,-5.280271559801265,4.860918085014554,0.04734206,1.003957,0.5555819,112.400444,34.618786,22.808533
391831910000.0,3.86980506846543,-5.257860837268129,5.238965431703204,0.076358154,1.0451905,0.61758476,112.49733,34.70607,22.680782
391836886000.0,3.6126492148667793,-5.193571823521079,5.724347128026982,0.109650314,1.0137309,0.68111473,112.58091,34.794636,22.541193
391841950000.0,3.350945588937605,-5.128145865801012,6.218312745025295,0.1423316,0.9795224,0.7324274,112.670815,34.85676,22.387638
391846844000.0,3.0138300310394115,-5.086490971308964,6.481059602746579,0.17867808,0.8888089,0.752586,112.73548,34.91282,22.251514
391851920000.0,2.611791965774964,-5.05671028558301,6.620035807892587,0.19394971,0.76144356,0.79626286,112.768135,34.974804,22.121353
391857342000.0,2.250516721540726,-5.057586665868499,6.534605006575074,0.19456059,0.6258314,0.8194757,112.803764,34.95274,21.887653
391861919000.0,1.97091434936212,-5.070491380372914,6.375446681354269,0.16432275,0.5174029,0.8240572,112.81271,34.93727,21.677263
391867133000.0,1.760213865370138,-5.149814624634044,6.112373893350063,0.1563815,0.46792278,0.8338311,112.79526,34.92205,21.391865
391871965000.0,1.6198982237139272,-5.256261149435383,5.826904092597239,0.12736541,0.49388456,0.84391034,112.76956,34.918934,21.118858
391876876000.0,1.547717710373913,-5.398516043086956,5.601510098095652,0.081855945,0.5821546,0.8546005,112.72812,34.963947,20.790766
391881972000.0,1.5010361790347826,-5.559779406217391,5.39356524793913,0.021380283,0.68661255,0.86132,112.69312,35.018185,20.458218
391886966000.0,1.4930397941456166,-5.706974269420505,5.193856782852897,-0.045814894,0.7874053,0.8698721,112.65172,35.146744,20.09391
391891945000.0,1.5355505898563646,-5.839230023496781,5.000196518682516,-0.09712757,0.8961393,0.8695667,112.632805,35.282455,19.711205
391896899000.0,1.5767346610365285,-5.942039300530753,4.86452754870434,-0.14569137,0.9947941,0.8671232,112.61473,35.49691,19.308062
391901880000.0,1.6164491293891143,-6.001610899385993,4.814884463263607,-0.20219639,1.1142182,0.86162543,112.62373,35.721264,18.883474
391906898000.0,1.6444851639421256,-6.048803321513522,4.781552253942883,-0.26633725,1.2134838,0.8597928,112.63783,36.004017,18.462368
391912051000.0,1.6594383884629953,-6.082448027891826,4.766599068456936,-0.3213151,1.3249667,0.850019,112.68263,36.291946,18.021719
391916838000.0,1.67332953648966,-6.113703065623816,4.752707956692674,-0.3643811,1.455081,0.8481864,112.74992,36.60368,17.56831
391921919000.0,1.7781146295246195,-6.191479262735091,4.825780263330498,-0.39767328,1.599856,0.8530733,112.84478,36.920753,17.095772
391926989000.0,1.902013048010585,-6.278667210849636,4.91755679862962,-0.40225476,1.7437148,0.8775079,112.9628,37.237053,16.600317
391931954000.0,1.9439996066660608,-6.323669715875034,5.023832356488966,-0.3839288,1.9019289,0.93218035,113.105484,37.56258,16.075237
391936860000.0,1.9568005641086184,-6.3535385720188895,5.134774165879575,-0.34269542,1.9788979,1.0005972,113.25406,37.880005,15.539615
391941860000.0,1.9129606344074277,-6.339464310922993,5.386475404423813,-0.26939157,2.0592268,1.0415252,113.43391,38.17614,14.993809
391946851000.0,1.8137625059202624,-6.282033901561988,5.772825961332606,-0.21777347,2.1230621,1.1181889,113.6038,38.469555,14.427123
391951849000.0,1.711221169477206,-6.233588980493517,6.209215372764534,-0.13041973,2.10046,1.196685,113.76971,38.716877,13.860155
391956965000.0,1.6046658232956923,-6.1885079268088665,6.68051755441238,-0.052839845,1.9859229,1.2534955,113.91911,38.950256,13.301473
391961892000.0,1.490125511704063,-6.143832435415403,7.121514312431777,-0.00030543262,1.7708983,1.3185526,114.035545,39.107307,12.731057
391966873000.0,1.3454861623913483,-6.095619084040833,7.536147271538306,0.021991149,1.4465289,1.3622295,114.10089,39.247757,12.215533
391971882000.0,1.1918994313744076,-6.04182111421801,7.880459132701421,0.038789943,1.0537425,1.3814718,114.11436,39.28339,11.717262
391976853000.0,1.0214292346445497,-5.976641330805688,8.060956954186413,0.08460484,0.6206391,1.3811663,114.051895,39.30229,11.305791
391981911000.0,0.887957962256406,-5.9078580525748405,8.129333294087402,0.1704314,0.14630222,1.3692545,113.91293,39.23731,10.948019
391986921000.0,0.8123616156687951,-5.836240686292396,8.0338432092545,0.31612277,-0.32711834,1.361924,113.69126,39.141865,10.69311
391992236000.0,0.7347259356694748,-5.764043254059867,7.924238444362789,0.49938235,-0.7483099,1.3726143,113.39324,38.981224,10.4921875
391996914000.0,0.6985902094102886,-5.747982847427855,7.723484283814304,0.68600166,-1.1169671,1.3912456,113.01807,38.78123,10.389335
392001824000.0,0.660662373597419,-5.73112594350242,7.512773952841012,0.82344633,-1.3888022,1.4046847,112.586685,38.551018,10.343003
392006921000.0,0.6448124257168769,-5.75577769578511,7.242376970521679,0.93859446,-1.5134187,1.4107933,112.115295,38.280514,10.346182
392011864000.0,0.6366351420055277,-5.792575423389186,6.96435021235101,0.9816604,-1.5366315,1.4184291,111.61328,37.99863,10.385811
392016886000.0,0.6364956298304046,-5.859598959031467,6.6873840570903145,0.9935723,-1.473407,1.4404203,111.10359,37.73228,10.4260845
392021913000.0,0.6463327261820597,-5.962887939160196,6.416864690641601,0.97310835,-1.3060299,1.4633276,110.61085,37.46863,10.447305
392026901000.0,0.6812817579396644,-6.06279124667766,6.18527207222815,0.9410379,-1.0589349,1.5012014,110.13531,37.265453,10.434794
392031904000.0,0.7417013908332525,-6.160392453438742,5.990070192540498,0.8940013,-0.77274454,1.5485435,109.693,37.076855,10.371017
392036868000.0,0.8073801021601305,-6.299150421157504,5.850362983588443,0.8509353,-0.61483586,1.5735888,109.26676,36.953842,10.284681
392042865000.0,0.8958091831355856,-6.5332273283217095,5.767135638818948,0.83260936,-0.12095132,1.6514742,108.931244,36.84254,10.042802
392046828000.0,0.9521667749398772,-6.7163212195599895,5.83968560823016,0.8078693,0.03756821,1.6771306,108.57343,36.78665,9.863081
392051909000.0,1.0171793850895163,-7.050052450877349,6.3771229410795405,0.8060367,0.3136793,1.7278323,108.302765,36.732452,9.532089
392057339000.0,1.0834893469668545,-7.4458190045340835,6.947470222717323,0.8029824,0.48991394,1.7696766,108.04047,36.730885,9.203952
392061922000.0,1.100644785678549,-8.25898730104753,7.379787529041588,0.83077675,0.56382865,1.783421,107.8062,36.71801,8.83955
392066952000.0,1.119473469230769,-9.151467451923075,7.854270629807692,0.8604037,0.54275376,1.7690657,107.595055,36.68311,8.453833
392071901000.0,1.0897461199414715,-9.831664963210702,8.278156464882942,0.890947,0.42546764,1.7290541,107.384544,36.63501,8.084849
392076885000.0,0.9949629468227424,-10.250706431438129,8.647312093645484,0.93034774,0.26145032,1.6649132,107.1727,36.57029,7.747176
392081913000.0,0.9062811722101104,-10.456200233683065,8.841526237634554,0.9575313,0.09010262,1.5720617,106.950645,36.61713,7.434692
392086878000.0,0.8252945906083935,-10.452961043057638,8.864202263319253,0.98746365,-0.06352998,1.4740179,106.72203,36.641216,7.1746154
392091843000.0,0.7443080090066767,-10.449721852432212,8.88687828900395,1.0262536,-0.19456059,1.385137,106.489105,36.670868,6.9372115
392096913000.0,0.5877679035971224,-10.381121323741008,8.86192190647482,1.07665,-0.2938262,1.2797627,106.263756,36.67608,6.7523036
392101869000.0,0.3801245609177523,-10.265763509624731,8.80193628640871,1.1472049,-0.3933972,1.1792754,106.036995,36.654716,6.6154346
392106893000.0,-0.0142781514049586,-9.80660261322314,8.741725069421486,1.2113458,-0.43554693,1.0641272,105.834435,36.606834,6.4862666
392111903000.0,-0.5813121872727272,-9.025443827272728,8.682246018181818,1.2632693,-0.40653083,0.97066486,105.64655,36.53534,6.3795304
392116943000.0,-1.1288201978813124,-8.238720041653812,8.639665654530495,1.3002267,-0.33567044,0.91415983,105.47479,36.436104,6.248813
392121907000.0,-1.4759648738866604,-7.45642212989818,8.742342290548184,1.3011429,-0.2648101,0.9077458,105.31892,36.328896,6.121719
392126865000.0,-1.810037470601153,-6.687108521246226,8.822150327202854,1.2684617,-0.1872302,0.929126,105.17706,36.091545,5.866429
392131987000.0,-2.0793343183639856,-5.96449564583219,8.768290826425106,1.20371,-0.1001819,0.9221011,105.05699,35.86393,5.6053133
392137384000.0,-2.353473066194984,-5.204562415341075,8.715788426563872,1.1294898,0.018936822,0.8900307,104.956406,35.525948,5.2647395
392141895000.0,-2.454656156494584,-4.589031732907192,8.728436571484336,1.054048,0.09773844,0.8671232,104.861565,35.210278,4.9213414
392146820000.0,-2.5651253916365766,-3.917010316151068,8.742245508246315,1.0262536,0.21502456,0.8173377,104.8005,34.796314,4.5081506
392151850000.0,-2.457516403207753,-3.541400213117663,8.853371072754573,0.9822713,0.32742378,0.77304995,104.75207,34.41139,4.0892515
392156908000.0,-2.325276456893257,-3.19757638031668,8.97569272017472,0.9254609,0.38912117,0.7464773,104.718254,34.04062,3.6689134
392162027000.0,-2.18930079866171,-2.8503995516728624,9.10060763345725,0.8784242,0.40133846,0.7324274,104.695915,33.572945,3.2253242
392166920000.0,-1.895099361387856,-2.5794245649318466,9.305774498636929,0.838718,0.3622431,0.73364913,104.67195,33.123013,2.7903845
392171923000.0,-1.5942839535233375,-2.302357763651384,9.515553739694342,0.81092364,0.2947425,0.7458665,104.64689,32.584217,2.4037032
392176904000.0,-1.1329059860059456,-2.2048770230392587,9.588919889306636,0.77640975,0.19150625,0.77091193,104.599304,32.06468,2.0419178
392181879000.0,-0.5496896069511236,-2.2423694356037425,9.559759351141034,0.768163,0.07727446,0.8023715,104.528625,31.551584,1.7050495
392186869000.0,-0.1218167878500256,-2.2750665014997438,9.498274348741656,0.7715228,-0.03970624,0.84421575,104.44395,30.96011,1.4679956
392191867000.0,-0.1119832241335387,-2.2947336186646123,9.350770456599896,0.77732605,-0.13469578,0.8738427,104.33379,30.379591,1.2577778
392196824000.0,-0.1523727832825719,-2.312285594169486,9.215924143965031,0.8167268,-0.2180789,0.8872818,104.23622,29.784838,1.2186444
392201887000.0,-0.3027848327580372,-2.325959513550479,9.103115335307388,0.82527894,-0.2556471,0.870483,104.12464,29.20968,1.1929778
392206906000.0,-0.4518897263620981,-2.3395145997391427,8.991286891567965,0.82558435,-0.25961772,0.84757555,103.995285,28.657103,1.1786202
392211938000.0,-0.6748332604473967,-2.301650028953795,8.923406336329004,0.8081747,-0.25473082,0.818254,103.862465,28.118292,1.1749781
392216867000.0,-0.9653340854156492,-2.2140386308293443,8.900350730585131,0.7779369,-0.258396,0.7742717,103.73265,27.59384,1.1797731
392221849000.0,-1.31642037807217,-2.1188044116065248,8.928689677409787,0.7367035,-0.29932398,0.72234815,103.58835,27.114473,1.1504875
392226841000.0,-1.7417953359762728,-2.0148238400197727,9.023217380029658,0.6924158,-0.36926803,0.6560693,103.45174,26.652723,1.1388193
392231907000.0,-2.1204052559280457,-1.8736086748977925,9.095492136549469,0.6560693,-0.4025602,0.5830709,103.30637,26.205118,1.0706191
392236909000.0,-2.422003443041701,-1.685599404775143,9.134660700408832,0.6432411,-0.46944994,0.54641896,103.154015,25.770329,1.0350927
392242258000.0,-2.7340848765625,-1.4742633061816406,9.16542597109375,0.59315014,-0.5357288,0.48441613,103.00187,25.344236,0.9361787
392246907000.0,-2.82104296875,-1.1090390919921875,8.995857328125,0.54244834,-0.54825157,0.47861293,102.842575,24.92866,0.84151804
392252457000.0,-2.897826281686747,-0.6906608546987952,8.784123679518073,0.5314528,-0.5384777,0.51251596,102.66334,24.484156,0.69344324
392256911000.0,-2.4078922561285143,-0.7146436234056225,8.424382148915663,0.505491,-0.46944994,0.5439755,102.49166,24.064606,0.53813285
392261970000.0,-1.8514090420963856,-0.7418840425542168,8.015775861686746,0.4914411,-0.37568212,0.60048056,102.29919,23.596188,0.3485808
392266914000.0,-1.3382482113457206,-1.0096116401745494,7.791535975788288,0.4810564,-0.24098633,0.6637051,102.10842,23.139637,0.13032523
392271889000.0,-0.8598347783033032,-1.577448177102102,7.782593487987988,0.43951756,-0.063224554,0.7272351,101.91677,22.701178,-0.12535028
392276864000.0,-0.4728303369322748,-2.189816698226012,7.8132418865039694,0.40103304,0.16982053,0.77488256,101.74839,22.312088,-0.30645669
392281909000.0,-0.2928862282779574,-2.9143284411447614,7.936361543957659,0.3735441,0.4538729,0.79351395,101.59258,21.93504,-0.54791415
392286908000.0,-0.2146329743268416,-3.548704832453237,8.085164736509892,0.30695978,0.768163,0.79351395,101.49262,21.685665,-0.75100434
392291934000.0,-0.4072984922607959,-3.9599715294280657,8.307471320606574,0.24098633,1.070236,0.7470882,101.42486,21.447067,-1.0182196
392298000000.0,-0.6398311289077053,-4.456339174443846,8.575778471249327,0.16768251,1.3234396,0.6621779,101.41002,21.36154,-1.3097986
392301921000.0,-0.9109956188523922,-4.624880167169288,8.805397047110604,0.099265605,1.4920384,0.55863625,101.43318,21.29469,-1.643491
392306926000.0,-1.2821368677724347,-4.808497458717092,9.110123590023637,0.025045475,1.5406022,0.44623706,101.492584,21.251865,-1.9923123
392311874000.0,-1.6710520761253698,-4.947968510194292,9.4952172333893,-0.015882496,1.4840971,0.35918877,101.580246,21.30455,-2.3922215
392316934000.0,-2.151492744551051,-4.932470515471336,10.20425443655553,-0.05497787,1.3536774,0.28130344,101.69222,21.37751,-2.762206
392321831000.0,-2.6164567669385144,-4.917471764451907,10.8904511132166,-0.099265605,1.2034045,0.20586158,101.809044,21.479946,-3.1754498
392326910000.0,-2.749497123186344,-4.797925758890469,11.384085065433856,-0.13408493,1.0781772,0.13133603,101.93509,21.589466,-3.540892
392331965000.0,-2.737344862580537,-4.635894842021588,11.78511139963183,-0.20677789,1.0351112,0.08246681,102.066986,21.72071,-3.8729017
392336871000.0,-2.68605556789762,-4.4778282810256895,12.19784899508878,-0.25534168,0.93370754,0.064446285,102.16558,21.78324,-4.2431035
392341896000.0,-2.5497027054590102,-4.314205159331318,12.670538804306762,-0.36896262,0.75747293,0.03390302,102.2669,21.88451,-4.5640726
392346858000.0,-2.367134996006857,-4.13191810133581,13.079723630616472,-0.47769663,0.5128214,0.021991149,102.33295,21.927238,-4.8236217
392351914000.0,-1.9866623460175723,-3.862128222173012,13.263042365954712,-0.5687156,0.21471913,0.0693332,102.36554,21.996021,-5.0164275
392356910000.0,-1.6107047986784768,-3.5955399634116723,13.44418564161726,-0.6249151,-0.12492194,0.15118915,102.343636,22.021288,-5.0994725
392361891000.0,-1.1661424396341462,-3.3541822122889307,13.450876957786116,-0.6215554,-0.45051312,0.27091873,102.26874,22.053846,-5.113069
392367889000.0,-0.5087422558536586,-3.1063100233771106,13.154507675422138,-0.5992588,-0.72051555,0.37995818,102.14571,22.095226,-5.0585027
392371828000.0,-0.1682403711043194,-3.023043521246944,12.72964200578647,-0.54244834,-0.91538155,0.4447099,101.96848,22.046257,-4.8556542
392376910000.0,0.0340526978687856,-3.1222067607090467,11.583314690872044,-0.47525316,-1.0192287,0.47555858,101.75714,21.9896,-4.6219597
392383199000.0,0.2620564942303093,-3.3019643860150767,10.207330027553938,-0.4007276,-1.028697,0.4792238,101.53801,21.9023,-4.2914333
392386940000.0,0.2061789214743956,-3.897991747491552,9.75410079490512,-0.33078352,-0.9569204,0.4654793,101.31929,21.80115,-3.9713387
392391880000.0,0.1323924447531409,-4.685047391889784,9.155610442249372,-0.27977628,-0.795652,0.44929138,101.14123,21.798897,-3.6686
392396910000.0,0.0245953952884902,-5.310313657527226,8.602851669442666,-0.2321288,-0.57879484,0.44012842,100.982956,21.777868,-3.409811
392401953000.0,-0.1146302712406576,-5.769242810634209,8.102670711723254,-0.22937989,-0.3304781,0.43096542,100.85301,21.755814,-3.2096438
392406901000.0,-0.175724566705694,-6.057231867056941,7.839164021799191,-0.23823744,-0.06169739,0.3998113,100.80839,21.913292,-3.0761197
392411873000.0,-0.1957784242831873,-6.257770442831873,7.698786939184636,-0.2764165,0.17134771,0.3659083,100.7929,22.075474,-3.0024583
392416830000.0,-0.191429132821229,-6.439386018435754,7.640151570670391,-0.28955013,0.35613444,0.33658674,100.820946,22.334408,-3.010523
392421917000.0,-0.1136682125129688,-6.570607680247406,7.824833776067439,-0.31764993,0.48747048,0.34330627,100.87072,22.604162,-3.0653536
392426819000.0,-0.0436209797955171,-6.69775067262092,8.050592054767991,-0.34391713,0.5186246,0.35094208,100.94506,22.9267,-3.1423485
392431904000.0,0.013828562359418,-6.831799461010617,8.433589085784506,-0.3659083,0.5653558,0.37995818,101.03113,23.25059,-3.2577972
392437792000.0,0.054571181802219,-6.95672528006553,8.785153841313575,-0.41874814,0.5503896,0.37995818,101.130714,23.593287,-3.3465462
392441934000.0,0.048663499543972,-7.003986767741456,8.909215207908257,-0.49480084,0.54183745,0.37904188,101.23167,23.942636,-3.4486136
392446916000.0,0.0415577359006627,-7.060832912502793,9.05843629153325,-0.51893,0.49877146,0.3707952,101.32703,24.282713,-3.5194228
392451917000.0,-0.1338360092032839,-6.912367512136355,9.022015380153489,-0.5412266,0.4538729,0.34330627,101.42899,24.637106,-3.5821157
392456910000.0,-0.4496005861184187,-6.592335861547385,8.82999652346957,-0.54367006,0.41050145,0.29626966,101.53559,24.986034,-3.6280155
392461981000.0,-0.6849705326172731,-6.245190608022797,8.596236188075405,-0.52564955,0.3747658,0.24251351,101.649956,25.32632,-3.664434
392466878000.0,-0.7302027970013152,-5.862772435230163,8.287834248838228,-0.49846604,0.3753767,0.22082779,101.76892,25.657536,-3.695501
392472127000.0,-0.7761471822693906,-5.458560263060942,7.96449361599723,-0.47555858,0.42088616,0.23915374,101.86723,25.938093,-3.7927184
392476874000.0,-0.7824437194432133,-5.172067175678671,7.772448865650969,-0.4370741,0.50732356,0.29046643,101.96884,26.200804,-3.8991444
392481904000.0,-0.7891156347548476,-4.868494344515235,7.568955060249308,-0.42852196,0.61758476,0.34605515,102.05658,26.418509,-4.0422587
392486869000.0,-0.793371603394087,-4.577378951705023,7.379764728279859,-0.42424592,0.72784597,0.41263947,102.140305,26.62148,-4.211226
392491940000.0,-0.781134730105829,-4.340799722324879,7.26963309442298,-0.43982297,0.8491027,0.48380527,102.22523,26.822697,-4.413895
392496827000.0,-0.7693418687846464,-4.112804712665883,7.163497560078952,-0.45753807,0.97494096,0.5555819,102.29153,26.972538,-4.6594944
392501868000.0,-0.7191195975363383,-3.9647767088239614,7.197421120848627,-0.48624873,1.0781772,0.6392705,102.35025,27.124802,-4.934193
392507602000.0,-0.6465574902363823,-3.831746225077081,7.294170521479959,-0.5198463,1.1554517,0.72418076,102.40423,27.278223,-5.2361054
392511903000.0,-0.5947436478873488,-3.738990097422089,7.3701268453783,-0.5357288,1.2174544,0.8008443,102.443924,27.393225,-5.5697784
392516933000.0,-0.6330187461304847,-3.8963432139578,7.587019095400371,-0.54550266,1.2504412,0.88789266,102.4662,27.509493,-5.918829
392521826000.0,-0.6702513615785292,-4.049410569665401,7.798003942191224,-0.5308419,1.2669345,0.981355,102.46808,27.579414,-6.268426
392526854000.0,-0.8098319632859552,-4.265354192242833,7.96554309009877,-0.48899764,1.2672399,1.0247264,102.46269,27.639511,-6.6166725
392531890000.0,-0.9841109263310046,-4.501599208319281,8.116584833807114,-0.4615087,1.2519683,1.0958922,102.426636,27.691465,-6.9707103
392536887000.0,-1.2355223291214752,-4.784248847381469,8.271970530291291,-0.3930918,1.2183707,1.1429288,102.38313,27.726286,-7.3206267
392541924000.0,-1.706395784924078,-5.202802943600868,8.44387669088937,-0.29993483,1.1756102,1.1893547,102.31883,27.740017,-7.6631565
392546891000.0,-2.1707254364967463,-5.615540326154322,8.613393843895258,-0.2171626,1.1029172,1.2263119,102.23908,27.767788,-8.026475
392551854000.0,-2.463974955862472,-5.830121415672202,8.634479579237253,-0.14263703,1.0320568,1.2507466,102.14614,27.766808,-8.3738
392556924000.0,-2.682779917307853,-5.955731585913377,8.585856574146709,-0.092240654,0.97127575,1.2666291,102.038414,27.74542,-8.699557
392561896000.0,-2.873129155861456,-6.069018224748372,8.523293365206237,-0.058948494,0.8921687,1.2623531,101.9239,27.775665,-9.095298
392566949000.0,-3.0068339591474245,-6.15974664973357,8.423014700414447,-0.040927973,0.8176431,1.2412782,101.8036,27.792482,-9.467356
392571865000.0,-3.1345218708016698,-6.220970029562239,8.275839574612009,-0.027183503,0.7275405,1.2180653,101.67675,27.826683,-9.850228
392577097000.0,-3.2632322067537194,-6.204881139569731,7.970152344728674,-0.025961773,0.63407815,1.1847731,101.5488,27.85739,-10.20096
392581911000.0,-3.3572643102401325,-6.166400906431135,7.668400066022633,-0.058337633,0.5311473,1.1530081,101.4205,27.914831,-10.542938
392587124000.0,-3.4215695357714604,-6.088315739626461,7.310127444291103,-0.093462385,0.44929138,1.1108584,101.29485,27.97157,-10.853737
392591852000.0,-3.4705876472910075,-6.009740204431205,6.990946630953268,-0.15149458,0.36102137,1.0836749,101.16506,28.06171,-11.160785
392596883000.0,-3.4885287684230124,-5.897608197356172,6.672491590355613,-0.21227567,0.28985557,1.0708468,101.034744,28.16007,-11.442223
392601952000.0,-3.513897382969751,-5.794618841456491,6.360255523526073,-0.29565877,0.23518312,1.0589349,100.90636,28.297966,-11.725384
392606922000.0,-3.6181153528018815,-5.802338846322277,6.147959702343687,-0.34972036,0.19303341,1.061073,100.77079,28.440006,-11.989784
392611910000.0,-3.722710772021734,-5.810086810964236,5.934895002935691,-0.38728857,0.18387043,1.0592403,100.63879,28.607946,-12.263465
392616869000.0,-3.893142130274404,-5.883028681646424,5.763398153576249,-0.37384954,0.22235495,1.0387764,100.51338,28.772999,-12.532718
392621848000.0,-4.1076403171749885,-5.998857423049932,5.617539390067477,-0.32895094,0.24587326,0.9923506,100.3932,28.936802,-12.788514
392626849000.0,-4.338891801306812,-6.112995167300856,5.51549245563563,-0.28099802,0.30879238,0.9611965,100.29193,29.116674,-13.09231
392631895000.0,-4.598925946651292,-6.224438552541558,5.487631669933698,-0.16920967,0.3744604,0.8881981,100.218506,29.268244,-13.386261
392636880000.0,-4.891674108053996,-6.178925969058092,5.593139783209464,-0.060170226,0.4260785,0.7993172,100.17835,29.437761,-13.727837
392641862000.0,-5.267983202381314,-5.770051725314728,6.009250773001669,0.03756821,0.45112398,0.66859204,100.17448,29.584137,-14.057938
392646827000.0,-5.643008223123009,-5.362572676702563,6.423941873828303,0.09773844,0.42088616,0.48747048,100.21181,29.73351,-14.406423
392651851000.0,-5.567432994310389,-4.91360503507747,6.790364556362713,0.12308934,0.32742378,0.30390546,100.277855,29.873056,-14.720948
392657030000.0,-5.239885163914995,-4.430681898958598,7.138908976217086,0.1142318,0.16829337,0.18387043,100.35932,30.0123,-14.990074
392661860000.0,-4.918997527380749,-4.046685314677722,7.377865303932296,0.087964594,-0.0070249503,0.13164146,100.38064,29.988989,-15.29582
392666909000.0,-4.546985455035049,-3.802810802496153,7.423333322858609,0.0290161,-0.16676621,0.106595986,100.403595,29.984781,-15.547994
392672283000.0,-4.15804983662501,-3.552550245557004,7.461454864034348,-0.034513887,-0.3042109,0.09040806,100.36424,29.865736,-15.698285
392676873000.0,-3.979429228252703,-3.542439647075059,7.269353457686115,-0.09468412,-0.42546764,0.049785517,100.31618,29.768456,-15.803264
392681906000.0,-3.7835692016867286,-3.5313532326611976,7.058711545234992,-0.13713925,-0.50915617,-0.005497787,100.24928,29.643469,-15.815559
392686863000.0,-3.5890960098772946,-3.547909168786127,6.746698675185073,-0.121256754,-0.550695,-0.03359759,100.17484,29.522404,-15.806168
392692753000.0,-3.3545656592029207,-3.627992741040463,6.146072361119562,-0.0870483,-0.5439755,-0.04917465,100.10709,29.413591,-15.78219
392696890000.0,-3.2250999928701454,-3.6657203796116495,5.7044412371359225,-0.053145275,-0.5222898,-0.063224554,100.05598,29.336887,-15.719286
392701913000.0,-3.1180718412621355,-3.685180034304207,5.140110844660194,-0.003970624,-0.45265114,-0.065973446,100.01506,29.248241,-15.670758
392706908000.0,-3.077509420689655,-3.5937532539019963,4.487620400635208,0.05375614,-0.3472769,-0.027488936,100.00154,29.215261,-15.631897
392711916000.0,-3.132900412539185,-3.340537586256393,3.700277653893747,0.112704635,-0.21624629,-0.0012217305,100.006516,29.17025,-15.615762
392717301000.0,-3.197401293349486,-3.075897080792046,2.8831645783858297,0.183565,-0.06352998,0.04153884,100.03766,29.165495,-15.648461
392721930000.0,-3.323331171175537,-2.957374724538391,2.6016741563204944,0.2519819,0.0070249503,0.09712757,100.06624,29.142239,-15.698929
392727004000.0,-3.461367075277801,-2.827458449828724,2.293123194652853,0.28191432,0.18692477,0.13408493,100.129776,29.15122,-15.882238
392731904000.0,-3.674860182916156,-2.747703739366357,2.0531899712235253,0.3475823,0.39706242,0.19975294,100.1876,29.125088,-16.102478
392736953000.0,-3.949931390924208,-2.6969213427883774,1.8458285222124975,0.43066,0.6291912,0.25473082,100.26994,29.084557,-16.375443
392741862000.0,-4.245686941148326,-2.6550207784688995,1.7090705129186603,0.5357288,0.8784242,0.2941316,100.37229,29.020405,-16.762136
392746922000.0,-4.618678520095694,-2.6298186732057416,1.724191776076555,0.643852,1.1218541,0.3036,100.503914,28.931725,-17.206856
392751817000.0,-4.996110738901312,-2.6094038338940204,1.8363798887992224,0.7583892,1.3564262,0.29840767,100.66739,28.813906,-17.780655
392756896000.0,-5.417016234312105,-2.5952160659115218,2.1248656567039377,0.8741482,1.5601498,0.28130344,100.8662,28.668306,-18.404558
392762784000.0,-5.835747057316467,-2.519511610830787,2.5485303535356407,0.96883225,1.7198911,0.2415972,101.097664,28.480371,-19.132454
392766979000.0,-6.067013552483832,-2.408161028640466,2.936829731724824,1.074512,1.8023579,0.18753563,101.3595,28.26407,-19.883642
392771903000.0,-6.338469147764906,-2.277460130736977,3.392607118662497,1.1817188,1.8154916,0.15241088,101.62203,27.974047,-20.711838
392776850000.0,-6.58174892804878,-1.9949533330295968,4.262097651274321,1.2754866,1.7140878,0.13255776,101.892044,27.667437,-21.520538
392781906000.0,-6.800695308536585,-1.5537430829884902,5.565824107837764,1.3845261,1.5519031,0.14508049,102.157486,27.333138,-22.310883
392786959000.0,-7.019511776219511,-1.1127946270039737,6.868776992532201,1.4245378,1.3359623,0.1881465,102.332634,26.869965,-23.095737
392791943000.0,-6.995433481587553,-0.935692256461203,7.874137459815677,1.3961325,1.0363328,0.25350907,102.460304,26.399088,-23.814947
392796915000.0,-6.81140636463185,-0.9309736111733228,8.690463390248736,1.3185526,0.62858033,0.33536503,102.522224,25.93022,-24.452446
392801906000.0,-6.504292338502882,-1.0611799910071662,9.189796777769123,1.2232577,0.14874569,0.44348818,102.29763,25.134392,-24.94164
392806900000.0,-6.105675483058109,-1.2921542220634057,9.45057437069637,1.1304061,-0.30940324,0.56413406,101.991394,24.366644,-25.328825
392812178000.0,-5.689022590757189,-1.545168136399613,9.715323844956467,1.0720685,-0.6969972,0.6728681,101.54928,23.559553,-25.49996
392816935000.0,-5.384535475507871,-1.909751376853399,9.787439396007388,1.0183123,-1.0198395,0.7483099,101.037186,22.789043,-25.569036
392821821000.0,-5.071791299533903,-2.284221360636707,9.861510571629584,0.99082345,-1.1582005,0.75716746,100.50877,22.107464,-25.430828
392826909000.0,-5.366461433372357,-3.064855714509402,9.722000565961803,0.9868528,-1.3994923,0.7281514,99.92825,21.450306,-25.186325
392832676000.0,-5.976664551291432,-4.123618683295529,9.467412011048513,0.9602802,-1.6151277,0.537256,99.39431,20.846159,-24.895605
392837216000.0,-6.457821699316904,-4.927102640380458,9.25857367323822,0.9297369,-1.6713274,0.45173484,98.88417,20.355406,-24.495466
392841936000.0,-6.969843422101167,-5.310141761867705,8.914620559533075,0.9221011,-1.7333301,0.24007004,98.45416,19.9191,-24.015732
392846830000.0,-7.500740521954172,-5.7073013933419805,8.557987818331172,0.9221011,-1.733941,0.021991149,98.23202,19.76007,-23.667852
392851879000.0,-7.915420755222282,-5.95781336284592,8.132768596589894,0.9440922,-1.6484199,-0.19211712,98.07686,19.624184,-23.31388
392856920000.0,-8.264502580074987,-6.130199452526334,7.68025536993394,0.9850202,-1.491733,-0.3866777,97.990036,19.507936,-22.967798
392862161000.0,-8.373487514751476,-6.144457926972697,7.237535457545754,1.0567969,-1.2342533,-0.5488624,98.051254,19.498682,-22.78401
392866864000.0,-8.215832362536254,-5.991307476447645,6.868172871887189,1.1368202,-0.92271197,-0.65484756,98.17311,19.489477,-22.645418
392871847000.0,-7.75658130165494,-5.620779805272025,6.63811179060549,1.2134838,-0.59803706,-0.66645396,98.385765,19.522757,-22.663181
392876844000.0,-6.912438651223863,-4.97581670329997,6.6191421565256165,1.2983941,-0.31642818,-0.5684101,98.62319,19.528963,-22.750305
392881906000.0,-6.02716239864686,-4.236017617899691,6.956867580967789,1.3613132,-0.08735373,-0.44348818,98.88548,19.51225,-22.911737
392886970000.0,-5.099878492131196,-3.3764967943079864,7.787856834975731,1.4123205,0.053145275,-0.32253686,99.14035,19.465157,-23.129597
392891835000.0,-4.209034059824974,-2.5507525591631124,8.586190705581703,1.4453071,0.10934488,-0.21594086,99.31769,19.295206,-23.280338
392896921000.0,-3.7303972131406913,-2.112050997025107,9.41160059114164,1.4471397,0.057421334,-0.12583824,99.46798,19.11224,-23.447151
392902162000.0,-3.440324820047371,-1.8505103000757932,10.258041456276644,1.4379768,-0.12308934,-0.05955936,99.585976,18.918459,-23.599174
392906898000.0,-3.175366966718721,-1.689096709296344,10.885767131591034,1.396438,-0.38423425,0.0036651916,99.4771,18.497183,-23.447523
392911971000.0,-2.889741268932574,-1.564135475252618,11.470407081021497,1.3503176,-0.752586,0.06047566,99.31893,18.082531,-23.229328
392916925000.0,-2.606559587332521,-1.501540589768575,11.838309685749088,1.2837334,-0.95478237,0.13591751,99.08222,17.589273,-22.917046
392921891000.0,-2.316922441412911,-1.5193644026796589,11.931884796589523,1.2568552,-1.3726143,0.17898351,98.78374,17.106684,-22.462727
392926826000.0,-2.070695491529197,-1.565905246473029,11.936385408055864,1.181108,-1.751656,0.24678956,98.43273,16.59395,-21.927189
392931901000.0,-1.932970078868536,-1.6937931406639004,11.695366308268394,1.1078042,-2.0457878,0.2941316,98.05525,16.09769,-21.319738
392936942000.0,-1.8632171272820777,-1.8559847147338648,11.388806206479815,1.0332786,-2.264783,0.3032946,97.67014,15.623819,-20.604351
392941931000.0,-1.9410258996914371,-2.093506313782463,10.93833418616611,0.9425651,-2.361605,0.27030787,97.283165,15.183561,-19.862644
392948139000.0,-2.049890873175715,-2.384358078079393,10.387936986828665,0.8585711,-2.356718,0.19486602,96.9326,14.805131,-19.097748
392951916000.0,-2.150191610741389,-2.5480065802685345,10.08175593155283,0.8054258,-2.2391264,0.10445796,96.60979,14.4544735,-18.354742
392956915000.0,-2.282943367980152,-2.764601460449504,9.676513915316695,0.7703011,-2.031127,0.022296581,96.36394,14.201196,-17.684687
392961939000.0,-2.509133745632853,-3.006786519000919,9.268790142698435,0.7480045,-1.7935003,-0.035124753,96.155754,13.9685135,-17.06989
392966929000.0,-3.029048926141588,-3.325326066962917,8.86237716116304,0.74372846,-1.5457945,-0.10720685,95.99785,13.752373,-16.525936
392971887000.0,-3.5456299812442538,-3.641822876340791,8.458570435220656,0.7476991,-1.2611313,-0.16737708,95.92112,13.615111,-16.117548
392976917000.0,-3.8442643595568105,-3.8046011284223136,8.351679052703627,0.7733554,-0.960891,-0.2275473,95.886444,13.480982,-15.789899
392982102000.0,-4.009953367984258,-3.8725761767624913,8.432399672142369,0.7819075,-0.66675943,-0.2733622,95.88607,13.356372,-15.546483
392986948000.0,-4.108160115270936,-3.907047402392681,8.588650249120338,0.8051204,-0.40439278,-0.33444872,95.982635,13.309498,-15.476808
392991899000.0,-4.074792997105911,-3.8736802406755806,8.939005360045742,0.8170323,-0.19120082,-0.39400807,96.10849,13.268671,-15.473524
392997199000.0,-4.005843831361219,-3.820224085777136,9.337726888370872,0.8029824,-0.083383106,-0.4605924,96.27395,13.239719,-15.512701
393001959000.0,-3.5179291722240458,-3.544836628426029,9.999255616455446,0.8017606,-0.1001819,-0.50701815,96.45517,13.209347,-15.571561
393006917000.0,-3.0097189033160414,-3.2579939785212426,10.688301716002364,0.7699956,-0.24953845,-0.54611355,96.63556,13.175899,-15.586902
393012389000.0,-2.4571484884718497,-2.946053424754245,11.411488596067915,0.7593055,-0.5021312,-0.5729916,96.814545,13.141942,-15.564261
393016895000.0,-2.117084303582744,-2.753233561580957,11.492122530749858,0.7263188,-0.65179324,-0.57971114,96.99294,13.126143,-15.526543
393021931000.0,-1.737021446258835,-2.5377340429523114,11.5822407054188,0.68508536,-0.9975429,-0.56016344,97.072975,13.008053,-15.217289
393026948000.0,-1.4275929881514844,-2.355947371063517,11.529415740784998,0.6301075,-1.3121386,-0.5476407,97.14754,12.906788,-14.883049
393031911000.0,-1.1873013071881606,-2.207403444397463,11.341550748414376,0.55955255,-1.5635096,-0.52931476,97.19489,12.821245,-14.483456
