timestamp,acc_x,acc_y,acc_z,gyro_x,gyro_y,gyro_z,ori_azimuth,ori_pitch,ori_roll
4346780438000.0,0.908397125000431,9.90338572766245,0.6801648230198205,-6.9846334,-1.505172,-5.6462274,332.85117,-81.64301,7.9096646
4346785646000.0,0.906724828502208,9.902907943915432,0.6706088422459693,-6.9846334,0.752586,0.032986723,332.15186,-80.07396,9.52613
4346790482000.0,0.9051719817538582,9.902464287578914,0.6617354315273932,-1.1872166,0.76174897,0.035124753,332.63806,-81.525856,7.924513
4346795528000.0,0.903551703695096,9.902001365768728,0.65247669900342,-1.1893547,0.7501425,0.03023783,332.4251,-80.68011,7.921411
4346800460000.0,0.9019680312048436,9.901548902358533,0.6434271411738052,-1.1728612,0.73426,0.03176499,332.21243,-80.54828,7.925221
4346805539000.0,0.9003371567973023,9.901082953116768,0.6341078580804123,-1.1585059,0.73639804,0.025961773,332.00012,-80.41743,7.9266887
4346810557000.0,0.8987258695799285,9.900622600036405,0.6249005017971586,-1.1646146,0.75869465,0.03176499,331.7881,-80.28191,7.9329643
4346817182000.0,0.8965985722871621,9.900014820212288,0.6127445162697462,-1.1814134,0.7834347,0.03634648,331.57672,-80.147995,7.93827
4346820578000.0,0.8955081116673532,9.899703269980938,0.6065133122167511,-1.210735,0.7098254,0.043676864,331.38892,-80.00864,7.949404
4346825499000.0,0.8939279712933602,9.8992518157146,0.5974839379102762,-1.1285735,0.7351763,0.03481932,331.16772,-79.88842,7.9548697
4346830432000.0,0.8923439777016294,9.898799260564056,0.5884325452149214,-1.1591167,0.7724391,0.049480084,330.965,-79.737175,7.9716268
4346835441000.0,0.8907355803975591,9.898339733146848,0.5792417027233276,-1.2284501,0.7733554,0.05009095,330.7679,-79.59892,7.983235
4346840440000.0,0.8891303941082701,9.89788112313315,0.5700692088891337,-1.2400564,0.77182823,0.061086524,330.5618,-79.460754,8.001831
4346846208000.0,0.8872782807822813,9.897351964789678,0.55948570330089,-1.2409728,0.75502944,0.058337633,330.36197,-79.31585,8.018011
4346850524000.0,0.8858924068025712,9.896956013435585,0.551566422767107,-1.2351695,0.74006325,0.07147124,330.16284,-79.165634,8.042584
4346855446000.0,0.8843119453271001,9.896504467428896,0.5425352135948921,-1.2330315,0.72418076,0.07269296,329.97098,-79.01929,8.064309
4346860456000.0,0.8827032269215515,9.896044848271336,0.5333425362375583,-1.2263119,0.7113526,0.08399397,329.7832,-78.87184,8.093583
4346865437000.0,0.8811038204588694,9.895587889583952,0.5242030699866842,-1.2299771,0.6719518,0.101098195,329.60886,-78.723335,8.126905
4346870466000.0,0.8794890011252359,9.895126527359729,0.5149755301802906,-1.183246,0.6096435,0.09743301,329.44653,-78.59027,8.159296
4346875684000.0,0.8778134936122314,9.894647826209203,0.5054012007490396,-1.0919216,0.54336464,0.08827003,329.29752,-78.46559,8.196781
4346880488000.0,0.8762709221111824,9.894207105563911,0.4965865057341431,-0.9746355,0.464563,0.07941248,329.17117,-78.358765,8.236241
4346885448000.0,0.8746782587795415,9.893752073423894,0.4874855716638087,-0.82986045,0.39920044,0.06994407,329.06137,-78.280075,8.274914
4346890474000.0,0.8730644027503425,9.893290986420723,0.4782635364546351,-0.6960809,0.34605515,0.055588737,328.97205,-78.22725,8.312057
4346895770000.0,0.871363849322042,9.892805129522834,0.4685460874956652,-0.5839872,0.15393804,0.009773844,328.94366,-78.20834,8.345537
4346900503000.0,0.8698440760259419,9.892370922442453,0.4598616679483077,-0.20005837,-0.010079277,-0.028099801,328.92337,-78.27189,8.377634
4346905439000.0,0.8682591191297767,9.891918092070853,0.450804770655733,0.0720821,0.004886922,-0.03176499,328.9341,-78.359886,8.393214
4346910478000.0,0.8666410887813616,9.89145581244312,0.4415588821919396,0.04184427,0.02107485,-0.027794369,328.99274,-78.465904,8.4054575
4346916424000.0,0.8647318193922614,9.890910324317204,0.4306487705019782,-0.0033597588,0.021685716,-0.027488936,329.05188,-78.61704,8.4142065
4346920489000.0,0.8634265418835678,9.890537399791162,0.4231900412689319,0.00061086525,0.023518313,-0.028099801,329.10596,-78.76427,8.421822
4346925745000.0,0.8617388325143935,9.890055212507304,0.4135459869395614,-0.005497787,0.0106901415,-0.035124753,329.1643,-78.89615,8.426951
4346930637000.0,0.860168004083267,9.889606418711145,0.4045698237395461,0.005497787,0.015882496,-0.03176499,329.21658,-79.02397,8.432931
4346935453000.0,0.8586215793644802,9.889164597181642,0.3957331103357697,-0.0012217305,0.010995574,-0.03726278,329.2759,-79.145424,8.43407
4346940507000.0,0.8569987324938929,9.888700941448649,0.3864596988858766,-0.003970624,0.017715093,-0.03573562,329.32996,-79.26198,8.436485
4346945440000.0,0.8554147389021621,9.888248386298102,0.3774083061905218,-0.005497787,0.008857546,-0.041233405,329.39014,-79.37537,8.434997
4346950426000.0,0.8538137269320892,9.887790968908964,0.3682596656109477,-0.016798794,0.00061086525,-0.03726278,329.44772,-79.47938,8.435435
4346955470000.0,0.8521940910762834,9.88732823057948,0.3590046028184543,-0.013439035,-0.00580322,-0.03848451,329.50748,-79.583595,8.432146
4346960443000.0,0.8505972534254265,9.8868720058149,0.3498798154935001,-0.004581489,-0.007941248,-0.039095376,329.56802,-79.68161,8.429367
4346965429000.0,0.8489962414553536,9.886414588425762,0.340731174913926,-0.004886922,-0.011911872,-0.043066,329.6308,-79.77581,8.424634
4346970519000.0,0.8473618349315527,9.88594763004014,0.3313917082973933,-0.01038471,-0.018325957,-0.037873644,329.69434,-79.86479,8.421607
4346975485000.0,0.8457672449910429,9.885492047458015,0.322279765032619,-0.004581489,-0.022296581,-0.05009095,329.75864,-79.95699,8.411728
4346980458000.0,0.844170407340186,9.88503582269344,0.3131549777076647,-0.0070249503,-0.02076942,-0.048258353,329.8223,-80.03907,8.406537
4346986248000.0,0.8423112297816777,9.884504646062249,0.3025311050731413,-0.006414085,-0.023823744,-0.045814894,329.88843,-80.12204,8.397574
4346990451000.0,0.840961640268999,9.884119061367796,0.2948191643679768,-0.010995574,-0.04153884,-0.047036625,329.958,-80.20122,8.387745
4346995446000.0,0.8393577383856227,9.8836608183155,0.2856540099967428,-0.00061086525,-0.0421497,-0.036651913,330.0228,-80.2763,8.380892
4347000426000.0,0.8377586530244188,9.883203951368465,0.2765163786116087,-0.00580322,-0.049785517,-0.023518313,330.09427,-80.34534,8.37441
4347005550000.0,0.8361133290503606,9.882733873810915,0.2671145265599164,0.003970624,-0.05589417,-0.019547688,330.165,-80.41507,8.367495
4347010459000.0,0.8345370418941056,9.882283520428787,0.2581071706423213,0.0036651916,-0.04795292,-0.016798794,330.23312,-80.477325,8.362989
4347017196000.0,0.832373781235786,9.881665465685382,0.2457456801520304,0.015271631,-0.055283304,-0.009773844,330.3067,-80.53818,8.360453
4347020471000.0,0.8313221738948336,9.88136501603648,0.2397364948535737,0.014049901,-0.0571159,-0.01038471,330.37607,-80.59634,8.355394
4347025537000.0,0.8296954738065084,9.880900259419276,0.2304410650148007,0.01038471,-0.063224554,-0.008857546,330.44803,-80.65132,8.352329
4347030423000.0,0.8281265719842509,9.88045201606522,0.2214759110092252,0.013744468,-0.065973446,-0.009773844,330.51907,-80.70589,8.34752
4347035511000.0,0.8264928076634064,9.879985241160298,0.2121401141241725,0.014660766,-0.06780604,-0.0033597588,330.5909,-80.75558,8.344525
4347040464000.0,0.8249023920421125,9.879530851202736,0.203052024114018,0.010995574,-0.06414085,-0.0106901415,330.66168,-80.80722,8.336495
4347045443000.0,0.8233036277823866,9.879074075996051,0.1939162275946238,0.021991149,-0.06505715,-0.012217305,330.73352,-80.85598,8.331269
4347050426000.0,0.8217035791167482,9.878616933827969,0.1847730916122697,0.016493361,-0.058337633,-0.006414085,330.80154,-80.90082,8.325135
4347055818000.0,0.819972199946545,9.8781222698564,0.174879495542261,0.018936822,-0.059864793,-0.004276057,330.87177,-80.9477,8.317031
4347060463000.0,0.8184806835805224,9.877696135926888,0.1663565441800224,0.01863139,-0.063224554,-0.0012217305,330.9399,-80.99049,8.310113
4347065428000.0,0.8168864147414907,9.877240645085116,0.157246435780988,0.010995574,-0.06719518,-0.0036651916,331.00824,-81.032364,8.301631
4347070451000.0,0.8152735220167262,9.876779833302995,0.1480299051690344,0.020463986,-0.063224554,-0.0027488936,331.07455,-81.07315,8.294262
4347075541000.0,0.8136391154929253,9.876312874917376,0.1386904385525017,0.022296581,-0.05222898,-0.0027488936,331.1395,-81.1121,8.285293
4347080462000.0,0.8120589751189324,9.875861420651038,0.1296610642460268,0.018325957,-0.056505036,-0.005192355,331.20718,-81.15078,8.275502
4347085429000.0,0.8104640640769444,9.875405746328566,0.1205472861155124,0.020463986,-0.05375614,-0.004581489,331.2691,-81.18838,8.2657995
4347090441000.0,0.8088547034684395,9.874945943690308,0.1113509390266987,0.009162978,-0.059864793,-0.013439035,331.33453,-81.2265,8.252427
4347095422000.0,0.8072552970057574,9.87448898500292,0.1022114727758246,0.018936822,-0.04184427,-0.0143553335,331.3915,-81.26363,8.240665
4347100482000.0,0.8056305235263012,9.874024778827822,0.0929270521314914,0.016187929,-0.047647487,-0.013744468,331.4568,-81.29958,8.226895
4347105461000.0,0.8051493129865593,9.873370930761636,0.0863180878277773,0.020158553,-0.040317107,-0.011301007,331.51257,-81.3359,8.212681
4347110492000.0,0.8078323321573392,9.87215137775078,0.0868059095414989,0.016493361,-0.034208454,-0.010079277,331.56998,-81.370575,8.198121
4347115439000.0,0.8104705543473308,9.870952186984583,0.0872855863488495,0.008552114,-0.026572637,-0.013744468,331.5572,-81.48097,8.112318
4347121437000.0,0.8136692720945655,9.869498225752398,0.087867171449009,0.0125227375,-0.022602014,-0.006414085,331.54474,-81.585396,8.03214
4347125659000.0,0.8159208536765636,9.86847478055028,0.088276549957324,0.01160644,-0.016493361,-0.0106901415,331.53085,-81.689606,7.9496694
4347130456000.0,0.8184790812580048,9.867311950935276,0.088741682289012,0.013133603,-0.0106901415,-0.01160644,331.5169,-81.78825,7.872312
4347135419000.0,0.8211258362062419,9.86610888164629,0.0892229105071,0.0067195175,-0.0033597588,-0.00580322,331.50183,-81.88238,7.7976766
4347140483000.0,0.8238264541909028,9.86488132918217,0.0897139320054673,-0.0009162979,0.004276057,-0.015882496,331.48624,-81.978096,7.72025
4347145461000.0,0.826481208599995,9.863674623778063,0.0901966146711215,0.0027488936,-0.0021380284,-0.014966198,331.47345,-82.06663,7.6497207
4347150515000.0,0.8291764936107525,9.86244949539069,0.0906866665377781,0.004886922,0.0030543262,-0.0125227375,331.45618,-82.15389,7.578625
4347155458000.0,0.8318125826111828,9.861251274255196,0.0911659554924443,-0.00061086525,0.0067195175,-0.015577064,331.44223,-82.23932,7.5083137
4347160498000.0,0.8345004014584757,9.860029539575264,0.0916546498747057,0.0015271631,0.008246681,-0.018936822,331.42828,-82.32212,7.4405313
4347165530000.0,0.8371839539266459,9.858809744156732,0.0921425685515984,0.010995574,0.00061086525,-0.009773844,331.41675,-82.39972,7.377455
4347171311000.0,0.8402669461401777,9.857408385389933,0.0927031126436327,0.013133603,0.0018325958,-0.017104227,331.40326,-82.47983,7.310523
4347175445000.0,0.8424715975518262,9.85640627206318,0.0931039583928924,0.002443461,0.0018325958,-0.026267206,331.39304,-82.55521,7.247536
4347180450000.0,0.8451407509904574,9.85519302165186,0.0935892590641658,-0.00030543262,-0.0027488936,-0.01282817,331.3845,-82.624504,7.190732
4347185421000.0,0.8477917723178171,9.853988013101477,0.0940712629876224,0.005497787,-0.0061086523,-0.018325957,331.37653,-82.699036,7.1276956
4347190470000.0,0.850484390841623,9.852764096752471,0.0945608300384235,0.005497787,-0.00030543262,-0.018020526,331.36783,-82.76543,7.0717754
4347195488000.0,0.8531604771463285,9.851547695041385,0.0950473912309211,0.005192355,-0.0143553335,-0.01863139,331.36652,-82.83172,7.0158324
4347200495000.0,0.8558306971797403,9.850333959814716,0.0955328858285367,0.013439035,-0.013133603,-0.018936822,331.35974,-82.89617,6.9615064
4347205429000.0,0.8584619865036576,9.849137920348292,0.0960113021146632,0.00061086525,-0.009162978,-0.01863139,331.35684,-82.957344,6.9087873
4347210394000.0,0.8611098080466753,9.847934366243956,0.0964927242590933,0.004581489,-0.009468411,-0.020158553,331.3554,-83.0185,6.856956
4347217993000.0,0.8651623349158377,9.846092310324751,0.0972295473961576,-0.0033597588,-0.014660766,-0.021380283,331.35477,-83.07622,6.8067594
4347220526000.0,0.8665131772055585,9.845478291685016,0.0974751551085124,0.005497787,-0.02443461,-0.02443461,331.35605,-83.13409,6.757051
4347225545000.0,0.8691897968076543,9.844261647566254,0.097961813264181,0.0061086523,-0.031154128,-0.020158553,331.35843,-83.18761,6.710485
4347230436000.0,0.8717981543437872,9.843076031629838,0.0984360601339509,0.0061086523,-0.02443461,-0.015271631,331.36017,-83.24046,6.6645355
4347235505000.0,0.8745014388153998,9.841847267127344,0.0989275664481737,-0.0033597588,-0.025350908,-0.023823744,331.36652,-83.29385,6.6172853
4347241408000.0,0.8776494933105525,9.840416334624244,0.0994999400470802,-0.0036651916,-0.027794369,-0.024740042,331.37167,-83.342575,6.574773
4347245537000.0,0.8798514782352495,9.839415433335864,0.0999003009804844,0.0021380284,-0.034513887,-0.021380283,331.3787,-83.39078,6.5322824
4347250674000.0,0.8825910269294049,9.8381701851115,0.1003984007903409,0.0021380284,-0.03176499,-0.016493361,331.38406,-83.437035,6.4911237
4347255399000.0,0.885110857098742,9.837024808849064,0.1008565517737109,0.0009162979,-0.03359759,-0.023518313,331.393,-83.48449,6.448675
4347260331000.0,0.8877410798278786,9.83582925419799,0.1013347741334953,0.0018325958,-0.03848451,-0.019547688,331.40228,-83.526184,6.411811
4347265365000.0,0.8904256988908295,9.834608973964109,0.1018228867367302,0.002443461,-0.047647487,-0.022907447,331.41367,-83.57055,6.3719206
4347270369000.0,0.8930943190320703,9.833395965960465,0.1023080904448325,0.0067195175,-0.05131268,-0.0290161,331.42508,-83.61348,6.33336
4347275330000.0,0.8957400073855266,9.832193381486825,0.1027891247365783,0.007330383,-0.053450707,-0.02321288,331.43887,-83.65263,6.298237
4347280310000.0,0.8983958283893994,9.83098619126737,0.1032720013285746,0.013133603,-0.055283304,-0.030848695,331.45392,-83.69645,6.2584977
4347285351000.0,0.9010841805340826,9.829764214179765,0.1037607926740071,0.023823744,-0.053145275,-0.02687807,331.4685,-83.73434,6.2246237
4347290331000.0,0.9037400015379552,9.828557023960313,0.1042436692660035,0.014966198,-0.05100725,-0.022296581,331.48383,-83.772606,6.1896625
4347295309000.0,0.9063947559470472,9.827350318556205,0.1047263519316576,0.015882496,-0.05009095,-0.018936822,331.49905,-83.8096,6.1563478
4347300377000.0,0.9090975071212696,9.826121796461386,0.1052177612827093,0.017715093,-0.050396383,-0.025045475,331.51416,-83.8467,6.122426
4347305364000.0,0.9115530476501228,9.825277072921033,0.111843516176136,0.027794369,-0.057726767,-0.029626964,331.53113,-83.881676,6.090678
4347310724000.0,0.9141140481410526,9.824508757049632,0.1213192207202299,0.02687807,-0.07147124,-0.027183503,331.55017,-83.91512,6.059988
4347315381000.0,0.9163391562168474,9.823841210965096,0.1295521229705741,0.029626964,-0.0693332,-0.030543262,331.47943,-84.006096,5.972387
4347320428000.0,0.9187506057462732,9.823117761300365,0.1384744887978207,0.03848451,-0.06811147,-0.02687807,331.41428,-84.091324,5.890391
4347325391000.0,0.9211219201933784,9.822406352406754,0.1472483547777345,0.03176499,-0.06688975,-0.027488936,331.34995,-84.17533,5.809018
4347330350000.0,0.9234913234460876,9.821695516883194,0.1560151493363467,0.03970624,-0.06566802,-0.028099801,331.28665,-84.25578,5.731394
4347335344000.0,0.9258774496497636,9.82097966437167,0.1648438188313476,0.04550946,-0.06658431,-0.0290161,331.22498,-84.33338,5.656151
4347340366000.0,0.9282769542142132,9.820259798269772,0.1737219882754594,0.04550946,-0.06414085,-0.028405234,331.1633,-84.40788,5.583743
4347345343000.0,0.9306549578417052,9.819546382580974,0.1825206042299287,0.04886922,-0.055283304,-0.026572637,331.10138,-84.479645,5.5139246
4347350454000.0,0.9330969864814704,9.81881375899539,0.1915561127980003,0.041233405,-0.048563786,-0.02565634,331.04062,-84.54863,5.44646
4347355498000.0,0.9355070026150992,9.8180907393582,0.2004731750592707,0.04520403,-0.04337143,-0.026572637,330.97906,-84.615166,5.381356
4347360457000.0,0.9378764058678082,9.81737990383464,0.209239969617883,0.05375614,-0.038179077,-0.02687807,330.91684,-84.67865,5.3190007
4347365634000.0,0.9403499692151112,9.816637819643178,0.2183921566374304,0.054367006,-0.03268129,-0.025961773,330.85425,-84.73951,5.2590055
4347370885000.0,0.942858889658744,9.815885128105728,0.2276751649510566,0.0580322,-0.033292156,-0.03390302,330.7932,-84.80062,5.198598
4347375524000.0,0.9450753973597558,9.815220162186431,0.2358762458055439,0.0571159,-0.025045475,-0.018020526,330.72928,-84.85226,5.147422
4347380787000.0,0.9475900513865774,9.814465750538824,0.2451804683830749,0.044898596,-0.016798794,-0.023518313,330.66675,-84.90992,5.0900025
4347385418000.0,0.9498027366987968,9.813801931359636,0.2533674063949589,0.043676864,-0.0070249503,-0.026572637,330.60257,-95.039795,5.0397973
4347390479000.0,0.9522208754086092,9.813076474899718,0.262314522196761,0.05375614,-0.004886922,-0.018020526,330.53943,-94.993416,4.9933224
4347395427000.0,0.9545850228767288,9.812367216143803,0.2710618703467939,0.053145275,0.009468411,-0.018325957,330.47113,-94.94571,4.94541
4347400505000.0,0.9570112841627252,9.81163932286116,0.2800390396891277,0.042455133,0.005497787,-0.0125227375,330.40863,-94.90414,4.9035225
4347405491000.0,0.9593935879776088,9.810924617089745,0.2888535663415255,0.035124753,0.002443461,-0.016798794,330.34296,-94.86151,4.8604727
4347410746000.0,0.961904419615638,9.810171352182245,0.2981436460764533,0.03726278,0.015271631,-0.018936822,330.27493,-94.82294,4.821401
4347415590000.0,0.964218876029456,9.809477001047716,0.3067071372726456,0.027183503,0.014966198,-0.014660766,330.21268,-94.78656,4.7846074
4347420528000.0,0.9665782455115848,9.808769175716936,0.3154368068694246,0.0290161,0.014660766,-0.011911872,330.14783,-94.75095,4.748438
4347425523000.0,0.96896484951386,9.8080531798629,0.3242672442197509,0.025961773,0.025961773,-0.004581489,330.08078,-94.71935,4.716386
4347430690000.0,0.9714336348751722,9.807312529096569,0.3334017526860444,0.011911872,0.033292156,-0.011911872,330.01596,-94.68576,4.6824183
4347435431000.0,0.9736988780332876,9.806632942240917,0.3417831547837214,0.005192355,0.030543262,-0.013439035,329.9518,-94.65737,4.6536183
4347440484000.0,0.9761131943543075,9.805908632521104,0.3507161277429204,-0.004581489,0.034208454,-0.0030543262,329.88477,-94.631546,4.6275897
4347445440000.0,0.9784811642112196,9.805198227025084,0.3594776187355565,0.0012217305,0.028099801,-0.002443461,329.82227,-94.60398,4.599716
4347450521000.0,0.9809088588930132,9.8044699037149,0.3684600916438663,-0.008552114,0.028099801,-0.011911872,329.7579,-94.57746,4.5732203
4347455455000.0,0.983266317180746,9.803762651754177,0.3771826898193438,-0.008552114,0.032070424,-0.009773844,329.69507,-94.555824,4.551431
4347460490000.0,0.9856720331269831,9.803040922199605,0.3860838413826857,-0.010079277,0.037873644,-0.016187929,329.63257,-94.530136,4.525735
4347465415000.0,0.9880251912273246,9.8023349603215,0.3947905288602347,-0.015577064,0.03634648,-0.024129177,329.57196,-94.50576,4.501411
4347470508000.0,0.9904586194923068,9.801604916901155,0.4037942160324492,-0.010995574,0.042455133,-0.027183503,329.50836,-94.48227,4.477891
4347475561000.0,0.992872935813327,9.800880607181345,0.4127271889916482,-0.014966198,0.055588737,-0.027183503,329.44403,-94.45845,4.4542265
4347480472000.0,0.9952194047332816,9.800176652098424,0.4214091264946417,-0.012217305,0.057421334,-0.042455133,329.3821,-94.43076,4.4265575
4347485416000.0,0.9975816410070047,9.799467966712566,0.430149403223373,-0.0070249503,0.06078109,-0.040927973,329.3169,-94.409096,4.4049497
4347490474000.0,0.9999983463210202,9.798742940280189,0.4390912154591989,-0.004581489,0.061086524,-0.042760566,329.25293,-94.383415,4.3793316
4347495493000.0,1.002396417489673,9.79802350420583,0.4479640813373345,0.01038471,0.060170226,-0.05100725,329.18927,-94.35782,4.3535924
4347500537000.0,1.0048064336233014,9.79730048456864,0.456881143598605,0.004581489,0.061391957,-0.057421334,329.12585,-94.33322,4.3290935
4347505594000.0,0.9956003735516472,9.801810140676766,0.459360030484177,0.003970624,0.0693332,-0.060170226,329.06168,-94.30882,4.3045564
4347510515000.0,0.9814694080034212,9.808528143348342,0.4588967197298931,-0.002443461,0.060170226,-0.06383542,329.00296,-94.28344,4.279182
4347515425000.0,0.967370029657193,9.815231129147454,0.4584344446224894,-0.004581489,0.0580322,-0.067500606,328.83984,-94.19857,4.1949244
4347520503000.0,0.9527882285895458,9.822163463544175,0.4579563523627346,-0.004581489,0.06383542,-0.06536258,328.6794,-94.11794,4.114926
4347525506000.0,0.9384217948082464,9.828993410174109,0.4574853213317079,0.008552114,0.06536258,-0.065973446,328.52313,-94.0392,4.03665
4347530437000.0,0.9242621136218406,9.83572506454792,0.4570210690802603,-0.004886922,0.06841691,-0.06566802,328.36703,-93.96457,3.9626997
4347535419000.0,0.9099559826807184,9.84252634260315,0.4565520151932775,-0.01038471,0.049785517,-0.06658431,328.21902,-93.89302,3.8915634
4347540464000.0,0.8954689432190643,9.849413626382484,0.4560770298741631,-0.013744468,0.051923547,-0.061391957,328.06638,-93.82652,3.825528
4347545438000.0,0.881185784788486,9.856203983075924,0.4556087291849113,-0.013439035,0.051923547,-0.05589417,327.92178,-93.76304,3.76242
4347550491000.0,0.8666757728162882,9.863102188217049,0.4551329906680659,-0.022602014,0.051618114,-0.05222898,327.77872,-93.70353,3.7032514
4347555521000.0,0.8522318068119035,9.869968994443024,0.4546594175946971,-0.028405234,0.042760566,-0.06047566,327.64014,-93.64515,3.645071
4347560509000.0,0.8379084464878735,9.876778463519598,0.4541897988094161,-0.037873644,0.04428773,-0.05100725,327.50058,-86.404274,3.5957222
4347566418000.0,0.820940375887494,9.88484525437234,0.4536334681353532,-0.04337143,0.048258353,-0.044593163,327.36475,-86.454094,3.545805
4347570480000.0,0.8092760836589035,9.890390575821623,0.453251031987436,-0.041233405,0.04337143,-0.044593163,327.23282,-86.50035,3.4992664
4347575547000.0,0.794725869793254,9.897307893345884,0.4527739753745612,-0.032375857,0.04337143,-0.04734206,327.10016,-86.543,3.456152
4347580443000.0,0.7806666933404773,9.903991766761862,0.4523130183631868,-0.028710667,0.03848451,-0.04886922,326.972,-86.58282,3.4156659
4347585417000.0,0.7663835349098989,9.910782123455302,0.4518447176739351,-0.03604105,0.027488936,-0.040927973,326.8473,-86.61827,3.3793302
4347590550000.0,0.7516437978322634,9.917789542214337,0.4513614471797796,-0.036651913,0.02565634,-0.046120327,326.72308,-86.65569,3.340942
4347595431000.0,0.7376276948367562,9.924452938076955,0.4509019024141507,-0.040011674,0.022907447,-0.047647487,326.60385,-86.687515,3.3078644
4347600504000.0,0.723060251588199,9.931378446622558,0.4504242809029778,-0.035430185,0.015882496,-0.04642576,326.4879,-86.71802,3.2760432
4347605470000.0,0.7088000656681643,9.938157881954208,0.449956733411457,-0.03970624,0.010995574,-0.04428773,326.37372,-86.7464,3.245941
4347610525000.0,0.6942843105683305,9.94505881743578,0.4494808065951788,-0.047036625,0.004886922,-0.052534413,326.2633,-86.77543,3.2150164
4347617197000.0,0.6751252367748406,9.95416723316932,0.4488526396875215,-0.05467244,-0.0067195175,-0.04795292,326.1573,-86.798164,3.1901033
4347620460000.0,0.6657553240368074,9.958621783609749,0.4485454291629882,-0.052839845,-0.00580322,-0.047647487,326.05084,-86.822624,3.163298
4347625745000.0,0.6505791092588407,9.965836708242806,0.4480478479119437,-0.057421334,-0.013744468,-0.040317107,325.9515,-86.8416,3.1414304
4347630637000.0,0.6365314190613357,9.97251512097789,0.4475872674994347,-0.064751714,-0.004886922,-0.042760566,325.8484,-86.861465,3.1183472
4347636351000.0,0.6201233034054603,9.98031570363698,0.4470492960200651,-0.07941248,0.0018325958,-0.030848695,325.74933,-86.87313,3.1028748
4347640466000.0,0.6083068182945173,9.98593337910813,0.4466618699371799,-0.07941248,0.003970624,-0.025350908,325.65024,-86.88593,3.0862343
4347645505000.0,0.5938370082157709,9.992812471866122,0.4461874495163637,-0.09773844,0.011911872,-0.028099801,325.5487,-86.89488,3.0718577
4347650479000.0,0.5795538497851926,9.999602828559562,0.4457191488271119,-0.09712757,0.013744468,-0.027794369,325.44943,-86.90072,3.0610955
4347655451000.0,0.5652764344822502,10.006390454912554,0.4452510364372929,-0.105068825,0.027488936,-0.02687807,325.34558,-86.90448,3.050822
4347660443000.0,0.5509415879029484,10.013205384670025,0.4447810410531464,-0.106595986,0.042455133,-0.033292156,325.24194,-86.909096,3.039637
4347665435000.0,0.5366067413236466,10.02002031442749,0.4443110456689998,-0.10354166,0.04062254,-0.0290161,325.14032,-86.908875,3.032871
4347670465000.0,0.5221627753192619,10.026887120653466,0.4438374725956311,-0.10567969,0.044593163,-0.020158553,325.0339,-86.90733,3.0266614
4347675477000.0,0.5077704974636008,10.033729353815414,0.4433655942171571,-0.09896017,0.034513887,-0.015882496,324.93317,-86.90526,3.0214636
4347680430000.0,0.4935476418731997,10.040491041934152,0.4428992706719492,-0.08460484,0.035124753,-0.016187929,324.8293,-86.901184,3.0183837
4347685459000.0,0.4791065474326331,10.047356482989905,0.4424257917482967,-0.087964594,0.009773844,-0.01160644,324.73685,-86.89281,3.0188987
4347690445000.0,0.4647889302362391,10.05416322172603,0.4419563612624485,-0.07696902,-0.010079277,-0.004581489,324.6437,-86.88482,3.020818
4347695484000.0,0.4503191201574927,10.06104231448402,0.4414819408416323,-0.07147124,-0.03023783,0.00030543262,324.55884,-86.87479,3.0242088
4347700476000.0,0.4359842735781909,10.06785724424149,0.4410119454574858,-0.0842994,-0.052534413,0.004276057,324.48114,-86.86188,3.0299873
4347705989000.0,0.4211930749120141,10.07436550907972,0.4406780972762362,-0.06811147,-0.071776666,0.0125227375,324.40912,-86.84853,3.0388813
4347710446000.0,0.4192471811950278,10.069825100340395,0.4421915700167158,-0.06811147,-0.06780604,0.016187929,324.33752,-86.83283,3.047927
4347715461000.0,0.4170576687447953,10.064716249133818,0.4438945239753214,-0.07238753,-0.07452556,0.0125227375,324.22235,-86.930504,2.9476812
4347720460000.0,0.4148751417779533,10.059623697352825,0.4455920447807191,-0.06688975,-0.06811147,0.01863139,324.10388,-87.02149,2.854824
4347725648000.0,0.4126100987885603,10.054338608607118,0.4473537447083853,-0.07422013,-0.06536258,0.017715093,323.99,-87.11031,2.7624712
4347730434000.0,0.4105205660693554,10.049463042929217,0.4489789366617026,-0.06047566,-0.058948494,0.01038471,323.8748,-87.19788,2.6733751
4347735443000.0,0.4083336731753944,10.044360304007231,0.4506798531878552,-0.04153884,-0.04428773,0.006414085,323.75803,-87.28119,2.588236
4347740449000.0,0.406148090059569,10.039260621227548,0.4523797509977814,-0.050701816,-0.02076942,0.003970624,323.63855,-87.36135,2.504656
4347750466000.0,0.4017747408643589,10.029056162097682,0.4557812444780111,-0.017715093,0.02443461,-0.014660766,323.51047,-87.44907,2.4183865
4347755508000.0,0.3995734404109048,10.023919805610433,0.4574933668826551,-0.013744468,0.047036625,-0.02687807,323.38388,-87.52889,2.3364713
4347760457000.0,0.3974127430796584,10.018878189534387,0.459173909084278,-0.0015271631,0.06658431,-0.031154128,323.24725,-87.611855,2.254696
4347765405000.0,0.3952524823411239,10.013837592172449,0.4608541117138255,0.006414085,0.09193522,-0.045814894,323.1046,-87.6973,2.1697624
4347770466000.0,0.3930428866261435,10.008681880117315,0.4625726859879038,0.023823744,0.11178834,-0.061391957,322.96014,-87.78263,2.086681
4347775782000.0,0.3907219597696258,10.003266395966934,0.4643778511412333,0.040011674,0.13255776,-0.0711658,322.8104,-87.86733,2.0044355
4347780429000.0,0.3886931134373765,9.998532431548796,0.4659558425760569,0.058337633,0.14202617,-0.08857546,322.6606,-87.95644,1.9190477
4347785420000.0,0.3865140792122299,9.993448029480597,0.4676506468048506,0.056505036,0.16218472,-0.09285152,322.50418,-88.04046,1.8380576
4347790452000.0,0.3843171446858949,9.988321860134334,0.4693593734887396,0.06566802,0.1469131,-0.10476339,322.35773,-88.13021,1.7535933
4347795455000.0,0.3821328713482053,9.983225233496944,0.4710582525824393,0.06811147,0.14782938,-0.10873401,322.2033,-88.214294,1.6736174
4347800483000.0,0.379937683192718,9.978103139007082,0.4727656209780263,0.07574729,0.15851954,-0.11484267,322.05292,-88.29978,1.5931606
4347805485000.0,0.3777538464477403,9.973007531083791,0.4744641604996505,0.06872234,0.14782938,-0.11178834,321.91074,-88.378944,1.5176901
4347810469000.0,0.3755778683715771,9.967930260014285,0.4761565877239158,0.07849618,0.14080444,-0.11148291,321.76688,-88.45924,1.4430352
4347817181000.0,0.372647458089232,9.961092650981673,0.4784357954946358,0.06994407,0.13072516,-0.106595986,321.62918,-88.53145,1.3738346
4347821413000.0,0.3707997977324256,9.956781452914628,0.479872864518129,0.079107046,0.13255776,-0.10262536,321.4923,-88.60321,1.3075482
4347825714000.0,0.3689220124784974,9.95239996357475,0.4813333640148315,0.07788532,0.12675454,-0.09315695,321.3626,-88.66708,1.2472074
4347830427000.0,0.3668643510272619,9.947598764026075,0.4829337672066377,0.06841691,0.13744467,-0.076358154,321.2297,-88.72495,1.192859
4347835400000.0,0.3646931754709297,9.94253269881166,0.4846224591380725,0.05955936,0.13652839,-0.071776666,321.1038,-88.78062,1.1403582
4347840448000.0,0.3624892554612041,9.937390230039814,0.4863366189751694,0.063224554,0.14874569,-0.05497787,320.97296,-88.82617,1.0985035
4347845509000.0,0.3602796597462238,9.932234517984682,0.4880551932492478,0.0580322,0.16920967,-0.04550946,320.84192,-88.86818,1.0581043
4347850539000.0,0.3580835984053126,9.92711038606662,0.4897632407889858,0.054367006,0.17623462,-0.028099801,320.713,-88.90179,1.026849
4347855470000.0,0.3559307597428806,9.92208710684436,0.4914376706932499,0.050701816,0.19211712,-0.013439035,320.57758,-88.93088,0.9993979
4347860474000.0,0.3537460498124791,9.916989461492872,0.493136889359025,0.05131268,0.20922135,-0.0061086523,320.4416,-88.95536,0.9765389
4347865399000.0,0.3515958307063186,9.911972294555207,0.4948092818308361,0.05100725,0.24037547,0.008246681,320.29874,-88.97176,0.96140265
4347870449000.0,0.3493910375111692,9.906827788355164,0.496524120812084,0.03940081,0.27580565,0.015271631,320.15158,-88.985344,0.94769263
4347875449000.0,0.3472080739516153,9.901734217860072,0.4982219811895572,0.037873644,0.29657507,0.028710667,320.00153,-88.99274,0.94125617
4347880481000.0,0.3450111394252804,9.896608048513812,0.4999307078734462,0.0421497,0.3268129,0.034208454,319.8405,-88.998215,0.9357962
4347885418000.0,0.3428556812065769,9.89157865700696,0.5016071752101632,0.028099801,0.35521814,0.036957346,319.67603,-88.99733,0.93454957
4347890559000.0,0.3406111580746437,9.886341447823906,0.5033529152502811,0.02687807,0.37598756,0.036651913,319.50702,-88.9961,0.9351182
4347895451000.0,0.3384753465279762,9.881357898451508,0.505014101843601,0.036957346,0.3903429,0.036651913,319.33374,-88.99238,0.9376611
4347900467000.0,0.3362853974850318,9.876248028530831,0.506717395374282,0.04184427,0.4025602,0.042760566,319.1572,-88.98506,0.94295007
4347905470000.0,0.3314949337005321,9.872734881916514,0.513527685848967,0.045814894,0.4092797,0.044593163,318.9802,-88.97845,0.94810754
4347910470000.0,0.3240786559907572,9.870820990182608,0.5254894245015114,0.045814894,0.4184427,0.036651913,318.8011,-88.97157,0.9532088
4347915468000.0,0.3166653447920661,9.868907864005395,0.5374463784585946,0.052534413,0.42577308,0.03573562,318.55978,-89.02263,0.8995079
4347920453000.0,0.3092713159154205,9.86699971394669,0.5493722318951813,0.059864793,0.4196644,0.03940081,318.32205,-89.0718,0.8471894
4347925684000.0,0.301512406175454,9.864997400414678,0.561886602873473,0.06536258,0.40653083,0.034513887,318.0866,-89.12111,0.79448056
4347930485000.0,0.2943912963185282,9.863159681571782,0.5733722643276461,0.0693332,0.39553526,0.039095376,317.85468,-89.16486,0.747804
4347935421000.0,0.2870699469634383,9.861270287652069,0.5851808927254378,0.076358154,0.38728857,0.050396383,317.62805,-89.20642,0.7039404
4347940452000.0,0.2796076883318628,9.859344529789412,0.5972167941576279,0.081855945,0.36071593,0.052534413,317.41217,-89.246735,0.6609857
4347945466000.0,0.2721706450445005,9.857425279158653,0.6092120256783993,0.084910266,0.35369098,0.052839845,317.1953,-89.282684,0.62275136
4347950476000.0,0.264739534779306,9.855507559641277,0.6211976878082486,0.083383106,0.33414328,0.049480084,316.99182,-89.31661,0.5860797
4347955468000.0,0.2573351231138667,9.853596730134145,0.6331402876789488,0.09040806,0.32070425,0.055588737,316.7908,-89.347404,0.55410254
4347960457000.0,0.2499351612150533,9.851687048962054,0.6450757105064575,0.096516706,0.30451632,0.06352998,316.59827,-89.37586,0.52356696
4347965435000.0,0.2425515151272014,9.849781578351775,0.6569848175089306,0.10415252,0.28008172,0.06780604,316.414,-89.40281,0.4955005
4347970468000.0,0.235086289984542,9.847855054932428,0.6690255036365816,0.1020145,0.26297748,0.083383106,316.2342,-89.42252,0.47455674
4347975441000.0,0.2277100601743998,9.845951498213884,0.6809226489004022,0.09285152,0.2406809,0.080634214,316.06485,-89.44362,0.4511318
4347980577000.0,0.220092059710919,9.843985548624817,0.6932097468442957,0.09712757,0.226631,0.07574729,315.8998,-89.46166,0.43287078
4347985424000.0,0.2129027200990632,9.842130221977966,0.7048054562940721,0.09743301,0.21777347,0.08155051,315.74136,-89.47399,0.4181598
4347990478000.0,0.2054063465900227,9.840195660213334,0.7168963817240639,0.112704635,0.20708331,0.087659165,315.58914,-89.489075,0.40340626
4347995426000.0,0.1980671981684295,9.83830167295346,0.7287337182946216,0.1001819,0.20189096,0.09101892,315.43948,-89.49707,0.3906796
4348000574000.0,0.1904313986384452,9.83633113002423,0.7410495244112812,0.096516706,0.1957823,0.09010262,315.2947,-89.50745,0.37953928
4348005455000.0,0.1831916283381629,9.83446278891359,0.752726573683895,0.10567969,0.19028452,0.09560041,315.15277,-89.5144,0.37218985
4348010457000.0,0.1757723841173041,9.83254813162299,0.7646930970319002,0.10629055,0.183565,0.10354166,315.0144,-89.5175,0.36624065
4348017199000.0,0.1657722752534436,9.829967440008993,0.780822305430991,0.10995574,0.18325958,0.106595986,314.8772,-89.52151,0.3613382
4348020600000.0,0.1607277231552547,9.828665610851589,0.7889586800624515,0.121256754,0.1826487,0.109650314,314.7434,-89.52423,0.359494
4348025464000.0,0.1535131681991856,9.826803776972843,0.8005950594236466,0.124005646,0.1872302,0.11301007,314.6096,-89.52425,0.35931298
4348030443000.0,0.1461280388557917,9.824897923584222,0.8125065587738503,0.12034045,0.18570304,0.116675265,314.47906,-89.52337,0.36077976
4348035425000.0,0.138738459745772,9.822990921860557,0.8244252351672454,0.1328632,0.17837265,0.12034045,314.3503,-89.52424,0.36382616
4348040493000.0,0.1312213206591441,9.82105100119907,0.8365496534654642,0.1386664,0.183565,0.13041973,314.2197,-89.51995,0.37031144
4348045429000.0,0.1238999713040543,9.81916160727936,0.848358281863256,0.13805555,0.1777618,0.13561209,314.0957,-89.51603,0.3769779
4348050474000.0,0.1164169470948914,9.817230490519847,0.8604276761636731,0.1554652,0.16890424,0.14385876,313.97238,-89.51235,0.3878109
4348055466000.0,0.1090125354294521,9.815319661012715,0.8723702760343733,0.15760323,0.16615535,0.15149458,313.85022,-89.50381,0.40029326
4348060408000.0,0.1016822865411106,9.81342797042292,0.8841932585185481,0.16371189,0.160963,0.16035213,313.73257,-89.4956,0.41574356
4348065501000.0,0.0941280660659339,9.811478480302764,0.8963774855100297,0.15882497,0.14508049,0.17379116,313.61996,-89.481964,0.43485844
4348070450000.0,0.0867874343887986,9.809584110264543,0.908217214428318,0.16676621,0.14569137,0.18112154,313.50528,-89.46953,0.4548014
4348075533000.0,0.0792480464690414,9.807638447927856,0.9203775179424946,0.17837265,0.1414153,0.19639318,313.39764,-89.450615,0.48081335
4348080434000.0,0.0719786110579201,9.80576245125028,0.9321024141697184,0.16615535,0.13041973,0.20280726,313.29282,-89.429054,0.5062346
4348085419000.0,0.0645845821812745,9.803854301191576,0.9440282676063052,0.17592919,0.11942416,0.21594086,313.19025,-89.40552,0.5376666
4348090450000.0,0.0571223235496989,9.80192854332892,0.9560641690384952,0.1731803,0.11636983,0.21960606,313.0895,-89.37905,0.5678661
4348095436000.0,0.0497268114175114,9.800020010491869,0.9679924148228124,0.16676621,0.112399206,0.21563543,312.99307,-89.35158,0.59916526
4348100703000.0,0.0419145044780345,9.798003916939372,0.9805929103194024,0.160963,0.11362094,0.22052236,312.8969,-89.32035,0.63353515
4348105488000.0,0.0571444029449032,9.794591464595346,0.9687018982944898,0.15149458,0.10354166,0.22357668,312.80597,-89.289566,0.66579103
4348110543000.0,0.0976127091078808,9.78926032924876,0.9306568432067917,0.16676621,0.106901415,0.21655174,312.71164,-89.26211,0.69604236
4348115427000.0,0.1367120577330009,9.784109534979176,0.8938987721784398,0.16462818,0.10751228,0.21288654,312.54138,-89.30348,0.6466788
4348120487000.0,0.1772203918941614,9.77877312650168,0.8558160859778952,0.16554448,0.10048734,0.2098322,312.37408,-89.34508,0.5975549
4348125550000.0,0.2177527428542317,9.773433554145642,0.8177108211096428,0.15760323,0.08827003,0.20219639,312.2098,-89.38391,0.54813784
4348130428000.0,0.2568040578815322,9.768289087633148,0.7809979074167067,0.15943582,0.07422013,0.19822577,312.0497,-89.42011,0.5009307
4348135418000.0,0.2967520000681313,9.763026502988346,0.7434420567960115,0.14813483,0.05955936,0.19211712,311.89487,-89.45132,0.4529743
4348140487000.0,0.3373323846260211,9.75768060287522,0.7052916345923435,0.15363261,0.049480084,0.18570304,311.74426,-89.48175,0.40581223
4348145426000.0,0.3768720412311538,9.752471804165666,0.6681196213226814,0.1572978,0.044898596,0.18142697,311.59772,-89.5057,0.35952303
4348150472000.0,0.417268296997402,9.747150160454709,0.6301423022381066,0.16371189,0.03390302,0.1777618,311.4573,-89.52695,0.3135858
4348155451000.0,0.4571281775879985,9.7418991766979,0.5926692400656735,0.16310102,0.026267206,0.16920967,311.31863,-89.543304,0.2669777
4348160472000.0,0.4973242933633319,9.736603898641478,0.5548800765453308,0.15974127,0.014049901,0.17134771,311.18576,-89.55332,0.22433302
4348165414000.0,0.5368879667673745,9.73139193605338,0.5176854846079608,0.16462818,0.011911872,0.16798794,311.05356,-89.56135,0.17958646
4348170499000.0,0.5775964409194497,9.726029161921351,0.4794146428431843,0.1591304,0.0021380284,0.16920967,310.92825,-89.559204,0.13865468
4348175507000.0,0.6176884838995074,9.720747594005283,0.4417233202162421,0.14966199,0.010079277,0.16126843,310.7998,-89.55286,0.09591981
4348185397000.0,0.696863864305412,9.710317341072,0.3672889790060868,0.14294247,0.00061086525,0.16646078,310.68027,-89.54007,0.05910164
4348190512000.0,0.7378125064465851,9.704922928154533,0.3287923505642319,0.14110987,0.0027488936,0.16493362,310.55637,-89.522575,0.019817796
4348195429000.0,0.7771760398597128,9.699737331220968,0.291785914191094,0.13255776,0.0012217305,0.16768251,310.43732,-89.497894,-0.01505203
4348200541000.0,0.8181006652019761,9.694346082182044,0.253311864416947,0.116980694,0.0036651916,0.16737708,310.31766,-89.46829,-0.04961449
4348205475000.0,0.8576002938089259,9.689142556603397,0.2161774822601313,0.10598512,0.008246681,0.16249016,310.19888,-89.43579,-0.08313366
4348210472000.0,0.897604275192981,9.683872589575325,0.1785689480814511,0.08582657,0.007941248,0.15363261,310.08185,-89.39502,-0.11634208
4348216689000.0,0.9473750881336797,9.67731597860604,0.1317784223682524,0.07269296,0.0012217305,0.14996742,309.96637,-89.3526,-0.14791301
4348220457000.0,0.977540187564362,9.673342147154813,0.1034196157272144,0.048563786,0.002443461,0.1441642,309.84967,-89.30074,-0.18107714
4348225562000.0,1.0184087737091692,9.66795828049916,0.0649982495110523,0.03726278,0.007941248,0.13347405,309.73465,-89.24842,-0.21513094
4348230423000.0,1.0573239935426475,9.662831742631749,0.028413281601794,0.023518313,0.0027488936,0.11636983,309.6232,-89.18838,-0.25108021
4348235420000.0,1.0973279749267029,9.657561775603677,-0.0091952525768861,0.010079277,-0.002443461,0.089491755,309.51117,-89.124275,-0.29128492
4348240477000.0,1.1378122922889535,9.652228531004726,-0.0472553601097229,-0.013439035,-0.018325957,0.07269296,309.40454,-89.05405,-0.33171335
4348245437000.0,1.177520066486455,9.646997585145364,-0.0845854240533396,-0.022907447,-0.03390302,0.053145275,309.30026,-88.9822,-0.37869063
4348250478000.0,1.21787629425452,9.641681214565311,-0.1225251120250681,-0.04153884,-0.034208454,0.025961773,309.19705,-88.90044,-0.43068162
4348255449000.0,1.2576721300480236,9.636438667817956,-0.1599379644169469,-0.05589417,-0.034513887,0.007330383,309.09903,-88.81764,-0.48368555
4348260484000.0,1.2979803242182693,9.631128624994997,-0.1978324950532597,-0.0729984,-0.04062254,-0.015577064,309.00366,-88.72739,-0.5434112
4348265424000.0,1.3375279864230387,9.62591877165926,-0.2350120345454909,-0.07513642,-0.038789943,-0.03481932,308.9069,-88.63739,-0.60511476
4348270445000.0,1.3777241021983722,9.620623493602835,-0.2728011980658338,-0.08582657,-0.018936822,-0.06536258,308.80762,-88.538574,-0.67422175
4348275649000.0,1.419385242707202,9.61513521895523,-0.3119676603163543,-0.102319926,-0.01863139,-0.084910266,308.7142,-88.43886,-0.74301726
4348280431000.0,1.4576680201693897,9.610091996556145,-0.3479580566426399,-0.10629055,-0.01985312,-0.10140363,308.61655,-88.33822,-0.8170191
4348285450000.0,1.4978481247454498,9.604798827752084,-0.385732167717844,-0.09987647,-0.029321533,-0.11148291,308.52206,-88.236725,-0.8918469
4348290492000.0,1.5382123581131515,9.599481402545852,-0.4236793819121416,-0.10629055,-0.032070424,-0.10629055,308.42682,-88.133575,-0.96413696
4348295485000.0,1.5781843170986605,9.594215654022506,-0.4612578112005447,-0.10476339,-0.03940081,-0.089186326,308.3364,-88.03696,-1.032888
4348300501000.0,1.6183404048758108,9.58892564909699,-0.4990093436080409,-0.118507855,-0.039095376,-0.070554934,308.2453,-87.93884,-1.0969801
4348305455000.0,1.6706466335656214,9.555729193960511,-0.5360119697328687,-0.12889257,-0.037873644,-0.03176499,308.15643,-87.850296,-1.1478355
4348310508000.0,1.736217916076268,9.49484132646148,-0.5734812949845141,-0.14569137,-0.03359759,0.006414085,308.06705,-87.76229,-1.191281
4348315430000.0,1.8137101674369749,9.453884865450728,-0.5997621701499236,-0.15668693,-0.02321288,0.04184427,307.98505,-87.803894,-1.1367035
4348320480000.0,1.910694568697479,9.435411760981664,-0.6136170660150878,-0.17715092,-0.013133603,0.10293079,307.9019,-87.847694,-1.0646862
4348325484000.0,2.00677285509018,9.426973132865731,-0.62249243,-0.19853121,0.013133603,0.15454891,307.78784,-87.89716,-0.9964791
4348330441000.0,2.101907618957916,9.436486797995991,-0.62249243,-0.23273966,0.029321533,0.20769419,307.67386,-87.94527,-0.91161937
4348335448000.0,2.212958620717939,9.491332203801988,-0.556072105797549,-0.25411993,0.029932396,0.26847526,307.5387,-88.001434,-0.8089534
4348340497000.0,2.3529372370356074,9.631310771398244,-0.3647679318681848,-0.28863382,0.03756821,0.32162055,307.39746,-88.04648,-0.69534045
4348345412000.0,2.5029154542247745,9.891531171750318,-0.2114696609835185,-0.31581733,0.041233405,0.38331795,307.24484,-88.09322,-0.5551665
4348350433000.0,2.6929753383921247,10.490399160936684,-0.1433349912924155,-0.36377025,0.03145956,0.4343252,307.09476,-88.11919,-0.4052949
4348356136000.0,2.9088509646431504,11.170611099261691,-0.0659456223921247,-0.42363504,0.035430185,0.4908302,306.9124,-88.09855,-0.21795528
4348360462000.0,3.010630271803521,11.65286151480974,0.0125829981823547,-0.49510628,0.045814894,0.53878313,306.73276,-88.04425,-0.021986378
4348365451000.0,3.0962461290081165,12.191737671866766,0.1133075436180035,-0.5467244,0.07513642,0.57360244,306.54822,-87.960815,0.18231
4348370827000.0,3.1670288847340147,12.65936983910934,0.2143505439854444,-0.5992588,0.12705997,0.5888741,306.33115,-87.82346,0.41834077
4348375467000.0,3.220928462623462,13.025117376797782,0.2990499449904696,-0.6404922,0.1872302,0.5833763,306.10654,-87.65847,0.6524081
4348380439000.0,3.241653195055372,13.357874541577615,0.4049554754565766,-0.675617,0.20891592,0.56230146,305.8702,-87.45604,0.8887234
4348385415000.0,3.2046187325723725,13.598598571886535,0.5345763455090344,-0.70341134,0.2666427,0.54244834,305.60986,-87.239655,1.1165076
4348390449000.0,3.1403831375256464,13.760241272466146,0.6762779690418548,-0.72234815,0.30665436,0.4978552,305.3285,-87.01743,1.320003
4348395505000.0,3.021170147127616,13.755274483791547,0.8401958023122692,-0.7483099,0.3145956,0.42363504,305.0439,-86.795456,1.5030906
4348400408000.0,2.879240329919532,13.69006671452085,0.9467149773500366,-0.7816021,0.29535335,0.35521814,304.73773,-86.576,1.6501817
4348405444000.0,2.689606194879297,13.522482946781272,0.9687654597750548,-0.81183994,0.2556471,0.2843578,304.43915,-86.36737,1.7709708
4348410443000.0,2.494442405124021,13.320735119451696,0.9722771829308092,-0.85062987,0.20433442,0.23945917,304.13123,-86.159294,1.8485987
4348415437000.0,2.2707107161553526,12.972129796997388,0.8994342708115752,-0.8756753,0.16676621,0.22174409,303.8337,-85.95873,1.9113663
4348420419000.0,2.06527700779176,12.6092645508533,0.8393127566540252,-0.9221011,0.1469131,0.21013765,303.54016,-85.77103,1.9292938
4348425452000.0,1.8907895523530427,12.214590503189106,0.8019225814342354,-0.9669997,0.14813483,0.23060162,303.25226,-85.57908,1.950151
4348430569000.0,1.7189129590517245,11.808904336206895,0.7655665896551724,-1.0100657,0.1685988,0.25167647,302.95868,-85.409134,1.9336879
4348435406000.0,1.6399743893945469,11.35849022734563,0.7562797048115477,-1.0341948,0.20280726,0.29138273,302.66046,-85.2302,1.927249
4348440484000.0,1.560829137899619,10.891421479377174,0.7566993750703992,-1.0458013,0.2724459,0.3268129,302.33234,-85.06958,1.8909705
4348445430000.0,1.556906092280934,10.550116141875105,0.9567748654795428,-1.0537425,0.3594942,0.37018433,301.98856,-84.90039,1.8663292
4348450475000.0,1.5529045222958422,10.201979177116115,1.160855101855226,-1.044885,0.44593164,0.4098906,301.61862,-84.73676,1.8411397
4348455519000.0,1.6678668012269935,9.85389347078586,1.3458617081215307,-1.039998,0.5354234,0.4382958,301.2227,-84.569565,1.8215954
4348460468000.0,1.8478677,9.512353674603174,1.5166317507936506,-1.0415252,0.6169739,0.46914452,300.80392,-84.40202,1.8106755
4348465498000.0,1.965557088505747,9.42478908908046,1.6439084022988506,-1.0577132,0.68203104,0.48747048,300.35916,-84.18888,1.8127631
4348470476000.0,2.0350180390318924,9.525121335883115,1.7365229761372831,-1.07665,0.72784597,0.49846604,299.89713,-83.97621,1.8177056
4348475487000.0,2.1002683382187146,9.622974112175871,1.832857227113867,-1.0968086,0.75655663,0.5122105,299.43967,-83.702896,1.8790553
4348480478000.0,2.127211860653889,9.694823599116871,1.95410312496242,-1.1175779,0.7632761,0.5122105,298.97662,-83.42936,1.9358388
4348485809000.0,2.1554917558222297,9.770650999006868,2.079587315352148,-1.1261301,0.77274454,0.52442783,298.5077,-83.1339,2.0160763
4348490495000.0,2.170347961996193,9.818933513945211,2.1092998052635936,-1.1386528,0.7449502,0.52015173,298.04907,-82.83838,2.089309
4348495450000.0,2.1860569892245305,9.869987688405198,2.140717941736324,-1.1597277,0.675617,0.5149594,297.5949,-82.52436,2.168932
4348500432000.0,2.208917148734303,9.91922158122384,2.1653338324895355,-1.1603385,0.6450737,0.5131268,297.1389,-82.21809,2.244708
4348505465000.0,2.237739174486745,9.967258290811245,2.184548516324497,-1.181108,0.61117065,0.51251596,296.70477,-81.906395,2.3188004
4348510436000.0,2.245089885424341,10.050485917216932,2.2131077344408148,-1.196685,0.58184916,0.50823987,296.2798,-81.59597,2.3940866
4348515437000.0,2.235103041023146,10.163670431848196,2.249726129151317,-1.2290609,0.54825157,0.49357912,295.8671,-81.28175,2.4647546
4348522365000.0,2.2131324036151176,10.323631695453717,2.2984335,-1.2302825,0.4801401,0.44837508,295.46994,-80.98225,2.5292447
4348525654000.0,2.109614746695271,10.43577581627716,2.2984335,-1.2104294,0.44623706,0.42760566,295.07327,-80.68451,2.5937488
4348530512000.0,1.9567145407613655,10.601417694951616,2.2984335,-1.1866057,0.40378192,0.3747658,294.691,-80.40484,2.6274645
4348535427000.0,1.8496692888965045,10.697496680260452,2.261268447361206,-1.1450669,0.37873647,0.32559118,294.31543,-80.14205,2.6551545
4348541406000.0,1.7809890097069911,10.722025076979095,2.1680596177775877,-1.099252,0.34574974,0.27152961,293.95792,-79.896416,2.6673272
4348545467000.0,1.7289343296591486,10.726440603018483,2.1134212442937086,-1.0525209,0.33841935,0.21044308,293.57837,-79.703,2.6172893
4348550430000.0,1.636244560641004,10.665991018950312,2.093271228641682,-0.9944886,0.3481932,0.13683382,293.20798,-79.53304,2.5495074
4348555537000.0,1.540865424961845,10.603787507800575,2.072536566152281,-0.9398162,0.34788775,0.061086524,292.83258,-79.4131,2.4457655
4348560430000.0,1.5123572134755032,10.498753657321446,2.03752524042651,-0.893085,0.3820962,-0.016187929,292.4501,-79.31263,2.3204174
4348565628000.0,1.4986297919110212,10.375206911021234,1.996342975733064,-0.87017757,0.4147775,-0.09132435,292.07358,-79.22523,2.176695
4348570458000.0,1.4939818,10.214652998025844,2.000866824120603,-0.8518516,0.4370741,-0.15882497,291.6742,-79.17319,1.9863261
4348575511000.0,1.4939818,10.019245090541997,2.03126353919598,-0.84940815,0.46639562,-0.20250183,291.26843,-79.12311,1.7834675
4348580427000.0,1.5004127128277818,9.773799575566974,2.089629821961375,-0.8564331,0.4560109,-0.22143865,290.86758,-79.08256,1.5728707
4348585428000.0,1.5173842141743443,9.434369105598863,2.1957017496810773,-0.8695667,0.41691554,-0.22296582,290.4701,-79.03881,1.3594513
4348590465000.0,1.5287258148331273,9.077225920889989,2.320416377255872,-0.8970556,0.3744604,-0.2134974,290.07733,-78.97541,1.1540283
4348595477000.0,1.5010379325751957,8.618398075154511,2.5656521949402555,-0.929126,0.31215215,-0.1826487,289.70212,-78.90415,0.9615205
4348600398000.0,1.473852763263288,8.167900902595797,2.806435406996292,-0.97005403,0.25320363,-0.13316862,289.34964,-78.77811,0.7995423
4348605499000.0,1.4682677685744756,7.965036628510487,2.9218317599715604,-1.0088439,0.1853976,-0.06688975,289.0163,-78.64294,0.6577019
4348611473000.0,1.4733523582651973,7.863344834696053,2.9879313728581587,-1.0531317,0.11728613,0.061391957,288.69495,-78.493935,0.55295503
4348615415000.0,1.5001295374813042,7.8717798851331136,3.0197679357164224,-1.1267409,0.10354166,0.1133155,288.39627,-78.241646,0.4629501
4348621398000.0,1.5686883699770664,7.974617805763286,3.0540472624788118,-1.1523973,0.057421334,0.18967366,288.11795,-77.99212,0.42199168
4348625485000.0,1.614506495624521,8.049121437011493,3.049724070199234,-1.2092078,0.018936822,0.26389378,287.84302,-77.699005,0.4017277
4348630468000.0,1.669358481394636,8.144198222528736,3.0168129398314174,-1.2519683,0.002443461,0.32589662,287.57135,-77.406296,0.40042654
4348635429000.0,1.7239682950421458,8.238855242988507,2.9840471124674326,-1.2745703,0.021991149,0.38423425,287.29852,-77.10556,0.4304562
4348640464000.0,1.725083523825364,8.384143901871102,3.0657309866943865,-1.2855659,0.029321533,0.40591997,287.0322,-76.80038,0.46801656
4348645450000.0,1.7151563045322245,8.538016422869024,3.169966892931393,-1.2779301,0.014966198,0.4034765,286.7644,-76.49839,0.51373607
4348650483000.0,1.5689919744135346,8.548266384756257,3.240660546463766,-1.2519683,0.03390302,0.39278635,286.487,-76.21767,0.5734722
4348655413000.0,1.412532682706898,8.544148951251417,3.3065381927531177,-1.2409728,0.06352998,0.34788775,286.21332,-75.939735,0.62142277
4348660468000.0,1.3802996958038425,8.701352156723964,3.347713832254803,-1.2153164,0.07360926,0.32620203,285.93384,-75.67094,0.6691517
4348665426000.0,1.428309629049545,8.955804336703741,3.3717187738119314,-1.180497,0.09590584,0.3005457,285.6466,-75.41302,0.6991179
4348670434000.0,1.4240211668189844,9.169926963028352,3.4310738209367537,-1.1371256,0.12003502,0.25320363,285.33014,-75.17529,0.6690886
4348675520000.0,1.38861206402534,9.3621475502129,3.512008618755842,-1.14018,0.1301143,0.2098322,285.0142,-74.9382,0.6325157
4348681178000.0,1.349741449125,9.483633192857145,3.5924790548214287,-1.1472049,0.15668693,0.16768251,284.69116,-74.72725,0.58833045
4348685421000.0,1.3207169424375,9.552566789285716,3.650528219732143,-1.1575897,0.16432275,0.1554652,284.37268,-74.51789,0.5418743
4348690454000.0,1.2703958193705092,9.573068173767838,3.712252708855379,-1.1594223,0.1554652,0.124311075,284.04294,-74.31885,0.46458083
4348695472000.0,1.2023065717842325,9.52443303319502,3.765751363485477,-1.1670581,0.14385876,0.108123146,283.71338,-74.1179,0.38935453
4348700465000.0,1.1909810027001422,9.44592760464235,3.805981748839412,-1.1707232,0.1282817,0.090713486,283.37976,-73.919014,0.2937131
4348705453000.0,1.23623830104216,9.337309710563714,3.8331362223590713,-1.1749994,0.118507855,0.070554934,283.05124,-73.72033,0.19570751
4348710472000.0,1.2825549105755396,9.226819308633091,3.831459971942446,-1.1823297,0.09407325,0.07238753,282.72546,-73.515015,0.09307672
4348715465000.0,1.3298559074910072,9.115016968615109,3.784158930125899,-1.1951579,0.054061573,0.076052725,282.41006,-73.30947,-0.009811565
4348720522000.0,1.3728944932757357,8.973596793870732,3.764997931159834,-1.1948525,0.017715093,0.09743301,282.11215,-73.09044,-0.08369545
4348725495000.0,1.392303379843508,8.701872949384628,3.8814510884342655,-1.2006557,-0.024740042,0.13103059,281.82684,-72.86944,-0.14761934
4348730446000.0,1.4116264036514792,8.431351181025349,3.997389069867145,-1.2012665,-0.10720685,0.17501289,281.56665,-72.65409,-0.18085171
4348735405000.0,1.517472806012362,8.279025138790034,4.019322440831616,-1.1969905,-0.17928895,0.20616703,281.31415,-72.44213,-0.20470633
4348740491000.0,1.66344057733658,8.174110551601423,4.00107647536992,-1.1859949,-0.20861048,0.23609942,281.0694,-72.23559,-0.21297263
4348745458000.0,1.8013630856960408,8.160723488505747,4.018540578224776,-1.1908818,-0.23426682,0.2611449,280.8595,-71.96907,-0.1895398
4348750829000.0,1.946824484254698,8.217030794745485,4.065463529410692,-1.196685,-0.23396139,0.2846632,280.64807,-71.70988,-0.15866889
4348755477000.0,2.050343292636579,8.261228615541228,4.117373563657957,-1.1942415,-0.23365596,0.30604348,280.46265,-71.44219,-0.07966734
4348760441000.0,2.1269675258907363,8.301557536138445,4.189964989073634,-1.1682798,-0.23640485,0.3268129,280.27557,-71.18386,0.0041715372
4348765676000.0,2.2023932232342327,8.34221614736209,4.263858019814401,-1.1636983,-0.2434298,0.3408628,280.10358,-70.91114,0.124534935
4348771326000.0,2.1977438917339747,8.356164433150026,4.301052768912184,-1.1679744,-0.24831672,0.3408628,279.9306,-70.64722,0.2444225
4348775600000.0,2.1942268576043995,8.36671575588589,4.329189115397835,-1.1798862,-0.24709499,0.34055737,279.76727,-70.36681,0.38785356
4348780452000.0,2.2237759277572517,8.33637373970072,4.41808018343802,-1.1759156,-0.25320363,0.34422258,279.60605,-70.09371,0.5307731
4348785463000.0,2.268103744762609,8.287612534638832,4.533332581710697,-1.1792754,-0.25289822,0.33261612,279.44354,-69.81932,0.6660472
4348790469000.0,2.273559916373099,8.287729428342674,4.589839741753403,-1.1914927,-0.24678956,0.33200526,279.27618,-69.54427,0.8025018
4348795481000.0,2.244737555644516,8.330963445956765,4.594643426741393,-1.2229522,-0.25289822,0.30695978,279.11478,-69.26737,0.92786545
4348800475000.0,2.265477619205569,8.290677683251433,4.599488713554464,-1.219287,-0.26297748,0.29046643,278.95715,-68.97001,1.0655948
4348805466000.0,2.329090693796069,8.178131348587224,4.604382121314496,-1.2089024,-0.2669481,0.2864958,278.79984,-68.67069,1.1974277
4348810459000.0,2.388443937434413,8.053091296906096,4.608947769042881,-1.1948525,-0.28924468,0.267559,278.64407,-68.38924,1.3151336
4348817463000.0,2.4673282140401662,7.864982510584404,4.615015726958567,-1.1731668,-0.2883284,0.25961772,278.48166,-68.117546,1.4303986
4348820548000.0,2.4877120963951085,7.766492282594886,4.627731315372399,-1.1527027,-0.2874121,0.25381452,278.33514,-67.83926,1.5605428
4348825717000.0,2.5073652960139747,7.58568276401461,4.659176598936001,-1.1435398,-0.30085114,0.25503623,278.19147,-67.568504,1.6894495
4348830415000.0,2.525227693346038,7.421348633952676,4.687756583881213,-1.1236867,-0.31887165,0.2434298,278.0606,-67.290726,1.8299463
4348835448000.0,2.568230970987561,7.316460502123786,4.701855671837075,-1.1120802,-0.3155119,0.22357668,277.9276,-67.01785,1.9650958
4348840479000.0,2.6157394626061894,7.225098091626214,4.712819199256675,-1.102001,-0.2938262,0.21868975,277.79346,-66.7545,2.0984848
4348845422000.0,2.622472026899237,7.131341625739034,4.738460245033376,-1.0946705,-0.24220806,0.25228736,277.6563,-66.46504,2.2447388
4348850465000.0,2.472794833121424,7.02004308862047,4.822893425937698,-1.0940597,-0.2828306,0.22479841,277.5443,-66.18291,2.3792272
4348855442000.0,2.3250765318261286,6.910201165313096,4.906221591981882,-1.0803152,-0.33750305,0.17348573,277.4281,-65.89287,2.528421
4348860508000.0,2.250584895331696,6.818757123955774,4.986257331081081,-1.0461067,-0.34269542,0.14538592,277.30914,-65.61352,2.6729357
4348865529000.0,2.209688465998866,6.736964312738612,5.063506094594595,-1.0030408,-0.33933565,0.122478485,277.20682,-65.34662,2.808378
4348870448000.0,2.1619317059589997,6.715748478457262,5.147588405316192,-0.97433007,-0.34513888,0.11209377,277.09396,-65.06939,2.9042103
4348875496000.0,2.107339199635163,6.736745562543432,5.239975750694927,-0.97524637,-0.3866777,0.09743301,276.99207,-64.801476,2.9954548
4348880581000.0,2.0752312035457066,6.775556499039705,5.304222818707295,-0.95081174,-0.43493605,0.073303826,276.8918,-64.53335,3.0769866
4348885426000.0,2.096653082493075,6.852674896408126,5.2999385055494,-0.95386606,-0.49357912,0.06963864,276.80353,-64.26158,3.1651974
4348890482000.0,2.1173099548382184,6.930715734343358,5.299316514990483,-0.9602802,-0.5112942,0.06658431,276.70944,-63.99154,3.2317576
4348895448000.0,2.124551430102779,6.988647498652456,5.32828237824134,-0.95203346,-0.55680364,0.059864793,276.63776,-63.729767,3.3061802
4348901179000.0,2.132908436695851,7.055503507765512,5.3617103609821095,-0.95081174,-0.59498274,0.059864793,276.5621,-63.484303,3.3829772
4348905563000.0,2.1431730247706424,7.064684958715596,5.410313723853212,-0.9440922,-0.67256266,0.05681047,276.50873,-63.247456,3.4669278
4348910440000.0,2.157780839699749,7.040338600500417,5.483352798498749,-0.93554014,-0.7302894,0.06383542,276.45798,-63.01538,3.5547094
4348915479000.0,2.1885863594225823,7.080524054884319,5.492012640577417,-0.9230174,-0.768163,0.059253927,276.4203,-62.794445,3.6447444
4348920505000.0,2.2314177783666205,7.170946187789204,5.44918122163338,-0.93279123,-0.78893244,0.06505715,276.38983,-62.573044,3.7429974
4348925497000.0,2.2954700030333464,7.195481487173564,5.443261267014865,-0.91232723,-0.80848014,0.06811147,276.37286,-62.347485,3.8487544
4348930440000.0,2.3763005644435515,7.166953138429088,5.467034932342306,-0.89919364,-0.8014552,0.06169739,276.3538,-62.12162,3.9511697
4348935544000.0,2.461513610705959,7.118389810407535,5.480467988342815,-0.8943067,-0.81122905,0.059864793,276.34146,-61.92208,4.0626354
4348940453000.0,2.544814758118064,7.057009685069477,5.484852165289565,-0.8949176,-0.80573124,0.04153884,276.32568,-61.72935,4.1634784
4348945443000.0,2.6504440891385768,6.989382855805244,5.489411052434457,-0.8772025,-0.8179486,0.030848695,276.32343,-61.53239,4.2905927
4348950621000.0,2.7921819128523557,6.911182858466391,5.494298663906958,-0.86742866,-0.8371908,0.0290161,276.3218,-61.337227,4.4134
4348955324000.0,2.874860101921198,6.822936965125367,5.498905101921198,-0.8338311,-0.82253003,0.013439035,276.33002,-61.138462,4.551008
4348960306000.0,2.880038937696733,6.698647502149138,5.504083937696732,-0.8145888,-0.83077675,-0.0143553335,276.34967,-60.942986,4.688295
4348965297000.0,2.92096438283463,6.586398827059646,5.4683185420905644,-0.79809546,-0.8185594,-0.029626964,276.37408,-60.738,4.8539453
4348970727000.0,3.003951799650908,6.477477500608418,5.385330962796728,-0.7816021,-0.73884153,-0.05497787,276.3876,-60.54411,4.9990177
4348975309000.0,3.0358477,6.384183606398591,5.346421757851482,-0.73823065,-0.7153232,-0.058643065,276.41452,-60.34796,5.1581044
4348980298000.0,3.0358477,6.281343432579982,5.332398084473144,-0.72021013,-0.6759224,-0.086132,276.42313,-60.15562,5.2892313
4348985296000.0,3.0775044283762987,6.189516309109273,5.33928439621008,-0.6872234,-0.6197228,-0.09712757,276.43173,-59.97341,5.438657
4348990332000.0,3.170287835763755,6.110650252972297,5.371758458003078,-0.64843345,-0.58368176,-0.10170906,276.43744,-59.802395,5.5777493
4348995276000.0,3.275254018287373,6.043312406966619,5.44987012191582,-0.6068946,-0.5919284,-0.099265605,276.44318,-59.632004,5.7181706
4349000303000.0,3.405683874455733,5.992072174078374,5.608249563038219,-0.57360244,-0.6197228,-0.09437868,276.4442,-59.473324,5.853727
4349005324000.0,3.512381814288647,5.95064747916239,5.743390831574626,-0.5412266,-0.66950834,-0.08246681,276.46005,-59.30209,6.0192056
4349010355000.0,3.5667844723670705,5.930864731964689,5.827467403880107,-0.52442783,-0.73884153,-0.08124508,276.48743,-59.139004,6.187654
4349015329000.0,3.596082438701692,5.968834731199285,5.874163198377115,-0.49877146,-0.77946407,-0.07849618,276.5245,-58.942326,6.3907247
4349020382000.0,3.5827715955164354,6.108598688887361,5.857524644395544,-0.4596761,-0.8179486,-0.06872234,276.5756,-58.75675,6.6024737
4349025484000.0,3.569331674295145,6.249717966964654,5.840724742868932,-0.4251622,-0.8353582,-0.06780604,276.63422,-58.557858,6.824254
4349030382000.0,3.5417020530604617,6.35199765503224,5.817666371236333,-0.39064834,-0.8417723,-0.06414085,276.69617,-58.372173,7.0496435
4349035361000.0,3.497142678441268,6.418836577375946,5.786474967199327,-0.37048978,-0.82344633,-0.06047566,276.75458,-58.19491,7.270605
4349040415000.0,3.4472378005580984,6.489246959292332,5.77946790244447,-0.3549127,-0.80481493,-0.061391957,276.80826,-58.064922,7.4761963
4349045366000.0,3.3890213020984485,6.563340754939167,5.821806993191204,-0.33169982,-0.80878556,-0.0720821,276.8626,-57.94519,7.677111
4349050377000.0,3.323935236914789,6.625937419402547,5.856861646131244,-0.3182608,-0.80664754,-0.076358154,276.9062,-57.84787,7.858503
4349055363000.0,3.2537833889422134,6.677382244652302,5.884922424387855,-0.30298916,-0.80664754,-0.07849618,276.95157,-57.75967,8.0351305
4349060351000.0,3.203710021324049,6.7108134770713495,5.922808005348673,-0.29016098,-0.80909103,-0.09590584,276.99344,-57.6848,8.187261
4349065395000.0,3.174460675194268,6.72543812468463,5.971557000403673,-0.27947086,-0.806953,-0.101098195,277.0318,-57.61412,8.338011
4349070399000.0,3.165022791734752,6.7324953,5.981051475964279,-0.269697,-0.83016586,-0.098043874,277.0724,-57.55613,8.468617
4349075379000.0,3.1740846317499525,6.7324953,5.953865861295839,-0.26267207,-0.86467975,-0.112704635,277.11795,-57.503162,8.59241
4349080389000.0,3.1886804123951364,6.723314787604864,5.910078462814592,-0.24251351,-0.9282097,-0.108123146,277.16678,-57.454617,8.718475
4349085369000.0,3.211157773126591,6.700837426873409,5.842646380620228,-0.21166481,-0.97341377,-0.11789699,277.2233,-57.41422,8.837448
4349090372000.0,3.221843992686935,6.66799152021364,5.79119807526705,-0.20189096,-0.9816604,-0.124005646,277.2862,-57.377472,8.962004
4349095357000.0,3.2022300452752672,6.609149473171734,5.781391203964667,-0.1863139,-0.9837985,-0.13072516,277.3596,-57.352234,9.087063
4349100426000.0,3.1919421861402446,6.546765410878045,5.76621817150039,-0.16157386,-1.0024298,-0.13500121,277.44418,-57.338455,9.223394
4349105407000.0,3.200211587336396,6.480610201308833,5.741410054260206,-0.13897185,-1.028697,-0.15577064,277.53403,-57.330643,9.352527
4349110617000.0,3.2076442328448342,6.411185892543683,5.719112195345842,-0.11575896,-1.0512991,-0.16646078,277.62616,-57.323814,9.48148
4349115383000.0,3.2002937168934698,6.345031210604719,5.741163666446574,-0.11453723,-1.0913107,-0.18142697,277.73218,-57.31951,9.607965
4349120440000.0,3.192494396883807,6.27483728979789,5.764561545035832,-0.10751228,-1.1099422,-0.19364429,277.8432,-57.314163,9.736037
4349125466000.0,3.120404721903243,6.172544662094631,5.780537200106326,-0.1020145,-1.1074986,-0.22204952,277.96274,-57.31181,9.856408
4349130390000.0,3.00006991046252,6.047195852185008,5.790564987623604,-0.113926366,-1.1154399,-0.2434298,278.08945,-57.307415,9.976991
4349135401000.0,2.894526872873519,5.967682603381177,5.800130639437433,-0.11942416,-1.0882565,-0.27091873,278.20972,-57.293518,10.080892
4349140420000.0,2.7972928735478275,5.91212032495906,5.809391204508236,-0.13530666,-1.0345002,-0.30848694,278.32916,-57.277126,10.171979
4349145396000.0,2.7294403859691805,5.852452231549068,5.86761377676399,-0.14874569,-0.9786061,-0.3463606,278.43887,-57.25423,10.231386
4349150386000.0,2.6809932732360093,5.789471187347932,5.959663189781022,-0.17165314,-0.92149025,-0.37018433,278.5376,-57.22741,10.275742
4349155488000.0,2.722659358974359,5.710174943830666,6.029167524746171,-0.21563543,-0.8717047,-0.41172317,278.62503,-57.197906,10.278826
4349160442000.0,2.8165503615384617,5.624448237274136,6.082236237377388,-0.2574797,-0.8454375,-0.4288274,278.70334,-57.163315,10.277119
4349165386000.0,2.923661611331847,5.541480438353943,6.105426680498682,-0.29077184,-0.8604037,-0.44348818,278.78162,-57.099785,10.256105
4349170463000.0,3.0665788525744984,5.462629677944456,6.056144890918305,-0.3051272,-0.90316427,-0.46822822,278.86383,-57.033764,10.229714
4349175518000.0,3.20424086043271,5.395759950128347,5.9693215362669605,-0.31306845,-0.9611965,-0.47739118,278.96036,-56.921917,10.241079
4349180513000.0,3.3314179656307297,5.351905791712505,5.81144661176201,-0.321926,-1.0338894,-0.49021935,279.07468,-56.81082,10.254695
4349185390000.0,3.4540490818469323,5.30748754459203,5.64987398570525,-0.32650748,-1.10139,-0.48441613,279.2144,-56.678112,10.317419
4349190572000.0,3.574376039595193,5.249939812144213,5.430146533270082,-0.3109304,-1.1643091,-0.48808134,279.37326,-56.553364,10.384589
4349195462000.0,3.6705992738005526,5.194459115079963,5.256388835661057,-0.28496864,-1.2134838,-0.48563787,279.55966,-56.43778,10.4999275
4349200434000.0,3.7184423781461935,5.134655068123587,5.176650037000753,-0.24984388,-1.2428054,-0.49541172,279.75784,-56.333054,10.616366
4349205469000.0,3.7668917004270286,5.074093246638198,5.09590087142259,-0.19272798,-1.2644911,-0.48899764,279.98212,-56.25054,10.776356
4349210432000.0,3.7439373776096825,5.058799494402421,5.066956312556732,-0.13561209,-1.2412782,-0.4908302,280.20386,-56.181255,10.927176
4349217628000.0,3.694448213346418,5.0481987703631015,5.0359340781158,-0.10476339,-1.2137892,-0.5009095,280.42877,-56.12227,11.077598
4349220463000.0,3.670468620412168,5.061520766437684,5.019947710647695,-0.05009095,-1.2403619,-0.50946164,280.66837,-56.08481,11.250001
4349225650000.0,3.6265948466732087,5.085895085181551,4.9906985790579,-0.0290161,-1.2458596,-0.5161811,280.89612,-56.053455,11.403981
4349230424000.0,3.5146584216861863,5.124664843651594,4.960779957674708,0.011301007,-1.2345587,-0.52870387,281.1271,-56.04423,11.553165
4349235421000.0,3.34763068329326,5.176629186543085,4.927374433250601,0.01282817,-1.2049317,-0.5345071,281.35345,-56.031002,11.697665
4349240764000.0,3.17326092755913,5.233190535827815,4.896867778817408,0.009162978,-1.1844677,-0.5491679,281.58258,-56.03994,11.824308
4349245438000.0,3.080094930151372,5.296712672119206,4.943450666972564,0.015882496,-1.1588113,-0.56138515,281.8022,-56.05278,11.942326
4349250417000.0,2.9808494228571427,5.36437992,4.993073302857143,0.0076358155,-1.0980303,-0.58368176,282.00195,-56.103348,11.989897
4349255466000.0,2.96881,5.448270466032211,4.976833600292826,-0.014966198,-1.1026118,-0.60048056,282.21136,-56.15232,12.040278
4349260919000.0,2.970175310968107,5.537441967640195,4.948705936624002,-0.019242255,-1.1459832,-0.61422503,282.41708,-56.20566,12.081426
4349265447000.0,2.988574501633548,5.565040769648539,4.914974177795064,-0.019547688,-1.1658363,-0.627664,282.61078,-56.269947,12.083906
4349270511000.0,3.0091516883671594,5.595906567654338,4.877249436913938,-0.008857546,-1.1863003,-0.63041294,282.81784,-56.349903,12.085807
4349275486000.0,3.03041458125488,5.623657256852864,4.839648794343105,-0.003970624,-1.1930199,-0.65240407,283.03018,-56.430885,12.080041
4349280448000.0,3.0573974505287813,5.63714879714671,4.799174596089148,-0.010079277,-1.2000448,-0.66920286,283.24603,-56.510647,12.077309
4349285448000.0,3.084586960075236,5.650743658385975,4.758390438235503,0.005497787,-1.2021828,-0.6942484,283.47113,-56.61057,12.070755
4349290416000.0,3.1013704886114675,5.631107720339485,4.721852647488404,0.030543262,-1.1911873,-0.7284568,283.69727,-56.713104,12.056242
4349295444000.0,3.0966184753478734,5.540819269850982,4.693340617526892,0.063224554,-1.146594,-0.7855727,283.92148,-56.825768,12.024694
4349300432000.0,3.3081598233523666,5.60877224134327,4.735458252395238,0.09560041,-1.1856894,-0.8426886,284.175,-56.953022,12.0063715
4349305448000.0,4.033390802312978,6.050419366631182,4.944659384302719,0.10170906,-1.1908818,-0.87689704,284.41248,-57.083897,11.967664
4349310449000.0,4.654455468258172,6.397882871331986,5.073979402314072,0.0580322,-1.1233811,-0.8875872,284.65076,-57.197075,11.924475
4349315428000.0,4.940280573179062,6.441088979333659,4.944361147717292,0.023518313,-1.0586295,-0.8857546,284.89264,-57.31496,11.876972
4349320516000.0,5.232362945912038,6.485240953126089,4.811905297267722,-0.010079277,-0.9718866,-0.86926126,285.14005,-57.365047,11.96062
4349325460000.0,5.48969879303005,6.525056836289649,4.65213988783389,-0.026267206,-0.8912524,-0.86376345,285.37244,-57.411613,12.030831
4349330439000.0,5.703635056114357,6.559883600949499,4.438203572798414,-0.014966198,-0.81122905,-0.84971356,285.57794,-57.453938,12.092432
4349335416000.0,5.846695408248143,6.603262923896898,4.330215430685889,0.007941248,-0.729984,-0.84635377,285.79117,-57.492397,12.2319975
4349340489000.0,5.901879364840542,6.658447146439493,4.355684904788117,0.027794369,-0.68783426,-0.8582657,285.9928,-57.533142,12.361389
4349345457000.0,5.94406385420576,6.720683974202497,4.3922664289712,0.055588737,-0.6808093,-0.8564331,286.20013,-57.595192,12.534521
4349350494000.0,5.924385979685078,6.8269444144244105,4.4906558015746105,0.07452556,-0.7031059,-0.84757555,286.40338,-57.65966,12.700017
4349355503000.0,5.904817491800604,6.932614167267684,4.588498240996981,0.086437434,-0.73761976,-0.8527679,286.61053,-57.726044,12.866739
4349360495000.0,5.756883172864061,7.072128039052231,4.583380604868558,0.096516706,-0.74128497,-0.8341365,286.80905,-57.791855,13.035574
4349366230000.0,5.528907996022137,7.247858873538568,4.53113641129367,0.099571034,-0.73945236,-0.8216137,287.01492,-57.85912,13.201025
4349370492000.0,5.406606333521126,7.32833438084507,4.4951372845070425,0.1160644,-0.73914695,-0.8176431,287.214,-57.929848,13.348306
4349375446000.0,5.3254657443661975,7.356972188933602,4.456953357645875,0.11881329,-0.73639804,-0.79137594,287.4054,-57.9925,13.499076
4349380439000.0,5.26428458686462,7.3671764927025665,4.42570409124308,0.1386664,-0.7495316,-0.75961095,287.597,-58.114746,13.592115
4349385418000.0,5.233430752311453,7.350035473506363,4.405134868207636,0.16279559,-0.75991637,-0.7171558,287.7802,-58.23199,13.690037
4349390432000.0,5.202360029987778,7.332773961104321,4.384421053325185,0.17684549,-0.77213365,-0.66767573,287.96094,-58.361416,13.777279
4349395443000.0,5.181828861528637,7.311589381530602,4.356065917742411,0.19394971,-0.77854776,-0.6041457,288.1333,-58.487907,13.875882
4349400427000.0,5.167761388102957,7.2881437720208275,4.323241878367226,0.21746802,-0.78801614,-0.5354234,288.3004,-58.60989,13.98673
4349405567000.0,5.161899,7.244593592718576,4.288775624501727,0.23396139,-0.79901177,-0.464563,288.4624,-58.724705,14.106561
4349410470000.0,5.161899,7.19052195886261,4.255500893170343,0.25137106,-0.8173377,-0.39584067,288.6181,-58.834213,14.24161
4349415463000.0,5.163179101648791,7.141074170641908,4.200947046902513,0.26206118,-0.82436264,-0.33078352,288.76648,-58.935165,14.388442
4349420475000.0,5.1670209396510325,7.102656352233072,4.10490286191772,0.25809056,-0.8313876,-0.267559,288.90912,-59.025055,14.55042
4349425489000.0,5.170864310709141,7.064223203489675,4.008820351240596,0.27183503,-0.8539896,-0.2180789,289.05237,-59.108322,14.729615
4349430418000.0,5.165275550607319,6.952699343021707,3.850918679037693,0.2846632,-0.83291477,-0.17837265,289.1776,-59.18042,14.912863
4349435675000.0,5.157385024715931,6.8185611443930725,3.6694373662565622,0.30573806,-0.8194757,-0.13652839,289.3028,-59.24814,15.108358
4349440472000.0,5.148204666988728,6.711907450241546,3.518682203059581,0.32559118,-0.79443026,-0.105068825,289.4238,-59.3191,15.312546
4349445500000.0,5.133665721215781,6.639213834661836,3.397526480716586,0.34300083,-0.7492262,-0.083383106,289.53082,-59.38711,15.515472
4349450512000.0,5.148744954031267,6.576865140951133,3.3063885470491936,0.3726278,-0.68416905,-0.06719518,289.63412,-59.46662,15.730622
4349455439000.0,5.22985199638209,6.538242816648932,3.283215031480724,0.38698313,-0.65240407,-0.058643065,289.73187,-59.541183,15.94288
4349460456000.0,5.3124405962347545,6.498914990177622,3.259618212400753,0.4098906,-0.600786,-0.052839845,289.81296,-59.626553,16.149805
4349465426000.0,5.367189515596478,6.486538825014135,3.2463100228333737,0.4175264,-0.5549711,-0.045814894,289.8853,-59.706577,16.351444
4349470459000.0,5.417799357063242,6.478752654906712,3.234630869299733,0.41813725,-0.50335294,-0.04520403,289.94193,-59.78693,16.54142
4349475519000.0,5.466099262220423,6.485185481348042,3.2668086229329014,0.44440445,-0.46028697,-0.056505036,289.99393,-59.855167,16.750631
4349480441000.0,5.509033388523429,6.513808248820969,3.366988533245623,0.45081854,-0.43249258,-0.05681047,290.03412,-59.913605,16.954168
4349485426000.0,5.530146303898762,6.5506239115939335,3.4547356823485624,0.44990227,-0.39400807,-0.059864793,290.06335,-59.96773,17.158524
4349490483000.0,5.516627404671071,6.60019413417698,3.522331213696845,0.47250426,-0.34391713,-0.06872234,290.0821,-60.02649,17.352537
4349495427000.0,5.477927151038553,6.675043077398387,3.604369111371787,0.47494772,-0.29626966,-0.077579886,290.0863,-60.06056,17.542248
4349500422000.0,5.359980922145846,6.832304628840407,3.7366118856545127,0.4810564,-0.26908615,-0.10140363,290.08478,-60.102062,17.718573
4349505510000.0,5.239838697399881,6.992494173132098,3.8713168377166767,0.46792278,-0.24984388,-0.12370021,290.0685,-60.137314,17.874638
4349510453000.0,5.122769560523446,7.128680703043521,3.969921042222663,0.45540005,-0.24617869,-0.14905111,290.05176,-60.176575,18.019255
4349515837000.0,4.994977355507089,7.261584532209775,4.051707829255478,0.42455134,-0.25320363,-0.16401732,290.03363,-60.208847,18.156912
4349520525000.0,4.891605064966699,7.374481991931494,4.116000253758326,0.37293324,-0.27550024,-0.1863139,290.01196,-60.260944,18.226458
4349525699000.0,4.783169495394862,7.497061387098002,4.182004691151285,0.32559118,-0.2837469,-0.2098322,289.98993,-60.30851,18.289328
4349530496000.0,4.698443537446956,7.619186894587338,4.209971618429029,0.26053402,-0.29779682,-0.24129178,289.97385,-60.36687,18.30713
4349535418000.0,4.629046193374903,7.753899140296179,4.201807330319563,0.19975294,-0.29840767,-0.2724459,289.9588,-60.4186,18.317665
4349540413000.0,4.562442918438051,7.884155192307692,4.204131235936583,0.13133603,-0.2751948,-0.29718593,289.9395,-60.479633,18.283539
4349545529000.0,4.519288271814445,7.975259346153845,4.276055646975925,0.06536258,-0.28008172,-0.3277292,289.93234,-60.5332,18.24367
4349551343000.0,4.480854402447839,8.060640608099227,4.345931260078856,-0.002443461,-0.29779682,-0.35124752,289.92477,-60.607292,18.166708
4349555475000.0,4.477603922934122,8.080143553063905,4.368684548792509,-0.06261369,-0.31490102,-0.37995818,289.92242,-60.673183,18.082632
4349560493000.0,4.473656462575981,8.10382839765073,4.396316688861509,-0.09040806,-0.33353242,-0.3924809,289.92233,-60.73801,17.982573
4349565432000.0,4.4752513429899725,8.091376529170464,4.44568803195989,-0.12614368,-0.33964106,-0.41905355,289.9284,-60.79378,17.874289
4349570519000.0,4.47969228935278,8.060289951002733,4.5078613274111206,-0.16126843,-0.35918877,-0.43982297,289.9439,-60.84316,17.770323
4349575671000.0,4.509841419332578,8.006477636481614,4.55208626333299,-0.1731803,-0.36254853,-0.4550946,289.95847,-60.889545,17.66089
4349580451000.0,4.561705477834999,7.935753969574621,4.575660835379545,-0.1704314,-0.36041048,-0.4633413,289.97833,-60.932503,17.552023
4349585581000.0,4.619636500208878,7.829242186318538,4.589600710130548,-0.15332718,-0.32650748,-0.4596761,289.98633,-60.961235,17.44321
4349590496000.0,4.676989160391645,7.702247569347258,4.593697270661445,-0.12522738,-0.29565877,-0.46303585,289.99628,-60.994804,17.333029
4349595423000.0,4.743451508697882,7.574800533963508,4.598444545160108,-0.086132,-0.25137106,-0.44532076,289.99228,-61.005894,17.246895
4349600430000.0,4.841834197354729,7.444794642998461,4.605471919374221,-0.056199603,-0.21288654,-0.41691554,289.98053,-61.01955,17.16182
4349605578000.0,4.942987399113358,7.311127711365135,4.612697188488313,-0.038179077,-0.19181168,-0.39278635,289.9583,-61.00997,17.106647
4349610412000.0,5.006469901135548,7.272761568948639,4.628350667813091,-0.04795292,-0.19700404,-0.36102137,289.92853,-60.99472,17.060751
4349617221000.0,5.0532813650982185,7.336595444038374,4.662395578940155,-0.07086037,-0.22785273,-0.30848694,289.8947,-60.972904,17.028267
4349621310000.0,5.0813929932585005,7.374929518827906,4.682840525569405,-0.129198,-0.23426682,-0.28985557,289.85593,-60.90172,17.035814
4349625568000.0,5.074743933096447,7.437999650172589,4.735104962010152,-0.1518,-0.25595254,-0.25259277,289.82123,-60.82262,17.067076
4349630423000.0,5.032260957969544,7.532406382050762,4.824791450944162,-0.2125811,-0.27550024,-0.22540927,289.78687,-60.721718,17.100721
4349635440000.0,4.954578106561515,7.67498396270392,4.876598102685895,-0.26206118,-0.25289822,-0.18997909,289.7409,-60.608723,17.149843
4349640444000.0,4.837957755520505,7.869351229472735,4.880917373276251,-0.29657507,-0.23396139,-0.16554448,289.69952,-60.48492,17.204884
4349645448000.0,4.63853894411116,8.13047214036171,4.859149278650198,-0.32284227,-0.21135938,-0.14996742,289.64404,-60.353027,17.246086
4349650435000.0,4.187698965328628,8.593952525275695,4.758026249580944,-0.34513888,-0.21013765,-0.14630222,289.58795,-60.21488,17.289938
4349655958000.0,3.7064223850494233,9.08698151276771,4.6494883196766885,-0.36102137,-0.20799962,-0.1414153,289.52267,-60.114323,17.29335
4349660428000.0,3.4992568475700163,9.280923913920924,4.596594991937809,-0.3631594,-0.2098322,-0.14508049,289.45905,-60.01474,17.295765
4349665517000.0,3.2668908246364112,9.494267487646749,4.535325208288067,-0.364992,-0.23365596,-0.1600467,289.3974,-60.06524,17.150917
4349670450000.0,3.1054704360872614,9.56462994296478,4.456684484010864,-0.37201694,-0.25992316,-0.17531833,289.33737,-60.11196,17.009686
4349675628000.0,2.9360330203346767,9.638486986069738,4.374138027431225,-0.37843102,-0.29657507,-0.21777347,289.2882,-60.228077,16.802608
4349680465000.0,2.8454240177475123,9.663666382824076,4.3215889624585415,-0.38240165,-0.31795537,-0.27672195,289.24594,-60.343155,16.59464
4349685412000.0,2.771873637350928,9.677039445840096,4.274784289182133,-0.3933972,-0.35063666,-0.33964106,289.22226,-60.457584,16.386341
4349691323000.0,2.6845266084516024,9.687358262159146,4.216087447073832,-0.3924809,-0.3915646,-0.40591997,289.2099,-60.62933,16.123932
4349695431000.0,2.628064503460373,9.6497167714878,4.153351716632116,-0.38912117,-0.4334089,-0.47250426,289.21417,-60.801926,15.856822
4349700545000.0,2.557775505182587,9.602857330569288,4.075252757167916,-0.38973203,-0.46639562,-0.54336464,289.2317,-61.00663,15.558208
4349705462000.0,2.479277737148528,9.471680653324512,3.975987266920278,-0.38973203,-0.48502702,-0.6123924,289.26416,-61.21388,15.254504
4349710611000.0,2.3814061140423424,9.210689544823024,3.8373358363380743,-0.40653083,-0.49968776,-0.66767573,289.31082,-61.41722,14.947881
4349715793000.0,2.2873806885843253,8.953066902585146,3.700812143586377,-0.42119157,-0.52534413,-0.72082096,289.37146,-61.64336,14.619142
4349720519000.0,2.26509433091506,8.78963340615511,3.619095279015183,-0.44868052,-0.52595496,-0.75319684,289.4328,-61.858208,14.289137
4349725487000.0,2.2416667759212148,8.617831118752566,3.53319401299959,-0.46822822,-0.52870387,-0.7724391,289.5051,-62.074978,13.956859
4349730435000.0,2.235587457734239,8.479639915152474,3.4620027600094803,-0.50426924,-0.52320606,-0.7870999,289.5779,-62.27649,13.624729
4349735432000.0,2.243148726433876,8.366220489887818,3.4015126498893977,-0.5345071,-0.51923543,-0.7993172,289.65308,-62.46869,13.296881
4349740613000.0,2.2519705604331883,8.246444400358149,3.33543770025582,-0.56169057,-0.51068336,-0.79351395,289.7293,-62.639015,12.985769
4349745443000.0,2.275636901441118,8.100501792530059,3.221049980378613,-0.59803706,-0.50335294,-0.79198676,289.8059,-62.79487,12.677274
4349750428000.0,2.3000627213012703,7.949875726272705,3.1029914330519315,-0.6200282,-0.49632803,-0.786489,289.88345,-62.933598,12.391369
4349755496000.0,2.4052494041916166,7.83185729645471,3.064578,-0.63255095,-0.49632803,-0.77304995,289.95892,-63.058727,12.114241
4349760444000.0,2.5448718904191616,7.732770504248646,3.064578,-0.63346726,-0.4999932,-0.752586,290.03122,-63.174328,11.846201
4349765431000.0,2.6122728537549404,7.655729699604743,3.0547362549407118,-0.6374379,-0.5195409,-0.7266242,290.11435,-63.276257,11.607899
4349770504000.0,2.625365723544736,7.594629670966583,3.0372792015540786,-0.6261369,-0.52473325,-0.691194,290.19028,-63.37426,11.381083
4349775458000.0,2.613719894760213,7.542832364476022,3.0030518378330373,-0.6151413,-0.52595496,-0.6579019,290.28027,-63.431812,11.208235
4349780456000.0,2.557041420692718,7.505046813735938,2.936927124037892,-0.60231316,-0.5235115,-0.63285637,290.36658,-63.48764,11.045905
4349785395000.0,2.4883457877428543,7.470379679381548,2.870947660817821,-0.5739079,-0.51893,-0.6096435,290.44672,-63.54263,10.903026
4349790488000.0,2.3891195282270368,7.4406117134574306,2.801489211809582,-0.5549711,-0.50488013,-0.5867361,290.52,-63.594227,10.767835
4349795434000.0,2.2957861848151846,7.425645539431996,2.738810890780648,-0.5152648,-0.48258355,-0.56077427,290.5907,-63.662315,10.630429
4349800440000.0,2.206840917082917,7.435908518139003,2.684075385371771,-0.5045747,-0.43127087,-0.5421429,290.64752,-63.724556,10.494504
4349805459000.0,2.1176646688311687,7.446198148608534,2.629197738218924,-0.49632803,-0.37690386,-0.52412236,290.69342,-63.808666,10.345978
4349810445000.0,1.9922904379918864,7.57599224592292,2.6138369693711967,-0.48380527,-0.31703907,-0.505491,290.72162,-63.892536,10.198515
4349817502000.0,1.7729524365111562,7.895860146855983,2.6366846629479377,-0.49571714,-0.18020524,-0.48899764,290.7129,-63.968353,10.042579
4349820483000.0,1.6803002355172414,8.030977932413792,2.646335927586207,-0.5381723,-0.12492194,-0.4841107,290.70416,-64.065056,9.8652725
4349825706000.0,1.6343127485635416,8.330120116041304,2.728771193589613,-0.5571091,-0.013439035,-0.4896085,290.64386,-64.161,9.670781
4349830667000.0,1.6585999400674778,8.650710729424393,2.845349621511093,-0.60048056,0.08368854,-0.48991394,290.57205,-64.235306,9.478023
4349835429000.0,1.6719550473302087,8.932102448074625,2.955297444481206,-0.6722572,0.18203785,-0.5015204,290.45206,-64.35575,9.201433
4349840481000.0,1.6808479787887145,9.216676626183254,3.0709055998713355,-0.72295904,0.27580565,-0.5158757,290.30942,-64.464386,8.920302
4349845437000.0,1.7057137020297597,9.482242650476916,3.172007304059519,-0.7809912,0.3032946,-0.5345071,290.1634,-64.551834,8.627654
4349850428000.0,1.7494812872796643,9.73390597050744,3.2595424745593284,-0.8527679,0.34300083,-0.5390886,289.99097,-64.6154,8.33091
4349856079000.0,1.7990366117130867,10.018848751812286,3.358653123426173,-0.8872818,0.37751472,-0.5644395,289.82352,-64.67032,8.020294
4349860436000.0,1.834896476339477,10.242271576993142,3.5079006444170595,-0.9611965,0.36682457,-0.5729916,289.65747,-64.687836,7.7222934
4349865816000.0,1.8795902380643552,10.511609621601396,3.6874607747734265,-0.9746355,0.30726522,-0.5723807,289.4984,-64.70816,7.4305367
4349870459000.0,1.9276526422798703,10.622522773010726,3.6948549848673817,-1.0180069,0.23762658,-0.5714644,289.34818,-64.70067,7.144987
4349876428000.0,1.989441246794712,10.7651117458219,3.704360916388127,-1.0366384,0.20097467,-0.5635232,289.21216,-64.67363,6.8771253
4349880440000.0,2.060735461420089,10.83175755030526,3.7403681786234,-1.058324,0.19883664,-0.5519168,289.08554,-64.62956,6.6226535
4349885450000.0,2.1650655584343896,10.899973495776532,3.8005586546625407,-1.0714576,0.18570304,-0.52839845,288.96967,-64.577896,6.3864985
4349890411000.0,2.304186491883289,10.908028709637488,3.873795530044208,-1.0778717,0.1853976,-0.4990769,288.86584,-64.514824,6.175053
4349895468000.0,2.621057709469496,10.625413949867374,4.015102820503979,-1.0830641,0.20525073,-0.47647488,288.7583,-64.44543,5.973055
4349900434000.0,2.9322268742970823,10.347884802740936,4.153867306251105,-1.0778717,0.22876903,-0.45478916,288.65744,-64.35584,5.8048215
4349905553000.0,2.983845064422111,10.094087713293742,4.178216817788945,-1.0708468,0.2657264,-0.4361578,288.54553,-64.26371,5.6420107
4349910459000.0,3.009601317889448,9.853695506258566,4.191095191055276,-1.0616838,0.3268129,-0.43127087,288.4203,-64.17292,5.4796143
4349915499000.0,3.0053833795501843,9.643285858492076,4.248367157859772,-1.0393872,0.40530908,-0.4269948,288.29614,-64.0099,5.389291
4349920455000.0,2.990188086801665,9.449544894189213,4.32054494716664,-1.0112875,0.47342056,-0.40866885,288.1568,-63.85284,5.299399
4349925453000.0,2.9549746687841942,9.23776128206687,4.405587257568389,-0.98532563,0.537256,-0.38453966,288.00024,-63.673923,5.215253
4349930421000.0,2.8537458048328266,8.972638198784194,4.530918169665653,-0.96852684,0.6096435,-0.35094208,287.82108,-63.501934,5.1304126
4349935406000.0,2.731862502461258,8.716188128734933,4.674594138752152,-0.97066486,0.6826419,-0.33444872,287.62134,-63.29888,5.039423
4349940445000.0,2.5461250543299907,8.486460154461664,4.874995163648333,-0.9450085,0.72234815,-0.2855795,287.40424,-63.10827,4.962128
4349946135000.0,2.3689505876354597,8.242316367418725,5.103503924160597,-0.93584555,0.7174612,-0.2556471,287.1726,-62.877907,4.8677316
4349950513000.0,2.2758450950435245,8.074726542973885,5.282266437271274,-0.93951076,0.74189585,-0.2434298,286.92065,-62.65342,4.7742925
4349955704000.0,2.165286811033572,7.886604260052811,5.507482066691815,-0.9477574,0.77824235,-0.20708331,286.64484,-62.39084,4.665734
4349960438000.0,2.0626766020935494,7.831023778574123,5.858066999321011,-0.95417154,0.8014552,-0.19792034,286.36963,-62.132896,4.5539093
4349965477000.0,1.953455469256884,7.771862383100716,6.2312392586193885,-0.9783007,0.79076505,-0.18478674,286.08118,-61.817158,4.433481
4349970490000.0,1.879114198353372,7.774434819027705,6.423764719315211,-1.0088439,0.79381937,-0.17898351,285.78485,-61.502823,4.3107476
4349975432000.0,1.8090161177295696,7.782681646976825,6.596948235415578,-1.0387764,0.80970186,-0.16218472,285.4864,-61.186024,4.1957293
4349980495000.0,1.7187501010666666,7.776323138909091,6.800150584072727,-1.0748174,0.7486154,-0.14569137,285.19055,-60.804405,4.0730286
4349985428000.0,1.6194933176888888,7.761052962666667,7.013934366933333,-1.1322387,0.7031059,-0.15424347,284.88965,-60.415306,3.9461663
4349990493000.0,1.518123636270129,7.7452760937189105,7.195856728134221,-1.1850786,0.70402217,-0.16646078,284.5894,-59.992825,3.8120716
4349995468000.0,1.4217177750442629,7.729208366292893,7.1556873676249895,-1.2330315,0.71685034,-0.1731803,284.29938,-59.563515,3.6837826
4350000456000.0,1.325059999005143,7.71309865284546,7.115413041952618,-1.2748758,0.74220127,-0.17623462,284.00058,-59.08777,3.5278971
4350006362000.0,1.1976596546310274,7.745601782275109,7.11002084353965,-1.3023647,0.73823065,-0.18142697,283.70874,-58.612072,3.3747118
4350010482000.0,1.106560494698517,7.777136154710949,7.113524837501109,-1.3066407,0.72418076,-0.1826487,283.4145,-58.14038,3.222091
4350016795000.0,1.0808030923498264,7.836552367117035,7.1258255239273325,-1.3020593,0.7049385,-0.19700404,283.12006,-57.683235,3.0479608
4350020473000.0,1.1065277375205405,7.875139267719555,7.135472232289574,-1.3045027,0.70646566,-0.21074851,282.82538,-57.231655,2.8757505
4350025459000.0,1.1773328297039058,7.89903252753045,7.170377820348593,-1.294118,0.69913524,-0.22388211,282.5371,-56.79835,2.681394
4350030422000.0,1.322057797144057,7.86409903149937,7.250226153716925,-1.2837334,0.66950834,-0.24312437,282.25815,-56.373062,2.489484
4350035433000.0,1.473116073842635,7.807113046111619,7.332004318298261,-1.2705997,0.6417139,-0.25961772,281.98816,-55.960274,2.3064144
4350040447000.0,1.6312727263037512,7.719248315645014,7.415475720494053,-1.248914,0.634689,-0.26297748,281.7223,-55.561024,2.1270642
4350045414000.0,1.7361369657116663,7.629703820994728,7.513965148292459,-1.2305881,0.61544675,-0.27000242,281.48364,-55.148952,1.9781889
4350050498000.0,1.6617409436778974,7.529269088318435,7.670196868362748,-1.221425,0.59986967,-0.2782491,281.24734,-54.748722,1.8316805
4350055456000.0,1.58918872549469,7.431323493391398,7.822556598517839,-1.1972959,0.57696223,-0.28191432,281.0274,-54.337482,1.7219638
4350060440000.0,1.4574206655206288,7.390417196168959,7.939266874656188,-1.1844677,0.5681047,-0.28527406,280.80994,-53.934185,1.6125729
4350065464000.0,1.28727338064833,7.385690786738703,8.033793089194498,-1.1591167,0.56016344,-0.29260445,280.5995,-53.549587,1.5069817
4350070486000.0,1.123430685797128,7.406923879510309,8.129973453332106,-1.1487321,0.58123827,-0.30024028,280.37396,-53.13473,1.3802518
4350075466000.0,0.9653921918722386,7.44643337693299,8.226552173877025,-1.1246029,0.6072,-0.30543262,280.15063,-52.7395,1.2551459
4350080598000.0,0.823060422220554,7.465222393138654,8.301121660160648,-1.0998629,0.61361414,-0.31215215,279.92032,-52.344868,1.1004946
4350085953000.0,0.7037151962615419,7.453673023721943,8.343470420013514,-1.0925325,0.6230826,-0.32436943,279.68613,-51.9602,0.94167286
4350090485000.0,0.6027119163276031,7.443898655431274,8.379310677651828,-1.0665708,0.63529986,-0.3200934,279.4383,-51.589497,0.75494385
4350095437000.0,0.5080396718700565,7.424536830131827,8.482479186016949,-1.0650436,0.6411031,-0.321926,279.19397,-51.221542,0.5678302
4350100433000.0,0.4179347231468927,7.402010609416196,8.608626069067796,-1.0454959,0.62796944,-0.3222314,278.95108,-50.873318,0.38746765
4350105601000.0,0.3434974722285546,7.37198538714749,8.733538647145524,-1.0225884,0.60231316,-0.3118467,278.6988,-50.52872,0.18852721
4350110453000.0,0.2841414072310111,7.340024261471947,8.847684605089908,-1.0045679,0.57360244,-0.30879238,278.4524,-50.19507,-0.0042637456
4350115412000.0,0.213544408145763,7.2971204560397185,8.963072606671165,-0.9947941,0.54550266,-0.30634892,278.21008,-49.84999,-0.20001738
4350120505000.0,0.1336090509050419,7.2453977587968765,9.080624526077315,-0.9850202,0.50885075,-0.30024028,277.9754,-49.51688,-0.382642
4350125544000.0,0.0772077049845132,7.2209125,9.164113617256636,-0.9941832,0.46944994,-0.29779682,277.7469,-49.167507,-0.56609863
4350130462000.0,0.0424741259745575,7.2209125,9.216214133112093,-0.9947941,0.42271876,-0.30207285,277.52838,-48.83032,-0.73688847
4350135427000.0,0.0004480496940393,7.227147667593226,9.23716586884604,-0.9828822,0.38637227,-0.28160888,277.31,-48.477898,-0.9080125
4350140441000.0,-0.0559498453330723,7.245946904101008,9.194867574434763,-0.9816604,0.36865717,-0.26816985,277.09976,-48.129543,-1.0718867
4350145426000.0,-0.1125216789014181,7.258022939069526,9.137480148823936,-0.9841039,0.32436943,-0.2602286,276.8999,-47.782207,-1.2245462
4350150471000.0,-0.1710144035918367,7.2538449775510205,9.04138476530612,-0.98349303,0.27977628,-0.25289822,276.7011,-47.443344,-1.3670058
4350155870000.0,-0.2339266163682081,7.247601366130972,8.941334288728545,-0.98563105,0.24037547,-0.23335053,276.508,-47.11415,-1.5077795
4350160475000.0,-0.2917832181392806,7.218672984694435,8.893120487482236,-0.9636399,0.20250183,-0.22327125,276.3238,-46.798676,-1.637062
4350165475000.0,-0.3503186736882818,7.17243573485846,8.829222799292298,-0.95569867,0.1731803,-0.21074851,276.13266,-46.50187,-1.7654529
4350171466000.0,-0.392811418805135,7.021350326859776,8.67813788429888,-0.9630291,0.124005646,-0.19517145,275.95032,-46.21284,-1.876501
4350175509000.0,-0.4214874609529295,6.9193910037853845,8.576178893926926,-0.94989544,0.07452556,-0.17531833,275.77234,-45.937126,-1.984712
4350180435000.0,-0.3943383982360248,6.794179213726708,8.487585313043478,-0.929126,0.046120327,-0.15363261,275.5958,-45.66713,-2.0810304
4350185476000.0,-0.3429346547684117,6.665669810328305,8.410479930434782,-0.9288206,0.011301007,-0.14905111,275.42923,-45.40024,-2.1633153
4350190456000.0,-0.2317946905602504,6.5048199168596765,8.316309691601461,-0.9120218,-0.04184427,-0.14355333,275.26974,-45.14556,-2.2395537
4350195507000.0,-0.0501141254021909,6.302952920855503,8.200235234846113,-0.88697636,-0.09437868,-0.13530666,275.11465,-44.89819,-2.305497
4350200407000.0,0.1032600811189941,6.108211543134261,8.093964842927706,-0.86101454,-0.12767084,-0.122478485,274.97296,-44.648834,-2.3509243
4350205498000.0,0.2433747431414459,5.906796586744499,7.988879013291424,-0.8371908,-0.13530666,-0.116980694,274.83514,-44.410625,-2.3897953
4350210435000.0,0.3843881126818358,5.730087386406068,7.893182790159471,-0.79779,-0.13530666,-0.13194689,274.72354,-44.168728,-2.397343
4350217441000.0,0.5996874930746792,5.534360429229872,7.775747133605601,-0.7495316,-0.10903945,-0.1328632,274.60263,-43.94095,-2.4047928
4350220462000.0,0.6934711360311357,5.458539823501829,7.718666697458501,-0.70921457,-0.099265605,-0.13469578,274.5075,-43.70304,-2.385791
4350225797000.0,0.8611752574791335,5.343542880333865,7.6036692539623,-0.6960809,-0.070554934,-0.1386664,274.4026,-43.475212,-2.3769472
4350230422000.0,1.0057521581153333,5.250047765801031,7.524826129845332,-0.68508536,-0.043982297,-0.14752395,274.31607,-43.244762,-2.3467078
4350235648000.0,1.163437602281841,5.187929017089937,7.5821664365094525,-0.6750061,-0.020158553,-0.16279559,274.22528,-43.021503,-2.324264
4350240564000.0,1.3061285528719129,5.127502239775991,7.633848159735784,-0.6774496,-0.014660766,-0.172264,274.15393,-42.790546,-2.2763872
4350245472000.0,1.364623540235497,5.037510164761631,7.6518466968983345,-0.66828656,0.025350908,-0.17165314,274.0711,-42.569393,-2.2421072
4350250857000.0,1.4264373467594162,4.937238735833051,7.671191379708178,-0.6563747,0.07147124,-0.183565,274.00256,-42.332047,-2.1881354
4350255345000.0,1.411852691991856,4.810839274414659,7.6760527959280624,-0.65301496,0.09193522,-0.19975294,273.931,-42.098637,-2.1383336
4350260319000.0,1.3910279540690018,4.674997715959968,7.689091266894917,-0.6582073,0.11453723,-0.22235495,273.85965,-41.85182,-2.0913284
4350265294000.0,1.3450188343692389,4.562065958432096,7.743465820050917,-0.64873886,0.14966199,-0.24740042,273.78516,-41.613785,-2.0551221
4350271264000.0,1.285292864877784,4.424763528408474,7.804408861097229,-0.63621616,0.18203785,-0.2782491,273.71738,-41.356945,-2.0318027
4350275314000.0,1.1925939306029332,4.3109968065181965,7.795981693253666,-0.6435465,0.23304509,-0.2883284,273.63974,-41.101112,-2.020565
4350280519000.0,1.076363856843311,4.1674918958063545,7.789578585914931,-0.65270954,0.2593123,-0.31887165,273.56955,-40.825214,-2.0322723
4350285305000.0,1.0033133782398644,4.067047395358103,7.835235090347644,-0.65576386,0.28130344,-0.35277468,273.49326,-40.55309,-2.0556877
4350290531000.0,0.92929671777721,3.96271919333674,7.883097863873275,-0.6750061,0.28863382,-0.37690386,273.41718,-40.259007,-2.1035697
4350295306000.0,0.9339701178794072,3.934678792723557,7.9017913666837,-0.68875057,0.29535335,-0.40683624,273.34573,-39.96957,-2.1619112
4350300549000.0,0.937992526694875,3.9089407699153753,7.921622575496815,-0.70005155,0.28863382,-0.43463063,273.28073,-39.65611,-2.235805
4350305425000.0,0.9335524319149948,3.922261054255016,7.9349429061994865,-0.7119634,0.28191432,-0.45173484,273.21875,-39.343155,-2.3126779
4350310687000.0,0.92895025,3.9400425111292514,7.955615263990929,-0.7244862,0.29138273,-0.47342056,273.16376,-39.02384,-2.3948283
4350315348000.0,0.92895025,4.029114918693877,8.109467792653062,-0.7473936,0.24862215,-0.50946164,273.12634,-38.70281,-2.4674242
4350320372000.0,0.92895025,4.125124310585034,8.275302399818594,-0.75441855,0.22296582,-0.52503866,273.0867,-38.386448,-2.5446548
4350325418000.0,0.9847571497617866,4.165359513588089,8.42428207146402,-0.77182823,0.21044308,-0.5519168,273.06268,-38.065197,-2.6215281
4350330361000.0,1.0552358174987593,4.188852672674938,8.565239750372209,-0.79809546,0.19394971,-0.5720753,273.0455,-37.74467,-2.6911771
4350335349000.0,1.2845984567299007,4.096797192773261,8.655417882565493,-0.80970186,0.18997909,-0.58062744,273.03165,-37.423065,-2.761599
4350341003000.0,1.602536309448961,3.95005653535682,8.738570499548329,-0.8145888,0.15851954,-0.6081163,273.03375,-37.101242,-2.8267243
4350345364000.0,1.73729284233162,3.858106130213687,8.739334656748715,-0.83291477,0.15088372,-0.6075055,273.0357,-36.762142,-2.877494
4350350503000.0,1.8171660428996483,3.764920690938599,8.694960682174736,-0.8350528,0.15302174,-0.6123924,273.04828,-36.432182,-2.9272223
4350355529000.0,1.8707099217358487,3.681979536981132,8.66216113490566,-0.84421575,0.16890424,-0.61636305,273.0824,-36.063377,-2.918425
4350360471000.0,1.879639836,3.61500518,8.64876645,-0.83077675,0.21319197,-0.61483586,273.11066,-35.707386,-2.9157994
4350365508000.0,1.8763508683852588,3.5512641437551697,8.63725197536991,-0.82344633,0.25320363,-0.61422503,273.14737,-35.339314,-2.8999603
4350371675000.0,1.822072653515302,3.491557994044665,8.631824040529363,-0.80573124,0.2941316,-0.6102544,273.17505,-34.984806,-2.8930166
4350375486000.0,1.7824649717165033,3.4604336824619457,8.628855692677938,-0.7855727,0.33658674,-0.6010914,273.19977,-34.6264,-2.8933144
4350380686000.0,1.6176754355875098,3.5233533383189943,8.631851926358221,-0.77671516,0.37384954,-0.6056729,273.22083,-34.276093,-2.9025195
4350385445000.0,1.4668613197340714,3.580936923362012,8.634594056374466,-0.7470882,0.40408736,-0.6001751,273.23083,-33.93496,-2.9273398
4350390461000.0,1.3079027979604116,3.6416301913964255,8.637484269478371,-0.7367035,0.42394048,-0.58062744,273.23425,-33.597244,-2.9555295
4350395428000.0,1.2034571971263834,3.734990291360551,8.6542487551381,-0.71837753,0.43951756,-0.57848936,273.23633,-33.27606,-2.9902744
4350400562000.0,1.116581065237608,3.8447285984004473,8.677110882544406,-0.6969972,0.44135013,-0.56138515,273.22906,-32.96517,-3.0195372
4350405481000.0,1.0249019309904153,3.9406876677316296,8.676617846645367,-0.66706485,0.42455134,-0.5531385,273.2051,-32.68791,-3.1001189
4350411243000.0,0.91054585890683,4.045513876418272,8.657558617390553,-0.6426302,0.41996986,-0.5479461,273.17523,-32.42072,-3.1796596
4350417427000.0,0.8027364950462752,4.134301205325444,8.685646730541649,-0.61819565,0.41050145,-0.54092115,273.14044,-32.183678,-3.269865
4350420460000.0,0.7564631354877864,4.167353726627219,8.720902421939009,-0.5900958,0.39400807,-0.5320636,273.1052,-31.95942,-3.3539066
4350425635000.0,0.6775100739265666,4.223748978106508,8.78105679153391,-0.5534439,0.37659842,-0.54061574,273.0656,-31.768946,-3.4587572
4350430459000.0,0.6176603642701904,4.278669813257411,8.826902314439712,-0.5180137,0.38240165,-0.5381723,273.01962,-31.590313,-3.5597894
4350435428000.0,0.5638802159175867,4.336586806380944,8.86827162609754,-0.48197266,0.3735441,-0.5381723,272.98053,-31.425621,-3.65236
4350440477000.0,0.5184932942878417,4.3683696200723325,8.905084097117328,-0.4804455,0.36713,-0.5360342,272.93536,-31.267086,-3.7662902
4350445439000.0,0.493219317466227,4.343095722423146,8.930358047548133,-0.45142943,0.36102137,-0.5342017,272.89093,-31.12963,-3.8754613
4350450564000.0,0.47884035,4.318150416986196,8.93417057285276,-0.43066,0.35216382,-0.54641896,272.84448,-31.00055,-3.995532
4350455462000.0,0.47884035,4.2956681650306745,8.911688226993865,-0.410196,0.34025195,-0.5525276,272.79694,-30.882296,-4.1093345
4350460471000.0,0.4839843200785894,4.270545020453401,8.893423792846347,-0.40103304,0.33200526,-0.559858,272.75504,-30.760664,-4.2254205
4350465425000.0,0.498324909706801,4.241863731385391,8.883863695919397,-0.39095375,0.3210097,-0.5656612,272.71585,-30.647335,-4.3357983
4350470460000.0,0.5034628922219634,4.209679097817646,8.888654207362535,-0.3830125,0.31948254,-0.5742133,272.68344,-30.532595,-4.447178
4350475515000.0,0.4921836035104069,4.172081259397329,8.918732164026096,-0.36957347,0.310625,-0.5934556,272.65707,-30.424145,-4.553726
4350480471000.0,0.48112521481516,4.135219758465362,8.948221056849954,-0.36987892,0.29932398,-0.6010914,272.63092,-30.311863,-4.656011
4350485422000.0,0.4429509302894709,4.099689571201357,8.986215930336126,-0.3576616,0.30757064,-0.6065892,272.60663,-30.208702,-4.7607884
4350490477000.0,0.3967525557957798,4.063757584932668,9.027281440356273,-0.36346483,0.30940324,-0.6081163,272.58502,-30.102371,-4.8591805
4350495541000.0,0.39264908,4.02166958812705,9.023856777422194,-0.3555236,0.30207285,-0.61269784,272.5714,-29.989225,-4.9608407
4350500479000.0,0.39264908,3.9800508488359063,9.016289575886072,-0.34972036,0.29352075,-0.6093381,272.55524,-29.876366,-5.0590982
4350505543000.0,0.3847673341325043,3.935516845618807,9.011775,-0.33383787,0.29993483,-0.6123924,272.54037,-29.760098,-5.1686954
4350510434000.0,0.3665663808568098,3.890014486186128,9.011775,-0.3323107,0.29229903,-0.6093381,272.52563,-29.644058,-5.268711
4350515401000.0,0.3420572535443279,3.844097421887512,9.024059532697809,-0.3118467,0.28619036,-0.5946773,272.51642,-29.526375,-5.3695292
4350520495000.0,0.3048528627683508,3.797591872716873,9.061263700095328,-0.29626966,0.28955013,-0.57971114,272.5052,-29.41034,-5.467727
4350525452000.0,0.2592160252181942,3.76021411972009,9.089545984255029,-0.27580565,0.29077184,-0.5723807,272.49475,-29.294447,-5.5656977
4350530594000.0,0.1826388014627272,3.745855900573428,9.09433215725532,-0.2452624,0.27977628,-0.5558874,272.47858,-29.188976,-5.65555
4350535464000.0,0.1141160207855988,3.738276996462561,9.099627185221763,-0.22449298,0.27366763,-0.5510005,272.4678,-29.072922,-5.7529616
4350540452000.0,0.060505506871072,3.755432393517687,9.10820481657389,-0.20861048,0.27397305,-0.54305923,272.4519,-28.967072,-5.844043
4350545438000.0,0.0069164887520201,3.7725809119051896,9.11677900861914,-0.18936823,0.2556471,-0.54183745,272.438,-28.8657,-5.9441543
4350550517000.0,-0.0476720838566169,3.790049288337224,9.12551312843419,-0.16432275,0.24709499,-0.5335908,272.41815,-28.773,-6.042054
4350555502000.0,-0.1012503540779313,3.807194367390914,9.134085600826,-0.15057829,0.24465153,-0.5323691,272.4007,-28.684223,-6.135212
4350560579000.0,-0.1284667975680699,3.8454319674008,9.1532043837004,-0.13164146,0.2452624,-0.54367006,272.38464,-28.60544,-6.2247505
4350565442000.0,-0.1457782053823994,3.8887104530433976,9.1748436265217,-0.10629055,0.27122417,-0.5439755,272.36154,-28.534372,-6.3161016
4350570509000.0,-0.1584707279939265,3.9204417381430017,9.189398924726236,-0.087964594,0.25595254,-0.54305923,272.3421,-28.471272,-6.41995
4350575677000.0,-0.1675795764783288,3.9432138474648015,9.19850795868225,-0.0888809,0.25686884,-0.5491679,272.31818,-28.41072,-6.532546
4350580629000.0,-0.1705417178594856,3.9570620021405145,9.188584659761782,-0.082161374,0.24648413,-0.5458081,272.29755,-28.36163,-6.640384
4350585413000.0,-0.1665873409218021,3.961016379078198,9.156949809425168,-0.08582657,0.22082779,-0.53969944,272.27936,-28.310099,-6.742377
4350590497000.0,-0.1648097229811475,3.9668020017854,9.12354784835849,-0.07360926,0.2144137,-0.54702985,272.26624,-28.26529,-6.84829
4350596197000.0,-0.1872514066600105,3.989243672073765,9.088282299524286,-0.070249505,0.20708331,-0.5467244,272.25284,-28.218319,-6.9432454
4350600501000.0,-0.2041968464062958,4.00618910170905,9.061653716685266,-0.07086037,0.22296582,-0.5580254,272.2428,-28.176634,-7.0435147
4350605585000.0,-0.2242132533928466,4.026205496752217,9.030199321900511,-0.03848451,0.23579398,-0.550695,272.22885,-28.14672,-7.1363263
4350610448000.0,-0.2471263493947131,4.066401522071192,8.97690991236107,-0.031154128,0.2003638,-0.54153204,272.22125,-28.109879,-7.2199135
4350615445000.0,-0.2722830921868429,4.116714925097627,8.912220977921297,-0.053145275,0.19486602,-0.537256,272.20673,-28.07448,-7.311615
4350620526000.0,-0.2970685175903614,4.16759818810241,8.846906542168675,-0.05681047,0.18692477,-0.52595496,272.18652,-28.059784,-7.396744
4350625537000.0,-0.3018867248995984,4.210962305441767,8.793906664257028,-0.03848451,0.18081611,-0.5149594,272.16537,-28.045547,-7.478255
4350630592000.0,-0.3070361947612359,4.255283451825843,8.73986554985955,-0.053145275,0.17287487,-0.50946164,272.14478,-28.036562,-7.5653825
4350635442000.0,-0.31635552230939,4.306539602508026,8.679289692114766,-0.044898596,0.17287487,-0.5045747,272.1212,-28.03951,-7.6495585
4350640533000.0,-0.3248787394154876,4.358668166790767,8.615950976545047,-0.048258353,0.16462818,-0.5045747,272.10345,-28.04277,-7.732095
4350645488000.0,-0.3116286248306031,4.380751675725986,8.558534037788533,-0.03573562,0.1600467,-0.50335294,272.0836,-28.05282,-7.812825
4350650972000.0,-0.2969639167814594,4.405192838793746,8.49498721798213,-0.020463986,0.1704314,-0.49235737,272.0577,-28.076712,-7.897589
4350655332000.0,-0.2743470432144798,4.47743974453745,8.472094046744212,-0.014660766,0.17623462,-0.48380527,272.03348,-28.1008,-7.9783826
4350660584000.0,-0.2475672330151441,4.56606612271617,8.443527100928188,-0.026572637,0.17867808,-0.47311515,272.0051,-28.124073,-8.05734
4350665708000.0,-0.2283892950297997,4.666750344699561,8.400376863116756,-0.018936822,0.17104226,-0.44806966,271.97495,-28.161716,-8.129132
4350670854000.0,-0.2111021764793968,4.768746386853248,8.377874886295569,-0.029932396,0.15668693,-0.42730024,271.94818,-28.201765,-8.194169
4350675310000.0,-0.2155093045182278,4.865703249726325,8.562973987813693,-0.028099801,0.16218472,-0.41080686,271.91467,-28.247545,-8.258034
4350680487000.0,-0.2206075833077818,4.97479612481079,8.747431481564139,-0.035430185,0.12858713,-0.39828414,271.8844,-28.306673,-8.303331
4350685298000.0,-0.2250781861517562,5.032913854414904,8.546254096836794,-0.016493361,0.13103059,-0.38759398,271.84512,-28.373072,-8.355954
4350690694000.0,-0.2312322042568542,5.093472156709956,8.329274806637807,0.019242255,0.13255776,-0.36987892,271.8077,-28.440512,-8.393313
4350695327000.0,-0.2552415902344877,5.069462787445888,8.285257963924963,-0.040927973,0.14538592,-0.36743546,271.77008,-28.484514,-8.434014
4350700292000.0,-0.2809714847691197,5.043732910822511,8.238086881673881,-0.07513642,0.16187929,-0.35888332,271.71964,-28.575739,-8.479653
4350705411000.0,-0.2907059744544709,5.013587864068909,8.236682159967186,-0.09407325,0.17470746,-0.3631594,271.67133,-28.651957,-8.528107
4350710364000.0,-0.2950295538419469,4.983322916707684,8.249652690456658,-0.10170906,0.18051068,-0.3652974,271.61972,-28.720587,-8.576489
4350715360000.0,-0.29688102,4.967565766588785,8.232831415887851,-0.12003502,0.18203785,-0.3643811,271.56873,-28.777702,-8.635171
4350720376000.0,-0.29688102,4.962685969026818,8.193792831572532,-0.13133603,0.18417588,-0.35827246,271.51666,-28.83345,-8.693789
4350725501000.0,-0.3160608352667579,4.9543926993160055,8.156216430916553,-0.13988814,0.20005837,-0.35185838,271.46497,-28.875746,-8.756914
4350730362000.0,-0.3454533579690624,4.944595147416606,8.121924973692517,-0.15515977,0.20372356,-0.3549127,271.41602,-28.911839,-8.816738
4350735659000.0,-0.3610476350617509,4.9416323,8.084732039795078,-0.16554448,0.18173242,-0.3594942,271.36816,-28.948,-8.875801
4350740377000.0,-0.3693146449236117,4.9416323,8.051664172994236,-0.1151481,0.21868975,-0.35796702,271.3111,-28.996305,-8.948705
4350745410000.0,-0.3684138142948782,4.931468982058735,8.07559408604791,-0.10140363,0.20311269,-0.35002577,271.26492,-29.030579,-9.0115
4350750497000.0,-0.3586479164097424,4.9119371353011925,8.153721116167185,-0.1826487,0.18417588,-0.33841935,271.21332,-29.051529,-9.080329
4350755480000.0,-0.3268099066806562,4.885804707172834,8.223210216329646,-0.24007004,0.17470746,-0.34208453,271.16785,-29.082844,-9.150237
4350760539000.0,-0.2759762746213277,4.853456108117131,8.287907655713468,-0.2510656,0.16768251,-0.33750305,271.12018,-29.104805,-9.211895
4350765513000.0,-0.2336443779079539,4.816548464802401,8.317858456128064,-0.2678644,0.17898351,-0.33169982,271.07205,-29.099709,-9.270617
4350770523000.0,-0.2000417189384692,4.773345071905953,8.308257501650825,-0.3173445,0.20433442,-0.3286455,271.0227,-29.082384,-9.32969
4350775461000.0,-0.179904275633614,4.731600808556662,8.315421570826953,-0.35796702,0.19914207,-0.32711834,270.98282,-29.049374,-9.371203
4350780478000.0,-0.1753056102651225,4.690212815438361,8.343014110451762,-0.38087448,0.20647246,-0.3210097,270.93552,-29.00848,-9.420044
4350785422000.0,-0.1842091276899879,4.643630762967431,8.369000569360676,-0.3885103,0.21533,-0.32559118,270.89752,-28.95183,-9.46418
4350790468000.0,-0.2182131518516284,4.585337999396863,8.393289136308805,-0.38515055,0.22510384,-0.32589662,270.85553,-28.893549,-9.508032
4350795454000.0,-0.2781619089461745,4.536876218395546,8.427807875850691,-0.39828414,0.2434298,-0.31948254,270.81506,-28.818106,-9.554366
4350800442000.0,-0.3832427920258472,4.504038466006737,8.480348348250498,-0.41416663,0.25595254,-0.31887165,270.77527,-28.743893,-9.601588
4350805766000.0,-0.4954020986650168,4.4689887078435415,8.536428034508834,-0.42210788,0.2959642,-0.31215215,270.72583,-28.658266,-9.66467
4350810481000.0,-0.5952350557088619,4.444988874155015,8.586344377534957,-0.43799037,0.31337386,-0.29901853,270.6757,-28.568043,-9.723044
4350816604000.0,-0.7255555611445504,4.423268922215019,8.65150423335494,-0.4615087,0.33750305,-0.29077184,270.6182,-28.475214,-9.7914915
4350820502000.0,-0.8028679575,4.418609788653846,8.685224588461539,-0.4636467,0.3408628,-0.28221974,270.552,-28.371296,-9.886348
4350825683000.0,-0.8941374671739131,4.431055581655518,8.714265046488293,-0.48380527,0.34116822,-0.267559,270.4789,-28.258558,-9.982333
4350830496000.0,-0.978924216847826,4.442617365426421,8.741242796822743,-0.49021935,0.3481932,-0.26175576,270.4007,-28.141958,-10.101793
4350835417000.0,-1.0592371299671677,4.4650577074221465,8.773611901999802,-0.49480084,0.3726278,-0.23518312,270.31073,-28.024448,-10.218285
4350840542000.0,-1.1422516770271616,4.489473735678041,8.807794035618347,-0.5103779,0.38973203,-0.21624629,270.22104,-27.904171,-10.33245
4350845431000.0,-1.190497484515335,4.4915223,8.87445951770806,-0.52595496,0.40439278,-0.1966986,270.11505,-27.78615,-10.466039
4350850420000.0,-1.2366848213727042,4.4915223,8.945840055013623,-0.54305923,0.4111123,-0.18692477,270.00546,-27.665989,-10.5976925
4350855448000.0,-1.2623137246645757,4.481186204155776,9.012228258233142,-0.5647449,0.41416663,-0.18020524,269.88818,-27.542875,-10.742659
4350860461000.0,-1.2748616418888308,4.464455545948772,9.0749680627287,-0.5684101,0.4279111,-0.16890424,269.76486,-27.423016,-10.886801
4350865393000.0,-1.2939132812650689,4.424537592710254,9.140486838746275,-0.5946773,0.43982297,-0.16126843,269.64166,-27.28507,-11.034158
4350870445000.0,-1.328221921259396,4.331904433101688,9.215965911218266,-0.61391956,0.4370741,-0.15332718,269.51563,-27.151136,-11.176393
4350875450000.0,-1.3622113795277266,4.2401330625868665,9.29074278329315,-0.63194007,0.43127087,-0.14019357,269.38843,-27.002842,-11.317269
4350880420000.0,-1.3954328561174552,4.157802861337683,9.344182862969005,-0.6365216,0.41508293,-0.13255776,269.2623,-26.855848,-11.451341
4350885558000.0,-1.42923085568816,4.0817572851034605,9.37798108311153,-0.6386596,0.41722095,-0.12461651,269.13092,-26.70815,-11.583837
4350890475000.0,-1.4652679375939086,4.01004910919797,9.407913464873095,-0.6435465,0.41691554,-0.1142318,269.00708,-26.528389,-11.717072
4350895433000.0,-1.518293319746193,3.942562323248731,9.427195303045686,-0.65209866,0.4111123,-0.110872045,268.8831,-26.350554,-11.846394
4350900445000.0,-1.569127579770604,3.8674629328831744,9.446335572194986,-0.64904433,0.419359,-0.10048734,268.7559,-26.160019,-11.982675
4350905508000.0,-1.6094925826010544,3.76430783198594,9.464275479789103,-0.65393126,0.44043383,-0.100792766,268.62927,-25.968231,-12.118811
4350910553000.0,-1.6474457251348182,3.664861700242282,9.481744058225871,-0.6426302,0.43768495,-0.11056661,268.51227,-25.768007,-12.257662
4350915458000.0,-1.6511170572567408,3.617134804345448,9.492757786244628,-0.63316184,0.43004912,-0.10629055,268.38907,-25.57088,-12.395796
4350923206000.0,-1.6580160750905604,3.540083969443853,9.510120000213083,-0.6221663,0.4569272,-0.1142318,268.2727,-25.357304,-12.550893
4350926149000.0,-1.679035855273812,3.4830303117302366,9.516125777114851,-0.63071835,0.46089783,-0.10842858,268.155,-25.146385,-12.6927595
4350930443000.0,-1.7097048787555935,3.3997858651715323,9.524888538248456,-0.6267477,0.47250426,-0.10293079,268.03552,-24.934357,-12.843423
4350935432000.0,-1.747507757525999,3.285148897920088,9.523660105637658,-0.6236934,0.48899764,-0.096516706,267.9127,-24.724436,-12.992349
4350940482000.0,-1.7872145687830687,3.15720483068783,9.514836195767195,-0.6062838,0.5112942,-0.09712757,267.7876,-24.523642,-13.142801
4350945411000.0,-1.8171798588439132,3.0479151609009807,9.511201701688416,-0.59040123,0.5143485,-0.08277224,267.66327,-24.30953,-13.296883
4350950430000.0,-1.8348993748801887,2.9593174697043425,9.514745678905848,-0.57726765,0.5290093,-0.07941248,267.5374,-24.102886,-13.457744
4350955621000.0,-1.8532261347415764,2.8676835555776745,9.518411107424612,-0.54825157,0.5317582,-0.07513642,267.41473,-23.884901,-13.62231
4350960454000.0,-1.8718909209825143,2.7953451535179017,9.564815087323066,-0.5311473,0.5305365,-0.080634214,267.2921,-23.671118,-13.786864
4350965532000.0,-1.8921369619483763,2.7244839044338054,9.630615037572856,-0.50976706,0.52473325,-0.0852157,267.1681,-23.470987,-13.9468155
4350970522000.0,-1.9032926054333643,2.706693865778192,9.658014662907735,-0.48380527,0.53023106,-0.09101892,267.04913,-23.258636,-14.113082
4350975551000.0,-1.9122696750792167,2.702205354389562,9.67596861472507,-0.46731192,0.5290093,-0.09743301,266.9328,-23.053286,-14.273241
4350980430000.0,-1.9153614,2.690092112342216,9.658375432941796,-0.44135013,0.5458081,-0.108123146,266.82047,-22.844105,-14.440708
4350985478000.0,-1.9153614,2.6731413106591866,9.62023621765428,-0.4370741,0.5497787,-0.11728613,266.7109,-22.637213,-14.601609
4350991331000.0,-1.884940208138263,2.687242342441478,9.576601962590244,-0.4251622,0.56046885,-0.14355333,266.6108,-22.436533,-14.770632
4350995478000.0,-1.8371535859221175,2.726340450776635,9.54619214132575,-0.37018433,0.5140431,-0.16615535,266.5182,-22.252342,-14.922732
4351000498000.0,-1.7999515335699496,2.7208649145716257,9.544020462782216,-0.32284227,0.50885075,-0.17501289,266.4265,-22.0695,-15.089763
4351005522000.0,-1.780977277905945,2.6686858477077786,9.57248187104407,-0.3463606,0.514654,-0.17348573,266.34198,-21.884811,-15.245434
4351010464000.0,-1.7717092,2.6563531415163784,9.573229512697829,-0.35308012,0.52412236,-0.16646078,266.2606,-21.729261,-15.389624
4351015578000.0,-1.7717092,2.6833916519322782,9.546190908170775,-0.3576616,0.5390886,-0.14905111,266.17435,-21.571869,-15.532414
4351020637000.0,-1.7705101774177785,2.683873146288667,9.510937661266672,-0.34513888,0.5314528,-0.12339478,266.09158,-21.409378,-15.663707
4351025487000.0,-1.767266864799944,2.6384666680399413,9.462287971999162,-0.34574974,0.5235115,-0.11911872,266.00793,-21.244898,-15.796397
4351030475000.0,-1.7639312682354584,2.591768211647232,9.412254023531876,-0.33292156,0.5009095,-0.102319926,265.9147,-21.09993,-15.919219
4351035426000.0,-1.7943001353867485,2.5580059939586017,9.348814194414182,-0.3304781,0.5045747,-0.09254608,265.8199,-20.95454,-16.044521
4351040487000.0,-1.866304075586808,2.538805070218877,9.267209641972864,-0.31703907,0.5216789,-0.06566802,265.71646,-20.821201,-16.161318
4351045402000.0,-1.92481194379352,2.511152370717668,9.197729333859437,-0.3100141,0.5204572,-0.03726278,265.6161,-20.681446,-16.275564
4351050521000.0,-1.9703264171014765,2.470189297214743,9.138560233404512,-0.29718593,0.52442783,-0.00580322,265.50473,-20.552048,-16.390053
4351055449000.0,-2.0194365032178654,2.437316678231053,9.090812423773516,-0.2864958,0.5222898,0.020463986,265.38492,-20.428684,-16.515974
4351061207000.0,-2.0921593243537897,2.41792400355196,9.061723234570072,-0.25992316,0.52931476,0.04428773,265.2556,-20.317812,-16.639782
4351065843000.0,-2.1513050853671665,2.4037786,9.04018395916955,-0.24770586,0.52290064,0.07269296,265.11633,-20.207453,-16.766188
4351070583000.0,-2.217624701514802,2.4037786,9.036693744636676,-0.22052236,0.52106804,0.101098195,264.9694,-20.112314,-16.89061
4351075465000.0,-2.285931107850826,2.4037786,9.033098970934256,-0.20341812,0.50579643,0.13469578,264.81445,-20.019245,-17.020199
4351080527000.0,-2.34845325247438,2.4037786,9.014961926337918,-0.17959438,0.5021312,0.1777618,264.64832,-19.940243,-17.145805
4351085428000.0,-2.3977859363405445,2.4037786,8.977962102215994,-0.17256944,0.5112942,0.20158553,264.479,-19.863878,-17.26679
4351090511000.0,-2.45203649069842,2.4063972207842195,8.944213318498917,-0.14874569,0.5177083,0.2321288,264.2905,-19.804764,-17.39952
4351095496000.0,-2.52477064265095,2.425537726076497,8.94038552922781,-0.1441642,0.49877146,0.2764165,264.09412,-19.746656,-17.521315
4351100416000.0,-2.5965564054606687,2.444428656074092,8.936607650950204,-0.122783914,0.48258355,0.31215215,263.88376,-19.706516,-17.656286
4351105476000.0,-2.6018395908194925,2.4627652256068626,8.926833781894507,-0.09987647,0.49174652,0.3640757,263.65704,-19.674046,-17.784039
4351110458000.0,-2.567007145373243,2.4801814028654863,8.913771376163535,-0.099571034,0.4972443,0.40042216,263.42822,-19.643362,-17.901844
4351115672000.0,-2.5350456454285712,2.508547024964286,8.883724390178571,-0.106595986,0.49877146,0.4456262,263.18195,-19.62454,-18.03039
4351120550000.0,-2.510019414857143,2.546086457928572,8.837842880357144,-0.10598512,0.48716503,0.4908302,262.92807,-19.611206,-18.15038
4351125555000.0,-2.4840952408471377,2.5827698751729926,8.79374195481233,-0.10323623,0.48258355,0.5186246,262.6692,-19.602642,-18.261362
4351130928000.0,-2.4553227075487523,2.615139017383099,8.75777642902076,-0.10323623,0.43799037,0.60048056,262.3897,-19.602606,-18.346157
4351135419000.0,-2.431273303669532,2.6421946320612286,8.727714791885091,-0.07544186,0.42241332,0.6224717,262.11368,-19.619648,-18.435795
4351140424000.0,-2.3799254951971456,2.6739800824169797,8.65153902149849,-0.070554934,0.41141775,0.67347896,261.81293,-19.640234,-18.50183
4351145429000.0,-2.279071562986003,2.709059679160186,8.489295932348366,-0.093462385,0.37934732,0.72418076,261.51233,-19.661846,-18.554314
4351150471000.0,-2.1918864640207354,2.745579560440629,8.349172458367082,-0.084910266,0.35002577,0.7657196,261.20197,-19.706627,-18.594254
4351155481000.0,-2.184113943690264,2.788328503418111,8.337513434391706,-0.06505715,0.3417791,0.8237518,260.87643,-19.753338,-18.623487
4351160503000.0,-2.1763228065446296,2.831179839073384,8.3258264846104,-0.046120327,0.3155119,0.88422745,260.54355,-19.823498,-18.6247
4351165533000.0,-2.1476033999474926,2.905752566789184,8.287135811061521,-0.034513887,0.29749137,0.9398162,260.1988,-19.900078,-18.620068
4351170664000.0,-2.1089014618009974,2.9960570891310057,8.235533047256498,-0.010995574,0.2828306,1.0097603,259.83875,-19.989838,-18.601421
4351175668000.0,-2.0609691910611248,3.094854858601467,8.306183803227384,0.014049901,0.31948254,1.0848967,259.45648,-20.098093,-18.583746
4351180437000.0,-2.0029023134669925,3.202055122435208,8.520584517457213,0.04153884,0.28985557,1.1560625,259.06845,-20.216606,-18.53772
4351185425000.0,-1.9714132364209696,3.294870641525424,8.647407294934963,0.08460484,0.23182335,1.2483032,258.6485,-20.37595,-18.477516
4351190485000.0,-1.9952891765076863,3.352172997457627,8.590105337899093,0.07696902,0.22785273,1.3322971,258.213,-20.531097,-18.417395
4351195417000.0,-2.028276214323608,3.4004776742705567,8.56009076392573,0.07574729,0.24648413,1.4162911,257.7593,-20.711874,-18.310585
4351200445000.0,-2.083015377764305,3.4333211266085635,8.585635442667677,0.09712757,0.2501493,1.4825699,257.29443,-20.897957,-18.192913
4351205509000.0,-2.1381464683895417,3.4663997349298974,8.611363018870785,0.13805555,0.27366763,1.5500705,256.80328,-21.105465,-18.084436
4351210449000.0,-2.207395317577601,3.4500739412112,8.642510057608014,0.16493362,0.27000242,1.5958854,256.3083,-21.313595,-17.965904
