timestamp,acc_x,acc_y,acc_z,gyro_x,gyro_y,gyro_z,ori_azimuth,ori_pitch,ori_roll
4866896733000.0,1.2547753133418935,9.7234397282596,-0.0910841813945372,-1.1707232,0.74464476,0.029626964,272.42258,-95.88634,-0.08658974
4866901705000.0,1.2563964124586593,9.725292403291702,-0.0866840522460799,-1.1707232,0.7516697,0.033292156,272.4035,-95.85452,-0.09660111
4866906744000.0,1.2580393566359287,9.727170043976887,-0.0822246293218892,-1.1905763,0.7626653,0.03756821,272.1269,-95.40927,0.08968726
4866911696000.0,1.2596539348391114,9.729015266575232,-0.0778421998079792,-1.1979067,0.7516697,0.031154128,271.8566,-94.98222,0.26499003
4866916737000.0,1.2612975311077392,9.730893652503791,-0.0733810069203338,-1.1881329,0.74464476,0.030848695,271.58463,-94.56995,0.43539795
4866921791000.0,1.262945365970196,9.7327768825143,-0.0689083092702326,-1.1725558,0.7654142,0.025961773,271.30988,-94.17341,0.5952001
4866926713000.0,1.2645501628030038,9.734610926462006,-0.0645524292081436,-1.1963795,0.77091193,0.029626964,271.04395,-93.78662,0.749375
4866931709000.0,1.2661790870160696,9.736472544414614,-0.0601310604982296,-1.2018774,0.75808376,0.038789943,270.7798,-93.42932,0.8969992
4866937025000.0,1.2679123458464652,9.738453401307344,-0.0554264976355589,-1.1991285,0.74372846,0.040927973,270.51685,-93.09041,1.0371628
4866941962000.0,1.2695220333644606,9.740293034580366,-0.0510573428475594,-1.1652255,0.7086037,0.032375857,270.26584,-92.78505,1.1700602
4866946856000.0,1.2711177009182524,9.742116645120811,-0.0467262422738366,-1.1282681,0.7993172,0.06536258,269.98575,-92.519516,1.3107301
4866951749000.0,1.2727130424263648,9.743939883039571,-0.0423960266818411,-1.2702943,0.7620544,0.054367006,269.75385,-92.25328,1.4285915
4866956707000.0,1.2743295769036225,9.74578734136804,-0.038008287277567,-1.2470814,0.75136423,0.06719518,269.49164,-92.092674,1.5583698
4866961755000.0,1.2759754554920044,9.747668335648418,-0.03354089951783,-1.2525792,0.7415904,0.07086037,269.24176,-91.95684,1.6763606
4866967713000.0,1.2779180356484183,9.74988841566476,-0.0282681783861911,-1.2476922,0.73639804,0.07819075,268.99594,-91.904015,1.7936361
4866971801000.0,1.27925091038481,9.751411693124782,-0.0246503730847243,-1.2449434,0.70554936,0.08674286,268.76233,-91.926445,1.9069688
4866976762000.0,1.2808684229991052,9.753260269318314,-0.020259978735268,-1.2611313,0.6960809,0.1020145,268.52615,-87.97865,2.019347
4866981685000.0,1.2824735458775924,9.755094685887707,-0.0159032136914516,-1.25319,0.63224554,0.099571034,268.31622,-87.83107,2.1242623
4866987021000.0,1.284213325621571,9.757082995214194,-0.0111809511942336,-1.1765264,0.5705481,0.106595986,268.11017,-87.64113,2.2316542
4866991789000.0,1.2857679114197893,9.758859655421968,-0.0069613583181588,-1.0574077,0.49938235,0.10445796,267.9266,-87.43518,2.3315713
4866996694000.0,1.2873671654760517,9.76068736480098,-0.002620522945435,-0.9392053,0.41905355,0.09437868,267.7647,-87.22499,2.4274838
4867001680000.0,1.2889928292323256,9.762545256536711,0.0017919959472053,-0.79901177,0.36071593,0.09560041,267.61798,-87.02643,2.5225925
4867006708000.0,1.2906321869071244,9.764418798383332,0.006241684072395,-0.6783658,0.2828306,0.08246681,267.501,-86.84792,2.6080794
4867011693000.0,1.2922575246177193,9.766276317497374,0.010653317983308,-0.5186246,0.14110987,0.02687807,267.42038,-86.70951,2.6797564
4867016683000.0,1.29388449255671,9.768135699719856,0.0150693768028578,-0.2678644,-0.04428773,0.01740966,267.37506,-86.60157,2.759329
4867021776000.0,1.2955450432006537,9.770033461976189,0.0195765887403262,0.06352998,-0.022296581,0.008552114,267.3118,-86.549225,2.8204072
4867026749000.0,1.2971664683630988,9.771886509629976,0.0239776028705108,0.03268129,0.00030543262,0.014966198,267.30124,-86.478775,2.8830712
4867031680000.0,1.2987741996070192,9.773723907172872,0.0283414477681461,-0.0067195175,-0.0067195175,0.014966198,267.29355,-86.46441,2.9396963
4867038059000.0,1.3008540449943582,9.776100860919808,0.0339867462070055,0.0061086523,-0.009162978,0.019242255,267.27853,-86.44954,2.99738
4867041737000.0,1.3020532410022958,9.777471363487802,0.0372417090002529,0.013133603,-0.009468411,0.019547688,267.26538,-86.42774,3.0523043
4867046700000.0,1.3036714057079493,9.779320684924713,0.0416338733131638,0.017104227,-0.00580322,0.01740966,267.25226,-86.4063,3.1060827
4867051680000.0,1.3052951131901482,9.781176340930314,0.04604108231544,0.009468411,-0.0015271631,0.012217305,267.2395,-86.38431,3.1574764
4867056731000.0,1.3069419699155675,9.783058453075755,0.0505111250203591,0.006414085,-0.0012217305,0.010079277,267.22974,-86.368965,3.1992872
4867061696000.0,1.3085607867125797,9.78490851975604,0.0549050592967248,0.0015271631,-0.00580322,0.007941248,267.22067,-86.353325,3.238308
4867066687000.0,1.3101880806972492,9.78676827460021,0.059322003098002,0.0009162979,-0.0018325958,0.0070249503,267.2096,-86.33785,3.2757518
4867071762000.0,1.311842762518968,9.78865932966616,0.0638132853643778,-0.005497787,-0.0070249503,0.009162978,267.20294,-86.320625,3.312412
4867076730000.0,1.3134625574530174,9.790510514211508,0.0682098745859256,0.0027488936,-0.005497787,0.00061086525,267.19373,-86.308044,3.344549
4867081684000.0,1.3150777877475586,9.792356482053227,0.0725940740632903,-0.0033597588,-0.0070249503,0.004886922,267.1872,-86.28905,3.3799548
4867086974000.0,1.3168025693902965,9.794327650782073,0.0772756274010495,-0.01160644,-0.008552114,0.007330383,267.18066,-86.27346,3.4114084
4867091706000.0,1.3183454175440643,9.796090896609082,0.0814633609349393,-0.014049901,-0.008246681,0.005497787,267.17444,-86.25789,3.4418912
4867096932000.0,1.3200493322633362,9.7980382175499,0.0860882754421472,-0.016187929,-0.004276057,0.00061086525,267.1679,-86.241714,3.471234
4867107165000.0,1.323385757698144,9.801851255281896,0.0951442934582701,-0.0125227375,0.0027488936,-0.0061086523,267.16077,-86.22704,3.4986124
4867116741000.0,1.3265079711217462,9.80541948056496,0.1036188784795144,-0.0106901415,0.0076358155,0.002443461,267.15332,-86.20933,3.528125
4867121731000.0,1.328134939060737,9.80727886278744,0.1080349372990642,-0.004886922,0.005497787,-0.0036651916,267.14636,-86.19818,3.5507982
4867126756000.0,1.329773318598498,9.809151286768998,0.1124819704790718,-0.01038471,-0.005497787,0.00030543262,267.14075,-86.18123,3.578062
4867131757000.0,1.3314038730399596,9.811014767830043,0.1169077640976226,-0.012217305,0.0021380284,0.008246681,267.13077,-86.1659,3.603912
4867136966000.0,1.3331022449826857,9.812955754202171,0.1215176339154653,-0.0009162979,0.0012217305,-0.0015271631,267.12677,-86.15515,3.625248
4867141831000.0,1.3346884572117816,9.814768558713668,0.1258230700190946,-0.00030543262,0.0021380284,0.012217305,267.12012,-86.13491,3.6547868
4867146686000.0,1.3362714089840864,9.816577637008288,0.1301196563054502,0.01282817,-0.0067195175,0.010995574,267.117,-86.12367,3.6766713
4867151678000.0,1.3378990290144352,9.818437764474144,0.1345374850884547,0.008246681,-0.010079277,0.014049901,267.11218,-86.106186,3.7029328
4867156738000.0,1.3395488201509669,9.820323230214775,0.1390154926289201,0.016493361,-0.008552114,0.009468411,267.10886,-86.093544,3.7259853
4867161704000.0,1.341167962993658,9.822173669516747,0.1434103118870131,0.025045475,-0.0009162979,0.016798794,267.10486,-86.076584,3.752599
4867166683000.0,1.3427913444301778,9.824028952900663,0.1478166359075619,0.021685716,-0.00030543262,0.01282817,267.1028,-86.063774,3.7740602
4867171913000.0,1.3444965633321662,9.825977764328236,0.1524450903416793,0.036651913,-0.0018325958,0.013744468,267.09937,-86.0499,3.7983074
4867176991000.0,1.3461522232909229,9.82786993725925,0.1569390275532372,0.037873644,0.0061086523,0.020463986,267.09332,-86.034225,3.8224041
4867181690000.0,1.3476843119372788,9.82962088657056,0.1610975566901239,0.039095376,0.004276057,0.02687807,267.09082,-86.01958,3.8461347
4867187601000.0,1.3496115679467726,9.831823453367573,0.1663286836805766,0.04642576,0.02076942,0.022907447,267.08105,-86.00656,3.8680236
4867191704000.0,1.3509493333683515,9.833352320152912,0.169959763707954,0.033292156,0.0061086523,0.0290161,267.08102,-85.98776,3.8941147
4867196688000.0,1.3525743450332672,9.835209466645264,0.1743705126371396,0.040317107,0.011911872,0.0290161,267.0708,-85.97376,3.9165154
4867201688000.0,1.3542045734290495,9.837072575084626,0.178795421273963,0.024129177,0.0021380284,0.025961773,267.06955,-85.95671,3.9392657
4867206725000.0,1.3558468655149605,9.83894947052644,0.183253074234699,0.023823744,0.0106901415,0.028405234,267.06165,-85.93983,3.9628513
4867211687000.0,1.3574647041749348,9.84079841934166,0.1876443535658826,0.034513887,0.004886922,0.027488936,267.0609,-85.92463,3.9840982
4867216682000.0,1.3590933023423213,9.84265966467258,0.1920648372940693,0.022907447,0.004886922,0.022907447,267.05634,-85.90871,4.0043387
4867221779000.0,1.3607551571689818,9.844558917415664,0.1965755891584471,0.01160644,0.0015271631,0.025350908,267.05457,-85.89199,4.0257998
4867226724000.0,1.3623674530524104,9.846401531662192,0.2009518238002655,0.013439035,0.004886922,0.01985312,267.05115,-85.87911,4.043145
4867231730000.0,1.3639996377222676,9.84826687583168,0.2053820423274532,0.014966198,0.00580322,0.013133603,267.0495,-85.865555,4.0603437
4867236841000.0,1.3656660571884365,9.850171345278394,0.2099051839360141,0.0033597588,0.011301007,0.017104227,267.04575,-85.8502,4.078546
4867241713000.0,1.3672545517372865,9.851986758141706,0.2142168149117349,-0.0106901415,-0.0030543262,0.016493361,267.04764,-85.83818,4.0932217
4867246918000.0,1.368951619497296,9.85392625402708,0.2188231448026681,0.003970624,0.0030543262,0.017104227,267.04224,-85.82584,4.1088805
4867251747000.0,1.3782126439132936,9.856831167767584,0.2141407649688226,-0.00061086525,0.0033597588,0.011301007,267.0427,-85.81407,4.1222305
4867256712000.0,1.3917650816961271,9.86039759614971,0.2046302825798935,0.0061086523,0.0012217305,0.015882496,267.04218,-85.80076,4.1383405
4867261702000.0,1.405385759346951,9.863981982378675,0.1950719125656424,-0.016493361,-0.0015271631,0.014966198,267.08813,-85.742485,4.1899037
4867266684000.0,1.418984600240018,9.867560622096656,0.1855288665914943,-0.0036651916,-0.0018325958,0.01740966,267.13266,-85.68593,4.2419586
4867271797000.0,1.432941018041353,9.87123336093207,0.1757348894606595,-0.010079277,-0.0015271631,0.017715093,267.1765,-85.62986,4.291425
4867276748000.0,1.4464552414981124,9.874789732919968,0.1662512241419106,-0.009468411,-0.0012217305,0.015577064,267.21918,-85.5766,4.33921
4867281689000.0,1.4599421690076757,9.878338921769132,0.1567867138732905,-0.0021380284,0.008552114,0.012217305,267.2578,-85.52532,4.3850894
4867286777000.0,1.4738303469410206,9.881993702757706,0.1470406243677776,-0.004276057,0.00580322,0.014966198,267.29877,-85.47402,4.4306626
4867292856000.0,1.4904235532414931,9.88636033279496,0.1353962693945046,-0.01863139,0.0067195175,0.01985312,267.33484,-85.42428,4.4744163
4867296688000.0,1.5008833602070155,9.889112911558366,0.1280560541851639,-0.008246681,0.007330383,0.014660766,267.3708,-85.37944,4.5146976
4867301680000.0,1.5145094970472786,9.89269873441508,0.118493853160887,-0.015882496,0.0033597588,0.009162978,267.4067,-85.332855,4.5549283
4867306724000.0,1.528277572812961,9.89632190959322,0.1088320458759407,-0.008857546,0.00580322,0.015577064,267.43964,-85.28736,4.595753
4867311753000.0,1.5420047046578491,9.899934310063257,0.0991989711661874,-0.009773844,0.004886922,0.009468411,267.47375,-85.24724,4.6302752
4867316797000.0,1.5557727804235315,9.903557485241391,0.0895371638812411,-0.01160644,0.0015271631,0.009468411,267.50693,-85.205345,4.667176
4867321767000.0,1.5693388661799634,9.90712750519289,0.0800171039672475,-0.008552114,-0.0106901415,0.015271631,267.542,-85.16504,4.702943
4867326748000.0,1.582934977478311,9.910705426596994,0.0704759734981123,-0.016493361,-0.009773844,0.010995574,267.5735,-85.1279,4.7346997
4867331740000.0,1.5965611143185738,9.91429124945371,0.0609137724738355,-0.018325957,-0.0106901415,0.007941248,267.60803,-85.09065,4.7674537
4867336895000.0,1.6106321750981325,9.91799415747181,0.0510393441324599,-0.017104227,-0.014660766,0.009468411,267.6423,-85.054146,4.7993116
4867341725000.0,1.6238161175938195,9.921463613481013,0.041787454920269,-0.01863139,-0.019547688,0.014049901,267.67624,-85.018425,4.83023
4867346700000.0,1.6373958513238491,9.925037225001876,0.0322578174812111,-0.01863139,-0.020158553,0.007330383,267.7093,-84.98668,4.8574333
4867351679000.0,1.6509865034327575,9.928613709778231,0.0227205180221016,-0.02443461,-0.014660766,0.007941248,267.74103,-84.95222,4.8870907
4867356765000.0,1.6648692221766632,9.93226705413906,0.0129782595266145,-0.024129177,-0.0033597588,0.008857546,267.7705,-84.92095,4.9140472
4867362498000.0,1.6805179887041528,9.936385147576068,0.0019966692877965,-0.029932396,-0.002443461,0.007941248,267.8006,-84.890144,4.9398637
4867366689000.0,1.691957720174013,9.939395601020076,-0.0060312122211665,-0.015882496,0.007330383,-0.0012217305,267.82422,-84.86377,4.96266
4867371888000.0,1.706148883121234,9.943130114848614,-0.0159899227831087,-0.007941248,0.0021380284,-0.005192355,267.85114,-84.83627,4.9860053
4867376709000.0,1.7193082592644449,9.946593106032951,-0.0252245724501837,-0.01282817,-0.005497787,-0.0012217305,267.87537,-84.80997,5.008317
4867381695000.0,1.7329180185363904,9.950174619006424,-0.0347752804443833,-0.002443461,-0.025045475,-0.0076358155,267.90402,-84.790085,5.026043
4867387891000.0,1.7498305874190565,9.954625291766884,-0.0466437495041627,-0.015271631,-0.040011674,0.0027488936,267.9328,-84.76306,5.0491514
4867391726000.0,1.7602985831687377,9.957380025471911,-0.0539897112285421,-0.023518313,-0.03970624,0.008246681,267.96222,-84.74095,5.068527
4867396686000.0,1.7738373729779733,9.960942862284671,-0.0634906160924069,-0.029932396,-0.054367006,0.0030543262,267.99945,-84.718834,5.0874176
4867401686000.0,1.7874853465759932,9.964534431652377,-0.0730681411567867,-0.03848451,-0.07422013,0.0036651916,268.03726,-84.693596,5.108947
4867406722000.0,1.8012315855839187,9.968151860319525,-0.08271462440163,-0.06352998,-0.079107046,-0.004886922,268.07425,-84.671265,5.1258
4867411701000.0,1.8148222376928271,9.971728345095883,-0.0922519238607395,-0.0729984,-0.08552113,-0.0015271631,268.11633,-84.64676,5.1458387
4867416738000.0,1.828571206295472,9.975346492076904,-0.1019003226105957,-0.09162979,-0.092240654,-0.014660766,268.15912,-84.627106,5.1582947
4867421729000.0,1.842194613541016,9.978931596619748,-0.1114606081298597,-0.109650314,-0.10140363,-0.009773844,268.20325,-84.60151,5.176473
4867426713000.0,1.8557989136235216,9.982511672965472,-0.1210074851140335,-0.1142318,-0.094989546,-0.015882496,268.24396,-84.58267,5.1873465
4867431700000.0,1.869411402490187,9.98609390425282,-0.1305601086132459,-0.11484267,-0.080634214,-0.028405234,268.28387,-84.56368,5.1974277
4867436857000.0,1.8834879224591845,9.989798248898667,-0.1404383679646473,-0.11209377,-0.06047566,-0.042455133,268.31927,-84.54719,5.2049413
4867441823000.0,1.8970430898367376,9.99336539559467,-0.1499507658585893,-0.12980886,-0.057726767,-0.04642576,268.3546,-84.52989,5.211627
4867446689000.0,1.9103252977423304,9.996860710903318,-0.1592716132512438,-0.14019357,-0.05955936,-0.058643065,268.38483,-84.519714,5.2117867
4867451682000.0,1.8942751330875336,9.973635569540823,-0.1215368854853294,-0.15943582,-0.06047566,-0.06261369,268.4131,-84.50614,5.2131805
4867456735000.0,1.86042859347232,9.934228541233894,-0.055294375700504,-0.17806722,-0.06688975,-0.08002335,268.44284,-84.49863,5.2074337
4867461709000.0,1.8271112200216824,9.895437613310152,0.0099124803592072,-0.18845193,-0.06963864,-0.080634214,268.5301,-84.44124,5.25819
4867466680000.0,1.793813941488687,9.856670081603491,0.0750800077964459,-0.21135938,-0.06841691,-0.09254608,268.6175,-84.38936,5.3003635
4867471803000.0,1.7594985204618236,9.816717141564624,0.1422401854389672,-0.23304509,-0.056199603,-0.09621128,268.70163,-84.335236,5.344207
4867476720000.0,1.7265629504463864,9.778370741765462,0.2066997976716976,-0.25442538,-0.03940081,-0.099571034,268.78333,-84.28277,5.384271
4867481690000.0,1.6932723702192711,9.73961100879783,0.271854215568112,-0.2742785,-0.01282817,-0.103847094,268.85788,-84.23026,5.4224153
4867486992000.0,1.6577579524397617,9.698262094473003,0.3413610010181702,-0.29168814,0.01740966,-0.10751228,268.9257,-84.17726,5.45919
4867491700000.0,1.626222328353392,9.661545631130627,0.4030807192186368,-0.30665436,0.056199603,-0.12522738,268.9828,-84.12807,5.4899654
4867496698000.0,1.5927441955616173,9.622567533470225,0.4686022042581296,-0.32895094,0.0842994,-0.121256754,269.03333,-84.072105,5.525293
4867501667000.0,1.559460313640383,9.583815599241618,0.5337435126137198,-0.34483343,0.10140363,-0.12950343,269.0756,-84.02367,5.551483
4867506713000.0,1.5256606621663344,9.544463162107885,0.5998942556127755,-0.3484986,0.12156218,-0.14049901,269.1083,-83.974304,5.577344
4867511703000.0,1.4922361158216055,9.505547454359697,0.6653108643256747,-0.36254853,0.13805555,-0.14508049,269.13663,-83.92297,5.602238
4867516684000.0,1.4588718542298027,9.466701935262762,0.7306094871711555,-0.3753767,0.16157386,-0.15485434,269.1569,-83.87594,5.6219335
4867521870000.0,1.4241344399324551,9.426257674665148,0.7985955658856032,-0.38606682,0.17104226,-0.16676621,269.17606,-83.82959,5.6394553
4867526722000.0,1.3916342597992637,9.388418192902783,0.8622030579647588,-0.3817908,0.18967366,-0.17989981,269.1856,-83.78658,5.653273
4867531686000.0,1.358383869407433,9.34970525236932,0.927278818616228,-0.408058,0.21013765,-0.19242255,269.1917,-83.74173,5.66361
4867536818000.0,1.3240081636276435,9.309682123679202,0.9945569821261672,-0.43310347,0.23487769,-0.19914207,269.191,-83.699326,5.671554
4867541701000.0,1.2913003360121502,9.27160088100698,1.0585708699708738,-0.441961,0.25503623,-0.20861048,269.18573,-83.65949,5.6749964
4867546800000.0,1.257145674326424,9.231835110704775,1.1254164186336135,-0.47158796,0.29443705,-0.20708331,269.16757,-83.61248,5.679147
4867551688000.0,1.2244043551815271,9.193714874337417,1.1894958541824414,-0.49113566,0.3472769,-0.20066923,269.1397,-83.566414,5.681669
4867556717000.0,1.1907185749074505,9.15449501576715,1.2554237349874853,-0.5122105,0.39736784,-0.20097467,269.10138,-83.51714,5.6822677
4867561686000.0,1.1574346929862165,9.115743081538549,1.3205650433430756,-0.548557,0.44929138,-0.18875736,269.04727,-83.45789,5.687485
4867566679000.0,1.1239900517238453,9.076803977573276,1.3860209806784471,-0.5726862,0.4886922,-0.17654006,268.98273,-83.39701,5.692048
4867572046000.0,1.0880402440620895,9.034948145211652,1.4563798862820805,-0.6056729,0.54092115,-0.1685988,268.89993,-83.32721,5.697704
4867576695000.0,1.0568998200226816,8.99869180747191,1.5173261415739174,-0.64751714,0.5830709,-0.16432275,268.80927,-83.24998,5.7050533
4867581822000.0,1.0225576057722958,8.958707672476931,1.5845387573797356,-0.66981375,0.600786,-0.16676621,268.71136,-83.17001,5.7119584
4867587394000.0,0.9852346454049952,8.91525309861463,1.6575851188523354,-0.6918049,0.61269784,-0.160963,268.60376,-83.080246,5.7214003
4867591990000.0,0.9544492315772646,8.879410094043354,1.7178365684804886,-0.7315111,0.60048056,-0.16371189,268.49915,-82.98621,5.727473
4867596700000.0,0.9229002108791337,8.842678033222924,1.7795825057626036,-0.75625116,0.5861252,-0.16982053,268.3927,-82.89005,5.733653
4867601687000.0,0.8894957594520467,8.803785721691822,1.8449597858530296,-0.7910705,0.5656612,-0.16798794,268.29227,-82.784035,5.7412944
4867606717000.0,0.8558032808720892,8.764558064382529,1.910900776198898,-0.81061816,0.5403103,-0.17348573,268.19843,-82.6792,5.745172
4867611693000.0,0.8224725108096902,8.725751538980731,1.976133851340258,-0.84879726,0.5128214,-0.17928895,268.1117,-82.564415,5.749625
4867616678000.0,0.7890814559943646,8.686874824927685,2.0414849123490355,-0.8848383,0.49357912,-0.20219639,268.03088,-82.45129,5.747708
4867621759000.0,0.7550473638144912,8.647249431927978,2.1080944892769398,-0.91599244,0.4560109,-0.22266038,267.96368,-82.33267,5.745659
4867626723000.0,0.7217969734226606,8.608536491394513,2.1731702499284085,-0.9663888,0.41722095,-0.23548855,267.90292,-82.20665,5.7397175
4867631684000.0,0.688566677948472,8.569846947078132,2.2382066819574047,-1.024421,0.3839288,-0.2648101,267.85236,-82.080536,5.7241635
4867637043000.0,0.652670456733762,8.528053504628728,2.308460711234444,-1.106277,0.3555236,-0.29168814,267.81165,-81.941376,5.7067475
4867641723000.0,0.6213223852120522,8.491555405979128,2.3698133622918323,-1.2006557,0.33108896,-0.33078352,267.78012,-81.795586,5.6787357
4867646695000.0,0.5880184083731759,8.452780075533441,2.434993999269895,-1.2993103,0.31703907,-0.37934732,267.75424,-81.63807,5.6415257
4867651686000.0,0.5819132371576825,8.422843786661064,2.4930368213484044,-1.4230106,0.3222314,-0.4392121,267.73068,-81.46338,5.5910025
4867656722000.0,0.5942207513517571,8.398711400453339,2.5466106980665595,-1.5555683,0.3378085,-0.5137377,267.70935,-81.27474,5.523875
4867661689000.0,0.6063596359828072,8.37490966052209,2.5994505403340487,-1.6777414,0.38026363,-0.57726765,267.59976,-80.88515,5.3822775
4867666683000.0,0.6185645060950409,8.350978537265263,2.6525776134735377,-1.8093829,0.42913285,-0.6356053,267.48798,-80.45582,5.2224846
4867671746000.0,0.6309380057702989,8.326716767731961,2.706438721063692,-1.9465221,0.47708577,-0.68508536,267.36832,-79.98701,5.048245
4867676710000.0,0.6430695586812175,8.302929403725775,2.7592466487898486,-2.043955,0.5177083,-0.73914695,267.24146,-79.4891,4.8574495
4867681687000.0,0.6552328823793726,8.279079744044314,2.812192872861782,-2.0861049,0.5213735,-0.81306165,267.11688,-78.96644,4.649918
4867687801000.0,0.6701749280073654,8.249781608763529,2.8772347080990337,-2.078469,0.47311515,-0.8729264,266.99982,-78.425606,4.435598
4867691718000.0,0.6797477105923914,8.231011442604741,2.9189044608998707,-2.090381,0.37323865,-0.91721416,266.90155,-77.86665,4.2120337
4867696684000.0,0.691884151316731,8.207214494648513,2.9717336649869157,-2.1438315,0.2910773,-0.947452,266.8164,-77.29697,3.9824846
4867701683000.0,0.7041012409625171,8.18325941151658,3.024913929028626,-2.239432,0.09132435,-0.9630291,266.79556,-76.71162,3.7632139
4867706754000.0,0.7164942918914592,8.158959306183107,3.0788601420623367,-2.2828035,-0.12217305,-1.0024298,266.80585,-76.12885,3.5414276
4867711740000.0,0.7286796107500088,8.135066518726452,3.13190210975827,-2.4000895,-0.33628133,-1.0189233,266.87183,-75.49997,3.341491
4867716680000.0,0.7407525098998754,8.11139416212078,3.1844547211537595,-2.5540276,-0.47342056,-1.0118983,266.97586,-74.85348,3.1534266
4867721741000.0,0.7531211217617124,8.08714197653752,3.2382945523830253,-2.7250698,-0.5714644,-0.9767735,267.1256,-74.17493,2.9880264
4867726716000.0,0.7652795576464466,8.0633019008061,3.29121950009407,-2.898861,-0.61361414,-1.0085385,267.2997,-73.4638,2.8191915
4867731683000.0,0.7774184422774968,8.039500160874852,3.344059342361559,-2.989269,-0.53878313,-1.0806206,267.46613,-72.73815,2.6538603
4867736874000.0,0.7901047620116988,8.014625018538812,3.3992821370486013,-2.9895744,-0.45234573,-1.1734722,267.6422,-72.00276,2.4830284
4867741715000.0,0.8019357143972259,7.991427067460258,3.4507815685800924,-2.9691105,-0.42302418,-1.2495248,267.81512,-71.2617,2.3028753
4867746853000.0,0.8144925070757715,7.966805899800351,3.5054405397035797,-2.9245174,-0.45081854,-1.3011429,267.98312,-70.54146,2.1095347
4867751683000.0,0.8262965764874832,7.9436606604470335,3.556822951250181,-2.946203,-0.35185838,-1.3744467,268.1153,-69.82235,1.8832052
4867757733000.0,0.8410822120860041,7.914669211567618,3.62118394293899,-2.9794953,-0.16462818,-1.4202617,268.23108,-69.12442,1.6517277
4867761733000.0,0.8508578389280014,7.895501311482054,3.663736664716714,-3.0240884,-0.009162978,-1.4248432,268.3296,-68.42894,1.4126536
4867766679000.0,0.862945401518131,7.871800203026255,3.7163531051948704,-3.1004465,0.17592919,-1.4330899,268.37357,-67.726425,1.1460865
4867771774000.0,0.875397106208125,7.847385090292268,3.770554634559247,-3.147483,0.30176744,-1.4175128,268.3888,-67.02998,0.8822716
4867776747000.0,0.8875506542794382,7.82355459851089,3.8234583059094023,-3.1874948,0.35216382,-1.4150693,268.37665,-66.32483,0.60901666
4867781719000.0,0.8997017584440408,7.799728898704535,3.876351339079114,-3.211624,0.3032946,-1.409877,268.3551,-65.62171,0.34590504
4867788626000.0,0.9165818220934596,7.766630727231788,3.9498292514088,-3.2018502,0.21838433,-1.3750577,268.32547,-64.92827,0.09773321
4867791703000.0,0.924101723041666,7.751885820090967,3.9825629326363146,-3.170696,0.15271631,-1.38025,268.30698,-64.24613,-0.14826822
4867796894000.0,0.936788042775868,7.727010677754928,4.037785727323357,-3.1126637,0.11026118,-1.3561208,268.29544,-63.58697,-0.36312938
4867801684000.0,0.9484943559191598,7.704057117402464,4.088742611652181,-3.0637946,0.0012217305,-1.3191634,268.31525,-62.946747,-0.55259645
4867806745000.0,0.9608629677809968,7.679804931819206,4.142582442881447,-3.0720413,-0.089491755,-1.2660183,268.33386,-62.319263,-0.7220451
4867811713000.0,0.9730042963187576,7.655998399912935,4.195432923329381,-3.079677,-0.14966199,-1.1609493,268.35815,-61.71897,-0.8530127
4867816681000.0,0.985145624856518,7.632191868006664,4.2482834037773145,-3.0998356,-0.15790866,-1.0045679,268.37506,-61.126244,-0.9477814
4867821775000.0,0.9975948856398016,7.607781547247699,4.302474294961247,-3.0836477,-0.12003502,-0.86254174,268.3798,-60.555176,-1.0144899
4867826703000.0,1.0096384579091424,7.584166694342285,4.354899248191403,-2.9972103,-0.044898596,-0.7519751,268.35675,-60.01205,-1.0519866
4867831724000.0,1.0219093135025594,7.560106187759881,4.408313552202891,-2.8872545,0.015577064,-0.6979135,268.31314,-59.49293,-1.0705237
4867837031000.0,1.034879126415179,7.534675176321359,4.464770375821487,-2.7311785,0.087659165,-0.6597345,268.23215,-59.023407,-1.0777853
4867841740000.0,1.0463874831149207,7.512109765945629,4.514865567534313,-2.5314255,0.15210545,-0.6795876,268.13693,-58.60739,-1.0938066
4867846762000.0,1.0586607826150485,7.488044467388204,4.568290509726246,-2.3530529,0.20250183,-0.7174612,268.02332,-58.23838,-1.1135001
4867851692000.0,1.0549069592997418,7.452123179401704,4.64772907157623,-2.211332,0.22357668,-0.7611381,267.90417,-57.92257,-1.1443905
4867856707000.0,1.041956901058077,7.408476695527515,4.744135063769231,-2.1200078,0.17165314,-0.82833326,267.7993,-57.64827,-1.1859199
4867861702000.0,1.0290584881134874,7.36500427539759,4.84015658540513,-2.0922134,0.12522738,-0.88086766,267.7552,-57.151146,-1.2051493
4867866689000.0,1.016180733287728,7.32160148076537,4.936024318818189,-2.1313088,0.047036625,-0.9636399,267.7438,-56.669575,-1.2329801
4867871756000.0,1.0030963972736668,7.277502431156095,5.033429934459652,-2.2043073,-0.032375857,-1.0173961,267.74484,-56.195427,-1.2567616
4867876682000.0,0.9903761606039876,7.23463053094388,5.128125032673554,-2.3203716,-0.08002335,-1.0677924,267.76663,-55.70656,-1.289811
4867881686000.0,0.977454507275714,7.191079782129036,5.224319566060149,-2.4294112,-0.14874569,-1.0961977,267.81415,-55.208637,-1.3118781
4867886753000.0,0.964370171261653,7.1469807325197605,5.321725181701612,-2.5292876,-0.20708331,-1.0882565,267.86923,-54.6907,-1.3285669
4867891715000.0,0.951556973057238,7.103795517567871,5.417112326918296,-2.6117544,-0.2611449,-1.0497719,267.93524,-54.157906,-1.3317097
4867896728000.0,0.9386120793452806,7.060166440068108,5.513479872055585,-2.6762006,-0.2932153,-1.0167851,268.00516,-53.613472,-1.3260988
4867901715000.0,0.9257343245195212,7.016763645435889,5.6093476054686455,-2.703995,-0.33567044,-1.0005972,268.0821,-53.068233,-1.3029572
4867906715000.0,0.9128230002506628,6.973247709369897,5.70546524474382,-2.7409523,-0.42943826,-0.91965765,268.15686,-52.515175,-1.2417539
4867911706000.0,0.8999349163654884,6.929810101988824,5.8014098722683,-2.763249,-0.5510005,-0.8555168,268.24258,-51.970406,-1.1675957
4867916718000.0,0.8869926049183847,6.886189727676275,5.897758193877735,-2.794403,-0.68539083,-0.79351395,268.3334,-51.42535,-1.0567738
4867921736000.0,0.8740347998821585,6.842517134240446,5.9942218566543,-2.8093693,-0.80970186,-0.7293731,268.43182,-50.8911,-0.91220176
4867926758000.0,0.8610666657865171,6.7988097280557644,6.090762413542286,-2.8264735,-0.92149025,-0.6392705,268.5355,-50.359863,-0.72806484
4867931688000.0,0.8483361000574228,6.755903015094697,6.1855344058676085,-2.8625145,-1.0103711,-0.5537493,268.6443,-49.830936,-0.51527643
4867936728000.0,0.8353214851944135,6.712038951540178,6.282420986256985,-2.9107728,-1.1194105,-0.48166725,268.7613,-49.30538,-0.26533327
4867941891000.0,0.8219892517543903,6.667104395958436,6.38167206057253,-2.9553661,-1.2113458,-0.3933972,268.8682,-48.782066,0.015366219
4867946688000.0,0.8096021272508476,6.625355206896724,6.473887323693133,-3.0216448,-1.310306,-0.35430184,268.98877,-48.249928,0.31713924
4867951685000.0,0.7966985497765505,6.581865380392372,6.569947292384743,-3.0735686,-1.3518448,-0.35002577,269.09964,-47.720318,0.6304988
4867956729000.0,0.7836736058541263,6.537966504089,6.66691076688554,-3.097087,-1.4123205,-0.36071593,269.22394,-47.191223,0.96448874
4867961689000.0,0.7708655721794186,6.494798695511537,6.762259465046513,-3.1035008,-1.4367551,-0.38698313,269.34433,-46.663822,1.2900772
4867966701000.0,0.757923260732315,6.451178321198987,6.8586077866559485,-3.1111367,-1.4477507,-0.4382958,269.47458,-46.14137,1.6100993
4867971741000.0,0.7449086458693057,6.407314257644468,6.955494367045324,-3.1713068,-1.486846,-0.38728857,269.59366,-45.61274,1.949172
4867976746000.0,0.7319844102761786,6.363754805642411,7.051708123959775,-3.3264668,-1.6786577,-0.4156938,269.76514,-45.067898,2.2873497
4867981689000.0,0.7192202751039851,6.320734951247571,7.146730022147212,-3.4852917,-1.88849,-0.35735616,269.91327,-44.514423,2.6587412
4867989489000.0,0.699078609244566,6.252850090984626,7.296673539416485,-3.6227365,-2.043955,-0.3118467,270.08954,-43.935802,3.0422769
4867991740000.0,0.693265931058726,6.233259216567716,7.339945700618169,-3.7274997,-2.1035144,-0.25228736,270.26544,-43.333088,3.4552014
4867996688000.0,0.6804888845622638,6.190195846236811,7.435063716444882,-3.8105774,-2.0909917,-0.20616703,270.44266,-42.710533,3.8823192
4868001686000.0,0.667582724823113,6.146697316545247,7.531142908664346,-3.8368447,-2.0292943,-0.13408493,270.5954,-42.08632,4.3184824
4868006716000.0,0.6545939326086414,6.10292028486286,7.627837253775173,-3.798971,-1.9489655,-0.13713925,270.73984,-41.471786,4.732493
4868012690000.0,0.6391674823722093,6.050927444451213,7.742678609181151,-3.7360518,-1.840537,-0.16554448,270.84946,-40.86964,5.1266217
4868016687000.0,0.628846169751684,6.01614080516006,7.819515050017726,-3.6673295,-1.6749926,-0.09315695,270.90485,-40.289925,5.5000324
4868021767000.0,0.6157282642945239,5.9719286141170125,7.917170571521304,-3.532023,-1.4984524,0.021685716,270.92822,-39.758675,5.8407
4868026734000.0,0.60290215476584,5.928699883229057,8.012653834377263,-3.424205,-1.2605205,-0.059253927,270.9312,-39.255234,6.1003346
4868031684000.0,0.5901199437396701,5.885619106523725,8.107810297259686,-3.3276885,-1.1236867,-0.04886922,270.8711,-38.789467,6.3732452
4868036748000.0,0.5770433545201703,5.841546166476089,8.205158242317584,-3.3279939,-1.0341948,-0.06169739,270.79556,-38.339993,6.5785847
4868041705000.0,0.5642430676400241,5.798404467460266,8.300449269894992,-3.311806,-1.0247264,-0.079107046,270.7057,-37.930622,6.7667856
4868046693000.0,0.551362730549411,5.754992969640833,8.396336226835906,-3.2763758,-0.9673051,-0.111177474,270.59473,-37.535725,6.9144354
4868051687000.0,0.5678618404627052,5.64980862234242,8.40405383034978,-3.215289,-0.9257663,-0.059864793,270.4677,-37.157547,7.070358
4868056718000.0,0.6063986702076074,5.497828988058348,8.346007713098816,-3.0946434,-1.0253373,-0.106901415,270.383,-36.819244,7.2181034
4868061710000.0,0.6446367648382081,5.347027490474153,8.288411565749023,-2.946814,-0.95447695,-0.079107046,270.3008,-36.005245,7.2879734
4868066747000.0,0.6832195538314645,5.1948666043901,8.230296222359417,-2.8542678,-1.0687088,-0.063224554,270.27835,-35.229595,7.413228
4868071753000.0,0.7215648867082247,5.043642185939282,8.172538547352794,-2.7800477,-1.1462886,-0.07819075,270.23477,-34.50655,7.513994
4868076931000.0,0.7612277180378022,4.887221882555676,8.11279638970511,-2.6392434,-1.1169671,0.00061086525,270.16312,-33.838573,7.633747
4868082629000.0,0.8048736842247339,4.715093089840383,8.047054633375158,-2.5079072,-1.1624765,0.0106901415,270.13245,-33.206852,7.7744474
4868086799000.0,0.8368153618308247,4.589123088853585,7.998942467019262,-2.3503041,-1.1814134,0.032070424,270.06723,-32.63128,7.914887
4868091763000.0,0.8748389799691063,4.439167433002634,7.941669374983129,-2.2131648,-1.1004738,0.09162979,269.97797,-32.09669,8.047484
4868096761000.0,0.9131230338480611,4.288184683618458,7.884004001494694,-2.0861049,-0.86162543,0.108123146,269.86902,-31.615465,8.140181
4868101744000.0,0.9512921896061308,4.137655063734234,7.826511693352863,-2.053729,-0.89675015,0.1151481,269.7745,-31.153568,8.284729
4868106727000.0,0.9894613453642004,3.9871254438500103,7.769019385211032,-1.9422461,-0.9477574,0.105068825,269.64307,-30.758604,8.373847
4868111703000.0,1.0275768819991902,3.836807284399098,7.711607840897616,-1.7901406,-0.9560041,0.09040806,269.50726,-30.392431,8.45982
4868116684000.0,1.0657307180078084,3.686338081781535,7.654138608135333,-1.6190983,-0.93951076,0.067500606,269.37744,-30.071424,8.54753
4868121785000.0,1.1048037389835084,3.532243843164351,7.5952848526002175,-1.4547756,-0.89919364,0.032070424,269.24976,-29.79921,8.625435
4868126709000.0,1.1425209621327628,3.3834965326466078,7.538473268155029,-1.2822062,-0.8335256,0.11301007,269.0904,-29.578314,8.704596
4868131701000.0,1.1807590567633637,3.232695035062412,7.480877120805236,-1.1734722,-0.782213,0.042455133,268.9721,-29.399231,8.748949
4868136741000.0,1.219364825380797,3.080443523078369,7.422727164346309,-1.0268645,-0.70341134,0.023518313,268.80554,-29.276175,8.787858
4868141768000.0,1.2578710156267965,2.9285847233276177,7.364727197854441,-0.9410379,-0.9428705,-0.036651913,268.70386,-29.174753,8.876545
4868146719000.0,1.2957950553936444,2.779021779709959,7.307604095785364,-0.7724391,-0.9639453,-0.079107046,268.5584,-29.139696,8.890974
4868152498000.0,1.340061471433356,2.6044460876949223,7.24092778658375,-0.5751296,-0.8582657,-0.103847094,268.43835,-29.140179,8.925997
4868156717000.0,1.3723784829010053,2.4769958636749463,7.192250273428948,-0.3399465,-0.7266242,-0.12461651,268.32584,-29.200935,8.952958
4868161711000.0,1.4106318972810574,2.326133948824091,7.134631050699607,-0.1572978,-0.6826419,-0.17898351,268.22418,-29.304474,8.966553
4868166686000.0,1.4487397740413217,2.1758459980065084,7.0772310440759645,0.03726278,-0.64568454,-0.21624629,268.1046,-29.475555,8.948877
4868171815000.0,1.4880272715093406,2.0209059176560804,7.018054233227189,0.22907446,-0.6728681,-0.258396,268.00192,-29.69707,8.928494
4868176693000.0,1.5253921404212136,1.873548204271524,6.961773382511585,0.38148534,-0.66675943,-0.26908615,267.88965,-29.958275,8.890948
4868181692000.0,1.563683854174894,1.7225352462540178,6.904096471333377,0.52748215,-0.623388,-0.22449298,267.77176,-30.265747,8.85401
4868186749000.0,1.6024198406626642,1.5697701875033614,6.8457503741483,0.65209866,-0.6249151,-0.24190263,267.67703,-30.607742,8.817273
4868192199000.0,1.6441661579176268,1.4051331358539496,6.782869964882199,0.743423,-0.6123924,-0.26847526,267.56442,-30.972881,8.772867
4868197058000.0,1.681385489209712,1.2583493865026665,6.726808330272294,0.86620694,-0.58368176,-0.29352075,267.45306,-31.375422,8.723899
4868201836000.0,1.7179843706490168,1.1140125364511269,6.671681248534051,0.9941832,-0.50823987,-0.30543262,267.3355,-31.79805,8.660122
4868206842000.0,1.7563297035257772,0.9627881180003096,6.613923573527427,1.0512991,-0.5155703,-0.3454443,267.23886,-32.22963,8.603233
4868211782000.0,1.7941694846706424,0.8135574693492833,6.55692738604586,1.1749994,-0.4596761,-0.3933972,267.12518,-32.708088,8.511954
4868216833000.0,1.8328595119100584,0.6609736623986082,6.498650514999425,1.3066407,-0.36682457,-0.4260785,267.01224,-33.19699,8.412218
4868221734000.0,1.8704005579406224,0.5129211504474576,6.4421042974190295,1.3845261,-0.2864958,-0.44409904,266.89978,-33.697575,8.29988
4868226729000.0,1.9086616321954,0.3620290269632722,6.384473536999915,1.4712689,-0.20219639,-0.46181414,266.7789,-34.229073,8.162981
4868231708000.0,1.946800148454567,0.2116202416123691,6.327027379617178,1.5592335,-0.1432479,-0.5006041,266.65775,-34.774174,8.010885
4868236879000.0,1.986409360661064,0.0554113986620743,6.267365985797912,1.6701056,-0.040011674,-0.5290093,266.51627,-35.33959,7.832103
4868241719000.0,2.023483154333362,-0.090798386655936,6.211523567293705,1.7464638,0.032986723,-0.5360342,266.37335,-35.909626,7.64905
4868246694000.0,2.061591031093626,-0.2410863374735186,6.154123560670063,1.829236,0.10781772,-0.5513059,266.22043,-36.502716,7.4414096
4868251696000.0,2.005682847318792,-0.2779818918697018,6.3466085931993526,1.8506162,0.118507855,-0.56413406,266.06644,-37.08816,7.237225
4868256715000.0,1.8774946999238025,-0.2276222430726736,6.731173274407087,1.8689423,0.13500121,-0.5500842,265.89532,-37.68323,7.023351
4868261691000.0,1.6492570100988913,-0.20111294,7.109996943362302,1.8958203,0.0983493,-0.5345071,265.8408,-37.874203,7.0097466
4868266688000.0,1.3050774166816503,-0.20111294,7.487638567176106,1.8912388,0.042760566,-0.53786683,265.78723,-38.05575,6.9986978
4868271834000.0,0.9569540649500444,-0.1894320597962211,7.73689949154219,1.8979583,-0.024740042,-0.5329799,265.73123,-38.19449,6.985865
4868276741000.0,0.6315472652379068,-0.1661887186932436,7.829872797705016,1.9080375,-0.06780604,-0.54305923,265.68506,-38.328323,6.9795094
4868281659000.0,0.4005241462836543,-0.08266452954002,7.875990567783153,1.9278907,-0.11759156,-0.54275376,265.64484,-38.40465,6.9537473
4868286823000.0,0.2831726398165556,0.0843356815944144,7.862450019676919,1.9428569,-0.10934488,-0.53969944,265.60468,-38.478485,6.92618
4868291899000.0,0.2147927603198128,0.3078155222104134,7.892653074356474,1.922393,0.01038471,-0.52778757,265.57114,-38.52324,6.8251863
4868296725000.0,0.2598567964040562,0.6593149500243759,8.023338763943057,1.8548924,0.013439035,-0.5204572,265.5598,-38.555145,6.7511644
4868301731000.0,0.3819897089785104,1.0292994954665882,8.131687229467177,1.8194622,-0.014660766,-0.4978552,265.5525,-38.60869,6.637312
4868306767000.0,0.7937162773702285,1.422096105043666,8.136419567216171,1.724778,-0.00061086525,-0.47952923,265.5395,-38.622616,6.5169306
4868311731000.0,1.2046441072127907,1.7934305946645108,8.133704814201023,1.6212363,0.05222898,-0.47067168,265.55627,-38.651985,6.4163313
4868316753000.0,1.6452856554747148,2.0915116685529505,8.094824574104015,1.5381587,0.13194689,-0.4550946,265.56268,-38.656506,6.313662
4868322325000.0,2.150834086033097,2.417860809399527,8.047334551016547,1.4544702,0.21624629,-0.44409904,265.6107,-38.673252,6.310228
4868326767000.0,2.778377079470449,2.618996417607565,7.950789623735225,1.3836098,0.29260445,-0.43066,265.64307,-38.667088,6.2954555
4868331676000.0,3.471895439394799,2.8412779801229315,7.8440946556974,1.3277156,0.4184427,-0.3998113,265.71942,-38.6615,6.4122543
4868337784000.0,3.628381597899392,3.008343374279397,8.040340108031272,1.3041973,0.5299256,-0.38148534,265.7845,-38.643005,6.5147185
4868341699000.0,3.649107508347153,3.1030904243860067,8.203186856432124,1.2925909,0.59803706,-0.35338554,265.826,-38.608788,6.605721
4868346703000.0,3.6266214841971856,3.236445109273665,8.488222895288873,1.255328,0.63804877,-0.31429017,265.94766,-38.550785,6.9268727
4868351809000.0,3.481304527829735,3.4031322889782363,8.971188193252337,1.2345587,0.62980205,-0.27855456,266.0583,-38.49051,7.243121
4868357127000.0,3.316876051223657,3.5883550306594154,9.470239909075458,1.2006557,0.5384777,-0.24098633,266.35568,-38.27999,7.760157
4868361708000.0,3.04845849121346,3.860500531237253,9.86168223274983,1.1612549,0.4260785,-0.19486602,266.64386,-38.061058,8.279849
4868366695000.0,2.7562519049286203,4.156765454044868,10.2878168907206,1.099252,0.3023783,-0.16157386,267.4253,-37.459236,9.252689
4868371765000.0,2.3877168132551496,4.632761148418251,10.741198643934167,1.0118983,0.172264,-0.13897185,268.19788,-36.85788,10.224387
4868376706000.0,1.9913321367399237,5.18769967606189,11.193543371439835,0.87689704,0.021380283,-0.086437434,268.96118,-36.242065,11.207176
4868381710000.0,1.7869785552757689,5.5333281952600855,11.49450225808138,0.71929383,-0.1001819,-0.09254608,270.35843,-35.17726,12.686
4868387911000.0,1.683491931924719,5.797218917312887,11.74804411248584,0.5552765,-0.20189096,-0.093767814,271.71332,-34.133724,14.140769
4868391713000.0,1.6666226659265408,5.95929558539116,11.747961566922598,0.41905355,-0.24281894,-0.08674286,272.68536,-33.433453,15.0022745
4868396711000.0,1.7262178782735007,6.172845221622743,11.474817081344678,0.34300083,-0.27152961,-0.05589417,273.654,-32.743927,15.854677
4868401571000.0,1.8060887906861225,6.252088027010245,11.051965199937907,0.22937989,-0.24129178,-0.044593163,274.5722,-32.09646,16.572807
4868407125000.0,1.9381958220014488,6.103467516195798,10.27583637659112,0.13591751,-0.2098322,-0.017715093,275.4765,-31.466698,17.278044
4868411575000.0,2.0795289321992465,5.846504424060304,9.633156534990324,0.06780604,-0.18509217,0.0061086523,276.32938,-30.93401,17.917562
4868416578000.0,2.2796332357135585,5.397490142915351,8.886426296322707,0.04795292,-0.1863139,0.049785517,277.16748,-30.412113,18.543177
4868421601000.0,2.418597139644971,4.989773326923077,8.308913447416174,0.06688975,-0.18661933,0.089491755,277.99713,-29.943024,19.217245
4868426584000.0,2.489190622485207,4.632099336538461,7.923002014753452,0.09101892,-0.20097467,0.13408493,278.8153,-29.484459,19.88593
4868431574000.0,2.488766335769637,4.4716906666079606,7.792113805829517,0.1255328,-0.22907446,0.1704314,279.77582,-28.943733,20.802296
4868436640000.0,2.3990482609193378,4.557136367206763,7.980094436368439,0.14477506,-0.27275133,0.20158553,280.72232,-28.420574,21.7118
4868441579000.0,2.327164,4.6255975,8.130709,0.124005646,-0.34025195,0.22418754,281.8632,-27.761951,22.899288
4868446578000.0,2.327164,4.6255975,8.130709,0.058643065,-0.42119157,0.23609942,282.98785,-27.120855,24.075134
4868451613000.0,2.417181355842642,4.645601407139388,8.385758206799418,-0.012217305,-0.4831944,0.24617869,284.0412,-26.532661,25.164597
4868456660000.0,2.670706799446333,4.70194053623118,9.10408038688684,-0.0842994,-0.5317582,0.24617869,285.0916,-25.952374,26.243795
4868461623000.0,2.869190087866309,4.755722968071251,9.587668170369662,-0.1414153,-0.54183745,0.24190263,286.14417,-25.378042,27.336704
4868466622000.0,2.951716339321969,4.806155706550469,9.56015930817851,-0.17806722,-0.5164866,0.24495697,287.18604,-24.815792,28.405317
4868471699000.0,2.989497981613606,4.827733628964015,9.481841534688376,-0.20066923,-0.43066,0.23823744,288.48083,-24.080256,29.746168
4868477223000.0,2.8578320696360056,4.739956392502333,9.207537097894846,-0.22204952,-0.3494149,0.22204952,289.7522,-23.386726,31.024862
4868481636000.0,2.7056856746308724,4.654512500268456,8.96250686756152,-0.23060162,-0.30115658,0.19517145,290.99512,-22.753214,32.24611
4868486713000.0,2.418525511704698,4.519634124214765,8.618784654049216,-0.23304509,-0.21991149,0.16340645,292.2127,-22.163279,33.385372
4868491781000.0,2.139715032401554,4.386300762792292,8.282115997867317,-0.22327125,-0.15027285,0.124005646,293.38058,-21.648127,34.429195
4868496624000.0,1.95954864504532,4.273255131441847,8.031296404463403,-0.1777618,-0.10048734,0.09101892,294.53928,-21.180346,35.413612
4868501709000.0,1.7703795185314952,4.154560719833955,7.7679435999086,-0.14049901,-0.057421334,0.054367006,295.5067,-20.83812,36.129383
4868506781000.0,1.6445873798001815,3.972492331425976,7.508314013950954,-0.110872045,-0.05100725,0.02107485,296.48285,-20.530266,36.817223
4868511780000.0,1.5967563938692098,3.7159444232970023,7.256114055313351,-0.09162979,-0.043676864,0.005497787,297.46002,-20.251575,37.470783
4868516724000.0,1.5824231528257042,3.478399841822183,7.0452601686883805,-0.09560041,-0.061086524,-0.0143553335,298.35345,-20.038893,38.011826
4868521779000.0,1.6719148526056338,3.286631964577465,6.951507139507043,-0.07819075,-0.048563786,-0.025045475,299.24725,-19.849842,38.528767
4868527412000.0,1.7793406894596988,3.078124912695601,6.856487579746088,-0.05681047,-0.014660766,-0.0421497,300.21323,-19.630957,39.13834
4868531706000.0,1.9169429146737524,2.9567111646786737,6.852440502706426,-0.01863139,0.051618114,-0.06047566,301.1777,-19.43714,39.717236
4868536848000.0,2.081719496427517,2.8113200393169966,6.84759418921366,0.024740042,0.14294247,-0.07941248,302.33658,-19.179058,40.515163
4868541711000.0,2.2989892532611718,2.74801544256638,6.872269324220557,0.07666359,0.26328292,-0.109650314,303.48474,-18.95934,41.252953
4868546679000.0,2.5234740485983904,2.6863922032657968,6.898679237959108,0.15088372,0.364992,-0.14355333,304.62415,-18.779003,41.938313
4868551683000.0,2.6269473925755342,2.638071548047163,6.8947204344141495,0.22968534,0.43890667,-0.19303341,305.7636,-18.615026,42.61982
4868556667000.0,2.692898117483419,2.5941043675018425,6.881530280250553,0.32467487,0.50732356,-0.23579398,306.89157,-18.494003,43.24169
4868561740000.0,2.7011247436536814,2.5761611,6.894835556346319,0.42302418,0.5873469,-0.27947086,308.00815,-18.402416,43.843517
4868566695000.0,2.670654092059076,2.5761611,6.925306207940925,0.5027421,0.64599,-0.3191771,309.12558,-18.349794,44.397346
4868572298000.0,2.5052229941581703,2.6135728115826216,7.094478594194912,0.5687156,0.6719518,-0.355829,310.2367,-18.33046,44.91848
4868576707000.0,2.3423301868558832,2.6523567843942315,7.261249920271884,0.6178902,0.68416905,-0.38148534,311.34528,-18.341837,45.395447
4868581728000.0,2.2033863695541616,2.658311504068486,7.349950151245974,0.64660084,0.6759224,-0.4034765,312.4651,-18.37925,45.8365
4868586884000.0,2.098754181793524,2.633199799983048,7.358320631869809,0.6658431,0.6704246,-0.4089743,313.58026,-18.436611,46.245094
4868591752000.0,1.99967632663346,2.602997445463424,7.373167525930267,0.6914995,0.6435465,-0.41050145,314.70682,-18.521143,46.58087
4868596705000.0,1.8977575763551129,2.547405329495068,7.414861540345737,0.7150178,0.5910121,-0.39553526,315.83017,-18.616222,46.900757
4868601698000.0,1.7891183051635664,2.4704383031109685,7.438067415009621,0.73639804,0.52106804,-0.38056904,316.95343,-18.729698,47.194946
4868606726000.0,1.6449809613534316,2.2696755953495837,7.350555488903143,0.782213,0.54000485,-0.3943135,318.06897,-18.86342,47.45412
4868611703000.0,1.562766923589146,2.1326514916597303,7.2109465168969535,0.83169305,0.51923543,-0.32895094,319.15787,-18.990482,47.72079
4868616873000.0,1.641069659064425,2.1573786712835026,6.922462453387714,0.9098838,0.5342017,-0.3118467,320.25247,-19.15171,47.94253
4868621993000.0,1.7186151146995172,2.1818667099051106,6.636768371150325,0.9773844,0.605062,-0.28008172,321.28333,-19.291098,48.144203
4868626766000.0,2.136344654054054,2.187854306224406,6.426511780784193,1.0885619,0.7333437,-0.26358834,322.29025,-19.457115,48.30817
4868631687000.0,2.594689254054054,2.192678981981982,6.214225997072072,1.2198979,0.86284715,-0.20280726,323.2449,-19.625877,48.446465
4868637031000.0,3.1819000392569783,2.6898194078275552,6.856939367001093,1.3243558,1.0332786,-0.14874569,324.1559,-19.819567,48.574417
4868642356000.0,3.7549248366484393,3.262291457845954,7.646642920196497,1.3799446,1.2400564,-0.13194689,325.01157,-20.023285,48.64951
4868646687000.0,3.7741468655853194,4.534785341709148,10.003255831995553,1.3029755,1.4566082,-0.16707164,325.63367,-20.228428,48.62566
4868651658000.0,3.7962093698211135,5.995318035471314,12.70810985752155,0.9602802,1.6438384,-0.26450464,326.2601,-20.435436,48.513462
4868656717000.0,2.8097897222765367,8.535251935579609,14.421868802723464,0.28588495,1.858252,-0.46822822,326.8806,-20.602657,48.3158
4868661731000.0,1.485267830342179,11.414829294151536,15.763156257157824,-0.73945236,1.8719965,-0.63316184,327.52643,-20.663137,48.108692
4868666684000.0,-0.5970067031476555,13.642786753234835,16.800459733045795,-1.9086485,1.2788464,-1.131017,328.65546,-20.829855,47.567238
4868671824000.0,-3.7094118421767455,15.19673040194549,17.523224297604845,-2.2812762,0.55955255,-1.6954565,329.896,-21.012257,47.026752
4868676670000.0,-6.286636287258931,15.916545885551692,16.202015806449573,-2.0176878,0.65026605,-2.2214115,331.0096,-21.58417,45.56664
4868681691000.0,-8.004505850479504,14.675018047317948,9.492696434165875,-1.2638801,1.0360274,-2.5396724,332.28622,-22.221556,44.220654
4868686713000.0,-7.443188557679977,12.585137012435636,4.749615165277373,-0.6789767,1.7211128,-2.5518897,333.5032,-23.111458,42.33855
4868691749000.0,-3.1558718458874964,9.1037423352764,3.208055396657923,0.5702427,1.6032158,-2.2950208,334.71326,-24.225903,40.631588
4868696690000.0,1.2354146067407623,5.999671966305938,2.8755686625914008,1.3011429,0.655153,-1.7018706,335.86807,-25.38194,39.302513
4868701688000.0,6.06996817565565,3.5217299334308283,5.045517972272594,1.2043208,-0.30176744,-1.0519099,336.8789,-26.538986,38.051216
4868706704000.0,9.063830302134942,1.4902187645401317,6.770760313034862,0.73853606,-0.6957755,-0.6151413,337.5687,-27.280107,37.629475
4868711707000.0,7.022325979100982,0.6960607069489235,7.267109065228358,0.3494149,-0.44593164,-0.39584067,338.1889,-27.93441,37.34295
4868716857000.0,4.95746540913642,0.0109072521652065,7.647397958698373,0.06169739,0.3115413,-0.36377025,338.52454,-27.937593,37.677708
4868721741000.0,3.4084182682487727,0.8394674559738134,6.548655006546644,-0.22388211,1.2803736,-0.43066,338.72214,-27.832653,37.920685
4868727128000.0,1.6918654434108529,1.7264978089147287,5.448349294961241,-0.4428773,2.2996023,-0.4605924,338.62558,-27.625048,37.705513
4868732527000.0,-0.1704595326337681,2.1370891048402347,6.333075993552656,-0.3475823,2.9825497,-0.43310347,338.41034,-27.424587,37.344677
4868736867000.0,-1.6674942420306291,2.467143971355644,7.044265819795802,-0.086132,3.0677652,-0.40011674,338.67352,-27.455051,36.991817
4868741747000.0,-4.004832611708888,1.9281887494297905,7.268227949046748,0.013744468,2.8225029,-0.37110063,338.86948,-27.465876,36.566013
4868746675000.0,-6.449398565151912,1.266717985749108,7.420242913580569,-0.025045475,2.5466971,-0.39584067,338.72586,-27.545723,35.589397
4868751682000.0,-8.51459029742198,0.9002662544097693,8.164128463074238,-0.11178834,2.1820107,-0.48624873,338.67786,-27.635887,34.691483
4868756751000.0,-10.264801136770693,0.7779396607869742,9.396803834948631,-0.24770586,1.6991217,-0.52595496,338.71487,-27.695114,33.896767
4868761688000.0,-10.764679386864122,0.9678708083758054,10.386216596788152,-0.46883908,1.1527027,-0.5006041,338.62857,-27.680895,32.719112
4868766681000.0,-10.047355881430908,1.4736761126454467,11.172513987114147,-0.7480045,0.5849035,-0.41080686,338.63934,-27.601952,31.666237
4868771760000.0,-9.03134388378634,2.208657732860632,11.273039963995904,-0.92271197,-0.23915374,-0.34391713,338.76443,-27.43993,30.487757
4868776711000.0,-7.656677729189317,3.2209797666430315,10.432551448199796,-0.99265605,-0.60903263,-0.49877146,338.9485,-27.237743,29.334808
4868781722000.0,-6.265352320042543,4.24556989212952,9.58187725053179,-0.9272934,-0.86742866,-0.5161811,339.23508,-26.988811,28.458405
4868788143000.0,-5.7526056371328735,5.020504248182076,9.270238511663049,-0.8750645,-1.0454959,-0.48197266,339.5984,-26.729044,27.656496
4868791739000.0,-5.537956427235811,5.423784662196619,9.14014780356974,-0.7715228,-1.0647382,-0.48624873,339.9921,-26.500807,26.888445
4868796690000.0,-5.01933585970201,5.356727650467775,9.958327582640331,-0.73273283,-1.0415252,-0.49327368,340.52353,-26.476557,26.44748
4868802641000.0,-4.313358996950797,5.045702841995842,11.311038752598751,-0.7110472,-0.95233893,-0.36896262,341.01108,-26.45505,26.015676
4868806748000.0,-3.375087870413574,4.71136232873807,11.267788953340403,-0.7296785,-0.9315695,-0.3118467,341.57214,-26.535654,25.62743
4868811697000.0,-1.8170136614865515,4.195050377422154,10.289994321796971,-0.75594574,-0.829555,-0.20066923,342.0557,-26.594013,25.224237
4868816685000.0,-0.6464793018808519,3.603715320111988,9.349939278226548,-0.7809912,-0.59620446,-0.09743301,342.56967,-26.540274,24.914215
4868821751000.0,-0.1387837131145585,2.8822530719570407,8.472605640811455,-0.75777835,-0.3463606,-0.03268129,343.04834,-26.485985,24.588997
4868826706000.0,0.2693510192611346,2.2656603774620234,7.733037507905342,-0.70738196,-0.13164146,-0.01282817,343.80167,-26.50539,24.72908
4868831692000.0,0.32362916553994,2.004138520316213,7.46658117499225,-0.67164636,-0.024740042,-0.016493361,344.52087,-26.523521,24.82803
4868836776000.0,0.2968860269659686,1.9302129334554972,7.320804513246074,-0.6383542,0.058337633,-0.03268129,345.72858,-26.689754,25.350805
4868841723000.0,0.0571098623821989,2.360156358115183,7.506837872774869,-0.65301496,0.16829337,-0.06688975,346.88974,-26.846922,25.796093
4868847031000.0,-0.2068402926364444,2.8197932005333333,7.719906001777778,-0.66523224,0.30634892,-0.12614368,347.9586,-26.982553,26.171324
4868851690000.0,-0.6074138528791112,3.180706052133333,8.247393840444445,-0.6765333,0.42730024,-0.19181168,348.99893,-27.114548,26.486076
4868856696000.0,-1.0378219324186668,3.5684995132,8.814168710666667,-0.6780604,0.4092797,-0.24617869,349.8034,-27.218225,26.557856
4868861696000.0,-1.4799396846004278,3.751089799552791,9.264506588955864,-0.6743952,0.2134974,-0.2950479,350.6272,-27.32644,26.622053
4868866690000.0,-1.9263086093136303,3.8533827084775423,9.669028357184525,-0.6786713,-0.12461651,-0.32895094,351.48178,-27.43536,26.707222
4868872291000.0,-2.296618815361094,3.9385955168990017,9.736073246155229,-0.6768387,-0.4978552,-0.37384954,352.1617,-27.499172,26.583117
4868876721000.0,-2.5446304868243548,3.995828933573163,9.65594638312798,-0.68966687,-0.68233645,-0.4196644,352.8766,-27.563574,26.485567
4868881683000.0,-2.7823355641316687,4.076972494541327,9.556101590857496,-0.7049385,-0.93370754,-0.45173484,353.57813,-27.593987,26.344633
4868886775000.0,-2.973551434733258,4.18264470925601,9.44036591115468,-0.69913524,-1.0812315,-0.50426924,354.31198,-27.637363,26.210402
4868891710000.0,-3.011642105013008,4.17760675095057,9.327522522513508,-0.7012733,-1.1139128,-0.53786683,355.0058,-27.669846,26.025986
4868896693000.0,-2.906592497398439,4.067781809885932,9.21292249729838,-0.68569624,-1.0500773,-0.5684101,355.72183,-27.716587,25.843899
4868901682000.0,-2.5321692930519912,4.089713391730824,8.967380104647846,-0.66675943,-0.8762862,-0.60994893,356.41315,-27.782396,25.59456
4868906719000.0,-1.8811047509077088,4.245602150327915,8.586828794126033,-0.6264423,-0.7086037,-0.6728681,357.10864,-27.864613,25.321629
4868911680000.0,-1.1456039757709655,4.334827156328823,8.131767391935929,-0.5510005,-0.56596667,-0.7809912,357.81482,-27.973003,25.02998
4868916685000.0,-0.2587112950658197,4.326002359495536,7.549329971610052,-0.47800204,-0.43371433,-0.86406887,358.50482,-28.093996,24.693071
4868921707000.0,0.54956675,4.258140335281837,6.975543904906054,-0.42485678,-0.26236662,-0.9239337,359.2879,-28.315746,24.45075
4868926699000.0,1.07355203,3.988662170438413,6.441577959853862,-0.38331795,-0.12034045,-0.97494096,0.070341185,-28.557228,24.168167
4868931664000.0,1.3827327173205175,3.742542166378972,6.053294070292272,-0.3231477,0.01863139,-0.9954049,1.1214128,-28.974815,24.132444
4868936779000.0,1.200166648371911,3.5407585267163597,5.990837341722244,-0.2648101,0.15699236,-1.0076222,2.1405973,-29.391968,24.041014
4868942079000.0,0.793035378383855,3.394364156793856,6.091707467619903,-0.20738874,0.2669481,-1.0369438,3.4286432,-29.941223,24.137934
4868946692000.0,0.0458495900204265,3.3799258323964376,6.4779338796306885,-0.14508049,0.3381139,-1.0549643,4.6530724,-30.476593,24.181719
4868951686000.0,-0.763048269742626,3.3642950081951137,6.896059763346679,-0.09040806,0.3830125,-1.0876455,5.830015,-30.980682,24.15981
4868956703000.0,-1.1767638849425504,3.665505150885289,7.54663663942362,-0.058948494,0.4089743,-1.1337659,6.965042,-31.4727,24.09836
4868961667000.0,-1.4991246985194953,4.032638112158598,8.24060823399887,-0.084910266,0.34330627,-1.1520919,8.071113,-31.939322,24.027319
4868966696000.0,-1.6739061671789832,4.289949644267715,8.572664809311053,-0.14935656,0.26236662,-1.1976013,8.742501,-32.20253,23.586176
4868971838000.0,-1.7839140903672597,4.5011649560361,8.744276934232865,-0.23671028,0.20799962,-1.2534955,9.424034,-32.447174,23.149458
4868976788000.0,-1.6614873360279152,4.628601500445866,8.767775285645051,-0.2837469,0.18295415,-1.2883148,10.0682535,-32.653263,22.594446
4868981765000.0,-1.2918933478045944,4.674800863545604,8.638417667151304,-0.29077184,0.0983493,-1.3023647,10.739322,-32.841724,22.063858
4868988731000.0,-0.7124138844391817,4.659609187140986,8.44547583926232,-0.29046643,0.0067195175,-1.2956452,11.397359,-33.015,21.498272
4868991707000.0,-0.4453017433205684,4.628015151788773,8.35931039735967,-0.30085114,0.010079277,-1.2956452,12.055843,-33.175926,20.93212
4868996708000.0,-0.0377963671029982,4.478915530577887,8.12458128864088,-0.312763,0.04520403,-1.2681563,12.767805,-33.361816,20.47522
4869001684000.0,0.3092548682020239,4.194964629830701,7.764008553409629,-0.34025195,0.121256754,-1.215011,13.460982,-33.527702,20.01524
4869006688000.0,0.5843307414182739,3.959152267640756,7.543967605221119,-0.36743546,0.25778514,-1.1753048,14.223509,-33.72665,19.651968
4869011731000.0,0.6831240742353399,3.841541117377752,7.666283295811416,-0.3857614,0.40439278,-1.1545353,14.954118,-33.905308,19.274364
4869016678000.0,0.7162184773713826,3.7667894007636655,7.777964616398714,-0.38148534,0.50671273,-1.1273518,15.828749,-34.147053,19.032835
4869022698000.0,0.5134619496382636,3.83051296386656,7.882239339871383,-0.37293324,0.5925393,-1.1203269,16.661064,-34.368664,18.755335
4869026911000.0,0.3250087078023473,3.8739088086409255,7.927186731893179,-0.38881573,0.6407976,-1.1010846,17.530804,-34.58262,18.502775
4869031686000.0,0.0138724449600272,3.9205792151726486,7.919408330804559,-0.41538838,0.64996064,-1.0629056,18.363873,-34.774975,18.236914
4869036956000.0,-0.329517734135057,3.972087705732267,7.910823582377955,-0.44959682,0.6252206,-1.039998,19.147556,-34.938637,17.918646
4869041703000.0,-0.6982057767672893,4.183821148016154,8.180977545259971,-0.462425,0.625526,-1.0708468,19.913164,-35.08707,17.58698
4869046706000.0,-1.09002142180313,4.416008180837961,8.480886105360929,-0.47800204,0.57726765,-1.0522153,20.660122,-35.2037,17.282005
4869051685000.0,-1.3998606632104595,4.382177705284184,8.460303279462503,-0.5222898,0.52534413,-1.0341948,21.26904,-35.25759,16.85892
4869056751000.0,-1.708207072235337,4.324913368894134,8.411848787906301,-0.5626069,0.505491,-1.0338894,21.876356,-35.2984,16.443193
4869061696000.0,-1.8124175675510936,4.291087634976694,8.395780697472214,-0.589485,0.45478916,-1.0045679,22.412651,-35.290627,15.950698
4869066681000.0,-1.8423729669774112,4.265411667694514,8.391501265328076,-0.6209445,0.40194935,-0.98868537,22.955002,-35.26431,15.467888
4869071730000.0,-1.7948705202029192,4.233193309531862,8.328353886436455,-0.66645396,0.38820487,-0.9822713,23.442556,-35.194088,14.927061
4869076878000.0,-1.6632363068173728,4.193702843921325,8.20110720220719,-0.6985244,0.38515055,-1.0326678,23.947523,-35.116196,14.396512
4869081663000.0,-1.529841344988435,4.146605743118736,8.128714994024671,-0.7086037,0.32284227,-1.0256428,24.452656,-35.02617,13.893753
4869086947000.0,-1.3445150263299923,4.058819691345413,8.206747187162684,-0.7165449,0.2706133,-1.0183123,24.968533,-34.926292,13.388587
4869092509000.0,-1.1890281558721334,3.965017592494789,8.28786421125782,-0.7263188,0.25870144,-1.0241156,25.508413,-34.84151,12.928651
4869096752000.0,-1.1431415040740096,3.890892986952745,8.347869932070884,-0.7425067,0.22449298,-1.0125091,26.054586,-34.74539,12.496147
4869101663000.0,-1.0900306516157052,3.8050985165740094,8.417322700138985,-0.7770206,0.19761491,-0.9999864,26.656977,-34.65906,12.110339
4869106787000.0,-1.3058813062430117,3.7099988798360046,8.52178043169959,-0.8249735,0.16462818,-0.98532563,27.260542,-34.55754,11.740538
4869111835000.0,-1.5626453426947446,3.615401655236675,8.629891686638091,-0.8558222,0.15088372,-0.9728029,27.860449,-34.445,11.378437
4869116752000.0,-1.668319613768815,3.6718276275376303,8.540001095185257,-0.8738427,0.160963,-0.9593639,28.495533,-34.329796,11.038702
4869121855000.0,-1.724904468564261,3.784997337128522,8.37496183278657,-0.8750645,0.19211712,-0.95447695,29.124739,-34.20494,10.700824
4869126893000.0,-1.6743904813281496,3.930887216769991,8.174780120226963,-0.91232723,0.20861048,-0.9447031,29.715391,-34.0197,10.308134
4869131720000.0,-1.5772438222233898,4.086321739466219,7.965914810759693,-0.93554014,0.22204952,-0.9239337,30.296219,-33.83287,9.916735
4869136930000.0,-1.40940669155775,4.236862099670829,7.695567451873367,-0.95294976,0.24251351,-0.8918633,30.84587,-33.656223,9.517202
4869141706000.0,-1.2367071049181917,4.369708095604608,7.434304022073773,-0.9804387,0.26053402,-0.88208944,31.393034,-33.466686,9.120607
4869146692000.0,-1.109721694747028,4.379312064362731,7.372107889779744,-1.0118983,0.33108896,-0.8585711,31.92157,-33.319176,8.740905
4869151679000.0,-1.0084895931711364,4.326495363671551,7.411720323380334,-1.0436633,0.3408628,-0.82619524,32.4506,-33.15901,8.379511
4869156722000.0,-0.9952484032818534,4.191979225482625,7.513781395366795,-1.0818423,0.36254853,-0.8060367,32.9719,-33.04993,8.045505
4869162483000.0,-1.0804560956467182,3.947007047374517,7.700173323204633,-1.0937542,0.38973203,-0.7901542,33.480865,-32.933495,7.7166843
4869166687000.0,-1.1664291996996998,3.86150947987988,7.820253633933934,-1.1374311,0.4972443,-0.7452556,34.012062,-32.81892,7.401155
4869171768000.0,-1.2979420603403404,3.866380322802802,7.946895448208208,-1.1575897,0.5155703,-0.7134906,34.547394,-32.701946,7.104268
4869176758000.0,-1.3730743975237936,3.886984987618968,8.019378072517476,-1.196685,0.5186246,-0.700357,35.097416,-32.544155,6.7762074
4869181689000.0,-1.3810291184536343,3.9267585922681714,8.027332959572139,-1.2153164,0.50671273,-0.657291,35.627117,-32.37818,6.4608784
4869188671000.0,-1.4251539695731987,3.953178969741472,7.966886645250114,-1.2342533,0.4783075,-0.6026186,36.134422,-32.17937,6.1241193
4869191745000.0,-1.474691994492887,3.93741687838458,7.874565777420836,-1.2852604,0.46761733,-0.58246,36.635754,-31.962114,5.792204
4869196698000.0,-1.5545104191601653,3.9120201189536488,7.725813253556677,-1.2947289,0.4560109,-0.5421429,37.12553,-31.762304,5.4791775
4869201683000.0,-1.6011759436656738,3.892212669002979,7.642292,-1.3344351,0.4813618,-0.50946164,37.605137,-31.536127,5.1661754
4869206716000.0,-1.6053988308568423,3.8795440074294727,7.642292,-1.3680327,0.505491,-0.47861293,38.074284,-31.305494,4.8663716
4869211738000.0,-1.5691829422447643,3.8597618624836394,7.662814266974804,-1.3888022,0.49632803,-0.44715336,38.487965,-31.050564,4.554491
4869216681000.0,-1.3368294310209423,3.805546000065445,7.7828634571007855,-1.4315627,0.5213735,-0.40500367,38.881874,-30.77877,4.239619
4869221787000.0,-1.096813847709424,3.7495423194044495,7.906871380382854,-1.4902058,0.57879484,-0.32498032,39.257324,-30.499027,3.9308841
4869226713000.0,-0.8547161860671485,3.68139601088647,7.791098920730034,-1.5677856,0.66156703,-0.25900686,39.617805,-30.201923,3.6185694
4869232280000.0,-0.5767084513996891,3.598481476516329,7.561864568895801,-1.6447546,0.75441855,-0.1731803,39.94358,-29.887758,3.3089051
4869236963000.0,-0.5251976403567447,3.59478313154961,7.466428809364548,-1.6832392,0.8167268,-0.093767814,40.37009,-29.638271,3.0548594
4869241703000.0,-0.585005367386237,3.631587860038512,7.429623984797811,-1.7192802,0.8582657,-0.02321288,40.762226,-29.363718,2.796658
4869246745000.0,-0.6748475609702935,3.7678631963613993,7.0456208053436455,-1.7559321,0.8570439,0.030543262,41.195038,-29.145416,2.5945802
4869251722000.0,-0.783764582408156,3.977318915969415,6.400496798769555,-1.7968601,0.80573124,0.07696902,41.603664,-28.90905,2.403873
4869256800000.0,-1.0415793543673468,4.124658160765306,6.080469837091837,-1.8298469,0.8356637,0.12950343,41.972313,-28.668064,2.1910436
4869261788000.0,-1.6362560436734692,4.114909420153062,6.553286683418367,-1.8365663,0.8338311,0.106901415,42.351845,-28.419891,1.9954485
4869266659000.0,-2.138315520426288,4.010776784369449,6.968683388987567,-1.8460348,0.77274454,0.14446963,42.54453,-28.177113,1.7975457
4869271790000.0,-2.492284142589303,3.690750430984804,7.303256334961516,-1.8753563,0.7147123,0.17012598,42.74481,-27.929792,1.5981025
4869276707000.0,-2.7731738976735207,3.405231946635776,7.500005072883483,-1.9110919,0.5561928,0.19303341,42.894066,-27.568806,1.3403198
4869281687000.0,-2.9205007966019885,3.1658256697750744,7.407925791099527,-1.9608774,0.6065892,0.25137106,43.009712,-27.201958,1.0570138
4869286837000.0,-3.0436954740604274,2.617389979513633,7.669363782977156,-1.9547688,0.6441574,0.29443705,43.162838,-26.7554,0.7544323
4869291709000.0,-3.0742585078113485,1.211493099729796,8.968290323876198,-1.9770653,0.6808093,0.30634892,43.3051,-26.295664,0.44753644
4869296788000.0,-3.1061200941046425,-0.2541370834438714,10.322405246131172,-1.9801197,0.66339964,0.364992,43.422077,-25.809563,0.12707064
4869301718000.0,-3.404188167913773,-0.4914224938252668,10.191311473520573,-2.0250182,0.5329799,0.40591997,43.552784,-25.315033,-0.16942051
4869306692000.0,-3.7744470265519743,-0.4223074931329671,9.68282242791999,-2.1636846,0.7104363,0.54000485,43.611355,-24.803032,-0.5177481
4869311696000.0,-3.896678412767251,0.0169091129030297,9.119114097578276,-2.1615467,0.73456544,0.5992588,44.03111,-24.056501,-0.82922745
4869316658000.0,-3.973719785307529,0.5176783964211167,8.550933673421826,-2.1911736,0.6429357,0.6197228,44.42061,-23.27943,-1.1408942
4869321879000.0,-4.671629331198253,-0.0756672962824128,9.37382751442089,-2.2644775,0.6160576,0.6783658,44.647633,-22.45933,-1.5228263
4869326735000.0,-5.403624741697753,-0.778044305529979,10.330075797197708,-2.2540927,0.5510005,0.743423,44.886166,-21.673738,-1.8618954
4869331681000.0,-5.819173215822489,-1.2414602440220954,10.555152073401368,-2.2840252,0.33536503,0.72692966,45.058865,-20.960724,-2.1620507
4869336837000.0,-6.091928850088944,-1.602052424566988,10.425708764909652,-2.3860397,0.30390546,0.816116,45.17681,-20.24778,-2.4715757
4869341727000.0,-6.356916885810357,-1.9641598611778268,10.25580349543664,-2.3170118,0.1704314,0.80573124,45.41156,-19.35339,-2.8355017
4869346693000.0,-6.631055114055145,-2.347953418887501,10.045630868094918,-2.3612995,0.06169739,0.7761043,45.625732,-18.425583,-3.182058
4869351682000.0,-6.647850178709918,-2.6283691853094706,9.698713252050707,-2.331978,0.05100725,0.8145888,45.81841,-17.488869,-3.5585434
4869356728000.0,-6.3550559816741234,-2.7860277112602536,9.185197146905294,-2.2229385,-0.12308934,0.7076874,46.0786,-16.58596,-3.8686419
4869361685000.0,-6.2429775490765165,-3.0860130480738786,8.981210499525066,-2.2122486,-0.06261369,0.72692966,46.255985,-15.599485,-4.266639
4869366680000.0,-6.515605703430079,-3.7069993557255936,9.435590493192612,-2.0576997,-0.06963864,0.72143185,46.483555,-14.70829,-4.60273
4869371757000.0,-6.943918848777956,-4.309800624469189,9.939014528734548,-1.9428569,-0.025350908,0.7021896,46.679867,-13.824444,-4.9339333
4869376752000.0,-7.566867513966216,-4.865037791780693,10.489737671605171,-1.9031507,-0.030848695,0.65209866,46.888126,-12.982078,-5.2481055
4869381753000.0,-8.063808455643544,-5.398860721361268,10.942822102646351,-1.8106046,0.021380283,0.5708536,47.13814,-12.088544,-5.628344
4869386971000.0,-8.289222551172815,-5.904790019536889,11.188273140336808,-1.7232509,0.04886922,0.49174652,47.400337,-11.226662,-5.9967446
4869391717000.0,-8.489286273625256,-6.316168704185336,11.39461700234216,-1.6203201,0.04642576,0.4269948,47.70141,-10.278937,-6.453441
4869396695000.0,-8.688329728004074,-6.641434721965377,11.57424118747454,-1.5164729,0.009162978,0.41691554,48.0026,-9.384997,-6.8982363
4869401661000.0,-9.023837710474494,-7.0561012961271565,11.663340029257316,-1.3658947,0.023518313,0.42852196,48.330727,-8.468049,-7.375803
4869406718000.0,-9.641473390660163,-7.660112762003001,11.572511301575394,-1.2516629,0.005192355,0.47067168,48.64838,-7.6020203,-7.8210535
4869411704000.0,-10.035826313762568,-8.112228512056083,11.46386003975648,-1.1670581,-0.04642576,0.3943135,49.004612,-6.7388415,-8.280184
4869417465000.0,-9.557441982104972,-8.010444486200536,11.25520300728715,-1.1157454,-0.013133603,0.46944994,49.29586,-5.9365983,-8.739404
4869421782000.0,-9.194547885852428,-7.930341794166492,11.082603225982762,-0.9978484,-0.09987647,0.37201694,49.661274,-5.0595703,-9.227388
4869426753000.0,-8.704173417910447,-7.775223656716419,10.61724782089552,-0.97158116,-0.06811147,0.47158796,49.93346,-4.2165017,-9.737055
4869431732000.0,-8.60264210373876,-7.777855723994321,10.318169575769048,-0.84482664,-0.06780604,0.4859433,50.250454,-3.480772,-10.155415
4869436848000.0,-10.870368544249882,-8.74245101183152,11.02770381448178,-0.752586,-0.113926366,0.41141775,50.55928,-2.7673223,-10.559634
4869442072000.0,-12.797116097968216,-9.535766178837257,11.615656866425269,-0.7110472,-0.12064589,0.35918877,50.8405,-2.1226988,-10.9196
4869446725000.0,-11.19701248632066,-8.607974733755784,10.974718986823577,-0.63194007,0.004581489,0.4428773,51.101604,-1.534438,-11.2984
4869451931000.0,-9.507679184150794,-7.581172822263889,10.304509974094543,-0.47800204,0.03756821,0.4297437,51.429375,-0.7963989,-11.9018955
4869456702000.0,-9.038730329122668,-6.76051232596467,10.191781739070365,-0.3885103,0.06383542,0.22235495,51.777145,-0.087784626,-12.518038
4869461956000.0,-8.506292374927487,-5.88512526436615,10.061680395794234,-0.310625,0.12370021,0.24831672,52.012814,0.38495016,-12.957623
4869466782000.0,-7.776871541264289,-5.5066149865807885,9.852711343328783,-0.24007004,0.17592919,0.23823744,52.320198,0.83859736,-13.395348
4869471725000.0,-7.029766862276063,-5.11892822671899,9.638676112011602,-0.19700404,0.22815818,0.18692477,52.6089,1.1342878,-13.7964325
4869476684000.0,-6.050761619676163,-4.459082130539045,9.471968237343718,-0.1423316,0.29077184,0.08307768,52.918945,1.4077781,-14.208706
4869481695000.0,-4.945861590633326,-3.6558166052538086,9.3277081307645,-0.12064589,0.35430184,-0.006414085,53.242878,1.6779692,-14.629218
4869488269000.0,-3.5511171095001908,-2.649537260339565,9.132468619896985,-0.09987647,0.50701815,-0.13927728,53.6329,1.8451395,-14.990015
4869491711000.0,-3.5259638507439908,-2.734429574303701,8.953251848244944,-0.071776666,0.50946164,-0.099571034,54.00002,2.0001452,-15.321233
4869496818000.0,-3.4886431963372755,-2.860386880351011,8.687342477871042,-0.06169739,0.5204572,-0.1133155,54.689053,1.7589488,-15.502275
4869501699000.0,-3.5048517063114906,-2.9416316855949507,8.511713018006311,-0.03756821,0.56199604,-0.13194689,55.343166,1.5347432,-15.68532
4869506755000.0,-3.549793605253388,-3.004550212715797,8.372392859105254,-0.024129177,0.59528816,-0.16035213,55.981976,1.3407267,-15.861994
4869511724000.0,-3.554928964536351,-3.016714371660018,8.264824343320036,-0.002443461,0.61269784,-0.16890424,56.5811,1.206284,-16.041777
4869516701000.0,-3.5200047116828137,-2.977909736310348,8.187215072620695,0.0009162979,0.6395759,-0.1881465,57.176674,1.0970013,-16.227905
4869522018000.0,-3.50911182501164,-2.9290209672279994,8.113282926431786,0.007330383,0.6563747,-0.21533,57.727352,1.0449355,-16.421015
4869526960000.0,-3.755193932554711,-2.8114892309715973,8.131647254229396,0.008246681,0.62980205,-0.23396139,58.271923,1.0086333,-16.604338
4869531830000.0,-3.9976908697733977,-2.6956698146282787,8.149744032127892,-0.007941248,0.6178902,-0.24678956,58.81805,0.9798703,-16.788534
4869536766000.0,-4.185198747517076,-2.6007104361270077,8.212920479232048,-0.031154128,0.6230826,-0.24984388,59.357716,0.9667481,-16.965643
4869541701000.0,-4.307344233764076,-2.53091302842902,8.326341665312903,-0.056505036,0.6102544,-0.24831672,59.89131,0.97149354,-17.130154
4869546696000.0,-4.360687988935481,-2.4738992487372533,8.417528170399313,-0.07452556,0.5644395,-0.23457226,60.337997,1.0153991,-17.332266
4869551676000.0,-4.237968221471457,-2.4511734010292576,8.449344072429238,-0.055283304,0.5467244,-0.2489276,60.790108,1.0648115,-17.533834
4869557364000.0,-4.133404412229624,-2.436284887770376,8.447784007401925,-0.044898596,0.5198463,-0.24648413,61.2203,1.1158792,-17.728224
4869561699000.0,-4.123161312427009,-2.446527987572991,8.372667538119911,-0.027488936,0.5170974,-0.2434298,61.651955,1.1667157,-17.919891
4869566653000.0,-4.111455587762152,-2.4582337122378486,8.286825095484826,-0.016187929,0.5183192,-0.23273966,62.10747,1.1944621,-18.077055
4869571767000.0,-4.112232245209704,-2.555796496587171,8.24209021278783,-0.015271631,0.51251596,-0.20250183,62.551025,1.2256467,-18.227997
4869576670000.0,-4.117058988641036,-2.676466443194901,8.213129348992599,0.00580322,0.5170974,-0.18112154,62.98919,1.2550741,-18.378824
4869581748000.0,-4.164933339701778,-2.694405327087154,8.26673821409776,0.014660766,0.5204572,-0.16615535,63.41019,1.3009971,-18.526796
4869586778000.0,-4.222550042436807,-2.686723156207639,8.339719539350929,0.027488936,0.52198434,-0.15577064,63.822,1.3445504,-18.67238
4869591681000.0,-4.305745121505931,-2.7020701593604954,8.415722764930377,0.03604105,0.50671273,-0.14508049,64.23859,1.410404,-18.809708
4869596756000.0,-4.456138912119649,-2.772253823620423,8.50595935337803,0.034513887,0.46211955,-0.129198,64.646355,1.4792794,-18.936182
4869601653000.0,-4.632257378234904,-2.8492110437956204,8.582484510948905,0.05589417,0.40133846,-0.11728613,65.05077,1.53641,-19.058847
4869606710000.0,-4.870986704047777,-2.9456209822732013,8.642166602711157,0.06169739,0.355829,-0.1151481,65.4492,1.6023884,-19.170507
4869611668000.0,-5.064259137617371,-3.0201504275234745,8.698837547535211,0.06719518,0.33505958,-0.115453534,65.83768,1.6828895,-19.28741
4869616740000.0,-5.135523366881847,-3.0344032733763697,8.751097899647887,0.10629055,0.2779437,-0.12034045,66.222786,1.7563432,-19.378761
4869621806000.0,-5.087221951882845,-2.97613080479712,8.83095301128734,0.112399206,0.21624629,-0.121256754,66.57839,1.8785421,-19.50294
4869626751000.0,-4.64023740167364,-2.6766051729979567,9.00145181881872,0.11301007,0.18448131,-0.1441642,66.94003,1.9953958,-19.616491
4869631712000.0,-4.261679,-2.407155374426039,9.14226438225322,0.13927728,0.19456059,-0.22235495,67.30835,2.116052,-19.735048
4869636743000.0,-4.261679,-2.3044739949142694,9.11892771616778,0.19058995,0.18906279,-0.23915374,67.66259,2.226555,-19.838337
4869641720000.0,-4.254620093427071,-2.209641754497713,9.106139472810437,0.226631,0.16615535,-0.2742785,68.071884,2.246485,-19.85158
4869646691000.0,-4.178004755929189,-2.181415097746908,9.194851991021514,0.26511553,0.18387043,-0.31306845,68.48157,2.2593615,-19.875528
4869651659000.0,-4.101435655810605,-2.1532054757919705,9.283510971201084,0.30665436,0.21868975,-0.33261612,68.87664,2.252459,-19.901524
4869656722000.0,-3.872775014822587,-2.055083755494086,9.322007529187331,0.33353242,0.267559,-0.37018433,69.28363,2.2499917,-19.93645
4869661724000.0,-3.5894864776421214,-1.931716085921404,9.34028458145746,0.34574974,0.29443705,-0.38423425,69.68381,2.2453163,-19.975275
4869666681000.0,-3.1581968781142398,-1.8289692988555803,9.516913952298967,0.36163223,0.3399465,-0.3924809,70.099174,2.2205327,-20.01715
4869671765000.0,-2.625651173394774,-1.7352807145736278,9.793048678245896,0.36041048,0.42730024,-0.46609017,70.532616,2.2115743,-20.07797
4869676698000.0,-2.4344987780354206,-1.696089724082527,9.77742174420303,0.38698313,0.45662177,-0.44135013,70.90938,2.163319,-20.110796
4869681771000.0,-2.4078876650995067,-1.682784144458645,9.613319410261091,0.36651915,0.43401974,-0.43463063,71.30812,2.1438491,-20.15239
4869686709000.0,-2.414616658618936,-1.7394541408522324,9.492629870639684,0.36468655,0.44990227,-0.43157628,71.67524,2.0906208,-20.152328
4869691726000.0,-2.4585931917624326,-1.876270123787247,9.41444926522933,0.36163223,0.4615087,-0.44135013,72.03819,2.049975,-20.14621
4869696666000.0,-2.480393,-1.97720233003876,9.375694,0.3463606,0.46273044,-0.44257188,72.38688,2.0207155,-20.148054
4869701689000.0,-2.480393,-2.045002653065539,9.375694,0.34880406,0.462425,-0.44012842,72.73261,1.9933344,-20.153515
4869706856000.0,-2.5221812088243354,-2.0905443177674248,9.338423406686765,0.344528,0.4605924,-0.40622538,73.08525,1.9930378,-20.17027
4869711687000.0,-2.678555211016717,-2.065186311829725,9.198954594683476,0.3136793,0.46181414,-0.37293324,73.4326,2.0037127,-20.188255
4869716913000.0,-2.849334365750821,-2.040191603767064,9.05235930326594,0.2724459,0.4831944,-0.33628133,73.76534,2.03401,-20.221855
4869721777000.0,-3.026419939346812,-2.0442162758942457,8.963816348367029,0.2321288,0.50915617,-0.30268374,74.08542,2.0728407,-20.257215
4869726708000.0,-3.205944808467254,-2.048296386556074,8.874053743390357,0.21655174,0.5329799,-0.28008172,74.40372,2.1112115,-20.317907
4869731686000.0,-3.309493150819672,-2.021177190163934,8.717091950819672,0.18478674,0.56779927,-0.2773328,74.71482,2.1666026,-20.387983
4869736690000.0,-3.3836898924590164,-1.9818966104918032,8.533782852459018,0.17104226,0.59864795,-0.2434298,75.0066,2.2189195,-20.462782
4869742575000.0,-3.468111747887913,-1.959731703722292,8.415120806879967,0.16462818,0.5885687,-0.2003638,75.302475,2.2818468,-20.553616
4869746687000.0,-3.525756794144709,-1.955614200418235,8.378063363132581,0.15363261,0.6068946,-0.17898351,75.592445,2.3508813,-20.658625
4869751682000.0,-3.5750045899849394,-1.9701755993975905,8.300026933358433,0.14080444,0.6637051,-0.15241088,75.86798,2.408932,-20.793013
4869756718000.0,-3.611321525753012,-1.997413230120482,8.200154957078313,0.13439035,0.68233645,-0.115453534,76.13126,2.467164,-20.91838
4869761687000.0,-3.6913200680044818,-2.0087559300601,8.145115208821432,0.1001819,0.6722572,-0.10629055,76.38817,2.5417535,-21.061623
4869766687000.0,-3.818139361067536,-2.0038782688601406,8.135360192013854,0.082161374,0.6743952,-0.07727446,76.62664,2.6094563,-21.209858
4869771773000.0,-3.939612333045187,-2.0498487000785857,8.107831845481336,0.03970624,0.67103547,-0.038179077,76.854836,2.7030756,-21.365688
4869776861000.0,-4.054488777210216,-2.140792651669941,8.064753028978389,0.007330383,0.6637051,-0.0061086523,77.07545,2.7971342,-21.516682
4869781684000.0,-4.158709671259707,-2.225730112942192,8.066631664667817,-0.031154128,0.6630942,0.03023783,77.28054,2.8993797,-21.687515
4869786738000.0,-4.26311262175151,-2.3134285686798965,8.112568774503883,-0.05589417,0.6603453,0.05497787,77.47877,3.0042224,-21.85118
4869791759000.0,-4.366250338449111,-2.37961224717286,8.148191140549274,-0.06994407,0.64721173,0.07727446,77.677124,3.1290147,-22.034603
4869796705000.0,-4.465278301596503,-2.352604539674997,8.13918888472869,-0.08735373,0.63804877,0.08368854,77.872604,3.259295,-22.21351
4869801817000.0,-4.569991088270035,-2.3236164247137925,8.134256567054333,-0.09315695,0.63713247,0.10934488,78.067245,3.4019148,-22.407185
4869806702000.0,-4.69326010857714,-2.285360563183718,8.172512339814647,-0.11301007,0.6395759,0.13713925,78.25893,3.5501828,-22.594336
4869812695000.0,-4.843342762641674,-2.2431436498256323,8.221241739319966,-0.14446963,0.60231316,0.1469131,78.438515,3.6992664,-22.783089
4869816714000.0,-4.930589225893636,-2.269988712746295,8.274932355710549,-0.16523905,0.6032294,0.15699236,78.610054,3.8456266,-22.978971
4869821795000.0,-5.040890116608544,-2.3039274449433305,8.342810440278988,-0.1966986,0.5910121,0.15943582,78.76999,3.993963,-23.176937
4869826696000.0,-5.141941567602278,-2.3119213639461416,8.418288578974625,-0.22388211,0.55955255,0.15515977,78.9281,4.1438017,-23.364906
4869831782000.0,-5.242838062288969,-2.301831751351631,8.504049969963749,-0.2452624,0.5183192,0.15241088,79.08408,4.29732,-23.54197
4869836712000.0,-5.36303867073694,-2.295559566641791,8.558800340205224,-0.28130344,0.47891834,0.14660765,79.24455,4.466074,-23.721981
4869841705000.0,-5.496854750279852,-2.291099029104477,8.59894508488806,-0.30848694,0.46181414,0.16401732,79.39749,4.632493,-23.892801
4869846694000.0,-5.579351438427707,-2.314959997608576,8.575620617555433,-0.34238997,0.44868052,0.16554448,79.55205,4.8068376,-24.058243
4869851687000.0,-5.6100200968664105,-2.367535134744365,8.487995617738685,-0.35918877,0.48380527,0.18875736,79.694466,4.975593,-24.229574
4869856739000.0,-5.598175927669112,-2.4414770386715565,8.389891462917685,-0.3576616,0.5207626,0.18173242,79.839066,5.149432,-24.41337
4869861747000.0,-5.495570803300733,-2.558740256601467,8.272627938875306,-0.34391713,0.56169057,0.183565,79.97395,5.316682,-24.604841
4869866708000.0,-5.370140929886455,-2.6627203471715326,8.146396015531225,-0.3387248,0.63346726,0.19425514,80.11925,5.492911,-24.82575
4869871854000.0,-5.195274799878345,-2.747655171076642,7.996511148783455,-0.32528573,0.6942484,0.20372356,80.26468,5.6594553,-25.050272
4869876701000.0,-5.006684761843281,-2.7982270139139933,7.86185556190287,-0.29749137,0.7476991,0.21380283,80.428276,5.836642,-25.2856
4869881668000.0,-4.775198834293375,-2.8029512134968715,7.734302271824411,-0.25717425,0.7870999,0.21777347,80.592186,6.003035,-25.528692
4869886688000.0,-4.541720474450789,-2.770775986054389,7.623350771024872,-0.22510384,0.786489,0.20952678,80.772675,6.1786275,-25.756268
4869891731000.0,-4.308023325365334,-2.6726232859285783,7.543893628084777,-0.1826487,0.77488256,0.21319197,80.94922,6.336243,-25.986523
4869896665000.0,-4.105569380042033,-2.5441938982096985,7.508572947878882,-0.14996742,0.77121735,0.2125811,81.14093,6.48423,-26.189903
4869901685000.0,-3.963367280874913,-2.334632714587064,7.575931915108586,-0.13041973,0.7312057,0.21319197,81.32934,6.622277,-26.374449
4869906745000.0,-3.8200320972522768,-2.123401720736359,7.643827607176773,-0.12095132,0.68875057,0.2134974,81.51794,6.7252803,-26.523268
4869911701000.0,-3.81580052212891,-2.0063289360067187,7.85555424656729,-0.13744467,0.64568454,0.2302962,81.699196,6.8273425,-26.65682
4869916667000.0,-3.860732969368045,-1.9214567326055008,8.120155821876967,-0.1563815,0.5888741,0.23396139,81.88178,6.9288673,-26.770006
4869921771000.0,-3.952795213269755,-1.8875747247320616,8.420312058128973,-0.17654006,0.54092115,0.24251351,82.03333,6.963084,-26.83378
4869926675000.0,-4.050904744168937,-1.866246511616712,8.714641140781108,-0.20922135,0.49602258,0.25411993,82.179184,7.005719,-26.880812
4869931701000.0,-4.115206553474399,-1.8397634551375828,8.946411288401253,-0.22937989,0.46273044,0.2593123,82.31731,7.0169215,-26.903198
4869936728000.0,-4.157128292842216,-1.810418452072449,9.135057736677116,-0.25320363,0.43279803,0.26847526,82.44685,7.037395,-26.91444
4869941717000.0,-4.193344552273446,-1.7743037781622537,9.303825706403629,-0.28191432,0.44532076,0.28680122,82.563034,7.048292,-26.92003
4869946696000.0,-4.21849640753244,-1.7240000151176285,9.434615458803671,-0.29779682,0.48075095,0.2959642,82.67718,7.0639963,-26.924942
4869951697000.0,-4.243962496103896,-1.6767388901030005,9.465714708911776,-0.3313944,0.52534413,0.30695978,82.777214,7.073234,-26.938322
4869956708000.0,-4.269751575064936,-1.633756897348858,9.362557674966414,-0.35888332,0.5635232,0.31337386,82.87545,7.086616,-26.960917
4869961693000.0,-4.2904096,-1.60916219292165,9.2269647355382,-0.36468655,0.6398814,0.3155119,82.96536,7.0886335,-27.006691
4869966679000.0,-4.2904096,-1.6596665880888457,8.955018413595313,-0.39614612,0.7076874,0.3182608,83.05296,7.105408,-27.061026
4869971741000.0,-4.2904096,-1.7109408055650477,8.67892690102514,-0.43310347,0.77366084,0.3109304,83.12733,7.130138,-27.15302
4869976705000.0,-4.2904096,-1.7986457250897048,8.336291940445303,-0.46120325,0.79076505,0.30665436,83.20001,7.160782,-27.247864
4869981755000.0,-4.2904096,-1.9009869091912777,7.962524151780292,-0.4642576,0.79259765,0.29779682,83.27814,7.196599,-27.353289
4869988713000.0,-4.366316885654225,-2.0626971103158325,7.501468061074651,-0.44226643,0.77579886,0.29657507,83.361015,7.25852,-27.487083
4869991769000.0,-4.414334411002871,-2.137724605311731,7.309397708982773,-0.3820962,0.7684685,0.29138273,83.44826,7.312544,-27.619062
4869996731000.0,-4.504267720023362,-2.2123831667477853,7.10268132278789,-0.35430184,0.7538077,0.2910773,83.544426,7.406678,-27.782454
4870001739000.0,-4.602308448301373,-2.2590692510464323,6.957954363963789,-0.29993483,0.7431176,0.29779682,83.639984,7.477419,-27.939825
4870006758000.0,-4.725828377913168,-2.290463037282408,6.895301,-0.24220806,0.7339546,0.29932398,83.74624,7.5816116,-28.128685
4870011746000.0,-4.867678241480648,-2.3100284494061025,6.895301,-0.18112154,0.7302894,0.3051272,83.84918,7.6682224,-28.31128
4870016676000.0,-5.0305551859921085,-2.350010105045096,6.949339200676437,-0.12339478,0.7339546,0.30207285,83.95777,7.75663,-28.521748
4870021786000.0,-5.214461560757234,-2.405182118291996,7.041292316046599,-0.061391957,0.73761976,0.3203988,84.05791,7.823799,-28.727032
4870026723000.0,-5.416041201998002,-2.478546548111888,7.132874572147852,-0.015882496,0.70341134,0.31978795,84.162766,7.886064,-28.941404
4870031903000.0,-5.653921188011989,-2.5776631313286718,7.231991207112887,-0.0027488936,0.6783658,0.32589662,84.26049,7.9369354,-29.15496
4870036747000.0,-5.809242746112115,-2.642904295660036,7.249036673417722,0.007941248,0.6872234,0.33536503,84.3612,7.9828386,-29.389946
4870041732000.0,-5.899888886347197,-2.681752680108499,7.188605853164557,0.01985312,0.73364913,0.34269542,84.46147,8.024121,-29.623222
4870046727000.0,-5.984284382591336,-2.698707431163905,7.094339528249152,0.03573562,0.77946407,0.35002577,84.56877,8.075983,-29.880861
4870051740000.0,-6.051375466270713,-2.655577416630066,6.907442648482731,0.03481932,0.7877107,0.37232238,84.669266,8.124948,-30.136015
4870056723000.0,-6.095097619628535,-2.6333692406500635,6.725513775116083,0.030848695,0.7669413,0.38789943,84.7754,8.181509,-30.412552
4870061747000.0,-6.074787850443225,-2.6689113367243564,6.5528805779864925,0.023518313,0.7443393,0.39095375,84.87871,8.236673,-30.684916
4870066678000.0,-6.065601130729536,-2.74332247004958,6.379020561570374,0.015271631,0.7449502,0.40194935,84.96817,8.286886,-30.97967
4870071792000.0,-6.0755121900232725,-2.891989239127795,6.190709141353841,0.03634648,0.7150178,0.41508293,85.05299,8.32991,-31.253618
4870076712000.0,-6.126088293116512,-3.038716476198836,6.024389968031045,0.04062254,0.6951646,0.44043383,85.13845,8.38815,-31.539814
4870081791000.0,-6.242937344830454,-3.1960131484338907,5.8760820417629125,0.06719518,0.6927212,0.46914452,85.21782,8.432247,-31.817667
4870086686000.0,-6.350637700800493,-3.3172786438423647,5.750424566625616,0.09468412,0.66523224,0.5183192,85.30678,8.504983,-32.097145
4870091713000.0,-6.443805990904293,-3.3342183249120336,5.682665577023223,0.13194689,0.6337727,0.54305923,85.39406,8.566897,-32.369648
4870097138000.0,-6.5460043066474745,-3.3480602984297305,5.613231709866527,0.16187929,0.57360244,0.5864306,85.488625,8.650117,-32.657696
4870101700000.0,-6.671778563072494,-3.252776781688912,5.6437225689435575,0.18478674,0.50579643,0.65301496,85.56468,8.716891,-32.932114
4870106708000.0,-6.809849031326878,-3.1481779540172727,5.677194340591468,0.1777618,0.38545597,0.6933321,85.63254,8.783779,-33.19632
4870111697000.0,-6.9236720158038425,-3.0553093631547017,5.742601111061679,0.14446963,0.28130344,0.7281514,85.67649,8.840375,-33.444633
4870116705000.0,-7.025509467937311,-2.968019973791709,5.825040994256826,0.09682214,0.2275473,0.75808376,85.70391,8.894987,-33.671215
4870121779000.0,-7.171826822807184,-2.857948312848047,5.98094384168013,0.03970624,0.20219639,0.795652,85.68615,8.92453,-33.89676
4870126888000.0,-7.339213063118882,-2.7370582935569705,6.171578046849758,-0.047036625,0.19028452,0.81092364,85.663025,8.969629,-34.107914
4870131717000.0,-7.490797063105902,-2.607784960242779,6.408359726563416,-0.15332718,0.2125811,0.820392,85.61025,9.00387,-34.32868
4870137624000.0,-7.67076092678108,-2.437293016810381,6.744607875839264,-0.25228736,0.26145032,0.8179486,85.55721,9.054312,-34.550087
4870141740000.0,-7.794804308590561,-2.2168740748979805,7.024495058794601,-0.3726278,0.269697,0.8002335,85.474365,9.098655,-34.76969
4870146697000.0,-7.9388550812912,-1.5512594013184051,7.541091378654389,-0.4810564,0.28069258,0.7706065,85.39976,9.163088,-34.998417
4870151657000.0,-8.084674931336323,-1.0172908055599543,8.03156731037213,-0.5671884,0.29016098,0.7263188,85.29337,9.20144,-35.221024
4870156715000.0,-8.23808602476467,-0.8425728370722266,8.457708816310372,-0.61086524,0.29260445,0.6963864,85.1924,9.254756,-35.4386
4870162055000.0,-8.405104025939332,-0.7433290856601172,8.814122846863151,-0.68477994,0.30634892,0.5815437,85.00267,9.205558,-35.630196
4870166740000.0,-8.613897002068253,-1.7060977161323678,7.975083516028956,-0.766025,0.32436943,0.52534413,84.805504,9.1640835,-35.819458
4870171760000.0,-8.837619678731473,-2.7377089274388138,7.076048843502241,-0.7648033,0.42913285,0.4175264,84.62654,9.089108,-36.002716
4870176993000.0,-8.676956158467858,-3.48357743795969,6.131359219123126,-0.68630713,0.55771995,0.31642818,84.470604,9.025529,-36.189465
4870181717000.0,-8.383100255134206,-4.032396542248543,5.275720037539402,-0.51893,0.66798115,0.2574797,84.34567,8.954053,-36.391014
4870186770000.0,-7.976820291949564,-4.364051569350146,4.745572467507274,-0.32925636,0.7602218,0.2321288,84.489815,9.134813,-36.73593
4870191768000.0,-7.512563779825412,-4.518803740058196,4.482493669576463,-0.16157386,0.7675522,0.2275473,84.64712,9.283117,-37.077633
4870196750000.0,-7.17815372271213,-4.308718540074466,4.647399368606702,-0.024740042,0.6985244,0.21288654,84.95475,9.549911,-37.45737
4870201737000.0,-6.888021340388008,-3.971790643738977,4.960929507936508,0.040011674,0.5467244,0.19120082,85.25997,9.791783,-37.80753
4870206702000.0,-6.787888662736099,-3.636143710679612,5.242863153045013,0.061086524,0.34574974,0.16554448,85.59731,10.055751,-38.08418
4870211842000.0,-6.770510064148279,-3.288572419417476,5.520920367519858,0.04642576,0.14721853,0.15271631,85.92487,10.310985,-38.312946
4870216687000.0,-6.819046529468359,-3.009175830291609,5.731278408986312,0.021991149,-0.020158553,0.14935656,86.17365,10.486854,-38.421635
4870222739000.0,-6.985760040636778,-2.738984824538782,5.909489219460425,0.026572637,-0.09743301,0.13103059,86.42146,10.66204,-38.495956
4870226720000.0,-7.066916841515526,-2.6900605830880258,5.934658312467952,0.03390302,-0.11453723,0.13988814,86.57166,10.747415,-38.510544
4870231694000.0,-7.134766669661,-2.7805269261513628,5.857762001158484,0.06872234,-0.083383106,0.14508049,86.7258,10.828317,-38.515633
4870236689000.0,-7.178403345370552,-2.8275038083546296,5.897389038529585,0.10445796,-0.028710667,0.12492194,86.834564,10.860403,-38.531036
4870241709000.0,-7.164227396284647,-2.7707997653037157,6.213986534106546,0.15821409,-0.04642576,0.15088372,86.920746,10.871277,-38.53827
4870246675000.0,-7.131183862176705,-2.7380342102065613,6.512183761673321,0.19333886,-0.07819075,0.15882497,87.04277,10.904294,-38.5753
4870251685000.0,-7.043735707950009,-2.7713476664641554,6.770363558583579,0.23335053,-0.089186326,0.16401732,87.15602,10.9200945,-38.613785
4870257090000.0,-6.937530445280394,-2.845763836729452,7.008886082726884,0.258396,-0.1151481,0.16584991,87.244286,10.905517,-38.597496
4870261701000.0,-6.573637618792808,-3.795666551027397,6.290551598030822,0.33353242,-0.12339478,0.16890424,87.330284,10.870884,-38.58395
4870266702000.0,-6.229557784041126,-4.683181958319177,5.601434982682163,0.36041048,0.07666359,0.06505715,87.472565,10.855758,-38.55595
4870271749000.0,-6.385125636656236,-4.160300259266875,5.800216526276263,0.559858,-0.047036625,0.19730948,87.499504,10.744247,-38.45513
4870276670000.0,-6.536809687125614,-3.650472472257488,5.994035423844434,0.49174652,-0.03145956,0.17989981,87.84721,10.952934,-38.445454
4870281683000.0,-6.600208360069938,-3.18901178947656,6.086182653393072,0.4166101,0.02687807,0.15149458,88.14188,11.09542,-38.42255
4870287046000.0,-6.645948070663286,-2.7218485024169903,6.141869997733576,0.40530908,0.12095132,0.116675265,88.44678,11.241265,-38.412945
4870291727000.0,-6.642395607496632,-2.4554107973294235,5.98200733758618,0.35705075,0.22540927,0.086132,88.6461,11.294062,-38.43391
4870296685000.0,-6.638632925937079,-2.1732065371661777,5.812684742198273,0.28405234,0.29443705,0.046731193,88.78395,11.28313,-38.47888
4870301681000.0,-6.644245733445661,-1.9250248532540013,5.6617707387952825,0.18570304,0.3051272,0.0125227375,88.93402,11.294862,-38.53321
4870306703000.0,-6.659439927716933,-1.7123059747999156,5.530087510235889,0.10995574,0.2602286,-0.02321288,89.098625,11.32639,-38.58623
4870311714000.0,-6.668320037019088,-1.482077822361784,5.512281444229058,0.052839845,0.19547687,-0.056199603,89.21204,11.322058,-38.67341
4870316684000.0,-6.67302745428741,-1.241999394214222,5.568770451448917,0.017715093,0.10903945,-0.080634214,89.32812,11.33548,-38.737644
4870321754000.0,-6.733458171725239,-1.0971500090302575,5.757503829392971,-0.00061086525,0.034208454,-0.09621128,89.411415,11.331167,-38.806854
4870326804000.0,-6.833437684504792,-1.0244375541345612,6.039264787859425,0.015882496,-0.018325957,-0.10354166,89.49382,11.330385,-38.855507
4870331685000.0,-6.854860727412238,-0.9905262030117016,6.279207196278534,0.028099801,-0.052534413,-0.10903945,89.525085,11.289183,-38.88902
4870336708000.0,-6.785652594283522,-0.9997539540955304,6.486831547487052,0.05497787,-0.09621128,-0.10629055,89.55001,11.24209,-38.904644
4870341717000.0,-6.678163964284239,-1.018346314769676,6.701566700392481,0.087659165,-0.1563815,-0.10873401,89.548454,11.164097,-38.887638
4870346728000.0,-6.504684458882462,-1.0530422365523653,6.929568287265028,0.106595986,-0.19822577,-0.09407325,89.537796,11.081723,-38.865124
4870351686000.0,-6.317097238562971,-1.0982556664962326,7.09292159795479,0.093462385,-0.2678644,-0.08979719,89.51914,10.998364,-38.777996
4870356722000.0,-6.105111950331898,-1.1588228723448153,7.175120068137782,0.08368854,-0.33322698,-0.076358154,89.48936,10.9084835,-38.68439
4870361750000.0,-5.909573587824738,-1.2199218395347031,7.255647331058549,0.052839845,-0.355829,-0.046120327,89.4572,10.818614,-38.530323
4870366683000.0,-5.777683262504847,-1.2822033841721598,7.328919691508336,-0.00030543262,-0.36560285,-0.019242255,89.41759,10.7371,-38.36868
4870371756000.0,-5.642049850717332,-1.3462524974796433,7.404271543233811,-0.041233405,-0.37507126,0.013133603,89.38413,10.662456,-38.14905
4870376755000.0,-5.598800388857227,-1.396237649857522,7.4553835554289085,-0.076052725,-0.3549127,0.048258353,89.34201,10.595664,-37.947514
4870381694000.0,-5.608095822717893,-1.4380671022305198,7.492565290871573,-0.118202426,-0.33628133,0.08368854,89.28784,10.536131,-37.754883
4870387073000.0,-5.654940933163525,-1.4690909015792155,7.481383796841569,-0.1386664,-0.29016098,0.11178834,89.24329,10.489279,-37.55217
4870391726000.0,-5.715475522924096,-1.4880078868059097,7.443549826388181,-0.16615535,-0.22785273,0.13164146,89.192505,10.450078,-37.371056
4870396682000.0,-5.806203115353444,-1.507460056046826,7.41927591243584,-0.16676621,-0.16340645,0.16462818,89.137985,10.410103,-37.214115
4870401678000.0,-5.987159540027015,-1.524694074092751,7.449435286555605,-0.18509217,-0.10995574,0.1908954,89.08354,10.379018,-37.079796
4870406959000.0,-6.173518810380803,-1.5337929045644236,7.487811387323943,-0.20311269,-0.08093964,0.21777347,89.03272,10.342344,-36.97872
4870411692000.0,-6.268097746131107,-1.4076874237176142,7.617857784037558,-0.22449298,-0.05375614,0.23884831,88.97923,10.308256,-36.89775
4870416654000.0,-6.367252759693966,-1.275480494505303,7.754196305164319,-0.25167647,-0.037873644,0.25045475,88.925934,10.275322,-36.84158
4870421786000.0,-6.352439592112844,-1.218151404658786,7.7748128935134595,-0.28985557,-0.028099801,0.26847526,88.86524,10.246051,-36.795345
4870427095000.0,-6.28678328878514,-1.1928989803019767,7.74450987881196,-0.3182608,0.0015271631,0.29779682,88.79995,10.217612,-36.762497
4870431685000.0,-6.153882516913415,-1.214282426783311,7.702382230955585,-0.33475417,0.036957346,0.3381139,88.68988,10.156697,-36.73704
4870436731000.0,-5.980442917128757,-1.2533062756123825,7.650350432516824,-0.35002577,0.087964594,0.37659842,88.57506,10.098465,-36.727093
4870441705000.0,-5.92152255959996,-1.3032313690425426,7.527778721200122,-0.3549127,0.15393804,0.43066,88.4422,10.031568,-36.72854
4870446750000.0,-5.990200586658545,-1.3670037751751447,7.321744640024367,-0.35216382,0.1704314,0.44898596,88.30992,9.967028,-36.730774
4870451729000.0,-6.076490615578847,-1.473797034635541,7.218622098094331,-0.33658674,0.22021692,0.46120325,88.19037,9.8976345,-36.744637
4870456753000.0,-6.181933197837066,-1.625084155435922,7.214037644240115,-0.3203988,0.27977628,0.49205196,88.060905,9.822363,-36.768097
4870462402000.0,-6.376797945653053,-1.7793071846340478,7.315429641285887,-0.2846632,0.3222314,0.5204572,87.943016,9.761632,-36.828053
4870466744000.0,-6.591184107864941,-1.8843984208249087,7.483575434836231,-0.2724459,0.3371976,0.54305923,87.819786,9.698872,-36.896168
4870471755000.0,-6.82281637606425,-1.9627007000614412,7.666664475941368,-0.26145032,0.33322698,0.5580254,87.71897,9.657197,-36.980175
4870476776000.0,-7.033845749223207,-1.9838036197489688,7.83548800972527,-0.2556471,0.2864958,0.5546656,87.61557,9.61355,-37.053608
4870481710000.0,-7.239090223961568,-1.984371227038044,7.996643809879658,-0.25961772,0.2489276,0.5647449,87.516556,9.5810175,-37.13563
4870487225000.0,-7.454373205182454,-1.8511008024456523,8.145291364712733,-0.28221974,0.18112154,0.57726765,87.41314,9.551695,-37.1934
4870491738000.0,-7.626857507340677,-1.7388307879439926,8.26893187027695,-0.29657507,0.10567969,0.5815437,87.3015,9.518388,-37.246647
4870496744000.0,-7.779867420323278,-1.5808850197776176,8.42687830845259,-0.30268374,0.06536258,0.5946773,87.18121,9.484585,-37.29013
4870501759000.0,-7.939718960310018,-1.4311191877810736,8.545325474212994,-0.3191771,0.0030543262,0.61117065,87.01856,9.428274,-37.318684
4870506730000.0,-8.13559215183236,-1.330904950310975,8.43600009912927,-0.36010507,-0.071776666,0.64476824,86.843506,9.374139,-37.332844
4870511788000.0,-8.330171374532148,-1.2443572318472926,8.319292238908758,-0.4147775,-0.12705997,0.63713247,86.636566,9.301651,-37.33721
4870516750000.0,-8.452696827580471,-1.3826924101222655,8.125623352507693,-0.45540005,-0.19242255,0.6264423,86.41613,9.231082,-37.31905
4870521737000.0,-8.575839599517591,-1.521724561282542,7.930978705897031,-0.47983465,-0.25167647,0.6105598,86.17397,9.1605,-37.325558
4870526792000.0,-8.542315530890274,-1.4570501132009717,7.769049693526243,-0.47861293,-0.29565877,0.6096435,85.93031,9.093207,-37.31765
4870531705000.0,-8.428030299292429,-1.2881063167916358,7.629919386165382,-0.47555858,-0.33261612,0.6258314,85.686066,9.03126,-37.295086
4870536773000.0,-8.27677871469687,-1.211073514483335,7.546931709850525,-0.47616947,-0.35063666,0.64843345,85.475784,9.006209,-37.302048
4870541749000.0,-8.117503288459753,-1.1668304483242038,7.484991481905116,-0.4810564,-0.4025602,0.66553766,85.259125,8.978961,-37.289616
4870546750000.0,-7.958027969275482,-1.1522188693377622,7.556398744197634,-0.50610185,-0.4334089,0.679893,85.00999,8.930619,-37.282677
4870551710000.0,-7.800250647290845,-1.1571494203030932,7.7141765810255345,-0.50976706,-0.51159966,0.6817256,84.7555,8.877801,-37.248207
4870556717000.0,-7.712869025083461,-1.1211283946855546,7.911656336912388,-0.52839845,-0.6032294,0.6985244,84.483536,8.82565,-37.19038
4870561713000.0,-7.661064431381395,-1.0650069017684742,8.127507879058017,-0.589485,-0.6942484,0.69913524,84.21484,8.786471,-37.111103
4870566687000.0,-7.605798931409452,-0.9871921204935172,8.209742103722292,-0.62949663,-0.77763146,0.70738196,83.93723,8.738885,-36.976814
4870571760000.0,-7.544841245713091,-0.8805164887808449,8.128465631482642,-0.6606508,-0.84421575,0.73792523,83.65066,8.698952,-36.826363
4870576745000.0,-7.580262914730291,-0.8114535648340249,7.962029830809128,-0.679893,-0.8958339,0.7528914,83.34956,8.651594,-36.630604
4870581686000.0,-7.6931611768672195,-0.7721846598029045,7.726416656898341,-0.68203104,-0.9462303,0.7770206,83.035355,8.600427,-36.424225
4870586702000.0,-7.780413784091321,-0.7724503856187714,7.529477595995651,-0.6441574,-0.9786061,0.7974846,82.69915,8.533221,-36.2156
4870591718000.0,-7.850045570719333,-0.7985623328700852,7.359750025203841,-0.61208695,-0.9786061,0.80573124,82.3632,8.465727,-36.008236
4870596700000.0,-7.780207038664585,-0.7513000566614644,7.268367473474927,-0.56413406,-0.9425651,0.79045963,82.022964,8.391886,-35.84156
4870602180000.0,-7.477507858098663,-0.580364105246658,7.293295542417045,-0.5357288,-0.9129381,0.79259765,81.67877,8.311038,-35.67843
4870609942000.0,-7.039287467663158,-0.3314542992463158,7.338741125726316,-0.5390886,-0.8582657,0.7825184,81.35436,8.2468815,-35.557423
4870611719000.0,-6.908517719673684,-0.2526341530073684,7.381733938547368,-0.57910025,-0.82863873,0.7742717,81.033394,8.184196,-35.44071
4870616704000.0,-6.5416706776210525,-0.0315207996021052,7.5023412384421055,-0.6068946,-0.77366084,0.75777835,80.68916,8.088367,-35.30285
4870621748000.0,-6.30788097083296,0.1251940195992109,7.582755484228459,-0.7012733,-0.7984009,0.7696902,80.33983,8.014352,-35.154922
4870626701000.0,-6.184543321518873,0.2272664854478615,7.629538840778266,-0.7602218,-0.7476991,0.8127562,79.99774,7.9362397,-35.04707
4870631695000.0,-6.074505107763547,0.274009905737931,7.696514615014778,-0.81122905,-0.6731735,0.8304713,79.634964,7.8421965,-34.89033
4870636691000.0,-5.994369415428571,0.2033019312,7.804933426285714,-0.83291477,-0.625526,0.84757555,79.26382,7.7479916,-34.746017
4870641751000.0,-5.898464819938314,0.1561292974659238,7.894763706496866,-0.8399397,-0.5656612,0.8677341,78.87289,7.6437325,-34.60699
4870646749000.0,-5.769885588697642,0.1656536973047458,7.937623383941896,-0.8594874,-0.535118,0.88453287,78.48314,7.5449905,-34.47681
4870651689000.0,-5.6412088327982985,0.1789062676571263,7.8700468464513635,-0.8717047,-0.55863625,0.9184359,78.094086,7.455267,-34.32665
4870656727000.0,-5.505916660220461,0.2022324853268226,7.520153800618836,-0.89980453,-0.6722572,0.9260717,77.70999,7.374767,-34.162384
4870661690000.0,-5.448290437958138,0.1624555553130795,7.141247338390886,-0.9233228,-0.795652,0.981355,77.2906,7.2906084,-33.972786
4870666701000.0,-5.668677961935883,-0.1087906004698401,6.632660577788572,-0.9251554,-0.9636399,0.99296147,76.88079,7.2127504,-33.74177
4870672327000.0,-5.931365800945068,-0.4239815871903918,6.043162847036818,-0.8961393,-1.1282681,1.0002918,76.44727,7.139701,-33.491745
4870676718000.0,-6.299805196101595,-0.7841413753396338,5.384939843473124,-0.81489426,-1.2470814,0.9605856,76.02566,7.058552,-33.21187
4870682210000.0,-6.750673180605227,-1.2337462760131204,4.56871428147286,-0.7357872,-1.2174544,0.9098838,75.65338,7.0498276,-33.001797
4870686742000.0,-6.709342213342503,-1.5689861946249075,4.187551119183155,-0.6780604,-1.1652255,0.8399397,75.30063,7.0345087,-32.76762
4870692010000.0,-6.647708777239885,-1.945053648265896,3.799798694653179,-0.6426302,-1.1044444,0.75594574,75.0518,7.1110306,-32.642323
4870696718000.0,-6.464458934356936,-2.1527368290462428,3.974904233309248,-0.61758476,-1.0170907,0.68661255,74.826416,7.1829743,-32.54176
4870701685000.0,-6.271128014730853,-2.3718452315390173,4.159642808182803,-0.5907067,-0.9306532,0.6081163,74.69972,7.3320894,-32.47766
4870706797000.0,-6.159646492346385,-2.61822102352303,4.537397422842489,-0.54519725,-0.8011498,0.5335908,74.60094,7.478525,-32.451946
4870711721000.0,-6.071277860055233,-2.860071498283854,4.94203172437124,-0.516792,-0.6899723,0.47036624,74.52752,7.6306396,-32.446392
4870716706000.0,-6.056362531018425,-3.171166008736586,5.104240259748937,-0.48563787,-0.6038403,0.4129449,74.51921,7.8176713,-32.425182
4870721772000.0,-6.061274058534116,-3.5051501362320305,5.202471117776878,-0.45875978,-0.50610185,0.3631594,74.53565,8.004643,-32.438454
4870726744000.0,-5.735289546593063,-4.038253903921892,5.235539639449617,-0.4016439,-0.42149702,0.28955013,74.61985,8.220232,-32.415863
4870731748000.0,-5.336496061382549,-4.6186760561835705,5.255281876905331,-0.34025195,-0.3662137,0.22082779,74.72226,8.431405,-32.411724
4870736797000.0,-5.020895421698576,-5.0063973110162,5.27862328622484,-0.30909783,-0.33017266,0.16462818,74.90044,8.702313,-32.40468
4870741749000.0,-4.839300209131075,-5.094867015405007,5.306560928954344,-0.26236662,-0.30207285,0.12522738,75.097244,8.95816,-32.408974
4870746740000.0,-4.676982578058881,-5.161505044440442,5.3201132357702345,-0.20647246,-0.30298916,0.106901415,75.438354,9.334714,-32.320065
4870751798000.0,-4.550508579085261,-5.187671986062843,5.307029787728459,-0.17898351,-0.30207285,0.06627888,75.798065,9.708589,-32.240005
4870756622000.0,-4.422062564257956,-5.193739504043693,5.294314635573994,-0.10751228,-0.28405234,0.019547688,76.18108,10.082275,-32.11943
4870761627000.0,-4.225723369005356,-5.047743690841298,5.279211689297343,-0.023823744,-0.28099802,-0.034513887,76.573944,10.44511,-31.998707
4870766614000.0,-4.038420454074427,-4.903132245687023,5.318559382061069,0.046120327,-0.24220806,-0.10629055,76.98832,10.809909,-31.873669
4870771646000.0,-3.882077318425573,-4.760583944312977,5.571467317938931,0.1160644,-0.15241088,-0.18692477,77.42209,11.156871,-31.766222
4870776613000.0,-3.740797100020632,-4.62343792863627,5.778497317515989,0.17073683,-0.07513642,-0.22937989,77.83472,11.473772,-31.648138
4870781606000.0,-3.706268655952136,-4.514919961563854,5.635450803362905,0.24007004,-0.01160644,-0.25289822,78.268555,11.774494,-31.552832
4870787831000.0,-3.721734023169203,-4.40855825144136,5.602951401933751,0.3313944,0.00061086525,-0.23365596,78.65095,12.031717,-31.426552
4870791637000.0,-3.803312651745748,-4.379190003760072,5.762845448522829,0.42149702,0.09315695,-0.26633725,79.064896,12.2797575,-31.340675
4870796604000.0,-3.909776405854968,-4.340863128764548,5.971514321199642,0.48502702,0.11148291,-0.22999077,79.42459,12.493128,-31.24379
4870801585000.0,-4.017441925472852,-4.153992067977792,6.1321075709043,0.56016344,0.12950343,-0.21135938,79.80422,12.687324,-31.173143
4870806590000.0,-4.125691122329914,-3.955534845996048,6.289971355838901,0.61666846,0.15577064,-0.18845193,80.16916,12.862917,-31.116573
4870811600000.0,-4.196037194645134,-3.777287182065448,6.222132325116872,0.6722572,0.13347405,-0.09407325,80.47605,12.991206,-31.058237
4870816574000.0,-4.25677051678708,-3.605209929239269,6.100665945070124,0.70188415,0.14905111,-0.05100725,80.79398,13.115784,-31.01861
4870821613000.0,-4.164390658036248,-3.40114833591914,6.11738222615017,0.7443393,0.18112154,-0.004581489,81.02925,13.166655,-30.988136
4870826559000.0,-4.060619224058953,-3.198322588637722,6.145683571101374,0.7583892,0.17104226,0.054061573,81.24141,13.209573,-30.956997
4870831558000.0,-3.858983088321884,-2.9832270120706577,6.208045217075564,0.7733554,0.17531833,0.10415252,81.42171,13.214953,-30.953394
4870836547000.0,-3.647988045731109,-2.7675429949165853,6.27368816817468,0.77091193,0.18509217,0.17470746,81.57413,13.211096,-30.95575
4870841582000.0,-3.4442811412812118,-2.4774822927752767,6.316678319402374,0.77304995,0.13775012,0.20586158,81.67332,13.170847,-30.927887
4870846548000.0,-3.244742108268522,-2.18060722046664,6.355612735120753,0.72234815,0.11026118,0.28099802,81.73709,13.129118,-30.91797
4870851560000.0,-3.1774416922003983,-1.7885384820571213,6.658653077170509,0.6609562,0.090713486,0.34697145,81.74442,13.045243,-30.873314
4870856814000.0,-3.12014991058924,-1.368398451124395,7.002403916396243,0.5494733,0.086132,0.3930918,81.73233,12.979968,-30.831316
4870861564000.0,-3.207564238727496,-0.7136729676861703,7.452712818903437,0.3830125,0.13041973,0.41508293,81.64886,12.887058,-30.77735
4870866548000.0,-3.3247429933919803,0.0235766163563828,7.9507225007364974,0.18325958,0.24678956,0.42394048,81.561066,12.826254,-30.746681
4870871597000.0,-3.71310452984868,0.7289833543368608,8.640645732370686,-0.06291912,0.27214047,0.42180246,81.36356,12.727186,-30.67504
4870876557000.0,-4.140617825071704,1.4148838539907032,9.35003610720997,-0.30665436,0.2660318,0.37873647,81.18538,12.681708,-30.625679
4870881561000.0,-4.817618836042023,1.710935122115471,9.796598118344258,-0.48502702,0.16829337,0.3182608,80.84775,12.525558,-30.5383
4870886557000.0,-5.543660685588579,1.9257404232198976,10.187543978091048,-0.52412236,0.07391469,0.24556783,80.53185,12.403498,-30.4473
4870891674000.0,-6.406597937706014,1.7306462961358575,10.075825051781738,-0.45998153,0.03970624,0.1731803,80.07295,12.1465845,-30.338387
4870896578000.0,-7.306143681848552,1.291333251948775,9.657431390311803,-0.32650748,0.046120327,0.093462385,79.6451,11.89866,-30.212023
4870901570000.0,-7.798536109728718,0.572203039818522,8.97496233544434,-0.19333886,0.1731803,0.029321533,79.20187,11.57728,-30.184597
4870906721000.0,-8.204621386529467,-0.2353529212871841,8.208937658615529,-0.1160644,0.37293324,-0.033292156,78.80271,11.259023,-30.174372
4870911618000.0,-8.225393080960671,-0.8967476974272839,7.653084682025809,-0.06536258,0.56413406,-0.076052725,78.549416,11.013121,-30.31556
4870916625000.0,-8.082973827324867,-1.5253565891683736,7.161983978943057,-0.05375614,0.66950834,-0.09743301,78.32508,10.771628,-30.482706
4870921683000.0,-7.868432672355626,-1.7972239669378844,7.046984464377853,-0.089186326,0.71929383,-0.10720685,78.32214,10.715665,-30.784168
4870926626000.0,-7.633573713087914,-1.9334421191704705,7.070470335780909,-0.12675454,0.7113526,-0.11484267,78.32922,10.661431,-31.092497
4870931605000.0,-7.494103151029749,-1.7332048036613272,7.295094173913044,-0.18448131,0.6765333,-0.116675265,78.46688,10.748423,-31.417435
4870936602000.0,-7.39335539798627,-1.395918006617849,7.601718784347826,-0.24862215,0.6401868,-0.12339478,78.606346,10.845944,-31.73299
4870941674000.0,-7.268430299812135,-1.0728934208089291,7.910151381478617,-0.2687807,0.5626069,-0.13591751,78.759865,10.972452,-31.988548
4870946611000.0,-7.127356165874683,-0.7750704916454857,8.207973765056913,-0.28710666,0.4831944,-0.13897185,78.907936,11.110754,-32.227875
4870951673000.0,-6.972331977781944,-0.6764438117465079,8.25098369982188,-0.2666427,0.41325033,-0.13225232,78.970985,11.163387,-32.40422
4870956702000.0,-6.814306248710977,-0.6583837284241117,8.1922886176057,-0.25717425,0.37690386,-0.11026118,79.025826,11.219819,-32.564575
4870961691000.0,-6.617053636899061,-0.7693371584275044,7.844888564163953,-0.24740042,0.35460728,-0.089186326,79.01269,11.212461,-32.669678
4870966678000.0,-6.392937751829151,-0.9660102157824172,7.305181211070676,-0.23854288,0.38056904,-0.06383542,78.99245,11.199318,-32.777184
4870971761000.0,-6.267987189940771,-1.1206181905808177,7.00055792290791,-0.23182335,0.44104472,-0.040927973,78.96585,11.182535,-32.869827
4870976675000.0,-6.241013376432938,-1.2285137262705388,6.928627534486052,-0.22327125,0.48472157,-0.022602014,78.933815,11.160441,-32.964073
4870981742000.0,-6.248889464824758,-1.334807586429757,6.921671359796934,-0.21135938,0.5222898,-0.0143553335,78.962204,11.189343,-33.091568
4870988486000.0,-6.3245538133164105,-1.46722042673045,7.035168080054671,-0.20677789,0.5488624,-0.002443461,78.98587,11.21391,-33.226288
4870991709000.0,-6.387004869003494,-1.5166180768188076,7.133560708588372,-0.18448131,0.55833083,0.013439035,79.031944,11.249014,-33.368534
4870997052000.0,-6.52247252335063,-1.5816426074870276,7.350309295033358,-0.16462818,0.5726862,0.025045475,79.077896,11.281742,-33.516243
4871001727000.0,-6.632119849230333,-1.6529483245348948,7.513852930588347,-0.16279559,0.56077427,0.043676864,79.13179,11.319385,-33.65724
4871006774000.0,-6.741669490735669,-1.744239589186892,7.664483455302673,-0.16340645,0.5366451,0.06078109,79.182274,11.3508415,-33.795517
4871011746000.0,-6.844007555949589,-1.8196335490132864,7.769427819519343,-0.15577064,0.5305365,0.07788532,79.22809,11.380258,-33.929688
4871016714000.0,-6.936968707883939,-1.870762257805784,7.8019641426143025,-0.16340645,0.52106804,0.09621128,79.26542,11.409952,-34.05386
4871021768000.0,-7.0206616445944805,-1.928469387374462,7.824251,-0.16035213,0.5216789,0.11453723,79.30732,11.443077,-34.17566
4871026758000.0,-7.081158351151996,-1.9970321305595409,7.824251,-0.14049901,0.54702985,0.12950343,79.34532,11.470955,-34.29926
4871032196000.0,-7.143295778505778,-2.0711959583037585,7.823449233688234,-0.13072516,0.57818395,0.12614368,79.39273,11.502833,-34.436565
4871036774000.0,-7.123347213286014,-2.123061877932478,7.807490598143598,-0.11728613,0.59773165,0.13713925,79.43133,11.523969,-34.57568
4871041717000.0,-7.101808166129766,-2.179063022695422,7.790259594321594,-0.09101892,0.6411031,0.1328632,79.4935,11.556789,-34.7364
4871046698000.0,-7.104155910615551,-2.2008309085097197,7.789815135097192,-0.076358154,0.69974613,0.14996742,79.54757,11.583288,-34.90446
4871051666000.0,-7.114432105950324,-2.2111068355939527,7.794953205939525,-0.030848695,0.7452556,0.16249016,79.607,11.597672,-35.07552
4871056751000.0,-7.140718929257937,-2.203858656914021,7.816480357714947,0.013439035,0.7651087,0.1731803,79.67508,11.616387,-35.254913
4871061689000.0,-7.168099169574448,-2.1947319101418508,7.839297224645373,0.05467244,0.7657196,0.17501289,79.74401,11.624793,-35.43626
4871066690000.0,-7.184886355665964,-2.181230985606745,7.819689288668072,0.10476339,0.74189585,0.18051068,79.80942,11.619139,-35.613853
4871071715000.0,-7.19937704747566,-2.166740344233665,7.79070790504868,0.14752395,0.7110472,0.1957823,79.870026,11.604511,-35.78497
4871076706000.0,-7.2051813042042046,-2.219115803303303,7.714074718318318,0.172264,0.68661255,0.2171626,79.91953,11.578795,-35.95431
4871081683000.0,-7.2092708139339345,-2.2845485995195194,7.628193946426427,0.19486602,0.6945538,0.24648413,79.961006,11.541209,-36.120674
4871086725000.0,-7.170496915344178,-2.36563263162071,7.543992090597103,0.20738874,0.73761976,0.27916542,79.99399,11.491959,-36.29829
4871091742000.0,-7.089481422019441,-2.460944783515176,7.462976746558223,0.22082779,0.8167268,0.3173445,80.018776,11.433279,-36.485462
4871096689000.0,-7.005294598136879,-2.578299361670256,7.447966104952719,0.24587326,0.9108001,0.36285394,80.05263,11.378664,-36.702618
4871101706000.0,-6.915327777586368,-2.7222463966763413,7.50194641335081,0.27366763,0.9822713,0.43066,80.07056,11.311801,-36.933254
4871106741000.0,-6.84096273053961,-2.8529866326062,7.60641457152698,0.29565877,1.0338894,0.48563787,80.10555,11.256247,-37.177593
4871111791000.0,-6.795532654347146,-2.958990249138921,7.803278340444629,0.33444872,1.0641272,0.514654,80.1307,11.185615,-37.430958
4871116702000.0,-6.760606990053181,-3.01057671532401,7.930833334725231,0.37690386,1.0479393,0.5448918,80.15985,11.133682,-37.657536
4871121739000.0,-6.736853621134528,-2.996324743578885,7.97833987413827,0.42180246,1.0259482,0.56199604,80.186005,11.07185,-37.88429
4871126717000.0,-6.747261897020283,-2.9236275611470117,7.964478498563992,0.44043383,0.9960158,0.5726862,80.21432,11.016028,-38.06605
4871131733000.0,-6.807621006982588,-2.764107011227787,7.861005828666308,0.45051312,0.97127575,0.5580254,80.24387,10.955906,-38.236935
4871136683000.0,-6.881810165576538,-2.586556321468509,7.745560379575904,0.44959682,0.96486163,0.5531385,80.25736,10.883984,-38.40865
4871141722000.0,-7.029449091243802,-2.3065516530857684,7.562284629496782,0.4447099,0.94897914,0.5314528,80.278854,10.818919,-38.563614
4871146697000.0,-7.153679407735004,-2.0523929552014324,7.41501366965085,0.43401974,0.87109387,0.4978552,80.267845,10.734877,-38.72445
4871151682000.0,-7.222063030787825,-1.8557897321038492,7.355178049686661,0.39492437,0.763887,0.48899764,80.2521,10.660511,-38.86709
4871156735000.0,-7.288954694712547,-1.6610897199748216,7.272409474821653,0.3539964,0.64660084,0.4783075,80.19628,10.551447,-39.03585
4871161728000.0,-7.30902045751154,-1.5557438105119596,6.770762261959714,0.30818152,0.5195409,0.4700608,80.13335,10.45628,-39.16613
4871166734000.0,-7.3409366315789475,-1.4470766288201162,6.264350783161967,0.24617869,0.38698313,0.47250426,80.0205,10.33372,-39.28953
4871171744000.0,-7.443509789473684,-1.3200813657640231,5.736831904000814,0.19486602,0.31520647,0.4569272,79.91273,10.226633,-39.38866
4871176748000.0,-7.537618792268406,-1.195073703787224,5.257723385982557,0.15699236,0.31398472,0.45020768,79.802216,10.121502,-39.535984
4871182608000.0,-7.603761878934549,-1.0583782568633615,4.949056185385401,0.12522738,0.3417791,0.44532076,79.69415,10.030738,-39.66731
4871188945000.0,-7.67319441068,-0.91213338353,4.63589830986,0.10934488,0.37751472,0.4654793,79.58729,9.928157,-39.875
4871191728000.0,-7.68918569566,-0.858828872985,4.64122878457,0.07513642,0.38148534,0.48533243,79.48251,9.838656,-40.078136
4871196714000.0,-7.717835550819999,-0.763328948595,4.650778819389999,0.056505036,0.37598756,0.54641896,79.3475,9.7198,-40.337284
4871201682000.0,-7.647621276167639,-0.615874925145955,4.679208607850292,0.013439035,0.35002577,0.58459806,79.212364,9.615013,-40.588646
4871206763000.0,-7.515724512510425,-0.4332486565638032,4.719792353753127,-0.016798794,0.3182608,0.659429,79.04056,9.493898,-40.839783
4871211698000.0,-7.397849293188168,-0.3602139684536082,4.779924724087099,-0.062002823,0.27030787,0.72204274,78.83592,9.361949,-41.082577
4871216853000.0,-7.278935129973986,-0.3269179828865979,4.8512732220156085,-0.081855945,0.2501493,0.75991637,78.61287,9.222527,-41.32388
4871221730000.0,-7.109719194660734,-0.2848647252057842,4.8745947,-0.116675265,0.21655174,0.7809912,78.328445,9.0558195,-41.53214
4871226690000.0,-6.907175286614757,-0.2364303022172784,4.8745947,-0.14538592,0.17837265,0.7959574,78.031265,8.88745,-41.731716
4871231699000.0,-6.767684349423856,-0.1611474468109623,4.836848160292744,-0.1740966,0.16157386,0.7910705,77.72021,8.721468,-41.904537
4871236680000.0,-6.70083305211253,-0.0571566283598048,4.75761701225994,-0.19975294,0.14172074,0.79534656,77.39848,8.557899,-42.063625
4871241718000.0,-6.6332167429668845,0.0480242074878023,4.677479183753763,-0.21227567,0.118202426,0.79626286,77.065865,8.393611,-42.186558
4871246704000.0,-6.566298339354303,0.1521194134298764,4.598168502346102,-0.20769419,0.1142318,0.795652,76.734245,8.232186,-42.306232
4871251665000.0,-6.628434093024868,0.2381894977231745,4.515651698989399,-0.21868975,0.10781772,0.79534656,76.40158,8.077363,-42.418255
4871256709000.0,-6.77201507877737,0.3147659984702269,4.429503197493312,-0.24098633,0.12034045,0.7901542,76.074326,7.926624,-42.53098
4871261684000.0,-6.890601343636543,0.3560992302900552,4.282412367511839,-0.26083946,0.124311075,0.7812967,75.709236,7.7461867,-42.646145
4871266683000.0,-6.99451194054854,0.3749920669889502,4.093483951203631,-0.28496864,0.1328632,0.75716746,75.3553,7.5769672,-42.76173
4871271733000.0,-7.117825135024177,0.4263247291980658,4.101731204415655,-0.3115413,0.12156218,0.7339546,74.99322,7.400076,-42.902325
4871276697000.0,-7.252276123437642,0.5000559301249886,4.253530741063772,-0.3454443,0.051923547,0.7067711,74.64041,7.236741,-43.02404
4871281694000.0,-7.391274221023749,0.5580055397558898,4.410240539606396,-0.398895,0.02687807,0.6731735,74.30889,7.087647,-43.191193
4871286689000.0,-7.536108898855143,0.5896881030826,4.5731795285362855,-0.44806966,-0.04886922,0.627664,73.98598,6.9533896,-43.319675
4871291701000.0,-7.661580283248082,0.6225598046419437,4.716057007352941,-0.48441613,-0.11759156,0.59040123,73.64808,6.8129077,-43.437286
4871296694000.0,-7.732918356031543,0.6582289261658141,4.802681886029411,-0.5329799,-0.17715092,0.54641896,73.32823,6.696441,-43.531227
4871301698000.0,-7.78175724828443,0.6853435107617318,4.891375738411545,-0.5717699,-0.25778514,0.50671273,73.004684,6.5825396,-43.59123
4871306723000.0,-7.795555515033929,0.6991416814584728,4.983363543056485,-0.605062,-0.2733622,0.4550946,72.705864,6.4895473,-43.64857
4871311706000.0,-7.769888533389866,0.7193994994064024,5.053100272842909,-0.6383542,-0.3472769,0.40469822,72.406075,6.4024086,-43.662292
4871316689000.0,-7.653544515539537,0.7548085368348527,5.073333872694509,-0.68386364,-0.398895,0.355829,72.12903,6.3353205,-43.674698
4871321694000.0,-7.553921214243788,0.7737895307180591,5.139375896106437,-0.70341134,-0.44043383,0.30115658,71.86584,6.275928,-43.655464
4871326691000.0,-7.479015685619252,0.7691078862942673,5.270460864507924,-0.7461719,-0.52198434,0.22999077,71.62552,6.244068,-43.60757
4871331714000.0,-7.405881797130223,0.7291716915892068,5.406483019131848,-0.7840455,-0.55924714,0.18142697,71.39023,6.2168927,-43.54309
4871336688000.0,-7.337100996552658,0.6302992458713113,5.548343689648949,-0.79168135,-0.569021,0.160963,71.170975,6.200645,-43.462925
