timestamp,acc_x,acc_y,acc_z,gyro_x,gyro_y,gyro_z,ori_azimuth,ori_pitch,ori_roll
5023034318000.0,-5.136672789281859,0.4636779254375145,9.891497919454938,-1.1704178,0.7528914,0.036651913,98.84364,26.289604,-24.365864
5023037247000.0,-5.140051777822642,0.4239410251657544,9.856221291621694,-1.1704178,0.74281216,0.035430185,98.84811,26.294027,-24.352571
5023042263000.0,-5.145838396641547,0.3558903963630406,9.795809012614678,-1.1676689,0.7461719,0.036651913,98.50882,25.9889,-24.653288
5023047247000.0,-5.15158809923194,0.2882739023533267,9.735782138896385,-1.1655309,0.75502944,0.032986723,98.17588,25.6924,-24.942959
5023052238000.0,-5.157345877247321,0.220562441357644,9.675670957771182,-1.1850786,0.7687739,0.031154128,97.84865,25.407753,-25.226255
5023058112000.0,-5.164122312443142,0.140871573417624,9.604924999460334,-1.1908818,0.7715228,0.036651913,97.5252,25.12582,-25.500784
5023062209000.0,-5.168848743324531,0.0852887532013723,9.555581078588776,-1.1979067,0.75808376,0.03604105,97.208694,24.857098,-25.765034
5023067236000.0,-5.174648052096986,0.0170888905635648,9.495036316513762,-1.1969905,0.7293731,0.03634648,96.893585,24.59364,-26.018538
5023072220000.0,-5.180397754687379,-0.050527603446149,9.435009442795469,-1.153619,0.7104363,0.029932396,96.5851,24.328777,-26.26205
5023077298000.0,-5.186255898699021,-0.1194193684102998,9.373850441041554,-1.1233811,0.7987063,0.062002823,96.28208,24.067886,-26.522955
5023082224000.0,-5.191938690625241,-0.1862489931077018,9.314522114409066,-1.273654,0.7629707,0.05681047,95.97589,23.853788,-26.734268
5023087231000.0,-5.197714926754876,-0.2541775214998842,9.254218230639504,-1.2476922,0.7611381,0.06261369,95.67953,23.58834,-26.97441
5023092253000.0,-5.203508467366626,-0.3223095505762856,9.193733688140853,-1.2403619,0.7440339,0.064446285,95.38354,23.371668,-27.192894
5023097231000.0,-5.209251248164174,-0.389844644312312,9.133779077914191,-1.2431108,0.73364913,0.07422013,95.08916,23.154392,-27.407148
5023103963000.0,-5.217017499736913,-0.4811757513896384,9.052699440299511,-1.241889,0.7125743,0.080634214,94.796196,22.939764,-27.607105
5023107222000.0,-5.220777186884203,-0.5253896667142086,9.013448320426336,-1.246776,0.6969972,0.09590584,94.50205,22.729748,-27.80139
5023112223000.0,-5.226546501220993,-0.5932367948327038,8.953216700148408,-1.2525792,0.68325275,0.09285152,94.21365,22.526367,-27.982782
5023117703000.0,-5.232868405353288,-0.6675823781339141,8.887216044454938,-1.2357804,0.5849035,0.1001819,93.90887,22.319813,-28.13519
5023122211000.0,-5.238068979044599,-0.7287411170977565,8.832922074406367,-1.097114,0.5491679,0.10170906,93.61852,22.090631,-28.29319
5023127840000.0,-5.244562774365893,-0.805108140528872,8.765126875337291,-1.0390818,0.44165558,0.09285152,93.311134,21.882502,-28.40153
5023132297000.0,-5.249704512818017,-0.865574977166371,8.71144714496762,-0.8332202,0.41050145,0.092240654,93.01173,21.607864,-28.516714
5023137282000.0,-5.255455369040551,-0.9332050378883664,8.651408227334052,-0.7657196,0.35246924,0.0842994,92.70449,21.361065,-28.590986
5023142247000.0,-5.261183152620268,-1.0005637643647367,8.591610188005935,-0.6453791,0.23732115,0.0571159,92.39682,21.060207,-28.636003
5023147130000.0,-5.266816338364428,-1.0668100204340452,8.532799749730167,-0.41080686,-0.0018325958,0.013133603,92.07825,20.725092,-28.627094
5023152030000.0,-5.272469135854984,-1.1332869106121348,8.473784564894764,0.021380283,-0.015271631,0.002443461,91.77845,20.317924,-28.64547
5023157044000.0,-5.278253447409606,-1.2013104059902862,8.413396373718294,0.06291912,0.021380283,0.0067195175,91.468956,19.961433,-28.610373
5023162053000.0,-5.284031990803523,-1.269266067807031,8.353068402118186,-0.0015271631,0.025350908,0.015577064,91.16133,19.53553,-28.561628
5023167035000.0,-5.289779386129635,-1.3368554283921823,8.293065616230436,-0.0027488936,0.013133603,0.01740966,90.8628,19.09412,-28.51695
5023172960000.0,-5.296614656564644,-1.4172381986585458,8.22170541824069,0.0070249503,0.02107485,0.014966198,90.57129,18.67456,-28.478308
5023177064000.0,-5.30134916287102,-1.4729159858607663,8.172277189962223,0.007941248,0.027183503,0.014966198,90.282166,18.265953,-28.435682
5023182055000.0,-5.3071069408864,-1.540627446856449,8.11216600883702,-0.0036651916,0.04062254,0.023823744,89.997955,17.865995,-28.397127
5023187044000.0,-5.312862411637499,-1.6083117744275692,8.052078915542364,-0.0012217305,0.026267206,0.02076942,89.719894,17.472677,-28.350916
5023192017000.0,-5.318599424274343,-1.6757790346021897,7.992184524892067,-0.0027488936,0.020158553,0.009162978,89.44901,17.091557,-28.30992
5023196998000.0,-5.3243456659683135,-1.7433548284750595,7.932193782919589,-0.009773844,0.0290161,0.012217305,89.17928,16.71771,-28.26975
5023202038000.0,-5.3301599719586,-1.8117310583725232,7.871492449946033,-0.0027488936,0.030543262,0.017104227,88.91564,16.350046,-28.2247
5023207050000.0,-5.33594197624894,-1.879727420326112,7.811128346600108,-0.0027488936,0.035430185,0.02321288,88.656334,15.992963,-28.183037
5023212072000.0,-5.341735516860689,-1.9478594494025128,7.750643804101457,-0.004276057,0.03359759,0.013744468,88.404076,15.643546,-28.138723
5023217050000.0,-5.342658648258416,-1.972972144359124,7.725184217836454,0.0030543262,0.04428773,0.02443461,88.14957,15.295582,-28.10116
5023222057000.0,-5.340744640747227,-1.973211395922583,7.719920673447393,0.0009162979,0.036651913,0.021380283,87.90431,14.960756,-28.055872
5023227061000.0,-5.338831780035026,-1.973450504135794,7.71466028276977,0.0021380284,0.040011674,0.019547688,87.890114,14.91836,-28.099836
5023232048000.0,-5.336925417850424,-1.973688800030935,7.709417763123625,-0.003970624,0.040011674,0.02321288,87.8745,14.878621,-28.140093
5023237042000.0,-5.335016379801518,-1.973927430409987,7.704167884817459,0.0033597588,0.034208454,0.02321288,87.86067,14.836617,-28.178308
5023242531000.0,-5.332918119919569,-1.9741897135799145,7.698397644124118,0.007941248,0.043676864,0.016798794,87.849495,14.797842,-28.219574
5023247032000.0,-5.331197539171044,-1.974404786734923,7.693666025730836,0.0033597588,0.03634648,0.018936822,87.83385,14.758979,-28.254484
5023252045000.0,-5.32928123806188,-1.9746443249988772,7.688396173918901,0.0070249503,0.035430185,0.018936822,87.8226,14.718748,-28.29227
5023257016000.0,-5.327380992138548,-1.9748818563593635,7.683170474067088,0.0033597588,0.035430185,0.019242255,87.81026,14.68177,-28.327784
5023262033000.0,-5.325463161964065,-1.9751215857569813,7.677896417306569,-0.0018325958,0.02107485,0.02107485,87.79625,14.644674,-28.358526
5023267035000.0,-5.323551065784523,-1.9753605984033609,7.672638129103237,0.005192355,0.029626964,0.009773844,87.78864,14.607867,-28.393806
5023272051000.0,-5.32163361787637,-1.975600280017563,7.667365123579864,0.004886922,0.028710667,0.013133603,87.77389,14.572439,-28.423307
5023277049000.0,-5.319723050762145,-1.9758391015302788,7.662111040325115,0.0009162979,0.025350908,0.017715093,87.76304,14.538192,-28.453032
5023282044000.0,-5.317813630446909,-1.976077779692747,7.656860110781804,-0.005497787,0.013133603,0.013744468,87.753075,14.505953,-28.479029
5023287045000.0,-5.315901916533696,-1.9763167445557104,7.651602873815618,0.0030543262,0.018936822,0.015271631,87.74154,14.470138,-28.509275
5023292044000.0,-5.313990967153142,-1.9765556138518416,7.646347739323724,0.011911872,0.020463986,0.019547688,87.72903,14.436541,-28.534403
5023297037000.0,-5.312082311370565,-1.976794196447478,7.641098912254704,0.007941248,0.015577064,0.011911872,87.719894,14.4060545,-28.557985
5023302044000.0,-5.310168303859376,-1.977033448010937,7.635835367865643,0.0061086523,0.012217305,0.016187929,87.706154,14.371159,-28.583174
5023307043000.0,-5.308257354478822,-1.9772723173070683,7.630580233373748,0.009162978,0.01160644,0.013439035,87.69696,14.338695,-28.606104
5023312121000.0,-5.306316206058247,-1.9775149614930567,7.625242051147334,0.013133603,0.01282817,0.010079277,87.68662,14.306508,-28.628448
5023317057000.0,-5.304429339456444,-1.9777508204339864,7.620053144595626,-0.00061086525,0.009162978,0.0030543262,87.67795,14.279456,-28.648323
5023322049000.0,-5.302521065940196,-1.977989355246207,7.614805368763752,0.00580322,0.014966198,0.009773844,87.66712,14.245506,-28.671537
5023327046000.0,-5.3006108810923,-1.9782281289755064,7.609552336746149,0.0009162979,0.0106901415,0.01282817,87.65847,14.2198,-28.689724
5023332045000.0,-5.298699931711747,-1.9784669982716383,7.604297202254255,0.0061086523,0.004581489,0.013439035,87.648964,14.189915,-28.708908
5023337043000.0,-5.296789364597522,-1.978705819784354,7.599043118999506,0.01282817,0.011301007,0.0143553335,87.6393,14.160892,-28.730307
5023342027000.0,-5.294884149211908,-1.978943972329247,7.593803753064798,0.002443461,0.002443461,0.0070249503,87.63019,14.1364355,-28.744781
5023347115000.0,-5.29293917812804,-1.9791870943493943,7.588455058466927,0.00580322,-0.011911872,0.0076358155,87.61853,14.106188,-28.759886
5023352105000.0,-5.29103166914445,-1.979425533594783,7.583209385109344,0.0021380284,-0.010995574,0.005497787,87.6107,14.082173,-28.775658
5023357059000.0,-5.289137921748718,-1.9796622526371987,7.578001556289012,-0.0015271631,-0.008552114,0.008552114,87.60001,14.056974,-28.78816
5023362109000.0,-5.287207476785366,-1.9799035588875415,7.572692808702681,0.003970624,-0.01160644,0.004581489,87.59188,14.032155,-28.798485
5023367077000.0,-5.285308377661023,-1.98014094689778,7.567470262562306,-0.00061086525,-0.013439035,0.002443461,87.582664,14.010481,-28.809988
5023372084000.0,-5.283394370149835,-1.980380198461239,7.562206718173245,0.0036651916,-0.02321288,0.002443461,87.573135,13.985942,-28.818146
5023377058000.0,-5.281492977427515,-1.980617873171973,7.556977864609996,0.0033597588,-0.01740966,-0.003970624,87.567604,13.9653015,-28.82926
5023387113000.0,-5.277649289485632,-1.981098335418943,7.546407675108896,0.004886922,-0.021685716,-0.003970624,87.558365,13.942641,-28.835337
5023392068000.0,-5.275755159823572,-1.9813351022447747,7.541198795051417,-0.003970624,-0.01863139,-0.0009162979,87.551414,13.923513,-28.84466
5023397085000.0,-5.273837329649089,-1.981574831642393,7.535924738290897,0.0033597588,-0.022296581,0.006414085,87.54218,13.89977,-28.851217
5023402067000.0,-5.271932878796134,-1.981812888620454,7.530687474830482,0.0027488936,-0.015882496,-0.0018325958,87.538155,13.882334,-28.860312
5023407037000.0,-5.270033015139132,-1.982050372197524,7.525462826215816,0.0125227375,-0.021380283,-0.004581489,87.52879,13.859068,-28.86604
5023412098000.0,-5.268098365246157,-1.9822922040654425,7.520142515020881,0.004581489,-0.021991149,0.0009162979,87.52051,13.840727,-28.87476
5023417084000.0,-5.268026243047734,-1.982399,7.518314499903008,0.008857546,-0.022296581,0.0012217305,87.514275,13.818466,-28.881365
5023422102000.0,-5.2694531044121575,-1.982399,7.519265749089955,0.009468411,-0.01863139,-0.0070249503,87.50941,13.799899,-28.888584
5023432070000.0,-5.27228749143499,-1.982399,7.521155356881007,0.0067195175,-0.017715093,-0.0018325958,87.50478,13.783083,-28.910929
5023437081000.0,-5.273712362359089,-1.982399,7.52210527909619,0.009468411,-0.02321288,0.002443461,87.502785,13.766424,-28.931198
5023442095000.0,-5.275138086329041,-1.982399,7.523055770013559,0.014049901,-0.021685716,-0.005192355,87.50361,13.751305,-28.95252
5023447079000.0,-5.276555279840458,-1.982399,7.524000573909085,0.0143553335,-0.015271631,0.0033597588,87.497955,13.733999,-28.974707
5023452072000.0,-5.277975032489435,-1.982399,7.524947083911163,0.005192355,-0.0125227375,0.008552114,87.49557,13.719852,-28.994905
5023457078000.0,-5.279398481670444,-1.982399,7.525896058289374,0.010995574,-0.013133603,0.003970624,87.49385,13.70247,-29.015266
5023461992000.0,-5.28079577077861,-1.982399,7.526827592467265,0.01160644,-0.0143553335,0.005192355,87.4889,13.687405,-29.036465
5023467000000.0,-5.282219788656855,-1.982399,7.527776945980265,0.0033597588,-0.008857546,0.009468411,87.485,13.673668,-29.058655
5023471978000.0,-5.283635276076565,-1.982399,7.528720612471422,0.0070249503,-0.01038471,0.0067195175,87.48222,13.657995,-29.077568
5023476978000.0,-5.285057019165866,-1.982399,7.529668449445264,0.0070249503,-0.002443461,0.01282817,87.47668,13.6437,-29.101038
5023482008000.0,-5.286487292713704,-1.982399,7.530621973440948,0.01160644,-0.002443461,0.014660766,87.47253,13.628671,-29.120798
5023487009000.0,-5.287909320151624,-1.982399,7.531569999982185,0.010079277,-0.014660766,0.010995574,87.46789,13.6153965,-29.13881
5023492006000.0,-5.2893302101950725,-1.982399,7.532517268253843,0.0076358155,-0.0015271631,0.0067195175,87.465126,13.601371,-29.163303
5023497991000.0,-5.291032036672967,-1.982399,7.533651829111531,0.003970624,0.00030543262,0.012217305,87.45841,13.587463,-29.181301
5023501988000.0,-5.292168578098556,-1.982399,7.53440952998842,0.003970624,-0.0076358155,0.011911872,87.455215,13.57499,-29.198889
5023507035000.0,-5.293603685572897,-1.982399,7.535366276629817,0.003970624,0.00061086525,0.009162978,87.45268,13.56326,-29.221107
5023512029000.0,-5.295023722570492,-1.982399,7.536312976199289,0.0033597588,-0.0015271631,0.00061086525,87.4505,13.552822,-29.237312
5023517026000.0,-5.296444612613941,-1.982399,7.537260244470947,-0.0027488936,0.00580322,0.0067195175,87.44616,13.542288,-29.258783
5023521977000.0,-5.297852422620968,-1.982399,7.538198792642445,-0.008246681,-0.00061086525,0.009468411,87.44417,13.533703,-29.274475
5023527032000.0,-5.2992898048842525,-1.982399,7.539157055822999,0.00580322,0.0021380284,0.019547688,87.439384,13.520059,-29.295206
5023532027000.0,-5.300710126230465,-1.982399,7.540103944959867,0.0021380284,0.0061086523,0.009162978,87.43981,13.514891,-29.312666
5023537025000.0,-5.302131300622532,-1.982399,7.541051402798919,0.0030543262,0.013744468,0.013744468,87.432945,13.501758,-29.3333
5023541991000.0,-5.303543375858826,-1.982399,7.541992794481339,0.0021380284,0.004886922,0.0106901415,87.43069,13.49281,-29.348587
5023547026000.0,-5.304975071149753,-1.982399,7.542947266313997,0.0076358155,0.012217305,0.006414085,87.4295,13.48181,-29.370148
5023552029000.0,-5.30639766728491,-1.982399,7.543895671990024,0.0143553335,0.015577064,0.011301007,87.42529,13.47006,-29.388159
5023556992000.0,-5.307808889475351,-1.982399,7.544836494970259,-0.0012217305,0.0106901415,0.00580322,87.42564,13.464827,-29.404293
5023562012000.0,-5.3092363195370105,-1.982399,7.545788123291996,0.004276057,0.014660766,0.010079277,87.42241,13.450882,-29.424395
5023567630000.0,-5.31083379007215,-1.982399,7.546853112915805,0.013133603,0.017104227,0.0143553335,87.42038,13.440934,-29.441845
5023572024000.0,-5.312083217899029,-1.982399,7.547686072048417,0.01038471,0.021685716,0.008552114,87.42072,13.433541,-29.460052
5023577031000.0,-5.313506951428656,-1.982399,7.5486352359940225,0.0076358155,0.011301007,0.008246681,87.4169,13.4228115,-29.475048
5023582031000.0,-5.314928694517958,-1.982399,7.549583072967864,0.0027488936,0.022602014,0.014966198,87.41498,13.413351,-29.49688
5023587029000.0,-5.316349868910025,-1.982399,7.550530530806916,0.0036651916,0.021991149,0.014049901,87.41363,13.404495,-29.511547
5023591996000.0,-5.317762228494937,-1.982399,7.55147211205673,0.0027488936,0.021380283,0.008246681,87.4127,13.397223,-29.52897
5023597020000.0,-5.319190795951068,-1.982399,7.552424498648047,0.00030543262,0.015577064,0.011911872,87.408585,13.389053,-29.544971
5023602012000.0,-5.320610264251427,-1.982399,7.553370819082731,0.002443461,0.024129177,0.013439035,87.40819,13.3813,-29.563723
5023607022000.0,-5.322034850826908,-1.982399,7.55432055173052,-0.0030543262,0.025045475,0.016187929,87.4051,13.375486,-29.578747
5023611996000.0,-5.323449200852146,-1.982399,7.555263459952098,-0.017104227,0.027488936,0.016493361,87.40318,13.371532,-29.595907
5023616996000.0,-5.324591689093172,-1.98222963319763,7.55621331120158,-0.0015271631,0.020463986,0.014049901,87.400566,13.361787,-29.610392
5023622039000.0,-5.323618339173284,-1.9807696045064287,7.557186663662381,-0.0027488936,0.014660766,0.013439035,87.39764,13.359384,-29.625479
5023627033000.0,-5.322654446748156,-1.9793237620944013,7.558150558603732,-0.002443461,0.027183503,0.011301007,87.39885,13.34808,-29.660635
5023632033000.0,-5.321689396262444,-1.9778761825869644,7.55911561160869,0.007941248,0.019242255,0.01740966,87.39535,13.333765,-29.688301
5023637311000.0,-5.320670688969728,-1.9763481176589144,7.560134321560724,0.0018325958,0.009162978,0.016493361,87.395615,13.32506,-29.71724
5023642006000.0,-5.319764506563645,-1.9749888405014309,7.56104050633238,-0.0033597588,0.01863139,0.016493361,87.39466,13.312882,-29.74911
5023647022000.0,-5.318796367916381,-1.9735366287395704,7.5620086475069535,-0.0033597588,0.016798794,0.024129177,87.38971,13.30023,-29.774878
5023652031000.0,-5.317829580339796,-1.97208644358902,7.56297543760732,-0.00580322,0.008552114,0.008246681,87.3925,13.293152,-29.798946
5023656996000.0,-5.316871285207485,-1.9706489971381356,7.5639337352412435,0.00061086525,0.009162978,0.009162978,87.38819,13.280579,-29.826077
5023662029000.0,-5.315899865388568,-1.9691918636059496,7.5649051575960335,0.005192355,0.0076358155,0.0076358155,87.38879,13.27194,-29.848341
5023667054000.0,-5.3149299896504285,-1.967737046200976,7.565875035866016,-0.0021380284,0.009468411,0.0070249503,87.38912,13.264625,-29.871254
5023672035000.0,-5.313968606356564,-1.966294967495667,7.566836421669556,-0.0076358155,0.01740966,0.015577064,87.38738,13.254858,-29.895447
5023677047000.0,-5.313001239749688,-1.9648439137974123,7.567803790801725,-0.0018325958,0.01038471,-0.00061086525,87.39253,13.248038,-29.913538
5023682046000.0,-5.312036382274074,-1.9633966238058769,7.568768650796082,-0.0018325958,0.012217305,-0.0018325958,87.3917,13.240736,-29.93743
5023687050000.0,-5.311070559747974,-1.961947886234834,7.569734475843444,-0.00580322,0.011911872,0.0061086523,87.39222,13.234195,-29.957752
5023692014000.0,-5.310112457625761,-1.960510729299851,7.570692580466766,-0.009162978,0.01038471,0.010079277,87.39436,13.228438,-29.97735
5023697037000.0,-5.309142967907816,-1.95905649092668,7.571662072715547,-0.0061086523,0.009468411,0.004276057,87.39711,13.222514,-29.99639
5023706998000.0,-5.307220394330182,-1.9561726230319645,7.573584651312024,0.00061086525,0.00061086525,-0.0015271631,87.39775,13.216069,-30.012625
5023712059000.0,-5.3062435702285455,-1.9547073830545367,7.574561477963642,-0.01160644,0.0009162979,-0.005497787,87.40034,13.214258,-30.030396
5023717048000.0,-5.305280642853903,-1.9532629882220165,7.575524407851989,-0.014660766,0.0070249503,-0.01038471,87.40476,13.209698,-30.046473
5023722042000.0,-5.304316750428775,-1.951817145809988,7.576488302793341,-0.023518313,0.01985312,-0.004581489,87.4076,13.20865,-30.064665
5023727043000.0,-5.303351506932968,-1.95036927678665,7.5774535488089,-0.020158553,0.025350908,-0.0027488936,87.413055,13.206715,-30.081495
5023732045000.0,-5.302386070427063,-1.9489211182474104,7.57841898783506,-0.02687807,0.032986723,-0.0030543262,87.41858,13.208908,-30.102276
5023737049000.0,-5.301420247900963,-1.9474723806763676,7.579384812882422,-0.026267206,0.03023783,-0.01038471,87.42528,13.2093,-30.120811
5023742014000.0,-5.300461952768652,-1.9460349342254823,7.5803431105163455,-0.008857546,0.017104227,-0.01038471,87.42943,13.20619,-30.138563
5023747037000.0,-5.299492463050707,-1.9445806958523115,7.581312602765125,0.006414085,0.006414085,-0.009162978,87.43539,13.20436,-30.155273
5023752926000.0,-5.298355826588637,-1.9428757367084528,7.582449242194365,0.018325957,-0.008552114,-0.008857546,87.440025,13.19931,-30.166744
5023757016000.0,-5.2975664152913255,-1.9416916166713687,7.583238655552421,0.028710667,-0.008552114,-0.009773844,87.44492,13.191053,-30.179121
5023762014000.0,-5.2966017508258085,-1.9402446161957356,7.584203322536177,0.020463986,-0.023518313,-0.010079277,87.44683,13.184528,-30.183157
5023767051000.0,-5.295629558966504,-1.9387863245999435,7.585175516933371,0.035124753,-0.020463986,-0.015577064,87.45213,13.171007,-30.191578
5023772033000.0,-5.294667982662541,-1.9373439563787336,7.586137095747511,0.03145956,-0.007330383,-0.011301007,87.45393,13.162811,-30.199362
5023777048000.0,-5.293700037025373,-1.9358920341327743,7.5871050439114835,0.022907447,0.01038471,-0.011911872,87.45959,13.154027,-30.208454
5023782040000.0,-5.29273653062044,-1.9344467707525492,7.588068552831634,0.023518313,0.018020526,-0.0036651916,87.4612,13.142219,-30.219255
5023787055000.0,-5.291768584983272,-1.9329948485065904,7.589036500995607,0.02687807,0.040927973,-0.0012217305,87.467606,13.133004,-30.238407
5023792039000.0,-5.290806622659115,-1.9315519012535771,7.589998465830948,0.021380283,0.050701816,-0.0030543262,87.47217,13.125467,-30.255987
5023797110000.0,-5.289827868456507,-1.9300837661171348,7.590977222588576,0.023823744,0.051618114,-0.00061086525,87.475716,13.114448,-30.27741
5023802134000.0,-5.288858185728465,-1.9286292382280623,7.591946907847959,0.032070424,0.06780604,0.0030543262,87.48151,13.103686,-30.305107
5023807078000.0,-5.287903943808194,-1.927197871611109,7.592901152259261,0.026267206,0.073303826,-0.0021380284,87.4884,13.096983,-30.329025
5023812093000.0,-5.286935998171026,-1.9257459493651496,7.593869100423234,0.026572637,0.07147124,0.0021380284,87.49174,13.085132,-30.355658
5023817060000.0,-5.293288632421035,-1.9251470220954632,7.603178141092454,0.025961773,0.06078109,-0.0012217305,87.49873,13.0771,-30.37965
5023823093000.0,-5.312385647531788,-1.9257257192483936,7.627483457771724,0.025350908,0.06261369,-0.0018325958,87.50431,13.068224,-30.406418
5023827032000.0,-5.324854260580231,-1.926103555828104,7.643352617791556,0.027488936,0.051923547,0.0012217305,87.51082,13.046008,-30.440353
5023832055000.0,-5.340754195422153,-1.9265853718067496,7.663588919081126,0.025350908,0.04520403,-0.0009162979,87.51941,13.026466,-30.474348
5023837077000.0,-5.356650964838065,-1.9270670918634407,7.683821191642586,0.027794369,0.062002823,0.006414085,87.52486,13.0040245,-30.511847
5023842018000.0,-5.372291334747269,-1.927541042241798,7.70372713722725,0.017715093,0.05467244,-0.00030543262,87.532585,12.988144,-30.538721
5023847022000.0,-5.388131126495025,-1.928021035703304,7.723886892682756,0.022602014,0.056505036,0.005497787,87.53598,12.965629,-30.573242
5023852086000.0,-5.404160843803304,-1.9285067844820936,7.744288371824779,0.020158553,0.061086524,0.010995574,87.54102,12.948909,-30.605068
5023857037000.0,-5.419832867972596,-1.9289816940799984,7.764234604690529,0.021685716,0.06383542,0.013133603,87.5451,12.930175,-30.636175
5023862081000.0,-5.435799276760701,-1.9294655244196937,7.78455550927038,0.017104227,0.060170226,0.011911872,87.54819,12.91371,-30.66601
5023867105000.0,-5.451702377028631,-1.929947436320294,7.804795839288058,0.01282817,0.06627888,0.005192355,87.55329,12.897795,-30.698135
5023872104000.0,-5.467526341646343,-1.930426950172026,7.824935451103021,0.017104227,0.06780604,0.004886922,87.555885,12.880582,-30.72751
5023877101000.0,-5.483343975412036,-1.930906272179849,7.845067005461766,0.02443461,0.07269296,-0.004581489,87.56426,12.866459,-30.757458
5023882107000.0,-5.499190098011809,-1.931386457485264,7.86523481837349,0.028099801,0.07849618,-0.004276057,87.569626,12.851189,-30.787943
5023887098000.0,-5.51498873922145,-1.931865203961358,7.885342200363584,0.024740042,0.08032878,-0.015271631,87.581535,12.839396,-30.816294
5023892890000.0,-5.533322886664096,-1.9324207839231968,7.9086765935686785,0.036651913,0.09101892,-0.023823744,87.59359,12.823036,-30.848051
5023897112000.0,-5.546687315273013,-1.9328257664160975,7.925685883643248,0.028710667,0.096516706,-0.023518313,87.6058,12.813061,-30.877892
5023902108000.0,-5.562501783612698,-1.9333049925019656,7.945813409273885,0.021380283,0.11148291,-0.03359759,87.625496,12.803343,-30.911041
5023907099000.0,-5.57830042482234,-1.93378373897806,7.965920791263979,0.026572637,0.11178834,-0.04520403,87.64447,12.793098,-30.940676
5023912098000.0,-5.594124389440052,-1.934263252829792,7.986060403078942,0.024740042,0.10995574,-0.064751714,87.66997,12.789415,-30.971563
5023917040000.0,-5.609767924775264,-1.934737299130104,8.005970377391714,0.03176499,0.11575896,-0.08093964,87.69841,12.783905,-31.00312
5023922107000.0,-5.62580713836157,-1.935223335674758,8.026383942718063,0.04184427,0.13225232,-0.095294975,87.73282,12.781071,-31.035007
5023927099000.0,-5.641608944997221,-1.9357021780728068,8.046495353436265,0.05467244,0.14569137,-0.11026118,87.77228,12.778701,-31.065605
5023932095000.0,-5.657423413336906,-1.936181404158675,8.066622879066903,0.06841691,0.17073683,-0.12797627,87.81897,12.776587,-31.101826
5023937092000.0,-5.6732410471026,-1.9366607261664968,8.086754433425648,0.055588737,0.19792034,-0.12797627,87.86533,12.777787,-31.141623
5023942048000.0,-5.688928898401935,-1.9371361153741755,8.106720809931941,0.051923547,0.21655174,-0.13225232,87.91928,12.777204,-31.18326
5023947092000.0,-5.70489530719004,-1.9376199457138708,8.127041714511792,0.045814894,0.22907446,-0.13713925,87.97435,12.780812,-31.229395
5023952101000.0,-5.720750926067839,-1.9381004187851505,8.147221613607842,0.02321288,0.23976462,-0.1591304,88.03686,12.792927,-31.277174
5023957062000.0,-5.736454604497218,-1.9385762876026025,8.167208133754677,0.026267206,0.2452624,-0.17104226,88.097374,12.799822,-31.325901
5023962503000.0,-5.753677687410795,-1.939098198958328,8.189128443393647,0.029626964,0.2779437,-0.16890424,88.16274,12.813472,-31.383043
5023967119000.0,-5.768289293867157,-1.939540974701396,8.207725052343012,0.03145956,0.29901853,-0.19517145,88.23959,12.833039,-31.434044
5023972095000.0,-5.784040453686667,-1.9400182823481689,8.227772003411475,0.04428773,0.33017266,-0.2134974,88.31582,12.847782,-31.495935
5023977103000.0,-5.7998929071384575,-1.9404986594974936,8.247947873779417,0.045814894,0.35979962,-0.2443461,88.40515,12.870923,-31.558552
5023982095000.0,-5.815694713774108,-1.9409775018955424,8.26805928449762,0.043982297,0.38912117,-0.2764165,88.50219,12.895005,-31.626282
5023987081000.0,-5.831477527853705,-1.9414557687618628,8.288146522847171,0.05009095,0.39736784,-0.30390546,88.607025,12.921037,-31.69231
5023992064000.0,-5.847250845655277,-1.941933747862319,8.308221675012396,0.04795292,0.43279803,-0.31764993,88.721176,12.952494,-31.77036
5023997081000.0,-5.863131787941146,-1.9424149883092363,8.328433803933313,0.040317107,0.43401974,-0.35643986,88.84829,12.992032,-31.835093
5024002097000.0,-5.879009564801006,-1.942896132834199,8.348641904126124,0.035430185,0.45265114,-0.3998113,88.984245,13.034411,-31.910631
5024007083000.0,-5.894792378880604,-1.9433743997005195,8.368729142475674,0.034208454,0.44806966,-0.45478916,89.13263,13.085555,-31.97398
5024012106000.0,-5.910692313722525,-1.943856215679165,8.388965443765244,0.03940081,0.45265114,-0.5161811,89.2975,13.143989,-32.03889
5024017037000.0,-5.928176026310584,-1.9646947228486649,8.377665035855589,0.05467244,0.44990227,-0.5412266,89.46493,13.202963,-32.097
5024022118000.0,-5.948108792001119,-2.006991066684651,8.334153273100942,0.041233405,0.47311515,-0.5555819,89.64889,13.275173,-32.157673
5024027069000.0,-5.967531567622816,-2.048205236795252,8.291754781190242,0.03848451,0.5021312,-0.60231316,89.83054,13.326123,-32.243206
5024032303000.0,-5.988064552394369,-2.0917752158618828,8.246932784288484,0.04550946,0.5216789,-0.6768387,90.02462,13.384852,-32.326138
5024037126000.0,-6.006985183948286,-2.1319238610736444,8.20563043597798,0.057726767,0.52595496,-0.7648033,90.23682,13.452653,-32.404957
5024042066000.0,-6.026364806564159,-2.173046462638252,8.163326143907923,0.06872234,0.52870387,-0.8445212,90.469124,13.529583,-32.480392
5024047086000.0,-6.046058269222392,-2.2148350172646345,8.120336762087742,0.106901415,0.52656585,-0.8677341,90.708015,13.601994,-32.55033
5024052095000.0,-6.065708578874801,-2.256532003345023,8.077441580108204,0.10995574,0.50854534,-0.9129381,90.97481,13.696053,-32.605865
5024057047000.0,-6.085135277497028,-2.2977544978688966,8.035034524575629,0.14752395,0.4792238,-0.97341377,91.24869,13.778825,-32.65216
5024062093000.0,-6.104930738169029,-2.339759487240356,7.991822488586658,0.17440203,0.46975538,-1.0525209,91.53925,13.873386,-32.69158
5024067104000.0,-6.124588893822498,-2.381473122147289,7.948910179363367,0.21868975,0.44623706,-1.0751228,91.822205,13.955268,-32.717133
5024072190000.0,-6.1445412745156816,-2.423811088049636,7.905355598499336,0.23273966,0.419359,-1.0903945,92.12226,14.0491085,-32.731895
5024078106000.0,-6.167749745648373,-2.4730583169678986,7.854693211477786,0.2510656,0.39370266,-1.1050552,92.42211,14.134759,-32.737736
5024082112000.0,-6.183465285769665,-2.5064059165362824,7.820387342240407,0.25961772,0.3662137,-1.0818423,92.70657,14.215581,-32.73688
5024087095000.0,-6.203013597408307,-2.547886467871594,7.777714814429658,0.2828306,0.37995818,-1.1236867,93.01339,14.301113,-32.733234
5024092056000.0,-6.222475603035298,-2.5891838821149173,7.735230686300193,0.30757064,0.3811799,-1.1829406,93.309395,14.383137,-32.718895
5024097081000.0,-6.242188680696181,-2.631014058807661,7.69219848637063,0.32253686,0.3436117,-1.2385293,93.61012,14.467914,-32.694244
5024102031000.0,-6.261607533317347,-2.6722199045049906,7.649808558081808,0.34605515,0.3109304,-1.2321151,93.905136,14.544196,-32.671436
5024107119000.0,-6.28156776001159,-2.714574519233881,7.606236849974024,0.36713,0.25717425,-1.2049317,94.19987,14.622715,-32.63001
5024112060000.0,-6.300951305627991,-2.755705445211761,7.5639239942820895,0.37812558,0.2312125,-1.1914927,94.49096,14.698968,-32.587288
5024117080000.0,-6.3206447682862255,-2.797493999838144,7.520934612461909,0.39370266,0.2180789,-1.239751,94.783844,14.774394,-32.53152
5024122103000.0,-6.340349999946048,-2.839307527704343,7.477919539776099,0.44929138,0.18509217,-1.3347405,95.077736,14.842737,-32.461647
5024127098000.0,-6.359945387591044,-2.880887971998921,7.435144248502833,0.49418998,0.15363261,-1.3778065,95.364006,14.909075,-32.39037
5024132109000.0,-6.379603543244512,-2.922601606905854,7.392231939279542,0.53786683,0.12889257,-1.3521502,95.65036,14.966373,-32.311634
5024137074000.0,-6.399081240873622,-2.9639323188022657,7.349713556662571,0.552833,0.13622294,-1.3701707,95.958984,15.033402,-32.227745
5024142048000.0,-6.4185942455074985,-3.005337950418128,7.307118101448712,0.5702427,0.0842994,-1.4156802,96.253815,15.08966,-32.123272
5024148124000.0,-6.442430396724915,-3.0559170854599405,7.255085534926915,0.5910121,0.033292156,-1.4776831,96.55497,15.147081,-32.02034
5024152113000.0,-6.4580792458372045,-3.089123170002697,7.220925247261437,0.61850107,-0.021685716,-1.5409076,96.859604,15.205958,-31.900862
5024157064000.0,-6.477502021458902,-3.1303373401132992,7.178526755350738,0.68844515,-0.07941248,-1.5677856,97.16092,15.253418,-31.767832
5024162089000.0,-6.497215099119783,-3.1721675168060424,7.135494555421175,0.7122689,-0.12492194,-1.5619824,97.46139,15.309757,-31.624266
5024167103000.0,-6.51688502377484,-3.213906124952792,7.092556555332255,0.75594574,-0.14813483,-1.5549575,97.7603,15.34835,-31.473238
5024172079000.0,-6.536405874409775,-3.255328405395198,7.049943972874642,0.79198676,-0.13591751,-1.5109752,98.03863,15.376325,-31.327972
5024177114000.0,-6.5561581820759525,-3.297241826220663,7.006826136726314,0.8072584,-0.12003502,-1.4706581,98.3082,15.398421,-31.18248
5024182102000.0,-6.575726108717242,-3.338763999622336,6.964110790806183,0.8026769,-0.07971791,-1.4309518,98.56252,15.410513,-31.055325
5024187100000.0,-6.595333265363826,-3.3803694171567304,6.921309808667287,0.7806858,-0.056505036,-1.4056009,98.8035,15.419911,-30.934278
5024192058000.0,-6.61478350198923,-3.421641858160237,6.878851371403451,0.7779369,0.009773844,-1.402852,99.04309,15.424153,-30.840998
5024197098000.0,-6.634555424658054,-3.463596901052063,6.835690717145741,0.7761043,0.049480084,-1.389413,99.26642,15.428893,-30.7531
5024202115000.0,-6.6542371183147,-3.505360482438629,6.79272702619119,0.7837401,0.0693332,-1.3869696,99.492836,15.434328,-30.679508
5024207093000.0,-6.673765814950694,-3.54679941170758,6.750097316489825,0.806953,0.07086037,-1.3741413,99.70961,15.433907,-30.615786
5024212104000.0,-6.693423970604162,-3.588513046614513,6.707185007266533,0.84574294,0.043676864,-1.3631458,99.921074,15.428878,-30.551395
5024217932000.0,-6.685447309677419,-3.61289855658444,6.703844869259962,0.88789266,-0.0027488936,-1.3756685,100.130035,15.420224,-30.48286
5024222111000.0,-6.661465596689304,-3.616096115533806,6.729025660593728,0.9266826,-0.06352998,-1.3603969,100.31854,15.398435,-30.408304
5024227107000.0,-6.632795427249575,-3.6199188014660937,6.759129329773795,0.93401295,-0.108123146,-1.3353515,100.75612,15.527477,-30.40576
5024232100000.0,-6.6041424736842105,-3.623739191950464,6.789214922291022,0.9388999,-0.15363261,-1.3023647,101.17372,15.6439085,-30.388199
5024237096000.0,-6.575472304244482,-3.627561877882752,6.819318591471088,0.9483683,-0.16187929,-1.2657127,101.57543,15.752924,-30.371157
5024242050000.0,-6.54704315704584,-3.631352427544192,6.849169187371418,0.95356065,-0.121256754,-1.1777482,101.94511,15.848923,-30.36288
5024247092000.0,-6.518109010865874,-3.635210310344552,6.879550032048337,0.94714653,-0.054061573,-1.1548407,102.3201,15.949677,-30.35717
5024252100000.0,-6.489369977928693,-3.639042178068511,6.909726007879756,0.93615097,-0.057421334,-1.1801916,102.67427,16.044516,-30.346767
5024257058000.0,-6.4609178762309,-3.6428357883271754,6.939600705997204,0.93523467,-0.059864793,-1.1801916,103.01557,16.131626,-30.358576
5024262084000.0,-6.432075548047538,-3.64668142873864,6.969885141805653,0.9431759,-0.04734206,-1.1676689,103.35713,16.22144,-30.371635
5024267109000.0,-6.403238958488964,-3.650526304000799,7.000163552059822,0.94042706,-0.009468411,-1.1420126,103.69208,16.312315,-30.391373
5024272130000.0,-6.374425323429541,-3.6543681186657344,7.0304178600968745,0.9392053,0.011911872,-1.1297953,104.02206,16.401274,-30.40911
5024277104000.0,-6.345881403735144,-3.6581739713132926,7.060388967082792,0.929126,0.026572637,-1.0891727,104.33379,16.48526,-30.439219
5024282102000.0,-6.31719975704584,-3.661998187544192,7.090504687371418,0.8912524,0.02687807,-1.0693196,104.64438,16.577951,-30.469086
5024287630000.0,-6.285476639219015,-3.666227932907221,7.123813951428144,0.8561276,0.006414085,-1.0592403,104.94024,16.668121,-30.498755
5024292061000.0,-6.26004879278438,-3.669618309481674,7.150513182440328,0.8436049,0.0015271631,-1.0396926,105.224396,16.757738,-30.533955
5024297083000.0,-6.23122941910017,-3.673460889295915,7.180773516031659,0.82650065,-0.003970624,-1.0088439,105.495255,16.853664,-30.564054
5024302099000.0,-6.202444477164685,-3.677298878214321,7.210997696297314,0.81581056,-0.0125227375,-1.001819,105.762436,16.951582,-30.590147
5024307093000.0,-6.173785784974533,-3.6811200338479977,7.24108931436882,0.83199847,-0.014966198,-0.9932669,106.015625,17.042002,-30.618105
5024312102000.0,-6.145041013412564,-3.684952666721262,7.271271315754519,0.82924956,-0.015577064,-0.9947941,106.26508,17.139788,-30.642544
5024317112000.0,-6.116290503225806,-3.688786064743833,7.301459342694497,0.8350528,-0.01985312,-1.0002918,106.50864,17.23066,-30.664452
5024322102000.0,-6.087654765534804,-3.6926041597802857,7.331526858548886,0.8381071,-0.007941248,-0.9941832,106.74709,17.321081,-30.690212
5024327096000.0,-6.058996073344652,-3.6964253154139617,7.361618476620394,0.8399397,0.014966198,-0.99112886,106.9853,17.411442,-30.715654
5024332096000.0,-6.0303029494057725,-3.7002510619434736,7.3917462480175775,0.8368854,0.035124753,-0.99387777,107.220856,17.501957,-30.742237
5024337108000.0,-6.00154096196944,-3.704085990264656,7.421946326066114,0.82924956,0.058337633,-0.99296147,107.45376,17.591908,-30.774967
5024342060000.0,-5.973123292020373,-3.707875009627484,7.451784870857884,0.8167268,0.04184427,-0.9914343,107.68145,17.683832,-30.80063
5024347085000.0,-5.944286702461799,-3.7117198848896433,7.482063281112055,0.8142834,0.055588737,-0.9764681,107.90743,17.772717,-30.840311
5024352096000.0,-5.915530453650255,-3.71555404806152,7.512257333606312,0.81581056,0.014049901,-0.96669424,108.12253,17.863768,-30.858807
5024357336000.0,-5.885460059762309,-3.719563430424449,7.54383123803056,0.84513205,0.010995574,-0.9624182,108.33752,17.9469,-30.89055
5024362093000.0,-5.858161421646859,-3.7232032456726256,7.572494799737841,0.8549059,-0.0030543262,-0.956615,108.53937,18.03214,-30.908045
5024367104000.0,-5.829405172835314,-3.7270374088445024,7.602688852232099,0.86651236,-0.007941248,-0.9602802,108.740364,18.110384,-30.92538
5024372064000.0,-5.800941593887945,-3.7308325494017778,7.632575601458105,0.8854492,-0.015271631,-0.95264435,108.93091,18.181559,-30.938963
5024377099000.0,-5.772047618081494,-3.734685076156996,7.6629142672550685,0.88789266,-0.03848451,-0.9682214,109.12416,18.257809,-30.94313
5024382095000.0,-5.743377448641765,-3.738507762089284,7.693017936435134,0.906524,-0.023823744,-0.9837985,109.31577,18.324274,-30.95528
5024387103000.0,-5.714638415704584,-3.7423396298132423,7.723193912266553,0.9147707,0.0106901415,-0.98807454,109.50534,18.393076,-30.965311
5024392059000.0,-5.686197791256366,-3.746131709773295,7.753056559275442,0.9257663,-0.049480084,-0.9954049,109.687706,18.45938,-30.951296
5024397081000.0,-5.657378417572156,-3.749974289587537,7.783316892866773,0.9486737,-0.022296581,-0.99296147,109.88043,18.519983,-30.969273
5024402126000.0,-5.628427055517826,-3.7538344678358135,7.813715814206532,0.9630291,-0.02321288,-0.9960158,110.06322,18.581736,-30.96186
5024407071000.0,-5.600049555942275,-3.757618131153501,7.843512180118346,0.96944314,-0.07880162,-0.99021256,110.23612,18.63808,-30.947687
5024412135000.0,-5.570989160016977,-3.76149284723859,7.874025586989414,0.98715824,-0.10842858,-0.98532563,110.41046,18.68891,-30.939123
5024417084000.0,-5.532865137777778,-3.8169065110320983,7.812442095644444,1.006095,-0.08827003,-0.96883225,110.575935,18.735155,-30.930674
5024422102000.0,-5.480655635555555,-3.9450569632197534,7.622589522488889,1.0146471,-0.06841691,-0.93615097,110.72849,18.776344,-30.91658
5024427065000.0,-5.40653420606862,-3.9976919652863807,7.452617720064027,1.0210613,-0.06505715,-0.91354895,110.6996,18.882824,-30.796535
5024432110000.0,-5.295573347623356,-3.933805531714107,7.308032493117127,1.0274754,-0.07819075,-0.88606006,110.6667,18.974188,-30.685966
5024437110000.0,-5.185602229243511,-3.870488947400654,7.164736926271836,1.035722,-0.08674286,-0.8698721,110.73796,19.065079,-30.601439
5024442026000.0,-5.009240598199075,-3.9091482273059137,7.001992758627403,1.0442741,-0.08552113,-0.85062987,110.80181,19.145374,-30.521418
5024447080000.0,-4.761875239312079,-4.046573567907844,6.813523985998216,1.0644327,-0.08674286,-0.80970186,110.85487,19.211182,-30.444706
5024452242000.0,-4.529176575020243,-4.179405570331984,6.642603655497976,1.0705414,-0.087964594,-0.7831292,110.959206,19.260883,-30.388546
5024457065000.0,-4.521696629230769,-4.224285479384616,6.709923519076924,1.1010846,-0.11362094,-0.7657196,111.05099,19.293097,-30.329962
5024462050000.0,-4.513965439149798,-4.2706728620566805,6.77950459308502,1.0937542,-0.1414153,-0.7305948,111.22599,19.358099,-30.267624
5024467086000.0,-4.460241897729951,-4.2312042579216085,6.835423144662634,1.1203269,-0.15118915,-0.7089091,111.39726,19.406317,-30.204277
5024473094000.0,-4.356294012159297,-4.109178290440656,6.889656824090802,1.1200215,-0.1554652,-0.68569624,111.55319,19.456617,-30.139847
5024477244000.0,-4.293310863279111,-4.028934333966823,6.927723817651796,1.1316279,-0.16432275,-0.6740898,111.76667,19.480406,-30.074009
5024482093000.0,-4.334446025970366,-3.987799132227412,6.980077671726527,1.1456778,-0.17134771,-0.6759224,111.97379,19.50299,-30.00928
5024487044000.0,-4.376446477709776,-3.945798640618457,7.033532802995651,1.1505647,-0.17745635,-0.6612616,112.20141,19.476376,-29.933481
5024492019000.0,-4.400711706626391,-3.904182586651323,7.090329504248178,1.1652255,-0.17012598,-0.66339964,112.4321,19.449116,-29.858854
5024497097000.0,-4.410038757700422,-3.862211075949367,7.150955263185653,1.1817188,-0.13530666,-0.6771441,112.66131,19.422033,-29.791748
5024502082000.0,-4.4216385550737725,-3.795429029810298,7.220745268262571,1.1728612,-0.11911872,-0.6774496,112.911095,19.371267,-29.736025
5024507104000.0,-4.436120494911171,-3.698882327371274,7.30280993005119,1.183246,-0.1255328,-0.68661255,113.165344,19.318317,-29.681944
5024512078000.0,-4.453065350486567,-3.5695760971637696,7.469848105797222,1.2092078,-0.13683382,-0.68508536,113.447685,19.239895,-29.637735
5024517091000.0,-4.473030624710971,-3.4018676268984445,7.7333898089495134,1.2403619,-0.1151481,-0.70371675,113.738,19.165718,-29.598085
5024522143000.0,-4.494301565279091,-3.2496254822059285,7.981494481393882,1.2244794,-0.08277224,-0.70341134,114.0324,19.062855,-29.562143
5024527095000.0,-4.527951740491958,-3.287014682899716,8.030100133869443,1.2483032,-0.13255776,-0.68508536,114.315544,18.947126,-29.511036
5024532070000.0,-4.5617582069063385,-3.3245775410280665,8.078931539577422,1.2626585,-0.18478674,-0.657291,114.57288,18.77436,-29.454796
5024537077000.0,-4.4482631971435485,-3.22723869260873,8.165675993867506,1.2721269,-0.18784106,-0.6533204,114.82982,18.602957,-29.39962
5024543105000.0,-4.154797072427984,-2.966379752949245,8.310080471879287,1.2559389,-0.22449298,-0.61758476,115.056305,18.43054,-29.329933
5024547108000.0,-3.958916586157289,-2.792592027341752,8.402497229299874,1.2403619,-0.28527406,-0.5751296,115.30047,18.253511,-29.253035
5024552098000.0,-3.699197774456522,-2.5672477830163043,8.463607580163044,1.2095132,-0.34269542,-0.5335908,115.52791,18.084343,-29.172878
5024557047000.0,-3.441612924936061,-2.343755064546036,8.524215821930946,1.1606439,-0.36743546,-0.5009095,115.704506,17.864254,-29.036554
5024562088000.0,-3.2199125364815404,-1.9165058800843413,8.632152118236792,1.1218541,-0.38789943,-0.45478916,115.85896,17.646545,-28.89508
5024567070000.0,-3.0338948123408658,-1.3318786847788036,8.776410510662,1.0797043,-0.42363504,-0.41386122,116.001335,17.44281,-28.749058
5024572211000.0,-2.8562898289453065,-0.754858246936217,8.916727388653817,1.0351112,-0.441961,-0.37782016,116.09885,17.193266,-28.561256
5024577100000.0,-2.892977632737816,-0.5824254618461056,8.927733576555399,0.9783007,-0.45906523,-0.3491095,116.18506,16.957376,-28.371176
5024582108000.0,-2.9305584307318604,-0.4057956013979,8.93900765898762,0.93309665,-0.47311515,-0.34238997,116.16052,16.589754,-28.155117
5024587078000.0,-2.986193405113078,-0.2589457406932153,8.963005571779744,0.91751957,-0.47494772,-0.32559118,116.12931,16.229345,-27.944529
5024592056000.0,-3.061195761258604,-0.1417546309244837,9.000506994591937,0.8680395,-0.48716503,-0.31306845,116.10026,15.894141,-27.730759
5024597078000.0,-3.1457468133373028,-0.0208946786333234,9.036353333234098,0.8151997,-0.50335294,-0.2883284,116.04635,15.515785,-27.529139
5024602101000.0,-3.241220151205716,0.1032208121280143,9.0697687198571,0.7528914,-0.5354234,-0.27091873,115.994095,15.157935,-27.323414
5024607071000.0,-3.322394840884628,0.189865912337706,9.081395685418768,0.70341134,-0.53878313,-0.24037547,115.929245,14.780601,-27.136213
5024612777000.0,-3.3959169291792803,0.235817195930037,9.063015283299697,0.65576386,-0.5439755,-0.21685717,115.8641,14.423803,-26.943861
5024617137000.0,-3.4578770652380952,0.274706151452381,9.051917564285716,0.6053675,-0.5653558,-0.18478674,115.775856,14.053158,-26.766838
5024622102000.0,-3.605052117142857,0.3690490875714285,9.078333728571428,0.5867361,-0.59620446,-0.13469578,115.67961,13.687984,-26.592066
5024627057000.0,-3.751930743968254,0.4632020077063492,9.104696688095238,0.5537493,-0.65209866,-0.10262536,115.58113,13.331237,-26.420288
5024632080000.0,-3.857670458569807,0.5319204044721907,9.097640136208854,0.5329799,-0.70188415,-0.05955936,115.46774,12.975148,-26.249323
5024637025000.0,-3.924862961407492,0.576715453138479,9.06180385404843,0.5006041,-0.7669413,-0.0290161,115.34859,12.634756,-26.063356
5024642031000.0,-3.9569020105305146,0.6250528234084564,9.012869078081373,0.46822822,-0.81214535,0.014660766,115.205795,12.26849,-25.903225
5024647088000.0,-3.937584149501396,0.6781769714958118,8.945256665337057,0.42180246,-0.8390234,0.051923547,115.05833,11.918662,-25.735205
5024652046000.0,-3.905171318872832,0.7001559194219653,8.846735625,0.37782016,-0.874759,0.093767814,114.898735,11.566272,-25.572056
5024657058000.0,-3.8531492938439302,0.679347138381503,8.701074375000001,0.32742378,-0.895223,0.13103059,114.73439,11.230754,-25.411247
5024662080000.0,-3.801023473872832,0.6584968394219654,8.555122500000001,0.2864958,-0.9263771,0.16523905,114.56019,10.895793,-25.24219
5024667089000.0,-3.705836234945597,0.6112957309847308,8.447165957392338,0.25778514,-0.9560041,0.18325958,114.38429,10.574914,-25.072765
5024672064000.0,-3.588216718167688,0.5503078077882417,8.360040001920089,0.22174409,-0.9593639,0.1994475,114.20392,10.2690735,-24.90764
5024677080000.0,-3.435955487459624,0.4982241165114953,8.325283873266198,0.19792034,-0.98624194,0.21013765,114.03822,9.981934,-24.73253
5024682427000.0,-3.2316327292798785,0.4544406697814934,8.354473433783014,0.18600847,-1.0167851,0.24312437,113.865234,9.701848,-24.561443
5024687013000.0,-3.054044747202903,0.4259811098417498,8.399981050902127,0.16340645,-1.0283916,0.25503623,113.71392,9.451867,-24.371296
5024692059000.0,-2.8543363655881464,0.4113682987017437,8.48765765326076,0.15271631,-1.0574077,0.28710666,113.54826,9.200324,-24.174847
5024696981000.0,-2.66480162218845,0.3978221291272253,8.592421111159357,0.12461651,-1.0558805,0.3023783,113.39394,8.973596,-23.947138
5024702096000.0,-2.4776234054711246,0.3850599842466348,8.73705856361268,0.10995574,-1.0345002,0.33261612,113.2296,8.74504,-23.724169
5024707150000.0,-2.3003792110380346,0.3655464071442155,8.891016270206023,0.07727446,-1.0458013,0.3371976,113.06951,8.536634,-23.452717
5024712098000.0,-2.2102631533201267,0.2716754917971474,9.161364482567354,0.06872234,-1.0500773,0.34208453,112.90664,8.326336,-23.195948
5024717054000.0,-2.1200013946196514,0.1776528045578446,9.43214979793978,0.065973446,-1.0012082,0.32986724,112.75401,8.12955,-22.9045
5024722082000.0,-2.1326188454042083,0.1004773584983388,9.543750486112955,0.032986723,-0.9074403,0.3200934,112.60614,7.946101,-22.630737
5024727062000.0,-2.2319122141749723,0.039211247667774,9.51839914259136,0.02687807,-0.84696466,0.2968805,112.47158,7.76299,-22.365837
5024732122000.0,-2.332800657142857,-0.0230390577142857,9.492640548571428,-0.015271631,-0.8399397,0.267559,112.3612,7.6201787,-22.071157
5024737123000.0,-2.4325127328903657,-0.0845635196146179,9.46718230179402,-0.020463986,-0.7797695,0.26267207,112.25949,7.4725547,-21.814299
5024742156000.0,-2.533818497196665,-0.1428604576566992,9.434973897642324,0.011911872,-0.73731434,0.2321288,112.177734,7.335196,-21.557707
5024747022000.0,-2.651057303105233,-0.1261120592110408,9.270839436457734,0.042760566,-0.6872234,0.17959438,112.11028,7.205357,-21.324444
5024752341000.0,-2.779210449144624,-0.1078044695414031,9.091424886716505,0.086132,-0.6389651,0.13622294,112.07678,7.091703,-21.14822
5024757057000.0,-2.810397309496413,-0.0883053789880673,8.9320086662405,0.113926366,-0.5815437,0.09560041,112.0627,6.9817696,-20.990942
5024762089000.0,-2.5913340377867744,-0.0574996111619433,8.76086562483131,0.15057829,-0.54550266,0.043066,112.06802,6.866276,-20.842932
5024767053000.0,-2.375231080559699,-0.0271101374956318,8.592035327224945,0.17715092,-0.5170974,0.009468411,112.087906,6.7466936,-20.755999
5024772022000.0,-2.198859395916429,0.0267977783119658,8.609495031339032,0.18753563,-0.49571714,0.023823744,112.11047,6.624779,-20.679327
5024777100000.0,-2.074164452288699,0.1145460653495726,8.886594691737892,0.18142697,-0.46975538,0.048563786,112.141304,6.505267,-20.613173
5024782007000.0,-1.987751139428787,0.2301195889791686,9.153729358469224,0.19700404,-0.473726,0.09315695,112.15514,6.3743186,-20.499514
5024787122000.0,-1.9738991273635595,0.4194305555358657,9.430770081911586,0.21410827,-0.5021312,0.10629055,112.17148,6.2476997,-20.388594
5024792062000.0,-1.9702608087235127,0.5741516386659871,9.642441888953616,0.21960606,-0.48502702,0.1337795,112.15764,6.094904,-20.249182
5024798210000.0,-2.013134300604384,0.6298872228791961,9.633867011505131,0.22235495,-0.46700647,0.08002335,112.16472,5.948156,-20.103165
5024802041000.0,-2.0398500370057526,0.6646177080972839,9.628523752639628,0.20433442,-0.40133846,0.14355333,112.10363,5.751704,-19.963524
5024807037000.0,-1.995383850318648,0.8128123343400757,9.672413089590838,0.13316862,-0.3643811,0.20799962,112.05983,5.5781493,-19.822577
5024812127000.0,-1.85131160482128,1.091952268855639,9.780467109171516,0.10781772,-0.35002577,0.23701571,112.01052,5.398263,-19.697681
5024817046000.0,-1.7525556,1.2803264789230548,9.784349736249458,0.09712757,-0.34147367,0.23365596,111.94667,5.2204723,-19.593147
5024822079000.0,-1.7525556,1.269889089006785,9.537330575790383,0.099265605,-0.3200934,0.23335053,111.87551,5.046511,-19.499636
5024827038000.0,-1.7525556,1.25960515962177,9.29394332828064,0.061086524,-0.30909783,0.27122417,111.75519,4.8287425,-19.373095
5024832033000.0,-1.6406908940570597,1.2746973578160603,9.033631418649168,0.02076942,-0.26236662,0.26083946,111.65336,4.6200824,-19.264229
5024837112000.0,-1.4190128443168355,1.3145994280648985,8.754316973202078,-0.054367006,-0.22357668,0.24007004,111.54543,4.4327188,-19.159496
5024842009000.0,-1.2665822853695612,1.2437439265437964,8.574095265437963,-0.11148291,-0.18997909,0.2098322,111.44896,4.2622843,-19.085924
5024847096000.0,-1.2434409298688962,0.9290212500950028,8.583352000950029,-0.16401732,-0.118202426,0.23884831,111.34395,4.110017,-19.03677
5024852057000.0,-1.2297503238774592,0.6620969132151975,8.582557952245082,-0.2098322,-0.13897185,0.2648101,111.24256,3.972871,-18.940292
5024857103000.0,-1.2478928876257698,0.5350988760444512,8.546272824748462,-0.26358834,-0.21227567,0.26175576,111.142715,3.8537278,-18.850674
5024861993000.0,-1.2654745635530862,0.4120270564318967,8.511109472893828,-0.2864958,-0.28130344,0.26908615,111.07387,3.80088,-18.748804
5024867946000.0,-1.4752135138314175,-0.0285047462796934,8.645751555172414,-0.28527406,-0.32162055,0.3286455,110.9903,3.7521567,-18.637234
5024872005000.0,-1.698617296934866,-0.4529719341762451,8.81330427586207,-0.29046643,-0.33414328,0.3387248,110.919754,3.7158628,-18.515505
5024876971000.0,-1.9087255124761808,-0.7654577898004212,8.994614430448301,-0.2666427,-0.36010507,0.3463606,110.85288,3.7002563,-18.387335
5024882007000.0,-2.0441589619997997,-0.8283375858088456,9.1493950394143,-0.21044308,-0.398895,0.35216382,110.78425,3.6767282,-18.254715
5024886963000.0,-2.12304408093605,-0.8816216542414768,9.247370346984065,-0.1432479,-0.46303585,0.35094208,110.79175,3.749134,-18.15457
5024891966000.0,-2.1375425872100062,-0.92511719829534,9.281200396812588,-0.11026118,-0.5363397,0.31520647,110.80715,3.8171058,-18.042274
5024896999000.0,-2.0458290976900297,-0.9661721541510364,9.405230311944718,-0.076052725,-0.45448375,0.33017266,110.81786,3.8706205,-17.976555
5024902012000.0,-1.837302351905232,-1.004086096683119,9.627974776900295,-0.09101892,-0.40591997,0.28527406,110.85489,3.936338,-17.881077
5024906993000.0,-1.6356677305785126,-0.9906574547868884,9.823321465967128,-0.09437868,-0.3885103,0.23701571,110.891014,3.9961522,-17.801468
5024912009000.0,-1.4393970396694216,-0.9148255863497076,9.98836738220819,-0.12064589,-0.364992,0.20189096,110.93744,4.0681305,-17.738308
5024916927000.0,-1.2231043541410416,-0.7853550823206232,10.103531,-0.14080444,-0.36041048,0.17592919,110.99105,4.1496325,-17.614765
5024922008000.0,-0.93880683199057,-0.511032975600656,10.103531,-0.18661933,-0.34483343,0.16065755,111.05215,4.2462287,-17.503397
5024926927000.0,-0.6817757996417033,-0.2510473431483113,10.084832971218797,-0.2312125,-0.30207285,0.13041973,111.11052,4.33519,-17.350557
5024932006000.0,-0.4532149922290749,0.0060835925374448,10.027692605286344,-0.28771752,-0.29657507,0.11148291,111.16907,4.438995,-17.19529
5024937627000.0,-0.3949637193051359,0.0609906570543806,9.97389663897281,-0.321926,-0.34574974,0.089491755,111.2039,4.501971,-16.989084
5024941978000.0,-0.5937330833836858,-0.1841582465256797,9.94408132326284,-0.34574974,-0.32253686,0.108123146,111.23412,4.574902,-16.809834
5024946863000.0,-0.8168974923755763,-0.4593943747694387,9.910606761726823,-0.4147775,-0.2565634,0.13194689,111.23546,4.6238194,-16.596394
5024951911000.0,-0.73323327984,-0.6051940712607595,9.80152870693671,-0.4370741,-0.23701571,0.14905111,111.23331,4.6651826,-16.381172
5024956863000.0,-0.5555420503999999,-0.706045826278481,9.671862530126583,-0.42058071,-0.19792034,0.16035213,111.22851,4.712717,-16.194866
5024961915000.0,-0.5887587449337813,-0.8974427542992687,9.44031828167622,-0.3866777,-0.17012598,0.1685988,111.25769,4.826059,-16.066452
5024966872000.0,-0.6779040846768136,-1.1085764150128483,9.186957673255584,-0.38637227,-0.13194689,0.17440203,111.285545,4.9415355,-15.955096
5024971910000.0,-0.8602827836852017,-1.4115467016255328,9.254904998017643,-0.38087448,-0.03848451,0.1957823,111.31918,5.067371,-15.840166
5024976872000.0,-1.0675268196649816,-1.7365430453067696,9.419758091089305,-0.3830125,-0.051923547,0.19883664,111.35465,5.1943064,-15.707954
5024981920000.0,-1.424961771858302,-2.0022784632693447,9.390243788838314,-0.33383787,-0.12522738,0.24312437,111.395035,5.3443627,-15.616302
5024986871000.0,-1.8237600697605385,-2.241557363625569,9.296408964377598,-0.28405234,-0.15027285,0.26633725,111.44167,5.4937644,-15.535428
5024991897000.0,-2.17223100203961,-2.270113610700561,9.260013313626958,-0.2519819,-0.15027285,0.30757064,111.50432,5.689471,-15.477335
5024996901000.0,-2.49804060877919,-2.218173037363287,9.245847393437778,-0.22724187,-0.17867808,0.3475823,111.55852,5.8684783,-15.405894
5025001920000.0,-2.716529204787552,-2.054514519060443,9.315693979952124,-0.21960606,-0.19364429,0.39492437,111.63098,6.0851316,-15.4395275
5025006907000.0,-2.888017640355077,-1.844917514621983,9.420493103929784,-0.19639318,-0.22479841,0.41996986,111.69653,6.284685,-15.458769
5025011924000.0,-3.0644294270186334,-1.8216157298136648,9.227134742236023,-0.17501289,-0.21533,0.43127087,111.744095,6.4636464,-15.564505
5025016920000.0,-3.241777767351232,-1.8791340942296133,8.905989840212383,-0.18020524,-0.1423316,0.42821655,111.789505,6.6376915,-15.674421
5025021923000.0,-3.2709556084327764,-1.7922875408910104,8.924638801909309,-0.1572978,-0.13622294,0.4361578,111.788605,6.744311,-15.792541
5025026910000.0,-3.23771018157319,-1.6450574745624502,9.08611673120525,-0.112399206,-0.20738874,0.42485678,111.79386,6.8440857,-15.902386
5025031918000.0,-3.2110960884157733,-1.6058418246336907,9.093924825941588,-0.1020145,-0.19608775,0.41172317,111.815414,6.9649644,-16.108273
5025036927000.0,-3.1875096043957125,-1.6152764182417152,9.032600164519618,-0.08582657,-0.19120082,0.3998113,111.83583,7.0679665,-16.281622
5025041887000.0,-3.066949683722328,-1.6247330879795654,9.11181990148252,-0.05222898,-0.20433442,0.40622538,111.81664,7.122453,-16.413418
5025046916000.0,-2.893272163728338,-1.634381836291696,9.266200327857357,-0.02565634,-0.21533,0.42363504,111.797516,7.1716924,-16.540907
5025051918000.0,-2.977394809009009,-1.615442374154154,9.45772319034034,-0.009773844,-0.2501493,0.4196644,111.775215,7.217837,-16.649603
5025056909000.0,-3.192700254054054,-1.581950416036036,9.66824421981982,0.00580322,-0.26206118,0.4196644,111.74699,7.2528143,-16.757229
5025061923000.0,-3.427721956709109,-1.6142200166111655,9.808164308325171,0.004276057,-0.25595254,0.4297437,111.70223,7.2872205,-16.805584
5025066930000.0,-3.671938994711068,-1.679970753839373,9.911486524094029,0.004886922,-0.24770586,0.44012842,111.65778,7.31553,-16.849531
5025071909000.0,-3.8714740776062166,-1.7346130243415077,10.085038581491574,-0.0033597588,-0.23640485,0.44684792,111.59517,7.3308554,-16.925785
5025076926000.0,-4.04603114744172,-1.7831011217983652,10.3032352985165,0.016187929,-0.20677789,0.4841107,111.52251,7.3337097,-17.008066
5025081923000.0,-4.12674307445582,-1.8065374020972071,10.399552169963224,0.025350908,-0.17562376,0.48655418,111.46208,7.351177,-17.136938
5025086932000.0,-4.15535063297883,-1.8160732715336447,10.428159877845143,0.025045475,-0.15210545,0.4783075,111.39564,7.3617406,-17.267105
5025091892000.0,-4.0154984077905365,-1.831390340110869,10.521299157592557,0.0143553335,-0.12095132,0.47219884,111.32504,7.37308,-17.422583
5025096922000.0,-3.772305277024352,-1.8504643072460896,10.65481672837062,-0.02321288,-0.112399206,0.48166725,111.2532,7.389133,-17.571333
5025101922000.0,-3.671722652825699,-1.8175024396490185,10.833835177572874,-0.023823744,-0.086437434,0.46761733,111.18837,7.398908,-17.725798
5025106929000.0,-3.66221421784652,-1.7509433451516954,11.043020647828676,0.004276057,-0.05375614,0.44959682,111.123634,7.4084115,-17.877878
5025111894000.0,-3.71920169678821,-1.7026559753164558,11.194403017098054,0.011911872,-0.01985312,0.42730024,111.06353,7.42806,-17.971842
5025116921000.0,-3.823800241866616,-1.6662738582278482,11.308097459474778,0.022296581,-0.039095376,0.41141775,111.00705,7.4390926,-18.05628
5025126930000.0,-4.249785175061973,-1.962362183639068,11.227602040158652,-0.025045475,-0.07666359,0.35033122,110.95539,7.452931,-18.126867
5025131892000.0,-4.499007669694663,-2.1294534135070866,11.108435048130886,-0.03481932,-0.013439035,0.31245756,110.90594,7.452505,-18.218397
5025136915000.0,-4.750671054408827,-2.243845800294873,10.95743735175497,-0.03145956,-0.032986723,0.27672195,110.85695,7.454266,-18.282042
5025141887000.0,-5.151013304742805,-2.6372890076105486,10.851773435375511,-0.029321533,-0.089186326,0.23671028,110.83879,7.501554,-18.398495
5025147010000.0,-5.854499010738995,-3.581829303278853,10.827176049232929,-0.039095376,-0.18142697,0.18417588,110.832924,7.5532966,-18.491547
5025151939000.0,-6.289072278008858,-4.226547338917774,10.58151415395725,-0.07696902,-0.21655174,0.17898351,110.81996,7.6232176,-18.603357
5025157681000.0,-6.310250781994993,-4.448921851916041,9.850855434719817,-0.06780604,-0.24709499,0.07849618,110.84755,7.694445,-18.680698
5025161953000.0,-6.277359561328623,-4.523352005004416,9.317284245314491,-0.016493361,-0.22602014,0.08124508,110.91554,7.8899355,-18.792046
5025167048000.0,-6.124145597046414,-4.398865721518988,8.704428388185654,0.015271631,-0.2770274,-0.0070249503,111.03278,8.099933,-18.864632
5025171978000.0,-6.102804644301258,-4.345367979165059,8.183751792653755,0.0720821,-0.24495697,-0.0729984,111.164505,8.325857,-18.979755
5025177039000.0,-6.454376017092368,-4.4874926846978935,7.862101595493479,0.18234327,-0.22602014,-0.17012598,111.3253,8.534983,-19.070774
5025181955000.0,-6.795874706806081,-4.62554545142372,7.5496668258353266,0.31490102,-0.17867808,-0.30543262,111.50913,8.722568,-19.180994
5025187042000.0,-6.983237000369549,-4.634604817812269,7.530895141906874,0.49663344,-0.047036625,-0.5039638,111.743576,8.880169,-19.31233
5025192091000.0,-7.085983404028085,-4.576530589153732,7.664911946784922,0.7012733,0.03604105,-0.6743952,112.00758,9.004532,-19.437262
5025197031000.0,-6.2368404481396205,-4.495110239362682,8.20660454172039,0.8915578,0.19120082,-0.8933904,112.36457,9.133385,-19.670258
5025202024000.0,-4.47530052934242,-4.389418021735126,9.144624525142753,1.0781772,0.16890424,-0.98563105,112.72799,9.213045,-19.872684
5025206983000.0,-3.406609946292135,-4.312726805617977,9.797202458426966,1.1921035,-0.09773844,-0.874759,113.07766,9.247909,-20.056973
5025212042000.0,-3.723335281552605,-4.292931594892748,9.886281165066396,1.2644911,-0.20861048,-0.9120218,113.50486,9.270361,-20.264254
5025216945000.0,-3.864459095881596,-4.256279580868726,9.956349886132562,1.3063353,-0.26175576,-0.87872964,113.85741,9.280753,-20.156042
5025222050000.0,-3.716594774774775,-4.187066325945946,10.000394636936935,1.3381003,-0.4437936,-0.8005389,114.18728,9.274676,-19.98344
5025227901000.0,-3.5471228564993567,-4.107738851988417,10.050875701962678,1.3900238,-0.6404922,-0.7333437,114.49302,9.233416,-19.823315
5025231986000.0,-3.552102614187643,-3.9867609368268497,10.070966827993898,1.4535538,-0.7498371,-0.70402217,114.77585,9.1777,-19.642488
5025237027000.0,-3.87983913409611,-3.666389390976354,10.056236995232648,1.5485435,-0.80481493,-0.72204274,115.04004,9.098809,-19.428095
5025242002000.0,-4.203284717620138,-3.350212354553776,10.041700014874142,1.6108516,-0.83199847,-0.77091193,115.278175,9.007151,-19.17759
5025247010000.0,-4.24535793976302,-2.984399320896482,10.220948076513272,1.6835446,-0.84940815,-0.8142834,115.513435,8.8907,-18.921661
5025252007000.0,-4.131071220914852,-2.593187692973271,10.506664758886746,1.7577647,-0.838718,-0.84391034,115.754776,8.76311,-18.672216
5025256983000.0,-3.811075908814352,-2.0629503489079566,11.013043912636508,1.8005253,-0.8313876,-0.8512407,115.96269,8.54316,-18.481327
5025262004000.0,-3.248457241624415,-1.3643653908053823,11.781956014430577,1.8185458,-0.72387534,-0.88300574,116.18852,8.3206,-18.325226
5025267002000.0,-2.62150838170764,-0.8456179636796194,12.177052631773725,1.8542814,-0.8216137,-0.8054258,116.327095,8.009222,-18.113583
5025272035000.0,-1.8952583224953743,-0.5738050711974623,12.049640434047053,1.8121318,-0.904386,-0.75594574,116.486206,7.72748,-17.939238
5025277035000.0,-1.2094887941852437,-0.3278176358880866,11.895262585288808,1.7763962,-0.9639453,-0.7162395,116.59816,7.2880445,-17.641214
5025282043000.0,-0.7225237682032943,-0.2159960287833935,11.585047569645006,1.7318029,-0.9795224,-0.659429,116.69032,6.865464,-17.342997
5025287008000.0,-0.2397399515099278,-0.1051345512924188,11.27749614139591,1.6875153,-0.95264435,-0.589485,116.771355,6.4103255,-16.947428
5025291996000.0,-0.0291780842901895,-0.1390720097700088,11.086756277717765,1.6621643,-0.88331115,-0.54305923,116.846176,5.9664536,-16.569067
5025297727000.0,-0.1208052633265245,-0.3546653681033094,11.01129876765197,1.6444492,-0.80756384,-0.50946164,116.90764,5.534907,-16.21021
5025301984000.0,-0.1284455865279605,-0.4763923817821208,10.860680472136224,1.6245961,-0.7602218,-0.48747048,116.97227,5.097584,-15.799253
5025307039000.0,-0.0722411450065789,-0.5794338323916409,10.57965846749226,1.6230689,-0.70280045,-0.47769663,117.0353,4.6641736,-15.420001
5025311994000.0,0.0166164163955251,-0.6682756556995434,10.271847710045662,1.6496416,-0.61758476,-0.4615087,117.10969,4.2642603,-15.080788
5025317074000.0,0.1632333940357077,-0.7393627029689498,9.903083783105023,1.6933185,-0.48747048,-0.43860126,117.18255,3.8645716,-14.777347
5025322015000.0,0.292932891961855,-0.7910735938340533,9.57862079452278,1.7751744,-0.33261612,-0.40958515,117.26503,3.4702826,-14.510293
5025327059000.0,0.3716767332920369,-0.7713876170568098,9.3896354470617,1.8524488,-0.16218472,-0.3585779,117.337135,3.0679674,-14.290505
5025337057000.0,0.340484965338007,-0.5942535451251878,9.173396150976464,1.9874501,0.12064589,-0.26725355,117.40778,2.6426558,-14.140103
5025342023000.0,0.1698112790686029,-0.3918266157661492,9.19721115064263,2.0265455,0.23335053,-0.19700404,117.468666,2.2270508,-13.992944
5025346989000.0,-0.0772946817962037,-0.1254418025184815,9.290818952947053,2.0622811,0.2761111,-0.14782938,117.515205,1.772876,-13.901755
5025352066000.0,-0.4804495339820179,0.2728557808071928,9.523968892907092,2.094657,0.2733622,-0.07452556,117.53361,1.3098407,-13.831448
5025356960000.0,-0.8815323351087173,0.6486705976660683,9.75492812128466,2.1270328,0.25228736,-0.013439035,117.51725,0.7983892,-13.799333
5025362077000.0,-1.3263170209056452,1.0250268663375226,10.009090317674048,2.1389446,0.1695151,0.0030543262,117.49128,0.29007465,-13.749093
5025367303000.0,-1.7448818709080758,1.36183168821107,10.218094547776923,2.144748,0.057726767,0.06872234,117.393295,-0.29326782,-13.7399
5025372069000.0,-2.07302005609688,1.5975814274586444,10.33278392838696,2.132836,-0.070554934,0.08093964,117.30623,-0.8625373,-13.702195
5025377010000.0,-2.4132069576952606,1.841987525155301,10.451684522091156,2.1288655,-0.21044308,0.092240654,117.15818,-1.4901098,-13.691952
5025382097000.0,-2.6654170247524758,1.985568069161595,10.489842394767916,2.1239784,-0.3408628,0.10567969,117.00793,-2.103506,-13.648046
5025387075000.0,-2.8083201257425743,2.0115504347170496,10.437877934962303,2.1010711,-0.45875978,0.100792766,116.862816,-2.6988423,-13.56911
5025391990000.0,-2.9113493,2.0361671057996755,10.371973121167658,2.1041253,-0.53786683,0.06566802,116.68116,-3.3382695,-13.545132
5025397075000.0,-2.9113493,2.0587317196694723,10.262910689898836,2.1022928,-0.6206391,0.010995574,116.51132,-3.9553626,-13.488447
5025401988000.0,-2.9113493,2.080533086029809,10.157537292686694,2.1340578,-0.66156703,-0.043066,116.34388,-4.567882,-13.454029
5025407097000.0,-2.8109848025735293,2.0626528538101603,10.01395636480615,2.1587977,-0.6429357,-0.07147124,116.187706,-5.163365,-13.415758
5025412088000.0,-2.667207762775736,2.0267085625835564,9.858198005807152,2.1813998,-0.63591075,-0.09407325,116.04906,-5.7513685,-13.36606
5025416981000.0,-2.496684448554004,2.017378934841629,9.684564801691916,2.2104158,-0.6227771,-0.13500121,115.92312,-6.3406863,-13.331616
5025422095000.0,-2.241351372771985,2.075190275113122,9.448501837300809,2.2351558,-0.63407815,-0.1459968,115.7971,-6.923441,-13.294258
5025427007000.0,-1.9946810934468715,2.137918508404294,9.26026797371344,2.2592852,-0.66889745,-0.13591751,115.695015,-7.506503,-13.230595
5025432093000.0,-1.735003227471307,2.224477822169567,9.180922231099592,2.2580633,-0.72143185,-0.11911872,115.59653,-8.07737,-13.161682
5025436986000.0,-1.4851794370233249,2.3077524431395777,9.104587445686782,2.2440135,-0.7626653,-0.08399397,115.501854,-8.670109,-13.048937
5025442024000.0,-1.301485432672422,2.442018595180723,8.935758717009772,2.2296581,-0.8054258,-0.027794369,115.400154,-9.253354,-12.923363
5025447198000.0,-1.1745657057774406,2.620646269879518,8.686620382885875,2.2003367,-0.8167268,0.01985312,115.29299,-9.81887,-12.798066
5025452084000.0,-1.0888970894290406,2.752260185716892,8.487623696734769,2.1923954,-0.82619524,0.06780604,115.18462,-10.422461,-12.598102
5025457040000.0,-1.0412785811838745,2.843168251021525,8.327451870029186,2.1810944,-0.8344419,0.09743301,115.07102,-11.007659,-12.39915
5025462019000.0,-1.0102842981099658,2.940610766885348,8.170510231333958,2.1826215,-0.8344419,0.10995574,114.942856,-11.634696,-12.184376
5025467103000.0,-1.029297322508591,3.0584913513901903,8.02220903014683,2.1655173,-0.8268061,0.12644911,114.80818,-12.244326,-11.973041
5025472028000.0,-1.0477157224226803,3.1726852693064664,7.878545887769446,2.1337523,-0.8142834,0.16584991,114.6581,-12.870694,-11.758334
5025477087000.0,-1.0704846009585471,3.3047665350794584,7.805434998402421,2.1105394,-0.8005389,0.17440203,114.51461,-13.482781,-11.55243
5025482882000.0,-1.0984830316320524,3.463424357622131,7.758770947279912,2.1010711,-0.77549344,0.1826487,114.36134,-14.081411,-11.355964
5025486984000.0,-1.1254443875210791,3.54256249376054,7.739513507588533,2.0894647,-0.7797695,0.19456059,114.1922,-14.698824,-11.165431
5025492054000.0,-1.1736086834242634,3.571461141712132,7.744330032734847,2.0693061,-0.7855727,0.21380283,114.019875,-15.3014555,-10.985295
5025496984000.0,-1.2277218979750222,3.597492066190901,7.743923294433541,2.0457878,-0.7837401,0.24648413,113.83523,-15.924335,-10.812084
5025502098000.0,-1.3019938292685105,3.619336738447815,7.730816399839429,2.0115793,-0.8060367,0.25473082,113.65746,-16.527452,-10.636097
5025507157000.0,-1.3800307619624184,3.6363946464816417,7.713942919160311,1.9740111,-0.840856,0.2761111,113.474,-17.119753,-10.466449
5025512089000.0,-1.5062919007940876,3.602972523295856,7.654525716487145,1.9572122,-0.8940013,0.2932153,113.296036,-17.69792,-10.290514
5025517151000.0,-1.635881090730403,3.5686694439028224,7.593542366947087,1.9443841,-0.9483683,0.29229903,113.11698,-18.257208,-10.126023
5025522081000.0,-1.7606383662187752,3.595937552764,7.583758112363603,1.9355265,-0.977079,0.2938262,112.9382,-18.803719,-9.95792
5025527068000.0,-1.8855393080349896,3.6777692353142752,7.6182137896113264,1.9208658,-1.0012082,0.2764165,112.77266,-19.333858,-9.783988
5025531982000.0,-1.9714936642073584,3.764182415182992,7.66886271585283,1.9025398,-1.0180069,0.27305678,112.59462,-19.833948,-9.649715
5025537092000.0,-1.966742916901272,3.86869895513057,7.763877661974566,1.8768835,-1.0577132,0.26939157,112.42898,-20.317719,-9.509766
5025542035000.0,-1.917350349358123,3.9932083515936254,7.802118664084403,1.8674151,-1.1340714,0.27091873,112.248535,-20.793615,-9.390152
5025547083000.0,-1.721179125276671,4.196513032071713,7.666582061457872,1.8270979,-1.2373075,0.29718593,112.0727,-21.246113,-9.255287
5025552812000.0,-1.498543439309429,4.427244512749004,7.512760905267818,1.7785342,-1.366811,0.32345316,111.910904,-21.70413,-9.085389
5025557020000.0,-1.4603104451735616,4.508174936462197,7.396161794484071,1.7595973,-1.4288138,0.34269542,111.75172,-22.151062,-8.91032
5025562083000.0,-1.5064229876367097,4.540453764336662,7.253213057299097,1.7424932,-1.5351044,0.3643811,111.607864,-22.577356,-8.693232
5025567082000.0,-1.5398413203999637,4.6265307455940095,7.133378822828965,1.7150042,-1.5836681,0.35705075,111.49512,-23.08326,-8.410565
5025572060000.0,-1.5572546835083554,4.783250695370286,7.041958677874167,1.6780468,-1.5564847,0.33964106,111.386734,-23.571201,-8.128603
5025577039000.0,-1.5723333344075978,4.938934250700607,6.972783717203798,1.6783522,-1.46852,0.31948254,111.28003,-24.066875,-7.8726535
5025582094000.0,-1.579870423618247,5.0934447762727695,6.976552261809124,1.6600263,-1.3686435,0.30482176,111.175,-24.53593,-7.637884
5025586986000.0,-1.5871644771134985,5.24297306333489,6.980199288556749,1.6514742,-1.2867876,0.25992316,111.07524,-25.036697,-7.438206
5025592019000.0,-1.4936224714164976,5.424144214072008,6.978821795199459,1.6698002,-1.2565498,0.21655174,110.97534,-25.529402,-7.2605577
5025597055000.0,-1.3468817225997296,5.619798560015213,6.974745665652468,1.7336355,-1.2846496,0.20158553,110.87876,-26.022486,-7.0978365
5025601981000.0,-1.2143512288175182,5.772975667990267,6.975910892613139,1.8408424,-1.3503176,0.18967366,110.78955,-26.55902,-6.9408717
5025607090000.0,-1.104828887270073,5.834879543961071,6.990196402452555,1.9327776,-1.4816537,0.17959438,110.717384,-27.098448,-6.768265
5025612009000.0,-0.988474820016705,5.920342389642932,6.963614215452078,2.0210476,-1.6175711,0.16371189,110.67275,-27.718561,-6.533506
5025617109000.0,-0.8320943226268532,6.093720771351013,6.803834129839215,2.1401663,-1.7009543,0.16218472,110.63979,-28.360476,-6.287763
5025622726000.0,-0.659861135599638,6.284674961557736,6.627856729665205,2.2363777,-1.7082846,0.14508049,110.64088,-29.032488,-6.004112
5025627032000.0,-0.5417575878517626,6.469342168775736,6.633623175765793,2.3038783,-1.6044376,0.13561209,110.638374,-29.715345,-5.738168
5025632100000.0,-0.4247699158782766,6.747187875715577,6.862724006658633,2.3542747,-1.4517213,0.13133603,110.63412,-30.405064,-5.4953218
5025636994000.0,-0.2714328384751581,7.021279558148148,7.125009208870822,2.36863,-1.3970488,0.111177474,110.63622,-31.17281,-5.2088304
5025642043000.0,-0.0442990079385727,7.313932688148148,7.465710164480578,2.3848178,-1.4639386,0.099265605,110.635376,-31.93967,-4.9402742
5025647024000.0,0.1539072767461562,7.602550283966113,7.731952585801695,2.3988678,-1.6065756,0.07452556,110.66211,-32.729706,-4.645107
5025652092000.0,0.2186311070693442,7.89571094640728,7.632963032679636,2.386956,-1.6701056,0.03970624,110.6949,-33.499218,-4.3676987
5025656989000.0,0.2811710828176968,8.178980039535613,7.537313498023219,2.3322835,-1.7302758,0.03756821,110.77042,-34.274845,-4.005345
5025662085000.0,0.2089119667045161,8.414163107612904,7.460134685419355,2.2849414,-1.7654005,0.0021380284,110.87151,-35.028652,-3.658347
5025667070000.0,0.0528573843303225,8.607178448258065,7.398534236387097,2.186592,-1.8579466,-0.07574729,111.00485,-35.733482,-3.3047848
5025671982000.0,-0.0963243259760257,8.798033761329306,7.312237768131761,2.03693,-1.9098701,-0.1591304,111.13502,-36.469685,-2.9504764
5025677085000.0,-0.2392064361602183,8.998068277945618,7.155067456875549,1.9172006,-1.897042,-0.26297748,111.29457,-37.166115,-2.6209812
5025682060000.0,-0.3863309427932961,9.256126986915612,6.980421418222582,1.8182404,-1.8277088,-0.4071417,111.453606,-37.838764,-2.3614535
5025687098000.0,-0.5601143604469274,9.71718546001176,6.735705975073508,1.6899587,-1.6804903,-0.5155703,111.61077,-38.450893,-2.1472173
5025692360000.0,-0.7416245517318436,10.198743555571893,6.480109972324317,1.5344934,-1.5100589,-0.6062838,111.757416,-39.04897,-2.0160832
5025697079000.0,-0.7535677581493976,10.470644104096383,6.358805881590362,1.3729197,-1.3759739,-0.70554936,111.9057,-39.591896,-1.939222
5025702095000.0,-0.63781532224,10.623437024,6.3217651752,1.2415836,-1.2809844,-0.79717916,112.043396,-40.084694,-1.9127469
5025707081000.0,-0.487374226973466,10.675148462962964,6.257921860696517,1.1151345,-1.2162327,-0.9138544,112.11058,-40.622406,-1.9892807
5025712062000.0,-0.2939993200552792,10.60483027160494,6.161234290215589,1.0183123,-1.1502593,-1.0033462,112.1673,-41.116722,-2.100523
5025716982000.0,-0.1021640230166381,10.518955421551858,6.088922014476753,0.93218035,-1.0903945,-1.0748174,112.25744,-41.61247,-2.2012405
5025722093000.0,0.0995304417221272,10.381955428160474,6.081310868410823,0.86559606,-1.0546589,-1.1591167,112.35435,-42.071774,-2.3315942
5025726984000.0,0.2925430864173535,10.250852519203857,6.074027339667237,0.818254,-1.029308,-1.2110404,112.515854,-42.53684,-2.417836
5025732091000.0,0.490532506310241,10.075522627342703,6.0716953,0.7654142,-0.9947941,-1.2492194,112.676125,-42.96835,-2.5291488
5025737068000.0,0.6819532481024096,9.88808977342704,6.0716953,0.698219,-0.96669424,-1.3185526,112.842476,-43.369644,-2.6618795
5025741979000.0,0.836671796056028,9.721970745472737,5.983952796118059,0.61483586,-0.9459248,-1.3713925,113.062584,-43.747593,-2.7441604
5025747077000.0,0.9148269872636318,9.594968573786891,5.681101553876939,0.52564955,-0.90377516,-1.4193454,113.27906,-44.09401,-2.8510594
5025751984000.0,0.9367797814517568,9.44246401721063,5.410628456991261,0.43127087,-0.8866709,-1.4538593,113.55056,-44.39885,-2.9155478
5025757055000.0,0.8328439974852863,9.212939089352597,5.181103664794008,0.40591997,-0.85154617,-1.5506815,113.82576,-44.68829,-3.015773
5025762123000.0,0.7318642375322341,8.98770672016879,4.958646320817379,0.37751472,-0.79504114,-1.6297885,114.11139,-44.976425,-3.1082106
5025767083000.0,0.6650503592795186,8.81324859404548,4.817594765609127,0.3472769,-0.74036866,-1.6890424,114.39884,-45.24864,-3.2235944
5025772205000.0,0.5960542535516136,8.633092440415723,4.671936284605767,0.32406402,-0.71776664,-1.7470746,114.705086,-45.513763,-3.3704731
5025777086000.0,0.5493844237483024,8.442558661204165,4.584090907741059,0.28955013,-0.7144069,-1.8112154,115.00918,-45.759575,-3.5369675
5025782065000.0,0.5191643731054776,8.231018103847894,4.540919439022182,0.26816985,-0.7623598,-1.8765781,115.322945,-45.99526,-3.7086365
5025786985000.0,0.5072646322597779,8.041769124384356,4.530541732882665,0.2733622,-0.8390234,-1.9187278,115.66287,-46.224953,-3.889656
5025792054000.0,0.5400810347561564,7.896439352390149,4.600862542926122,0.2770274,-0.8915578,-1.9431623,116.00831,-46.441547,-4.073823
5025797039000.0,0.5514203293524541,7.77153207699586,4.687155174674748,0.24556783,-0.9578367,-1.9538525,116.4045,-46.630653,-4.2426867
5025802097000.0,0.4905487051833234,7.70707981655825,4.833963176005322,0.22235495,-1.0024298,-1.9358319,116.79685,-46.818512,-4.4026966
5025807016000.0,0.4313499073802483,7.644398782732111,4.976736714665878,0.16157386,-1.0671816,-1.9798143,117.25203,-46.96075,-4.549188
5025812077000.0,0.2291909395027943,7.791470638581615,5.2663171650607055,0.07391469,-1.1734722,-2.0561724,117.719025,-47.084217,-4.680167
5025817096000.0,-0.0996475180343033,8.129571912584312,5.683154835806514,-0.0030543262,-1.2519683,-2.1218405,118.191216,-47.188553,-4.8090067
5025822081000.0,-0.3848377860753121,8.380431830094643,5.843312117579541,-0.12034045,-1.3005321,-2.1514673,118.71875,-47.22027,-4.936164
5025827095000.0,-0.6217374225030206,8.530307367851389,5.698271313672977,-0.23182335,-1.321607,-2.1844542,119.260376,-47.22671,-5.064617
5025831984000.0,-0.8243101466991342,8.605683560876624,5.495941641774892,-0.3136793,-1.2980887,-2.219579,119.80396,-47.193703,-5.230382
5025837093000.0,-1.0008177567911254,8.59685823336039,5.20911681569264,-0.42394048,-1.2388347,-2.2434027,120.33627,-47.118557,-5.3978076
5025842036000.0,-1.153759487384208,8.557390398470814,4.944083755433025,-0.5103779,-1.1640037,-2.2629502,120.86649,-47.06603,-5.612323
5025847080000.0,-1.2531971525805028,8.41888769122188,4.713246293206882,-0.57635134,-1.1142182,-2.2666154,121.37806,-46.986233,-5.827929
5025851987000.0,-1.349933993008381,8.284146853697987,4.488678603448022,-0.6337727,-1.0015136,-2.2562308,121.86619,-46.933704,-6.095606
5025857021000.0,-1.373955001175894,8.122291026457619,4.328083327682508,-0.6575964,-0.88086766,-2.232407,122.326904,-46.87093,-6.364664
5025862081000.0,-1.3264698885840276,7.9370989931406175,4.233113152082312,-0.6921103,-0.8268061,-2.2482896,122.77148,-46.786476,-6.6406612
5025867082000.0,-1.249184703358098,7.792459552748886,4.192011996532937,-0.7012733,-0.80970186,-2.257758,123.21748,-46.725906,-6.9518437
5025872094000.0,-1.139825991203566,7.68785546359584,4.206275964834076,-0.70921457,-0.7706065,-2.3445008,123.65305,-46.650005,-7.2886066
5025877955000.0,-0.987681025811332,7.56870009374073,4.165021722930881,-0.7189884,-0.8503244,-2.3683245,124.13949,-46.567917,-7.5876164
5025882097000.0,-0.866086916619203,7.486329872639177,4.102263439731039,-0.70616025,-0.88697636,-2.3628268,124.606926,-46.486217,-7.905719
5025887077000.0,-0.7492986474990075,7.412543489876935,4.073271680786026,-0.70280045,-0.9831876,-2.3726006,125.15488,-46.377686,-8.195117
5025892055000.0,-0.6688652439936482,7.369961235212386,4.101659867030567,-0.6814202,-1.1212431,-2.361605,125.70246,-46.27942,-8.455555
5025897026000.0,-0.6185797715080213,7.345411,4.139546435080214,-0.66339964,-1.2409728,-2.355191,126.30055,-46.170513,-8.693529
5025902086000.0,-0.6091566149304813,7.345411,4.191374069304813,-0.6569856,-1.3716979,-2.3649647,126.92091,-46.064625,-8.896763
5025907022000.0,-0.6485293940384615,7.35062521875,4.2529196328125005,-0.65301496,-1.5005904,-2.355191,127.583664,-45.951252,-9.062982
5025912173000.0,-0.7769932703365384,7.3654477578125,4.336915138671875,-0.64812803,-1.6203201,-2.3301454,128.26128,-45.84153,-9.198376
5025916975000.0,-0.8920554871143023,7.362556135901416,4.3861775,-0.6640105,-1.7195857,-2.3130412,128.98135,-45.71688,-9.313527
5025922067000.0,-1.005616771104211,7.329434222375315,4.3861775,-0.68783426,-1.788308,-2.2837198,129.7033,-45.59559,-9.3982525
5025926983000.0,-1.115249711516445,7.305725691995731,4.3903113247307655,-0.72112644,-1.8231273,-2.2724187,130.4485,-45.456665,-9.488536
5025932093000.0,-1.2292013729116134,7.300977809391675,4.404555319588629,-0.77732605,-1.8270979,-2.2397375,131.18143,-45.3103,-9.555762
5025937017000.0,-1.3111642985408487,7.306110014591511,4.438082175246278,-0.8371908,-1.8029687,-2.234545,131.93419,-45.14483,-9.649037
5025942058000.0,-1.3075885153544182,7.341867846455818,4.534628470631805,-0.8741482,-1.7583756,-2.2272146,132.66655,-44.975136,-9.732994
5025947706000.0,-1.3035821627583142,7.381931372416858,4.642800158062365,-0.8970556,-1.7293595,-2.2342396,133.41377,-44.786903,-9.843485
5025952082000.0,-1.27697253224662,7.439146727682424,4.734617725572922,-0.91538155,-1.7162259,-2.238821,134.14333,-44.59336,-9.951537
5025957054000.0,-1.231315327030396,7.521329420558059,4.844194808322945,-0.9294315,-1.681712,-2.2424862,134.85403,-44.39733,-10.064782
5025962082000.0,-1.1942575865794085,7.621567499585216,4.969565576089962,-0.9398162,-1.6297885,-2.2681427,135.58736,-44.18055,-10.18825
5025967063000.0,-1.167876100460872,7.7402841641625955,5.110266774172735,-0.9630291,-1.5598444,-2.2934935,136.30157,-43.95959,-10.316447
5025971984000.0,-1.1531778689349113,7.841415586094675,5.213744068934911,-0.96883225,-1.4990633,-2.332589,137.03256,-43.72717,-10.453252
5025977108000.0,-1.1676961215976331,7.904327845857988,5.228262321597633,-0.9642508,-1.430341,-2.375044,137.74574,-43.492725,-10.604627
5025982037000.0,-1.1623484982898489,7.934985877921508,5.20915104746766,-0.956615,-1.3158038,-2.408947,138.45906,-43.248466,-10.773996
5025987097000.0,-1.1021425969524228,7.881863126039611,5.095822283307754,-0.9202685,-1.1924089,-2.438574,139.15742,-43.01406,-10.959472
5025991995000.0,-1.043864236329752,7.83044114210334,4.986121831360082,-0.874759,-1.0201449,-2.430022,139.82965,-42.787285,-11.180105
5025997081000.0,-0.9352687686695278,7.710248741318767,4.899607198010144,-0.81306165,-0.85062987,-2.4034493,140.4735,-42.576496,-11.420176
5026002093000.0,-0.7854476124463519,7.532336136636753,4.838742344127975,-0.7263188,-0.70952,-2.362216,141.07707,-42.388718,-11.677577
5026007078000.0,-0.6072117211716649,7.353544027099731,4.738371536903458,-0.6704246,-0.6123924,-2.3209825,141.6564,-42.213608,-11.949468
5026012099000.0,-0.3964170146358474,7.171493882733884,4.594647825605261,-0.593761,-0.53878313,-2.266921,142.19545,-42.07273,-12.227886
5026017447000.0,-0.1307688227727678,7.032908367902091,4.541124041859082,-0.5143485,-0.5299256,-2.200642,142.74034,-41.930088,-12.47785
5026022083000.0,0.1332173572292141,6.958112381577643,4.576322128748389,-0.44837508,-0.5946773,-2.1062634,143.26334,-41.8122,-12.705002
5026027083000.0,0.4155121614638971,6.901416411454006,4.651192482393669,-0.408058,-0.7098254,-2.0094411,143.79797,-41.704098,-12.8788395
5026032102000.0,0.6960159795054401,6.8728906196439175,4.770050196488625,-0.398895,-0.83199847,-1.91323,144.32318,-41.61463,-13.014095
5026037056000.0,0.8851803530458113,6.871363182579747,4.910187781864256,-0.40042216,-0.93218035,-1.8020525,144.87173,-41.524746,-13.053109
5026042022000.0,0.9607974371559178,6.904445635287688,5.080326307472921,-0.41874814,-0.99265605,-1.6994271,145.4148,-41.442757,-13.0541115
5026047025000.0,0.98028762043106,6.918198152780239,5.206329738962701,-0.44959682,-1.0906999,-1.645671,146.00352,-41.34259,-12.955478
5026052085000.0,0.9182895483909064,6.903890966676508,5.268327711406358,-0.45234573,-1.135293,-1.5656476,146.56296,-41.259464,-12.8280945
5026056987000.0,0.7492537831990794,6.895301,5.2884325159186805,-0.45570546,-1.1355985,-1.484708,147.1435,-41.153076,-12.657318
5026062057000.0,0.3907296666858458,6.895301,5.241870973916379,-0.46120325,-1.1554517,-1.4245378,147.72095,-41.054066,-12.460433
5026066980000.0,0.0758697477602773,6.883100171104507,5.181314403962357,-0.45051312,-1.1383474,-1.3750577,148.28331,-40.951218,-12.269991
5026072095000.0,-0.1667521778563645,6.839428204834076,5.079413166220902,-0.41691554,-1.0445796,-1.3585643,148.82576,-40.859,-12.085947
5026077008000.0,-0.3514080759315339,6.791935767676103,4.968597451393461,-0.36896262,-1.0045679,-1.3332134,149.34561,-40.778812,-11.962895
5026082096000.0,-0.4120002383541804,6.727779403752469,4.818899120035111,-0.30940324,-0.9221011,-1.3185526,149.8351,-40.71416,-11.866842
5026087044000.0,-0.4709251636032477,6.665388348584595,4.673319846536464,-0.23976462,-0.8338311,-1.2983941,150.29718,-40.669853,-11.831204
5026092018000.0,-0.5301176025105082,6.6886192949082925,4.623741443446694,-0.1600467,-0.7122689,-1.2935071,150.73479,-40.646107,-11.819077
5026097079000.0,-0.5903093112686282,6.785851944382881,4.656152536110049,-0.0720821,-0.67256266,-1.2822062,151.1634,-40.646843,-11.80195
5026102083000.0,-0.5879883722115651,6.841899319616342,4.634918559015032,0.028405234,-0.6383542,-1.2690725,151.56154,-40.684498,-11.836999
5026107062000.0,-0.5132295803366227,6.850694512118418,4.551364436880937,0.1160644,-0.51893,-1.2843442,151.93755,-40.74088,-11.900351
5026111979000.0,-0.4446247196012805,6.8344007020954605,4.483991300698486,0.20769419,-0.45937067,-1.2611313,152.30502,-40.83507,-11.9599695
5026117099000.0,-0.3875429333381839,6.74877808975553,4.45545042991851,0.28588495,-0.49968776,-1.2311989,152.66942,-40.946857,-12.023504
5026122053000.0,-0.3187433187453929,6.663320782677282,4.436427117610203,0.3652974,-0.48655418,-1.1884383,152.99852,-41.101368,-12.088969
5026127096000.0,-0.2012611877812177,6.567198957378741,4.447107341073272,0.45906523,-0.49449542,-1.1588113,153.33507,-41.279655,-12.136849
5026131984000.0,-0.0873899492024177,6.474031501090963,4.457459300678166,0.52442783,-0.5177083,-1.1252137,153.67844,-41.45624,-12.168506
5026137055000.0,0.0124921889883851,6.462679569679655,4.423859563057325,0.5879578,-0.50854534,-1.0699304,154.0053,-41.658794,-12.194464
5026142046000.0,0.0930805326863994,6.534313556350693,4.34774840254777,0.65057147,-0.5342017,-1.0201449,154.33716,-41.877663,-12.202053
5026147041000.0,0.1543378201956478,6.630913704641645,4.276834022359752,0.68203104,-0.56291234,-0.9923506,154.68561,-42.08085,-12.17317
5026152107000.0,0.1833951784947095,6.771357758165302,4.213876456538231,0.74128497,-0.5739079,-0.9126327,155.01355,-42.313694,-12.122772
5026157023000.0,0.1960307171447244,6.8836753427928254,4.158970704741849,0.7800749,-0.6258314,-0.84207773,155.34839,-42.57323,-12.039478
5026162084000.0,0.1819523756720644,6.9575865601844455,4.113215898337085,0.8231409,-0.61758476,-0.7480045,155.65164,-42.854496,-11.946784
5026167023000.0,0.1682134054026577,7.029716080575121,4.068564053082565,0.86376345,-0.65270954,-0.6560693,155.9507,-43.178528,-11.817407
5026172078000.0,0.1551276565501245,7.091378118744094,4.06378576350829,0.9297369,-0.6398814,-0.56596667,156.22003,-43.523766,-11.682782
5026177092000.0,0.142752918479512,7.145002161747272,4.08441031260201,0.9737192,-0.60994893,-0.46883908,156.47366,-43.876816,-11.526474
5026181987000.0,0.1672476319331465,7.214501712549512,4.054217966476669,1.010982,-0.61208695,-0.39706242,156.71167,-44.271873,-11.361369
5026187096000.0,0.2901464309515988,7.332673410675297,3.88877738179886,1.0592403,-0.5488624,-0.3203988,156.91104,-44.68365,-11.197075
5026192058000.0,0.401107236054548,7.410753164486648,3.7531646055404826,1.0974194,-0.47219884,-0.24678956,157.09694,-45.10648,-11.0251665
5026197078000.0,0.483487199470227,7.359265799357418,3.705109664515208,1.1441506,-0.3912592,-0.1740966,157.25586,-45.54364,-10.853489
5026202777000.0,0.5770097914036841,7.300814306554334,3.650554861944881,1.2082914,-0.27152961,-0.089186326,157.36218,-46.04529,-10.666225
5026207004000.0,0.638310851810497,7.29107083810497,3.6114703332280538,1.2562444,-0.14752395,-0.01160644,157.4405,-46.552002,-10.484139
5026212108000.0,0.7018798371370181,7.322855411370181,3.566063840631677,1.3304645,-0.024740042,0.06078109,157.48091,-47.08097,-10.31021
5026217019000.0,0.757330470250514,7.343531040660931,3.5310217198812155,1.3939945,0.09468412,0.14446963,157.48613,-47.62104,-10.120604
5026222064000.0,0.797798377088251,7.336173092743471,3.519985028493109,1.4715744,0.20830505,0.22876903,157.45499,-48.18181,-9.939058
5026226992000.0,0.8373277814284626,7.3289857850453055,3.5092042920886315,1.5558738,0.30695978,0.30726522,157.39119,-48.774025,-9.748142
5026232086000.0,0.8636909272859377,7.348967278285662,3.459690791639842,1.6169603,0.3885103,0.38362336,157.29399,-49.377357,-9.558305
5026237148000.0,0.8815251358870597,7.384635732732456,3.388354115524694,1.6930131,0.4831944,0.44409904,157.16373,-50.002354,-9.375991
5026242022000.0,0.8946707602667648,7.414954700800295,3.297508504341826,1.7669277,0.5320636,0.47219884,157.02258,-50.6396,-9.179812
5026247052000.0,0.9035331103725508,7.441541751117652,3.177866685373931,1.8051068,0.6038403,0.52503866,156.8429,-51.283146,-8.986267
5026251986000.0,0.8984030822871932,7.457800523217025,3.0667236897430983,1.8976529,0.6731735,0.5723807,156.64583,-51.973095,-8.793192
5026257055000.0,0.8565219761042945,7.448493718711656,2.969001124846626,1.9843957,0.7272351,0.625526,156.42915,-52.66454,-8.5966625
5026262073000.0,0.8090611609532202,7.434634099684218,2.8681977726738634,2.081218,0.8014552,0.6713409,156.17776,-53.404064,-8.406663
5026267094000.0,0.7384359932415363,7.402852722038628,2.751666251296174,2.1978931,0.8378017,0.7351763,155.91455,-54.165596,-8.202133
5026272805000.0,0.6581053155276493,7.366703857721966,2.6191206391495925,2.3185391,0.8588765,0.8023715,155.62393,-54.96473,-8.00612
5026277049000.0,0.6253156127829077,7.296456136385069,2.495117594666012,2.4288,0.8729264,0.8940013,155.3166,-55.78605,-7.7925243
5026282098000.0,0.6110661295697446,7.1729603738310415,2.324123587799608,2.521041,0.8918633,0.9966267,154.9956,-56.6272,-7.5628595
5026287077000.0,0.6270927082955174,7.086195520088544,2.1581548823187604,2.6099217,0.89949906,1.0974194,154.64824,-57.51556,-7.3338146
5026292043000.0,0.6797306868566685,7.04233056085593,1.995854395748017,2.6893342,0.90316427,1.2223413,154.28421,-58.42052,-7.074182
5026296983000.0,0.7317477012459531,6.975891361836554,1.840270819219072,2.7669141,0.8900307,1.3860532,153.89606,-59.365944,-6.7835336
5026302098000.0,0.7846113291180221,6.841329476621211,1.6960972704110664,2.8802297,0.84788096,1.5430456,153.50522,-60.335445,-6.4578032
5026307060000.0,0.8260895788320849,6.713089461370083,1.5657358094102247,3.0100386,0.8145888,1.6966782,153.0894,-61.360947,-6.0787387
5026312092000.0,0.8366031105083266,6.590431652803432,1.464105108108501,3.157868,0.79443026,1.8451185,152.67043,-62.414597,-5.6558585
5026316983000.0,0.8468220460068359,6.471210797934695,1.3653221669187694,3.280041,0.7828238,1.9947804,152.24243,-63.50634,-5.1803265
5026322079000.0,0.8054441900259067,6.322478748186528,1.241685148316062,3.3988543,0.77121735,2.122146,151.81586,-64.624756,-4.668834
5026327097000.0,0.7096761400259067,6.150096148186528,1.0980329983160622,3.5274413,0.75808376,2.250122,151.38745,-65.76519,-4.1165123
5026332079000.0,0.5220615895741498,5.969626521352349,1.0316552243542436,3.669162,0.74220127,2.3536637,150.95737,-66.941086,-3.5331576
5026337098000.0,0.2344421859279944,5.77788044913733,1.0460362335793358,3.7959166,0.72082096,2.403144,150.53839,-68.12541,-2.9285333
5026342545000.0,-0.1818835832624815,5.595103917647059,1.1157287990113691,3.8939605,0.5564982,2.3964243,150.1622,-69.33253,-2.3170009
5026347082000.0,-0.6071477664379634,5.46194029882353,1.2145275247157687,3.9800925,0.473726,2.368019,149.78294,-70.543205,-1.7059939
5026352081000.0,-1.0441144226392614,5.67715885625062,1.3908450463608382,4.0155225,0.26297748,2.300213,149.5049,-71.71684,-1.1463519
5026357051000.0,-1.441108310634495,6.319910928835269,1.646055409979148,4.0292673,0.0018325958,2.2498167,149.2801,-72.87803,-0.5817525
5026362038000.0,-1.8026292633183063,7.237805943953352,1.9047559305468444,3.9660425,-0.3454443,2.2247713,149.16698,-73.95529,-0.12288713
5026367084000.0,-2.1199308324480595,8.525955539425716,2.1699632365640924,3.8643336,-0.7461719,2.2122486,149.15933,-74.997,0.34366217
5026372032000.0,-2.369440584425904,9.672975644616608,2.308548785856178,3.7528505,-1.1505647,2.179567,149.28041,-75.96812,0.71410275
5026377050000.0,-2.52695574398093,10.65625144874851,2.260816979737783,3.6673295,-1.5164729,2.1157317,149.5196,-76.89023,1.087468
5026381982000.0,-2.574897630340647,11.691093609988451,2.01107967676097,3.6138787,-1.8353447,1.9969184,149.88742,-77.783,1.3683516
5026387066000.0,-2.43902719219592,12.876446898287144,1.4020050778772133,3.6377025,-2.0909917,1.8133535,150.35986,-78.65028,1.6216658
5026391978000.0,-2.1808741165034133,13.790539319382606,0.9713707625408132,3.692375,-2.140472,1.6233743,150.88307,-79.55944,1.8005968
5026397080000.0,-1.595916616018601,14.16278491431681,0.9181927987731276,3.7082574,-2.0317378,1.452943,151.45204,-80.44374,1.9327164
5026401980000.0,-0.9787481516878208,14.468809296516335,0.9341252891709424,3.615406,-1.8387043,1.2733486,152.02286,-81.47696,2.0386093
5026407094000.0,-0.1807808873615985,14.645155521018992,1.1369236314879827,3.4608572,-1.6410894,1.099252,152.57603,-82.46685,2.0896392
5026412204000.0,0.6122993758451853,14.807765991606434,1.3661050956400094,3.2430835,-1.4089607,0.9260717,153.04718,-83.37433,2.210948
5026417055000.0,1.323579937048263,14.829429418279318,1.842699200606202,2.9691105,-1.2205088,0.7867944,153.48209,-84.18892,2.2832646
5026422065000.0,2.0581739612963394,14.851802901608766,2.3349145100023314,2.649017,-1.0757337,0.66523224,153.8187,-84.78918,2.4896333
5026427086000.0,2.75622465266618,15.005639058436817,2.829603757121987,2.3057108,-0.893085,0.5335908,154.09494,-85.27545,2.6403522
5026432067000.0,3.409558390887509,15.29310624890431,3.321781770178963,1.9437732,-0.675617,0.42210788,154.32175,-85.64603,2.7535367
5026436984000.0,3.960787880094274,15.56708431562408,3.7743029690660905,1.645671,-0.54641896,0.38423425,154.45038,-85.70443,3.0358732
5026442055000.0,4.289857335510164,15.82461621840322,4.155832848227438,1.5222762,-0.2959642,0.3155119,154.48639,-85.723,3.262005
5026447017000.0,4.413111379912345,15.888628142585828,4.267826618480643,1.2907583,-0.02076942,0.26847526,154.42732,-85.49295,3.6048565
5026452094000.0,3.944299753579255,15.39140404441198,3.6001252787070857,1.0757337,0.3136793,0.22876903,154.28595,-85.26228,3.9105527
5026457020000.0,3.489431510262966,14.908968372242512,2.952282694558072,0.8668178,0.70829827,0.19547687,154.03055,-84.93609,4.240584
5026462081000.0,3.2680452632000745,14.407990423259715,1.990907658161588,0.7153232,1.1701124,0.172264,153.66887,-84.61152,4.539255
5026467134000.0,3.272554774932438,13.902924920883422,0.7598100200609448,0.63804877,1.6264287,0.19730948,153.20416,-84.28207,4.8202124
5026472027000.0,3.2823697307153576,13.558230106953475,-0.185025445964182,0.6450737,2.1105394,0.31581733,152.64598,-84.09163,5.0116878
5026477066000.0,3.301682536368184,13.447182041620811,-0.7402646705510754,0.7174612,2.58396,0.4908302,151.96347,-83.88731,5.2115855
5026482025000.0,3.215494560233791,13.267812949030713,-0.8602069902562984,0.8210029,2.8328876,0.69058317,151.21495,-83.74779,5.4608912
5026487090000.0,2.947833489697234,12.96493345109998,-0.2544477001960357,0.89980453,2.6160305,0.8063421,150.46841,-83.584145,5.729984
5026492086000.0,2.683818739766209,12.666180050969288,0.3430593902562986,0.8921687,1.8973475,0.7528914,149.80168,-83.43558,6.0139933
5026497084000.0,2.603856866666667,12.524132931268817,0.7332786051612903,0.74464476,0.9621128,0.59131753,149.26625,-83.26379,6.2986155
5026502066000.0,2.6325864,12.474882057806452,1.000053455483871,0.49418998,0.15302174,0.43157628,148.90785,-83.08348,6.5688047
5026506986000.0,2.656729391911551,12.311111897876057,1.2178371658132092,0.31948254,-0.41599923,0.35460728,148.7563,-82.92028,6.7674146
5026512096000.0,2.6709678610222096,11.845989895160509,1.326998382378043,0.2733622,-0.7846564,0.37018433,148.7828,-82.765785,6.9495583
5026517058000.0,2.4806910437103675,11.30592955979944,1.3269645763161777,0.28191432,-1.0522153,0.38789943,148.93864,-82.60326,7.119414
5026522100000.0,1.622632560988055,10.469233416162808,0.9816049939315734,0.3378085,-1.1985176,0.38545597,149.16708,-82.44487,7.287317
5026527734000.0,0.6638262357882319,9.534297661849283,0.5956954566140688,0.41905355,-1.1753048,0.4016439,149.41634,-82.26321,7.477098
5026532078000.0,0.1835251479436999,9.01494993107105,0.3546289877936951,0.46853364,-1.0897835,0.39706242,149.69066,-82.09212,7.6581573
5026537095000.0,-0.1777641073961245,8.565654437963945,0.1184013895415983,0.49235737,-0.86070913,0.3830125,149.91718,-81.92556,7.836358
5026542020000.0,-0.3628260978455325,8.315843251691065,-0.146144679787582,0.48930305,-0.61941737,0.32345316,150.17256,-81.95213,7.8316603
5026547052000.0,-0.3384997587602221,8.301247149520444,-0.4575219049199395,0.46731192,-0.4373795,0.24923302,150.3778,-81.98672,7.8160305
5026551982000.0,-0.2266162340698299,8.388627133034916,-0.6904303210725157,0.44226643,-0.3173445,0.2098322,150.54669,-82.08628,7.7387514
5026557054000.0,-0.0048389882757385,8.60170743813787,-0.8426304021324978,0.44012842,-0.25778514,0.19975294,150.67905,-82.19763,7.646984
5026562138000.0,0.1956527378352227,8.801675754350494,-0.9403927911257132,0.42760566,-0.28221974,0.19028452,150.80237,-82.32055,7.5502925
5026567093000.0,0.3258583165340457,8.955866452595856,-0.8718635203480396,0.40194935,-0.34238997,0.18325958,150.91692,-82.442894,7.4508085
5026571982000.0,0.454329572691169,9.10800334941151,-0.8042470511589285,0.35308012,-0.4465425,0.18051068,151.04182,-82.52858,7.389997
5026577053000.0,0.5445520944679996,9.28510116567869,-0.7394029722596203,0.32467487,-0.5742133,0.15241088,151.18933,-82.62016,7.3200207
5026582098000.0,0.5833866016316689,9.48412851924043,-0.6811512419270572,0.31398472,-0.6533204,0.12492194,151.35101,-82.70823,7.249444
5026587071000.0,0.5400804848429606,9.638346087189142,-0.5495576796145843,0.33536503,-0.70005155,0.12461651,151.52843,-82.76319,7.208124
5026592057000.0,0.4076125475002477,9.74715875696027,-0.3366627661993461,0.36010507,-0.7449502,0.1301143,151.72644,-82.82137,7.160885
5026597834000.0,0.0762325073914328,9.88721397592319,-0.2375302677104874,0.36560285,-0.72326446,0.08307768,151.9109,-82.888245,7.1016765
5026602095000.0,-0.285422811076317,9.999728922304284,-0.2616406253520433,0.40317106,-0.6945538,0.005497787,152.10443,-82.960495,7.035506
5026607068000.0,-0.7153587715691097,10.223299846286276,-0.4603415093949828,0.4251622,-0.61453044,-0.09010262,152.2749,-83.07505,6.9234347
5026612094000.0,-1.1604650398819478,10.573702529119528,-0.8912422201082144,0.43279803,-0.4700608,-0.1966986,152.41623,-83.21248,6.787328
5026617006000.0,-1.407016730944334,10.823339175944334,-1.169144369055666,0.42210788,-0.32345316,-0.28893927,152.54808,-96.546394,6.5462728
5026622083000.0,-1.3538521129224652,10.929668512922465,-1.2223089870775348,0.39003745,-0.24709499,-0.34880406,152.65486,-96.28901,6.287805
5026626976000.0,-1.137930154034602,11.0405204816609,-1.1532861398615917,0.35185838,-0.26206118,-0.33628133,152.76631,-95.94424,5.937917
5026632086000.0,-0.6202523565259516,11.171149561245675,-0.8678376498961937,0.34269542,-0.3631594,-0.3005457,152.8739,-95.60019,5.5843506
5026636979000.0,-0.2145995507469645,11.319206127829045,-0.4727500782875182,0.32253686,-0.4615087,-0.28405234,152.97643,-95.27396,5.2440777
5026642042000.0,0.0303099606158329,11.517017709956288,0.172492279108305,0.312763,-0.57543504,-0.2180789,153.10658,-94.98379,4.934356
5026646981000.0,0.1828699936992655,11.626306477773484,0.698070363606494,0.26053402,-0.64721173,-0.18570304,153.22992,-94.78224,4.719341
5026652092000.0,0.1166486168931194,11.52224418650947,0.9724161154976808,0.2171626,-0.6545421,-0.17165314,153.36418,-94.60015,4.52193
5026657020000.0,0.08181327381262,11.417065763558446,1.2012772250701935,0.17654006,-0.643852,-0.13744467,153.49495,-94.45381,4.3849587
5026662083000.0,0.1498833223688488,11.291673651544258,1.308756215634698,0.15882497,-0.61422503,-0.08277224,153.6211,-94.32032,4.2614713
5026667529000.0,0.2231026556568641,11.15679602127974,1.4243656532436826,0.111177474,-0.5879578,-0.043066,153.74312,-94.173225,4.1342497
5026672081000.0,0.3258749086301108,10.964949973251814,1.424410025754681,0.04184427,-0.58032197,-0.005497787,153.86111,-94.04709,4.025391
5026677063000.0,0.4717263519870081,10.691478722200992,1.346926504623615,-0.048563786,-0.59681535,0.024129177,153.97751,-93.93667,3.9286532
5026682082000.0,0.5459159842092637,10.494424984037645,1.1784412504982469,-0.14110987,-0.6062838,0.071776666,154.08736,-93.868866,3.868656
5026687072000.0,0.523869346508581,10.401829129636464,0.8918350893061451,-0.21105394,-0.61086524,0.092240654,154.19983,-86.18398,3.811514
5026692000000.0,0.5010806918706048,10.30463325925926,0.5909469129301453,-0.2556471,-0.6478226,0.06169739,154.32225,-86.19094,3.787003
5026697078000.0,0.4744814469948429,10.186836197530864,0.2261572167713705,-0.26633725,-0.72356987,-0.0027488936,154.45686,-86.18624,3.7598526
5026701985000.0,0.4487779230473511,10.073005913580246,-0.1263483049007657,-0.2706133,-0.7370089,-0.022602014,154.5911,-86.17621,3.7354672
5026707087000.0,0.4970566856662484,9.90083660451694,-0.4344265598444166,-0.2443461,-0.6957755,-0.03359759,154.73085,-86.17409,3.6965392
5026712075000.0,0.5769715511150146,9.709041224508574,-0.7101328587854454,-0.20830505,-0.63499445,-0.036957346,154.86818,-86.16738,3.6554673
5026716980000.0,0.6541419062346467,9.585084274835411,-0.9126357348000392,-0.1740966,-0.5907067,-0.049480084,155.01012,-86.192955,3.6063552
5026722090000.0,0.7310800887442273,9.613936167338116,-0.9559134430048148,-0.12736541,-0.60139686,-0.06872234,155.14935,-86.22361,3.5553257
5026726986000.0,0.79527918071716,9.65977497218993,-0.9475960486720916,-0.08827003,-0.5861252,-0.07727446,155.26996,-86.2572,3.5257225
5026732097000.0,0.8346714168371635,9.760443802199768,-0.7944039812304391,-0.049480084,-0.53786683,-0.08735373,155.38321,-86.30029,3.4904814
5026737285000.0,0.8714894,9.85856940090694,-0.6434625127429022,-0.02076942,-0.53023106,-0.10293079,155.50433,-86.33901,3.4658818
5026742053000.0,0.8714894,9.90538397882492,-0.5534344678722398,0.03756821,-0.5204572,-0.10262536,155.61003,-86.38139,3.4428864
5026747034000.0,0.8714894,9.954289895899054,-0.459384616466877,0.04337143,-0.4783075,-0.10323623,155.70297,-86.4093,3.4219685
5026752081000.0,0.8211353701917857,9.965896740682108,-0.3899096197846933,0.0711658,-0.44073927,-0.084910266,155.79355,-86.438126,3.4068215
5026757041000.0,0.7223003928080334,9.940113849421024,-0.3469378830740003,0.108123146,-0.42485678,-0.0870483,155.87762,-86.47297,3.3858209
5026761984000.0,0.6279247574992634,9.90474549729889,-0.2655553200333955,0.121256754,-0.35796702,-0.07849618,155.93597,-86.49419,3.3714113
5026767092000.0,0.5414371761811217,9.842281997446223,-0.078165593122483,0.12675454,-0.3378085,-0.07849618,156.00262,-86.52002,3.3543577
5026772018000.0,0.5157850562260019,9.77903032184831,0.0600383774976275,0.122783914,-0.36835176,-0.08032878,156.06729,-86.561325,3.3186204
5026777065000.0,0.6675018441207388,9.704936427111468,0.0706232690765749,0.09865474,-0.46273044,-0.098043874,156.14389,-86.6052,3.2790647
5026782025000.0,0.8166033436170523,9.632119760201476,0.0810256986845755,0.04886922,-0.6899723,-0.116675265,156.2652,-86.652695,3.2235427
5026787081000.0,0.6558016741960613,9.729118261918693,-0.1898078824666082,-0.015271631,-0.9080512,-0.13836098,156.4103,-86.701355,3.1635275
5026792055000.0,0.2053192010033148,9.984546036999124,-0.7192408692112705,-0.09987647,-0.72601336,-0.041233405,156.50441,-86.71473,3.1326303
5026797082000.0,-0.1056117524391539,10.030701787038891,-0.8462773334583,-0.014966198,-0.24281894,0.060170226,156.57695,-86.70136,3.1378593
5026802097000.0,-0.2500414465244587,9.833314835605451,-0.5044604129591018,0.14721853,-0.016493361,0.070554934,156.67053,-86.68558,3.1454542
5026806986000.0,-0.2432089752831042,9.688834756783647,-0.3491549964308972,0.19120082,-0.02443461,0.004581489,156.69676,-86.78087,3.066449
5026812091000.0,-0.0574850978527496,9.595972793596236,-0.402218950329233,0.18173242,-0.112399206,-0.03756821,156.67995,-86.87421,2.9971712
5026817132000.0,0.1122001349707748,9.492320482566797,-0.4191816930737287,0.18661933,-0.16065755,-0.03359759,156.65292,-86.98163,2.8964314
5026822096000.0,0.2425671610511635,9.358228307999688,-0.3409614834929092,0.20647246,-0.20250183,-0.019547688,156.64836,-87.096504,2.7885175
5026826986000.0,0.3709907624881297,9.226135090104208,-0.2639073286076941,0.2574797,-0.23823744,-0.0290161,156.65648,-87.18252,2.716957
5026832081000.0,0.573591148500315,9.236051822846342,-0.3737351390710235,0.27763826,-0.3915646,-0.06658431,156.70955,-87.26989,2.6428108
5026837097000.0,0.8027724413547574,9.309563382122604,-0.5639988596867405,0.2706133,-0.4859433,-0.03848451,156.75488,-87.34151,2.5854964
5026842017000.0,0.9148720902223104,9.324456954346962,-0.7013119826518459,0.29138273,-0.40561453,0.017715093,156.79405,-87.37866,2.56096
5026847077000.0,0.9052534751568082,9.276363351726877,-0.7878796136562127,0.33628133,-0.27763826,0.0711658,156.84581,-87.407845,2.5443327
5026852829000.0,0.850051183434925,9.283657422714183,-0.7298937727191502,0.34697145,-0.17501289,0.0888809,156.8846,-87.38698,2.583269
5026857056000.0,0.7817319193110295,9.327864465501836,-0.5892364975528641,0.3817908,-0.14202617,0.09743301,156.90634,-87.351974,2.6338494
5026862079000.0,0.7137819551858773,9.322166724822974,-0.6075611725757277,0.38881573,-0.15821409,0.09315695,156.9116,-87.31257,2.6835592
5026867093000.0,0.6618347504081432,9.246606612706527,-0.8484073163699842,0.41355577,-0.121256754,0.10873401,156.89204,-87.259674,2.7403233
5026872049000.0,0.6574241686986704,9.158452368987094,-1.0819797224579586,0.4297437,-0.09101892,0.118507855,156.88089,-92.77808,2.7762322
5026877054000.0,0.7183466210207274,9.050666748142357,-1.3116105219788816,0.47586402,-0.04520403,0.14752395,156.85449,-92.8299,2.8214111
5026882020000.0,0.7891275633499665,8.977835317420125,-1.4322314907723244,0.5345071,-0.030543262,0.16707164,156.82689,-92.88348,2.856639
5026887292000.0,0.883133915803977,8.962793999478663,-1.364546895017502,0.59681535,-0.06719518,0.20280726,156.80087,-92.96079,2.903963
5026892107000.0,0.9689913867952632,8.949056528710807,-1.3027294958218516,0.64599,-0.11575896,0.22815818,156.77426,-93.07804,2.9667673
5026897064000.0,1.1323806359617374,9.058397835832473,-1.203729592942089,0.6582073,-0.16584991,0.24648413,156.75887,-93.218254,3.0363188
5026902088000.0,1.3314039021458115,9.224250882368148,-1.087632720139607,0.65576386,-0.21288654,0.27091873,156.75688,-93.38135,3.113191
5026907003000.0,1.438873859595461,9.368131741884556,-1.0537832380167735,0.679893,-0.23701571,0.3155119,156.76254,-93.58284,3.2239585
5026912085000.0,1.3908528456832758,9.483382074987666,-1.1642316703009372,0.70341134,-0.27275133,0.35124752,156.7854,-93.79245,3.3367836
5026917002000.0,1.3176308615370351,9.566399728654863,-1.2252036187540558,0.70952,-0.24373524,0.3894266,156.79474,-94.041016,3.5055892
5026922891000.0,1.1660097751738203,9.597769695188653,-1.1886054518494484,0.7150178,-0.22113322,0.4175264,156.81668,-94.297005,3.678281
5026927048000.0,1.0688191164639091,9.606207299786185,-1.1715514691071296,0.72509706,-0.2171626,0.42455134,156.83888,-94.55785,3.8411608
5026932063000.0,0.9944563873479318,9.556632270294184,-1.1892568631939835,0.72326446,-0.22174409,0.42638394,156.85782,-94.8206,4.007423
5026937036000.0,0.9207164368207624,9.507472425495836,-1.2068139768119148,0.70738196,-0.19975294,0.41813725,156.87033,-95.05063,4.1409492
5026942022000.0,0.8621561484000759,9.439016458341245,-1.1847377363636364,0.6960809,-0.17989981,0.4175264,156.88522,-95.28068,4.2744145
5026947054000.0,0.8209989772708294,9.34755563237806,-1.1161424272727274,0.67011917,-0.17501289,0.4098906,156.89816,-95.49917,4.4010153
5026951997000.0,0.7996922887719298,9.281473132585562,-1.0661792893011215,0.64873886,-0.18845193,0.40378192,156.91197,-95.70147,4.5058374
5026957154000.0,0.8138963556140351,9.257799679608858,-1.0472404774805868,0.61300325,-0.2003638,0.39584067,156.92395,-95.89203,4.605948
5026962016000.0,0.8090969142967215,9.392505893488442,-1.096197816210908,0.5626069,-0.2406809,0.36835176,156.94669,-96.05376,4.6888614
5026966991000.0,0.755110738250491,9.953962340836984,-1.3265388881250946,0.5222898,-0.23915374,0.3484986,156.96078,-96.20822,4.770464
5026971959000.0,0.7012005226529687,10.514628799214382,-1.556555862048648,0.4810564,-0.18387043,0.32620203,156.965,-96.34424,4.8459806
5026976971000.0,0.7193553250230946,11.064888616050808,-1.7006849116628175,0.43279803,-0.16310102,0.27763826,156.97752,-96.45911,4.9062047
5026982000000.0,0.7842383583699,11.607125829580449,-1.7887405142994612,0.35216382,-0.14782938,0.22999077,156.97513,-96.553444,4.9599833
5026986972000.0,0.8022564725018464,12.067984309453472,-1.833878929098966,0.26389378,-0.17012598,0.18906279,156.98288,-96.639496,4.972387
5026992627000.0,0.7772579164364845,12.517957754800593,-1.8438783389955689,0.21533,-0.1994475,0.14080444,156.98645,-96.705055,4.96903
5026997004000.0,0.6911644711439114,12.655820515682658,-1.8538100402214024,0.17531833,-0.27488935,0.089491755,157.00316,-96.75399,4.9556904
5027002026000.0,0.4890443933579336,12.488208949261994,-1.868599305166052,0.16218472,-0.32070425,0.025961773,157.01749,-96.785706,4.9254904
5027006975000.0,0.3499551631646951,12.254767864786167,-1.875243309244768,0.14019357,-0.3368922,-0.04184427,157.04042,-96.7835,4.867164
5027012007000.0,0.2929509409918107,11.921512561419473,-1.8708583722474976,0.11759156,-0.3200934,-0.106595986,157.06422,-96.767395,4.793078
5027016965000.0,0.2734718211438732,11.623249655800858,-1.8521805215291156,0.111177474,-0.25503623,-0.16035213,157.07828,-96.72018,4.670688
5027022036000.0,0.3886035188716847,11.4289647611498,-1.7802232268854643,0.111177474,-0.24495697,-0.21288654,157.09973,-96.660866,4.5326405
5027027028000.0,0.5019416050592681,11.237706588383464,-1.7093869391983998,0.11942416,-0.20616703,-0.22815818,157.08704,-96.60305,4.3898816
5027032015000.0,0.8875910935897436,10.985947974358975,-1.6597956733516483,0.121256754,-0.15210545,-0.25900686,157.06334,-96.53551,4.231728
5027037005000.0,1.5177660384615383,10.679613153846152,-1.6291621456043957,0.11209377,-0.09712757,-0.28008172,157.02614,-96.471115,4.076357
5027041953000.0,2.0003091588205386,10.396790094255213,-1.6089035,0.11148291,-0.04337143,-0.27030787,156.97098,-96.424614,3.9585257
5027047011000.0,2.20224293024911,10.150529008540923,-1.6089035,0.10323623,-0.01160644,-0.25137106,156.90483,-96.37525,3.8405027
5027051937000.0,2.3356633982022914,9.9199918276373,-1.5324092001777954,0.101098195,0.018020526,-0.22052236,156.82756,-96.416336,3.8666997
5027056990000.0,2.3595629302647176,9.700116951205056,-1.3173142101935995,0.07880162,0.022296581,-0.17928895,156.74956,-96.45526,3.900762
5027062204000.0,2.385926611915392,9.493742189782624,-1.221461018656225,0.057726767,0.023518313,-0.14813483,156.66618,-96.52575,3.9812212
5027067026000.0,2.412965633696845,9.33488758830418,-1.3296172822440169,0.052534413,-0.01160644,-0.11362094,156.59406,-96.60171,4.072016
5027071939000.0,2.4405149315011343,9.173035108614506,-1.4398146532533118,0.047036625,-0.006414085,-0.057421334,156.51424,-96.65769,4.185034
5027076999000.0,2.433174377188257,9.136595862914085,-1.3655525494748182,0.044593163,0.004886922,-0.009468411,156.4446,-96.71858,4.303165
5027082008000.0,2.4030288670437203,9.183967539455963,-1.1717596052428405,0.057421334,-0.011911872,0.02321288,156.38379,-96.789734,4.430501
5027087017000.0,2.3749789820340736,9.232180035931853,-1.0341567439235932,0.07086037,-0.046731193,0.056505036,156.33046,-96.90325,4.580399
5027091995000.0,2.350367051006712,9.281403897986577,-0.9849328304697988,0.049480084,-0.04642576,0.08674286,156.27386,-97.017555,4.7370934
5027097009000.0,2.2983582063110144,9.340641846957894,-0.936356928202347,0.050701816,-0.013133603,0.13316862,156.2183,-97.11235,4.8983397
5027102029000.0,2.21302533460211,9.411752985898826,-0.8889497827531802,0.01863139,0.022296581,0.16126843,156.16342,-97.19933,5.0607433
5027106964000.0,2.1231207813953485,9.471945941712024,-0.8678036948164275,0.002443461,0.0711658,0.19792034,156.09634,-97.29112,5.2321258
5027112032000.0,2.022255795348837,9.519976839683324,-0.8822129942998516,-0.029321533,0.12003502,0.20891592,156.02032,-97.375595,5.4024124
5027116963000.0,1.9334689823465452,9.557382124444004,-0.9148363913274686,-0.041233405,0.14874569,0.24037547,155.93297,-97.4539,5.56911
5027122024000.0,1.8568166681328453,9.581335957003065,-0.9771163759909064,-0.055588737,0.20952678,0.24984388,155.82324,-97.525475,5.731875
5027126937000.0,1.78085892328323,9.60453674732292,-1.0665960376657824,-0.04428773,0.24373524,0.26175576,155.71265,-97.593925,5.880816
5027132019000.0,1.6995759804008252,9.628443465861087,-1.2100364986737402,-0.036957346,0.23793201,0.24556783,155.5967,-97.6564,6.022187
5027136939000.0,1.6182366255296508,9.6362202477508,-1.3436194780690724,-0.021685716,0.24190263,0.24190263,155.46498,-97.72332,6.153322
5027141980000.0,1.5295013221244076,9.612868864951148,-1.4697169939537584,-0.00030543262,0.23426682,0.24556783,155.33897,-97.791046,6.279061
5027146941000.0,1.4383927655484248,9.587415023920654,-1.6000866116102683,0.005497787,0.20341812,0.23335053,155.22128,-97.858215,6.3801303
5027152008000.0,1.3345844507001168,9.554384924154029,-1.751080550991832,0.027488936,0.13194689,0.20250183,155.11784,-97.92729,6.4737453
5027156977000.0,1.2311850093514929,9.478945249901022,-1.9118124131126768,0.038789943,0.07696902,0.19486602,155.01955,-97.99752,6.5506816
5027162032000.0,1.1200192791274053,9.241280596325918,-2.122644018742577,0.032375857,-0.0018325958,0.17745635,154.94809,-98.05763,6.612406
5027167011000.0,1.0105248833240954,9.007189140311981,-2.3303058514688413,0.04428773,-0.08032878,0.1572978,154.89445,-98.120514,6.6485715
5027172039000.0,0.9712016464333784,8.935161,-2.41391605807537,0.06841691,-0.1600467,0.14110987,154.86348,-98.18007,6.6781764
5027177864000.0,0.9618165757738896,8.935161,-2.446763756384589,0.076052725,-0.23915374,0.11636983,154.85406,-98.23113,6.6970396
5027181951000.0,0.9755655145797072,8.961988136275213,-2.450806516135968,0.086437434,-0.30451632,0.10140363,154.86444,-98.30168,6.69113
5027187046000.0,1.0355149423978705,9.051911991092457,-2.4158360991706767,0.09040806,-0.3390302,0.081855945,154.8872,-98.365746,6.6754336
5027191950000.0,1.124695450643777,9.153507602319422,-2.3589623622134965,0.09712757,-0.34574974,0.07238753,154.91995,-98.43211,6.6545386
5027197032000.0,1.2758009776824033,9.286836431650077,-2.2567438560314126,0.106901415,-0.30970868,0.069027774,154.94893,-98.497116,6.63006
5027201998000.0,1.4304043326391638,9.414806189009422,-2.1642780048301526,0.10995574,-0.2611449,0.06536258,154.97415,-98.562386,6.612699
5027207041000.0,1.6216144155594268,9.533356421252671,-2.1069149480085514,0.11362094,-0.20219639,0.067500606,154.98509,-98.63004,6.5973015
5027211988000.0,1.8091845682872756,9.6496498971415,-2.0506438708527988,0.11911872,-0.13744467,0.06841691,154.97934,-98.70284,6.6114016
5027217032000.0,2.0144900991525425,9.726761557246627,-1.9871658397959184,0.109650314,-0.108123146,0.07727446,154.96657,-98.77472,6.6285954
5027222024000.0,2.225332295762712,9.780505418886198,-1.9210192928571428,0.10598512,-0.053145275,0.08032878,154.92726,-98.846565,6.646514
5027226974000.0,2.420872147336439,9.825724301195056,-1.8643910758152724,0.09162979,-0.0106901415,0.10445796,154.88725,-98.94206,6.7178
5027232050000.0,2.593184765890217,9.855263701235568,-1.825005346181892,0.050701816,0.0106901415,0.12003502,154.8374,-99.02879,6.7871265
5027236948000.0,2.7073049397435898,9.880333405048075,-1.793794242908654,0.038179077,0.021380283,0.14294247,154.78618,-99.14768,6.912165
5027242011000.0,2.726730956730769,9.89975932061298,-1.7743681752103366,-0.009773844,0.016493361,0.17287487,154.73462,-99.2553,7.0412765
5027247622000.0,2.6179842382352945,9.90863430831643,-1.7201245961460447,-0.06536258,-0.009468411,0.17531833,154.68608,-99.37702,7.199558
5027252048000.0,2.396899029411765,9.902492928716311,-1.6433588901767604,-0.10262536,-0.04886922,0.19150625,154.64519,-99.50146,7.3663106
5027256955000.0,2.1517871632352943,9.895684128513476,-1.558250593929296,-0.15088372,-0.081855945,0.18478674,154.60802,-99.6082,7.5267982
5027262052000.0,1.9105947778538808,9.903948570776256,-1.5338195678082192,-0.19822577,-0.1255328,0.18142697,154.58702,-99.71216,7.687974
5027267036000.0,1.683564711719939,9.922111343987824,-1.55198200913242,-0.21991149,-0.16310102,0.17165314,154.57458,-99.80875,7.8413935
5027271963000.0,1.4579723560720887,9.935480551848428,-1.5783462501663583,-0.26145032,-0.19120082,0.16035213,154.55789,-99.823364,7.9215584
5027277042000.0,1.2242097850831797,9.944471132902034,-1.6143097009611829,-0.25534168,-0.20891592,0.1386664,154.54897,-99.83852,7.993655
5027282002000.0,1.0219127099836334,9.942621751227495,-1.654530463338789,-0.24862215,-0.21288654,0.1133155,154.53644,-99.80523,8.010773
5027287061000.0,0.8679876548859151,9.919299795321075,-1.705838815038028,-0.24923302,-0.20066923,0.08307768,154.52362,-99.766624,8.019912
5027291967000.0,0.7328732978122513,9.879908354415274,-1.7417940805091487,-0.24404067,-0.17959438,0.0580322,154.49483,-99.68905,7.973391
5027297051000.0,0.6360386187748608,9.787915558472552,-1.7369523490851233,-0.20891592,-0.15668693,0.022907447,154.46036,-99.60814,7.916545
5027301996000.0,0.5793334354018757,9.708200250416338,-1.7405529230344463,-0.17989981,-0.12736541,-0.013133603,154.40977,-99.501175,7.8221083
5027307058000.0,0.6388206094399158,9.65721110465422,-1.770296532237707,-0.15790866,-0.06627888,-0.03359759,154.34207,-99.39596,7.725094
5027312409000.0,0.7043379288515406,9.605013904761904,-1.7997422281512605,-0.12370021,-0.028099801,-0.058337633,154.2654,-99.27613,7.601562
5027317738000.0,0.8304743666337123,9.592400445378152,-1.7829240042511123,-0.1020145,0.0036651916,-0.076358154,154.17178,-99.15678,7.477418
5027322043000.0,0.9323729150766188,9.5822107394958,-1.7693375051161642,-0.09468412,0.017104227,-0.08124508,154.07625,-99.056564,7.367051
5027327052000.0,1.0834418488458528,9.564039806729266,-1.7238307935250392,-0.08002335,0.04917465,-0.0888809,153.96492,-98.95823,7.2537537
5027332068000.0,1.2619841218505476,9.54054742175274,-1.653353589534429,-0.083383106,0.064751714,-0.09101892,153.8538,-98.86017,7.142198
5027337027000.0,1.436441581037165,9.473565368366463,-1.5672232701469315,-0.09040806,0.08032878,-0.083383106,153.74266,-98.78809,7.063086
5027342000000.0,1.6093256694900604,9.362425480553156,-1.4643160398444253,-0.09865474,0.09437868,-0.07238753,153.6271,-98.71683,6.9858375
5027347036000.0,1.7484339012685983,9.257983860767425,-1.3728775590759592,-0.1001819,0.099265605,-0.06291912,153.5223,-98.669754,6.948883
5027352057000.0,1.7258410526546593,9.190205079013312,-1.338988325473767,-0.10415252,0.09193522,-0.050701816,153.41734,-98.62473,6.9162836
5027356969000.0,1.703738668191073,9.123897694831635,-1.3058347872435396,-0.124005646,0.08307768,-0.03970624,153.32736,-98.6032,6.93114
5027362047000.0,1.6589031089779005,9.064558486464088,-1.2566773089779006,-0.14935656,0.062308256,-0.039095376,153.2434,-98.581055,6.945628
5027367107000.0,1.6008955205801103,9.01101334281768,-1.1986697205801105,-0.17379116,0.03573562,-0.03940081,153.16434,-98.55868,6.962181
5027372086000.0,1.5550775142305024,8.978610975225449,-1.1506347481419086,-0.18173242,0.0012217305,-0.03176499,153.09058,-98.5312,6.9769363
5027377058000.0,1.5220469479437122,8.969173487563175,-1.112885536567238,-0.21013765,-0.020158553,-0.021991149,153.0212,-98.497795,6.991574
5027382082000.0,1.4827119451092765,9.038938922778048,-1.0667400184847011,-0.22052236,-0.03940081,-0.013439035,152.9605,-98.45232,6.9955072
5027387500000.0,1.4323115987469646,9.220380085478387,-1.006259613375425,-0.22968534,-0.061391957,-0.01038471,152.90729,-98.4049,6.999941
5027392022000.0,1.3932508974844031,9.386806579392232,-0.9659295743912256,-0.22602014,-0.059864793,0.0036651916,152.8578,-98.354256,7.0031505
5027397081000.0,1.3542499170356208,9.596437428355806,-0.9366787754226202,-0.22357668,-0.05497787,0.009773844,152.81393,-98.30248,7.0044765
5027402040000.0,1.3020704433209058,9.768397792397929,-0.9262218680685642,-0.20525073,-0.022296581,0.0125227375,152.75664,-98.23764,6.994994
5027407070000.0,1.2276035277075563,9.89104892452487,-0.9437435073792853,-0.20341812,0.0033597588,0.017104227,152.70044,-98.174576,6.9877825
5027412050000.0,1.1483559688994307,9.981196217583808,-0.9799190627292852,-0.20066923,0.021991149,0.0143553335,152.6322,-98.09939,6.9668083
5027417095000.0,1.0452167355977229,9.942996537001898,-1.0945181842504743,-0.17470746,0.059253927,0.0036651916,152.55153,-98.0291,6.9459906
5027421987000.0,0.945205411650854,9.905955340290957,-1.2056418517394054,-0.1600467,0.06688975,-0.0021380284,152.468,-97.94165,6.9044123
5027427079000.0,0.9695819421890044,9.917298684317204,-1.2286798338738285,-0.13744467,0.07269296,-0.014966198,152.37427,-97.85667,6.859127
5027432066000.0,1.0583168238189342,9.953599419939197,-1.204479427691918,-0.11636983,0.061086524,-0.014966198,152.28383,-97.7772,6.8163166
5027436980000.0,1.1620327843500542,9.992434545924905,-1.1754622446733023,-0.0870483,0.058948494,-0.029321533,152.1796,-97.6876,6.7401905
5027442052000.0,1.3104294473243323,10.04030438883414,-1.1323793360697745,-0.06994407,0.047036625,-0.027488936,152.08188,-97.60482,6.669464
5027446982000.0,1.4462230917214385,10.090130018683997,-1.0860032577763827,-0.051923547,0.035430185,-0.026267206,151.99394,-97.53955,6.616733
5027452094000.0,1.561917040646924,10.151592371242891,-1.0245408108374567,-0.055588737,0.020463986,-0.019242255,151.91064,-97.47676,6.5667696
5027457009000.0,1.6731525177534894,10.21068616287571,-0.9654469284617088,-0.046731193,-0.0036651916,-0.004581489,151.84232,-97.44301,6.5494995
5027462083000.0,1.7725551167768752,10.28120677885887,-0.8872324169705271,-0.049480084,-0.010079277,0.009162978,151.77351,-97.40948,6.5342813
