timestamp,acc_x,acc_y,acc_z,gyro_x,gyro_y,gyro_z,ori_azimuth,ori_pitch,ori_roll
2702736155000.0,-6.204033782485529,-0.377167932848307,7.4297655291214015,-1.1746938,0.75136423,0.03390302,276.6906,10.757098,-32.895973
2702741151000.0,-6.201899664784712,-0.3790649163460471,7.42881704281976,-1.1746938,0.75319684,0.03145956,276.66357,10.756249,-32.895256
2702746145000.0,-6.19976640141444,-0.3809611404428673,7.427868936216398,-1.1902709,0.7626653,0.033292156,276.6625,10.8847475,-33.132813
2702751525000.0,-6.1974682522490285,-0.3830039289172151,7.426847547845135,-1.187522,0.7489208,0.037873644,276.65704,11.006457,-33.35893
2702756054000.0,-6.195533620730414,-0.3847235923001744,7.425987721091706,-1.1728612,0.7351763,0.030848695,276.65308,11.128236,-33.58165
2702761015000.0,-6.193414453814131,-0.3866072862818174,7.425045879509951,-1.1566733,0.7483099,0.026267206,276.6455,11.245561,-33.803276
2702766011000.0,-6.191280336113314,-0.3885042697795575,7.42409739320831,-1.1658363,0.7620544,0.027488936,276.63525,11.363361,-34.016186
2702771008000.0,-6.189145791247225,-0.3904016329777575,7.423148717057529,-1.1902709,0.782213,0.03940081,276.6225,11.477742,-34.23008
2702777305000.0,-6.18645593152704,-0.3927926067738482,7.421953237025216,-1.2202033,0.7644979,0.040927973,276.6089,11.594865,-34.431778
2702781067000.0,-6.184848935772342,-0.394221039904052,7.42123902456189,-1.2125676,0.6963864,0.03023783,276.5909,11.706782,-34.620163
2702786014000.0,-6.182735749169872,-0.3960994180792562,7.420299840868091,-1.1282681,0.77518797,0.050701816,276.5588,11.79617,-34.852276
2702791009000.0,-6.180602058634327,-0.3979960218765363,7.419351544415589,-1.2351695,0.766025,0.054367006,276.52133,11.930797,-35.03478
2702796426000.0,-6.178288104353838,-0.400052859267901,7.41832313162616,-1.2394456,0.75655663,0.057726767,276.4823,12.016768,-35.2358
2702801185000.0,-6.176255224822576,-0.401859853756641,7.417419639570612,-1.2394456,0.7449502,0.05681047,276.44122,12.12455,-35.429073
2702806161000.0,-6.174129650427207,-0.4037492432451827,7.416474950251764,-1.2366967,0.7370089,0.06047566,276.3957,12.229242,-35.616913
2702811213000.0,-6.171971611471136,-0.4056674899686781,7.415515832398302,-1.235475,0.7171558,0.06352998,276.34744,12.33251,-35.793896
2702816123000.0,-6.169874229983744,-0.4075318192268654,7.41458367312267,-1.2327261,0.70249504,0.07880162,276.29254,12.430097,-35.967224
2702821125000.0,-6.167737549291293,-0.4094310809273649,7.413634047726191,-1.2379184,0.6740898,0.09682214,276.2317,12.526319,-36.12784
2702826576000.0,-6.165409071391543,-0.4115008281343668,7.412599180066014,-1.2247849,0.6114761,0.1001819,276.16534,12.615862,-36.271282
2702831147000.0,-6.163456498931488,-0.4132364389366426,7.411731379648719,-1.146594,0.54153204,0.09590584,276.0915,12.688343,-36.402153
2702836129000.0,-6.161328361544485,-0.4151281066279438,7.410785551235032,-1.035722,0.462425,0.096516706,276.00775,12.747568,-36.510807
2702841115000.0,-6.159198515496392,-0.4170212931210847,7.409838963424788,-0.8940013,0.39645153,0.0842994,275.92444,12.783982,-36.599895
2702846133000.0,-6.157055000159583,-0.418926630028943,7.408886300442074,-0.76083267,0.3304781,0.077579886,275.83197,12.795633,-36.665577
2702852253000.0,-6.154440748692609,-0.4212503968436286,7.407724423707477,-0.63438356,0.22418754,0.050701816,275.74124,12.78244,-36.697784
2702856169000.0,-6.152767969485964,-0.4227373038446594,7.406980974476647,-0.40683624,-0.020463986,-0.0061086523,275.64465,12.723245,-36.669582
2702861126000.0,-6.150650511230771,-0.4246194790244627,7.406039892291452,0.03268129,-0.040317107,-0.0076358155,275.55194,12.58333,-36.67571
2702866863000.0,-6.14819986406312,-0.4267978205630005,7.404950727777337,0.05681047,-0.009162978,-0.00061086525,275.46002,12.495965,-36.625668
2702871114000.0,-6.146383984490226,-0.4284119272181032,7.404143679084727,0.009773844,-0.0067195175,-0.004276057,275.37183,12.330364,-36.562317
2702876190000.0,-6.144215693567619,-0.4303392867526365,7.403180004851915,-0.0012217305,-0.0106901415,0.0021380284,275.28424,12.151237,-36.507908
2702881194000.0,-6.142078158544623,-0.4322393078540559,7.402229999757156,0.010079277,-0.010079277,0.004581489,275.20377,11.981929,-36.45567
2702886131000.0,-6.139969243594877,-0.4341138890246609,7.401292714554754,0.0076358155,-0.015882496,0.003970624,275.12488,11.820472,-36.40165
2702891128000.0,-6.137834698728788,-0.4360112522228609,7.400344038403973,0.011301007,-0.013744468,-0.0015271631,275.05124,11.658285,-36.350647
2702896122000.0,-6.135701435358516,-0.4379074763196812,7.39939593180061,-0.0015271631,-0.0106901415,-0.0009162979,274.9788,11.502204,-36.29955
2702901181000.0,-6.133540406245539,-0.439828380946396,7.398435485003172,0.0070249503,-0.0076358155,0.00061086525,274.91144,11.3438835,-36.249573
2702906172000.0,-6.1314084243710845,-0.4417234659418365,7.397487947947228,0.011911872,-0.0036651916,0.0015271631,274.8477,11.191919,-36.201538
2702911130000.0,-6.1292905389506185,-0.4436060208220997,7.396546675912893,0.014049901,-0.010995574,0.0027488936,274.78574,11.0409,-36.152153
2702916130000.0,-6.1271547125887125,-0.4455045231216795,7.395597430214694,0.0125227375,-0.0076358155,0.0027488936,274.7282,10.892214,-36.10762
2702921111000.0,-6.1250270023669815,-0.4473958111125208,7.394651791650147,0.0076358155,-0.007330383,0.0030543262,274.6722,10.746072,-36.06112
2702926160000.0,-6.1228702449067285,-0.4493129187346364,7.393693243344104,0.014966198,-0.006414085,0.00580322,274.6186,10.599538,-36.016693
2702931171000.0,-6.120729719726826,-0.4512155977392752,7.392741909305368,0.012217305,-0.0021380284,0.00030543262,274.57074,10.460212,-35.973564
2702936153000.0,-6.118601582339823,-0.4531072654305764,7.391796080891682,0.015271631,0.0021380284,0.008246681,274.5201,10.317515,-35.93251
2702941128000.0,-6.116476435109726,-0.4549962752186583,7.390851581421972,0.017715093,-0.00030543262,0.005497787,274.47742,10.1806965,-35.890503
2702946119000.0,-6.114344453235271,-0.4568913602140988,7.389904044366029,0.009773844,0.00030543262,0.0015271631,274.43552,10.046759,-35.85169
2702951186000.0,-6.112180006800115,-0.4588153024444928,7.388942078775473,0.005497787,-0.0070249503,0.005192355,274.39355,9.912885,-35.810993
2702956420000.0,-6.109944223764471,-0.4608026546516929,7.387948408378598,0.017104227,0.0030543262,0.0027488936,274.35876,9.781102,-35.77545
2702961200000.0,-6.107902373762489,-0.4626176228500911,7.387040929491119,0.016798794,0.009468411,0.008552114,274.32126,9.653199,-35.738308
2702966122000.0,-6.105799866291829,-0.4644865085137974,7.386106492025811,0.0125227375,0.0027488936,0.009162978,274.2884,9.527003,-35.700546
2702971117000.0,-6.103666175756284,-0.4663831123110776,7.385158195573309,0.007941248,-0.004276057,0.010995574,274.25568,9.401911,-35.665535
2702981192000.0,-6.100189379917019,-0.4687908820548943,7.385017756138064,0.004581489,-0.011911872,0.0021380284,274.22797,9.281337,-35.628567
2702986178000.0,-6.099715980184699,-0.4678440870391061,7.387621446015277,0.008857546,-0.004581489,0.00580322,274.1979,9.159676,-35.595352
2702991128000.0,-6.099245998500988,-0.4669041280884138,7.390206336687602,0.005192355,-0.0036651916,0.004886922,274.1694,9.05351,-35.554077
2702996120000.0,-6.098772029093901,-0.465956193728443,7.39281315976563,0.005192355,-0.01038471,0.009162978,274.13956,8.94581,-35.513973
2703001189000.0,-6.098290748860623,-0.4649936377847947,7.395460192254118,0.014660766,-0.010079277,0.0027488936,274.1159,8.840475,-35.476223
2703006537000.0,-6.097782978750626,-0.4639781023366529,7.3982529185805,0.01863139,-0.0015271631,0.01282817,274.08685,8.734664,-35.440792
2703011126000.0,-6.097347272498798,-0.4631066939276171,7.400649295003792,0.010079277,-0.0021380284,0.01038471,274.0653,8.634472,-35.40263
2703016120000.0,-6.096873113200121,-0.4621583797862521,7.403257162482093,0.010995574,-0.00061086525,0.014660766,274.04025,8.530094,-35.369057
2703021175000.0,-6.096393162207968,-0.4611984823123634,7.405896884168678,0.016493361,0.0030543262,0.009773844,274.0208,8.430267,-35.336
2703026175000.0,-6.095918433234523,-0.4602490288268156,7.408507884847793,0.005192355,-0.009162978,0.00580322,274.00018,8.334937,-35.299828
2703031168000.0,-6.09544436888164,-0.4593009045761477,7.411115230125959,0.008857546,-0.002443461,0.011301007,273.98077,8.235731,-35.270897
2703036140000.0,-6.094972298390447,-0.458356768030119,7.413711609201271,0.010995574,-0.008857546,0.0030543262,273.96725,8.1440325,-35.234646
2703041190000.0,-6.094492822127267,-0.4573978200097158,7.416348719887178,0.005192355,-0.008552114,0.008552114,273.94928,8.051687,-35.203793
2703046182000.0,-6.09401885272018,-0.456449885649745,7.4189555429652065,0.009468411,-0.0021380284,0.007941248,273.93747,7.960414,-35.172844
2703052115000.0,-6.093455539320289,-0.455323264143794,7.422053756371045,0.009773844,-0.005192355,0.0027488936,273.9261,7.8727574,-35.14003
2703056483000.0,-6.093040816089088,-0.4544938215788195,7.42433472656432,0.0106901415,-0.01282817,0.003970624,273.914,7.7844777,-35.108635
2703061233000.0,-6.092589823564315,-0.4535918407675492,7.426815177209479,0.0076358155,-0.008552114,0.010995574,273.90335,7.6983976,-35.080414
2703066184000.0,-6.092119746934809,-0.4526516919261598,7.42940059008194,0.006414085,-0.006414085,0.009468411,273.8958,7.6143193,-35.049763
2703071140000.0,-6.091649195576331,-0.4517105936312849,7.431988613955079,0.009773844,-0.008246681,0.005192355,273.8879,7.530586,-35.020023
2703076435000.0,-6.091146457593453,-0.4507051223900898,7.434753663674263,0.005497787,-0.008857546,0.008246681,273.87927,7.449343,-34.99211
2703081250000.0,-6.090689293592025,-0.4497907986835074,7.437268057328251,-0.0009162979,-0.013133603,0.004581489,273.87518,7.370993,-34.962757
2703086204000.0,-6.090218932125135,-0.4488500801700267,7.439855036801118,0.013439035,-0.0106901415,0.01160644,273.86768,7.2878356,-34.93635
2703091184000.0,-6.0897461020675845,-0.4479044244984211,7.442455593477518,0.007330383,-0.0061086523,0.008246681,273.86584,7.2145557,-34.909344
2703096183000.0,-6.089271468039934,-0.4469551609035705,7.445066071956496,0.009773844,-0.0036651916,0.0036651916,273.86298,7.136284,-34.88329
2703101166000.0,-6.088798353144998,-0.4460089355598737,7.447668195233303,0.0030543262,-0.008552114,0.016798794,273.85593,7.06049,-34.85762
2703106383000.0,-6.088303020934106,-0.4450182757930532,7.450392513341892,-0.00061086525,0.00030543262,0.015271631,273.8573,6.9878387,-34.83628
2703111134000.0,-6.087851933463538,-0.4441161050910857,7.452873486187188,0.009468411,-0.010995574,0.0106901415,273.8547,6.9131107,-34.8088
2703116115000.0,-6.087379008460193,-0.4431702595287831,7.455474565063723,0.013744468,-0.0036651916,0.0125227375,273.85272,6.8410044,-34.789814
2703122095000.0,-6.086811232607952,-0.442034713160068,7.458597321875945,0.00030543262,-0.0070249503,0.01282817,273.85254,6.7729015,-34.764874
2703126187000.0,-6.086422714416084,-0.4412576804274957,7.460734164831733,0.016187929,-0.008552114,0.010079277,273.85406,6.6983266,-34.742977
2703131278000.0,-6.085939345375323,-0.440290946888511,7.463392685723209,0.008857546,-0.012217305,0.0033597588,273.85733,6.6340795,-34.71987
2703136147000.0,-6.085477054300982,-0.4393663690842846,7.46593527818453,0.008552114,-0.009468411,0.0076358155,273.85876,6.564274,-34.698986
2703141185000.0,-6.0849987173873386,-0.4384096997522468,7.468566122468808,0.008246681,-0.007941248,0.004581489,273.86545,6.4995837,-34.676674
2703146180000.0,-6.084524463142867,-0.4374611957201846,7.471174512147244,0.0070249503,-0.0061086523,0.0076358155,273.8694,6.4345636,-34.656124
2703151239000.0,-6.084044132367535,-0.4365005386835074,7.473816322634373,0.002443461,-0.016187929,0.008246681,273.87537,6.3723664,-34.632896
2703156223000.0,-6.083570922526805,-0.4355541234491134,7.476418968111315,0.015271631,-0.014660766,0.004581489,273.883,6.307606,-34.613888
2703161120000.0,-6.0831059729702135,-0.434624228705368,7.478976182176441,0.005497787,-0.004581489,0.005192355,273.8895,6.2494473,-34.595127
2703166161000.0,-6.082627351219186,-0.4336669897012388,7.481608593061125,0.00580322,-0.004276057,0.008857546,273.89642,6.1870255,-34.574524
2703171157000.0,-6.08215300202892,-0.4327182957784795,7.484217504939697,0.0061086523,-0.0033597588,0.014966198,273.90332,6.1273913,-34.557465
2703176583000.0,-6.081637826146937,-0.431687948855963,7.4870509628766735,0.013744468,0.00030543262,0.0143553335,273.9119,6.067423,-34.541576
2703181391000.0,-6.0813629048524245,-0.4308653955272613,7.488335764028248,0.008552114,-0.011911872,0.011301007,273.91913,6.010792,-34.52196
2703191904000.0,-6.082363619735711,-0.4298646848236995,7.480330076309891,0.005192355,-0.004276057,0.00580322,273.92902,5.953427,-34.50927
2703196141000.0,-6.082766932677829,-0.4294613735661145,7.477103585406945,0.010995574,-0.0061086523,0.011301007,273.91806,5.8886356,-34.484364
2703201568000.0,-6.0832835197292505,-0.4289447886723421,7.472970905177941,0.011301007,-0.00580322,0.009468411,273.91266,5.8290944,-34.462284
2703206102000.0,-6.083715103604531,-0.428513206599675,7.469518247695297,0.013133603,0.0030543262,0.008552114,273.90613,5.767876,-34.44285
2703211025000.0,-6.08418371573907,-0.4280445964224054,7.465769365298505,0.01282817,-0.0033597588,0.014660766,273.8979,5.7073164,-34.419827
2703216044000.0,-6.084661465953016,-0.4275668482038972,7.461947378552721,0.009773844,-0.01282817,0.0106901415,273.89438,5.6498156,-34.398495
2703221051000.0,-6.085138073907037,-0.4270902422405438,7.458134529850561,0.009468411,-0.0067195175,0.010995574,273.88837,5.591108,-34.380585
2703226057000.0,-6.08561458667273,-0.4266137314651201,7.454322442652035,0.017104227,-0.0009162979,0.0033597588,273.88675,5.534189,-34.36
2703231035000.0,-6.086088434165263,-0.4261398859517242,7.450531677555299,0.0036651916,-0.004886922,0.009468411,273.88077,5.481021,-34.339306
2703236016000.0,-6.086562567222777,-0.4256657548745396,7.446738627947659,0.013133603,-0.013439035,0.013439035,273.8788,5.4232063,-34.31905
2703241016000.0,-6.087038508858507,-0.4251898152266933,7.442931109770946,0.01282817,0.0009162979,0.0076358155,273.87946,5.3723855,-34.304493
2703246014000.0,-6.087514260117583,-0.424714065954706,7.439125114601504,0.0061086523,-0.006414085,0.018936822,273.87222,5.3183913,-34.282494
2703251133000.0,-6.088001529164244,-0.4242267989432409,7.435226977492185,0.010995574,-0.0076358155,0.012217305,273.87457,5.266503,-34.265923
2703256105000.0,-6.088474805526814,-0.4237535245574225,7.431440781417262,0.01740966,-0.00030543262,0.014049901,273.87073,5.2135415,-34.25074
2703261081000.0,-6.088948462642692,-0.4232798694198858,7.427651539327797,0.0033597588,-0.0033597588,0.007330383,273.87222,5.1676273,-34.23218
2703266067000.0,-6.089423071641843,-0.4228052624030534,7.423854682201979,0.006414085,-0.006414085,0.011301007,273.87027,5.115041,-34.216465
2703271058000.0,-6.0898981565826285,-0.4223301794465731,7.420054017557984,0.008246681,-0.0061086523,0.009468411,273.87305,5.0688963,-34.20081
2703276116000.0,-6.090379619141333,-0.4218487188988117,7.416202332170421,0.010995574,-0.004886922,0.009162978,273.87436,5.0217505,-34.185104
2703281125000.0,-6.090856417472008,-0.4213719225595992,7.412387960460991,0.01038471,-0.01160644,0.005192355,273.87772,4.976659,-34.167427
2703286158000.0,-6.091335500322535,-0.420892841710077,7.408555312664311,0.008857546,-0.008246681,0.009162978,273.8793,4.9307065,-34.153557
2703291125000.0,-6.091808300743469,-0.4204200432639065,7.404772924107564,0.0067195175,-0.004276057,0.0018325958,273.88635,4.888279,-34.13789
2703296113000.0,-6.092283100119273,-0.4199452458712149,7.400974543974476,-0.0015271631,-0.004276057,0.0021380284,273.88977,4.8465486,-34.122757
2703301093000.0,-6.09275713798846,-0.4194712099819599,7.39718225587047,0.0021380284,-0.0061086523,0.004581489,273.89542,4.80406,-34.10842
2703306168000.0,-6.093240218748727,-0.4189881312393959,7.393317624921106,0.009773844,-0.0009162979,0.008857546,273.90085,4.7629066,-34.096474
2703311131000.0,-6.093712638416352,-0.4185157135449435,7.389538282378901,0.004886922,-0.003970624,0.009468411,273.9067,4.724726,-34.08195
2703316101000.0,-6.094185724402268,-0.4180426295349843,7.385753609311248,0.01282817,-0.005192355,0.005192355,273.91336,4.682513,-34.069702
2703326096000.0,-6.095137131732093,-0.4170912261789393,7.378142380475999,0.0070249503,-0.006414085,0.008857546,273.9173,4.644022,-34.05713
2703331176000.0,-6.0956206884339945,-0.4166076714967274,7.374273942008458,0.018936822,-0.005192355,0.007330383,273.92487,4.601665,-34.044945
2703336113000.0,-6.096090633205114,-0.4161377286884439,7.370514398560772,0.01282817,-0.005497787,0.010079277,273.9299,4.5643406,-34.032505
2703341106000.0,-6.096565908522555,-0.4156624553561045,7.366712210909506,0.013439035,-0.0012217305,0.009162978,273.93723,4.524133,-34.02187
2703346074000.0,-6.097038804131817,-0.4151895617220044,7.362929060849125,0.016493361,-0.0012217305,0.007941248,273.94388,4.4850707,-34.01028
2703351242000.0,-6.097530737406507,-0.4146976305019904,7.358993610061674,0.009162978,-0.005192355,0.01160644,273.94946,4.448347,-33.999138
2703356153000.0,-6.097998207281122,-0.4142301625798756,7.355253865708507,0.013439035,-0.0009162979,0.007941248,273.95856,4.4101753,-33.990368
2703361213000.0,-6.0984798602164805,-0.4137485116562551,7.351400657313674,0.00580322,-0.002443461,0.009162978,273.96466,4.3758116,-33.979305
2703366153000.0,-6.098950090552582,-0.4132782832841828,7.34763882935508,0.009162978,-0.00030543262,0.0106901415,273.9724,4.338987,-33.970654
2703371134000.0,-6.099424223610097,-0.4128041522069983,7.34384577974744,0.016493361,-0.0009162979,0.013439035,273.97946,4.3032126,-33.961086
2703376248000.0,-6.099911016715121,-0.412317361135181,7.339951450156297,0.013439035,-0.00030543262,0.0012217305,273.99146,4.2718506,-33.952347
2703381156000.0,-6.100378201024754,-0.411850178776855,7.336213990314036,0.013439035,-0.005497787,0.005192355,273.99695,4.235613,-33.942482
2703386228000.0,-6.1004257,-0.4131268306191702,7.335613303774887,0.005192355,-0.0036651916,0.008552114,274.0073,4.204671,-33.934704
2703391190000.0,-6.1004257,-0.4145636194607015,7.335373834133732,0.018020526,-0.0061086523,0.007941248,274.01752,4.1692686,-33.924458
2703396141000.0,-6.1004257,-0.4159972231596982,7.3351348953603805,0.014049901,-0.005192355,0.007941248,274.00882,4.137548,-33.928555
2703401255000.0,-6.1004257,-0.4174780248798899,7.334888090091361,0.010995574,-0.0036651916,0.0030543262,274.0024,4.104064,-33.93191
2703406243000.0,-6.1004257,-0.4189223422401394,7.334647365671755,0.007941248,-0.00580322,0.007941248,273.99298,4.070549,-33.934624
2703411192000.0,-6.1004257,-0.4203553668223116,7.334408523419824,0.009773844,0.0015271631,0.004581489,273.9888,4.039259,-33.94005
2703416175000.0,-6.1004257,-0.4217982363905,7.334168040303765,0.005192355,-0.0018325958,0.003970624,273.98203,4.009536,-33.941925
2703421134000.0,-6.1004257,-0.4232341565567946,7.3339287154447375,0.015577064,0.0018325958,0.007941248,273.97562,3.9761705,-33.94782
2703426168000.0,-6.1004257,-0.4246917936040071,7.333685771032488,0.011911872,-0.004276057,0.007941248,273.97073,3.94846,-33.94978
2703431161000.0,-6.1004257,-0.4261375587563179,7.333444805309333,0.01160644,0.00061086525,0.0070249503,273.9656,3.9175515,-33.9559
2703436126000.0,-6.1004257,-0.427575216273086,7.333205190886048,0.013744468,-0.0021380284,0.01160644,273.9586,3.8865817,-33.958164
2703441120000.0,-6.1004257,-0.4290212709838089,7.332964176902184,0.01740966,-0.0061086523,0.005497787,273.956,3.8576963,-33.96111
2703447123000.0,-6.1004257,-0.4307594901324813,7.332674467862308,0.0125227375,-0.0070249503,-0.0009162979,273.95236,3.83018,-33.964172
2703451219000.0,-6.1004257,-0.4319455213890134,7.332476791995687,0.0030543262,-0.008552114,0.008552114,273.94556,3.8018265,-33.966118
2703456153000.0,-6.1004257,-0.4333742025950021,7.332238673654399,0.0070249503,-0.009162978,0.0067195175,273.94513,3.7747443,-33.967625
2703461123000.0,-6.1004257,-0.4348133079038313,7.331998817927566,0.008552114,-0.006414085,0.0070249503,273.94107,3.7490776,-33.96989
2703466111000.0,-6.1004257,-0.4362576252640808,7.331758093507959,0.005497787,-0.008246681,0.005192355,273.93854,3.7246425,-33.970566
2703476262000.0,-6.1004257,-0.4391969327067218,7.331268199044562,0.010079277,-0.008246681,0.009162978,273.93433,3.6975043,-33.97265
2703481172000.0,-6.1004257,-0.4406186645108167,7.331031238960306,0.0018325958,-0.005497787,0.00580322,273.9336,3.676025,-33.97477
2703486143000.0,-6.1004257,-0.4420580593780581,7.330791334972763,0.004581489,-0.008857546,0.005497787,273.93054,3.650173,-33.975277
2703491126000.0,-6.1004257,-0.4435009289462465,7.330550851856705,0.0061086523,-0.009468411,0.0027488936,273.9299,3.627891,-33.977184
2703496117000.0,-6.1004257,-0.4449461149817327,7.330309982654969,0.00061086525,-0.0030543262,0.0033597588,273.92856,3.6065292,-33.9802
2703501196000.0,-6.1004257,-0.4464167821574961,7.330064866510787,0.0061086523,-0.008246681,0.008552114,273.92648,3.5822897,-33.979748
2703506162000.0,-6.1004257,-0.4478547292326764,7.329825203826791,0.0033597588,0.0067195175,0.010079277,273.9264,3.5621648,-33.98677
2703511152000.0,-6.1004257,-0.4492996257097504,7.329584382885765,0.01038471,-0.013439035,0.004581489,273.9261,3.5391,-33.982216
2703516957000.0,-6.1004257,-0.4509805122927994,7.329304229466396,0.0061086523,-0.008246681,0.010995574,273.9225,3.5175936,-33.989353
2703521120000.0,-6.1004257,-0.4521859439629516,7.329103320132229,0.0030543262,-0.0070249503,0.011301007,273.9225,3.4963765,-33.98937
2703526148000.0,-6.1004257,-0.4536418436596907,7.328860665284238,0.01160644,0.002443461,0.014660766,273.91977,3.4722846,-33.993404
2703531314000.0,-6.1004257,-0.4551377024173188,7.328611350458318,0.008552114,-0.008857546,0.008552114,273.91998,3.4535043,-33.99164
2703536131000.0,-6.1004257,-0.4565325052890754,7.328378878620057,0.014660766,-0.007330383,0.014966198,273.91553,3.4283786,-33.996483
2703541131000.0,-6.1004257,-0.4579802973502718,7.328137575071935,0.013133603,-0.0036651916,0.009468411,273.9173,3.4090443,-33.998325
2703546116000.0,-6.1004257,-0.4594237460352847,7.3278969954344575,0.011301007,0.00061086525,0.009162978,273.91537,3.3868756,-34.001007
2703551319000.0,-6.1004257,-0.4609303184541656,7.327645894962282,0.01038471,-0.003970624,0.014966198,273.91333,3.3651192,-34.00217
2703556141000.0,-6.1004257,-0.4623265691179835,7.327413181820472,0.009773844,0.0030543262,0.010079277,273.91565,3.3458543,-34.00758
2703561136000.0,-6.1004257,-0.4637729133871187,7.327172119575898,0.0076358155,-0.00580322,0.005192355,273.9157,3.3266017,-34.007217
2703566132000.0,-6.1004257,-0.4652195472146662,7.326931009070615,-0.0012217305,-0.002443461,0.0061086523,273.9161,3.3092763,-34.012314
2703571115000.0,-6.1004257,-0.4666624167828545,7.3266905259545565,0.010079277,-0.004581489,0.015271631,273.91516,3.2874467,-34.013332
2703576629000.0,-6.1004257,-0.4682590418679419,7.326424416401687,0.01740966,-0.0036651916,0.0106901415,273.9189,3.270985,-34.0159
2703581170000.0,-6.101249026197183,-0.4696751821851536,7.32599971247757,0.0027488936,-0.0027488936,0.005192355,273.91998,3.2560778,-34.017998
2703586783000.0,-6.1055599683098585,-0.4718306484587238,7.324652553090071,0.004886922,-0.008552114,0.013133603,273.91803,3.2343757,-34.018574
2703591125000.0,-6.108894746619718,-0.473498033913889,7.323610442621423,0.01160644,0.0015271631,0.014049901,273.91122,3.2230232,-34.02569
2703601259000.0,-6.116677944084507,-0.4773896240112275,7.321178211509197,0.008552114,0.00030543262,0.016493361,273.90097,3.2121837,-34.028053
2703606308000.0,-6.120555718309859,-0.4793285068217132,7.319966416079395,0.007941248,-0.014966198,0.016798794,273.89133,3.1996152,-34.029137
2703611152000.0,-6.124276046760564,-0.4811886669195528,7.318803822088116,0.01038471,-0.005497787,0.01160644,273.8835,3.187774,-34.036777
2703616120000.0,-6.128091610704225,-0.4830964446582126,7.317611467226706,-0.003970624,-0.005497787,0.009773844,273.8741,3.1797085,-34.03741
2703621113000.0,-6.131926375352113,-0.4850138227276828,7.316413112189865,0.006414085,-0.0033597588,0.01985312,273.8629,3.1643407,-34.04142
2703626384000.0,-6.135974651830986,-0.4870379564757656,7.315148035202245,0.008552114,0.0018325958,0.017715093,273.8568,3.1567378,-34.04597
2703631351000.0,-6.139789447746479,-0.4889453502011929,7.313955920347852,-0.004276057,-0.00030543262,0.017104227,273.84683,3.1485837,-34.04918
2703636135000.0,-6.143463694507042,-0.4907824695050874,7.312807726777605,-0.002443461,-0.005497787,0.0125227375,273.83923,3.1376529,-34.052776
2703641114000.0,-6.147287706760563,-0.4926944713893038,7.311612731839006,0.0067195175,0.004581489,0.018325957,273.8288,3.126616,-34.060207
2703646182000.0,-6.151180073521127,-0.4946406504512054,7.310396376275876,0.0027488936,-0.0018325958,0.014660766,273.82288,3.1206746,-34.061134
2703651211000.0,-6.155042487183098,-0.4965718529970427,7.309189380986417,-0.0021380284,-0.0061086523,0.013133603,273.81473,3.1117024,-34.065567
2703656819000.0,-6.15934958915493,-0.4987253992044509,7.307843421634003,0.0030543262,-0.0027488936,0.021380283,273.8047,3.1004736,-34.07039
2703661169000.0,-6.1626905116901405,-0.5003958567654754,7.306799391109218,0.010079277,-0.0021380284,0.015271631,273.80014,3.0926673,-34.07286
2703666189000.0,-6.166546013098592,-0.5023236031922209,7.305594555882913,0.007941248,-0.0018325958,0.014660766,273.79114,3.083787,-34.076393
2703671142000.0,-6.170350056619718,-0.5042256207323943,7.30440580112676,0.0009162979,0.0018325958,0.016493361,273.7837,3.075184,-34.080917
2703676153000.0,-6.174198645774648,-0.5061499110400481,7.303203125963611,0.002443461,0.007941248,0.018936822,273.7765,3.0652425,-34.086163
2703681297000.0,-6.1781493826760565,-0.5081252751076136,7.301968529867175,0.004886922,-0.00580322,0.014660766,273.7708,3.0576878,-34.086594
2703691180000.0,-6.185739805070423,-0.5119204778836148,7.299596540516265,0.009162978,0.00580322,0.017715093,273.7626,3.0479317,-34.09607
2703696184000.0,-6.189583018028169,-0.5138420800986416,7.298395545402236,0.0012217305,-0.0033597588,0.01038471,273.75894,3.0430346,-34.095345
2703702269000.0,-6.19425646943662,-0.5161788006179139,7.296935102702621,-0.00030543262,-0.0018325958,0.009773844,273.75256,3.0341842,-34.1011
2703706148000.0,-6.197235650704226,-0.5176683879464689,7.296004115482933,-0.010995574,0.003970624,0.010995574,273.7481,3.0304115,-34.105274
2703711234000.0,-6.201141841971831,-0.519621479246554,7.294783439793494,-0.018936822,0.007941248,0.01863139,273.74176,3.0255299,-34.10942
2703716157000.0,-6.204922844647888,-0.5215119763897549,7.293601885247857,-0.032375857,-0.005192355,0.013439035,273.73926,3.0264103,-34.11003
2703721122000.0,-6.208736104507042,-0.5234186020887174,7.292410250407499,-0.028710667,-0.009773844,-0.0012217305,273.7378,3.0254717,-34.11407
2703726389000.0,-6.21278130887324,-0.5254411997838705,7.291146133447947,-0.03848451,-0.024740042,0.00061086525,273.732,3.0290697,-34.111565
2703731190000.0,-6.216468612112676,-0.5272848473127161,7.289993859758408,-0.04550946,-0.034513887,-0.002443461,273.7329,3.0342388,-34.108875
2703736131000.0,-6.220263439295775,-0.5291822566941006,7.288807985086461,-0.05131268,-0.048258353,-0.0076358155,273.73346,3.0413978,-34.100876
2703741121000.0,-6.224095899859155,-0.5310984827238735,7.287610350070673,-0.06872234,-0.06841691,-0.01863139,273.73663,3.0542762,-34.088257
2703746108000.0,-6.2279260563380285,-0.5330135567139491,7.286413435075936,-0.0693332,-0.07727446,-0.024740042,273.73975,3.0644298,-34.07518
2703751302000.0,-6.231915194647888,-0.5350081214431357,7.28516683862864,-0.06169739,-0.08399397,-0.03023783,273.74585,3.0781496,-34.057156
2703756179000.0,-6.2356608680281695,-0.5368809539776452,7.283996324405794,-0.06811147,-0.095294975,-0.029932396,273.7515,3.0951076,-34.035717
2703761142000.0,-6.239472591830986,-0.5387868116501429,7.282805169579469,-0.06963864,-0.111177474,-0.030543262,273.75885,3.1098466,-34.01141
2703766115000.0,-6.243291995915493,-0.5406965094549646,7.281611614682973,-0.06047566,-0.11636983,-0.040317107,273.76895,3.124697,-33.987297
2703771928000.0,-6.247756543661972,-0.5429287783750187,7.280216453892035,-0.07147124,-0.12339478,-0.04520403,273.77692,3.143708,-33.958828
2703776218000.0,-6.251051384507043,-0.5445761951420981,7.279186823788281,-0.054367006,-0.13775012,-0.051618114,273.78818,3.155392,-33.927242
2703781294000.0,-6.252111474333238,-0.5443345065672498,7.27991669343275,-0.055588737,-0.1441642,-0.05222898,273.79877,3.173545,-33.896614
2703786137000.0,-6.247677728897811,-0.5399008537233534,7.284350346276646,-0.058643065,-0.14110987,-0.055283304,273.812,3.189191,-33.865196
2703791095000.0,-6.246204197028275,-0.5363012,7.286532545181766,-0.059253927,-0.14813483,-0.06566802,273.8183,3.2131324,-33.84848
2703796192000.0,-6.256766795715523,-0.5363012,7.2794908617426435,-0.0571159,-0.1518,-0.06719518,273.82245,3.2357988,-33.834034
2703801238000.0,-6.267223706246393,-0.5363012,7.272519636583959,-0.056199603,-0.14263703,-0.07544186,273.82123,3.259404,-33.82186
2703806332000.0,-6.275034811560078,-0.5474323833294574,7.277701339224806,-0.05467244,-0.15332718,-0.0870483,273.8209,3.2827587,-33.803234
2703811196000.0,-6.279548481017442,-0.570000985127907,7.295756205581395,-0.06261369,-0.15454891,-0.09865474,273.8236,3.3090694,-33.79007
2703816172000.0,-6.299511093414785,-0.5879909718699524,7.318520795609857,-0.049480084,-0.1554652,-0.10048734,273.80118,3.328099,-33.77763
2703821199000.0,-6.344373711182439,-0.5979604424849866,7.348429207454959,-0.04642576,-0.1563815,-0.10476339,273.7835,3.3532717,-33.764862
2703826229000.0,-6.381169308395575,-0.5949436256367591,7.435923735236835,-0.04550946,-0.14508049,-0.12889257,273.77124,3.3838272,-33.754242
2703831283000.0,-6.408625759487567,-0.5766393057955942,7.59151048255649,-0.03726278,-0.12186762,-0.14080444,273.75644,3.4102263,-33.747242
2703836138000.0,-6.417860895156784,-0.5993725174169512,7.659105593294008,-0.017104227,-0.160963,-0.1255328,273.72095,3.4327915,-33.729034
2703841496000.0,-6.391309878702266,-0.7108868419745421,7.558211508972369,-0.027183503,-0.15027285,-0.12522738,273.69647,3.464436,-33.7311
2703846139000.0,-6.383627855276527,-0.7734439184683217,7.499092141205789,-0.04062254,-0.106595986,-0.1591304,273.6597,3.487167,-33.716164
2703851249000.0,-6.39769977552957,-0.792206508193233,7.475638940784051,-0.017104227,-0.14263703,-0.13805555,273.60275,3.4945514,-33.683147
2703856169000.0,-6.4104170275527625,-0.825651816323712,7.459154620049659,-0.04153884,-0.14538592,-0.13927728,273.55594,3.5477357,-33.677372
2703861213000.0,-6.421661257316884,-0.8931174845235879,7.455406530415891,-0.043676864,-0.112399206,-0.1563815,273.50775,3.5886557,-33.671883
2703866142000.0,-6.432649125775916,-0.959044978289882,7.451743894847921,-0.028710667,-0.119729586,-0.17470746,273.45163,3.6350348,-33.662582
2703871139000.0,-6.444286599892987,-0.9970703261689168,7.4507556,-0.017715093,-0.14446963,-0.15118915,273.38763,3.6781716,-33.658146
2703876281000.0,-6.456447633067172,-1.0254460138047414,7.4507556,-0.037873644,-0.16279559,-0.16462818,273.3427,3.733223,-33.65216
2703881200000.0,-6.470205386607921,-1.0028457631451535,7.472733924779703,-0.02443461,-0.15943582,-0.1777618,273.28815,3.792036,-33.649193
2703886178000.0,-6.488670888844776,-0.873587151079694,7.54197955816791,-0.020463986,-0.101098195,-0.2134974,273.24707,3.86259,-33.655956
2703891112000.0,-6.503795770139459,-0.7928824580650123,7.58639910902379,0.018325957,-0.12003502,-0.2275473,273.18933,3.925707,-33.64362
2703896184000.0,-6.508776648892535,-0.8675956653660788,7.551532957752256,0.04520403,-0.12950343,-0.23732115,273.14423,3.9944978,-33.64956
2703901287000.0,-6.517502814489839,-0.9267574957931608,7.525260274204065,0.06261369,-0.12095132,-0.2574797,273.09644,4.0279627,-33.65294
2703906613000.0,-6.535192360442533,-0.9515228785981829,7.518184455822987,0.07269296,-0.10934488,-0.27305678,273.05066,4.0572133,-33.654305
2703911817000.0,-6.552476700873968,-0.9757209732503296,7.511270719650413,0.093767814,-0.09865474,-0.30787608,273.0276,4.102286,-33.660324
2703916163000.0,-6.564227015111764,-0.9884683682967782,7.520559966817085,0.11575896,-0.087659165,-0.3390302,273.00894,4.1459126,-33.66915
2703921141000.0,-6.574232904816874,-0.993471339269598,7.550577688172946,0.14263703,-0.060170226,-0.3753767,273.00464,4.1889935,-33.684406
2703926254000.0,-6.594530631000175,-0.993807251440042,7.580941631000175,0.16890424,-0.040011674,-0.41355577,273.0097,4.238721,-33.70758
2703931367000.0,-6.624445563274568,-0.9895337151858964,7.610856563274568,0.20708331,-0.028710667,-0.4529566,273.0278,4.284336,-33.734337
2703936229000.0,-6.647288723038992,-0.980502880010958,7.62385265716373,0.2510656,-0.0027488936,-0.5009095,273.07367,4.3301353,-33.763798
2703941191000.0,-6.651628150853803,-0.95446683419779,7.584798531805315,0.2919936,0.007941248,-0.5381723,273.1283,4.371266,-33.790573
2703946489000.0,-6.628074535649271,-0.9120978603610436,7.530513844690534,0.3371976,0.028405234,-0.58551437,273.21182,4.408158,-33.826862
2703951288000.0,-6.3213085070995145,-0.7261791985740291,7.3538912797936895,0.37995818,0.05375614,-0.61636305,273.30154,4.438438,-33.866024
2703956318000.0,-6.0325013856246485,-0.5551474178103128,7.189557355795993,0.43310347,0.10354166,-0.61483586,273.39468,4.4515104,-33.92147
2703961228000.0,-6.145980961201834,-0.676192208897112,7.28034085036602,0.50335294,0.1459968,-0.5910121,273.4897,4.451238,-33.98059
2703966184000.0,-6.260523685552249,-0.7983710245032579,7.37197486240045,0.55955255,0.12950343,-0.6591236,273.60886,4.419333,-34.003616
2703971137000.0,-6.338785686500411,-0.8661707932502053,7.406519121600836,0.59956425,0.14172074,-0.6924158,273.70917,4.365914,-34.047733
2703976270000.0,-6.390171374165609,-0.8918636370828045,7.395507911028149,0.63346726,0.16920967,-0.7281514,273.8323,4.312589,-34.08898
2703982050000.0,-6.448297714453915,-0.9184175358448292,7.383718,0.6872234,0.1826487,-0.7644979,273.97272,4.282037,-34.136063
2703986182000.0,-6.493498221931289,-0.9045096580660752,7.383718,0.7339546,0.18845193,-0.7870999,274.11948,4.248912,-34.187103
2703991165000.0,-6.548007933635006,-0.8877374037167208,7.383718,0.7538077,0.20616703,-0.82772243,274.29416,4.2264585,-34.259853
2703996176000.0,-6.581434355320872,-0.8066813143032593,7.375888058505972,0.79381937,0.21563543,-0.86926126,274.47476,4.192368,-34.32976
2704001277000.0,-6.601213664397058,-0.6814131393481342,7.362702013091302,0.83658,0.22235495,-0.904386,274.66528,4.158824,-34.401413
2704006268000.0,-6.620566444557663,-0.5588462973169579,7.349800316822998,0.86284715,0.22602014,-0.9428705,274.8765,4.1234937,-34.484562
2704011196000.0,-6.6271505,-0.4542571603311065,7.33942131852067,0.8622363,0.2180789,-0.9669997,275.09207,4.08833,-34.563923
2704016174000.0,-6.6271505,-0.3573319869590473,7.330190162358408,0.8668178,0.2098322,-0.98532563,275.3162,4.0515513,-34.64163
2704021172000.0,-6.618770734375,-0.2804208709375,7.32835196875,0.8622363,0.20799962,-0.9954049,275.54443,3.9816234,-34.727547
2704026316000.0,-6.60378793480079,-0.2167444284010036,7.332097717533455,0.86345804,0.18173242,-1.0207558,275.78052,3.9158158,-34.801716
2704031646000.0,-6.589322762498951,-0.1537086745028111,7.336953449727281,0.8524625,0.17256944,-1.0320568,276.0107,3.8329878,-34.88118
2704036201000.0,-6.60030426090459,-0.1646902187756986,7.362577035193421,0.8332202,0.14874569,-1.0253373,276.23938,3.75423,-34.947502
2704041212000.0,-6.612385114584208,-0.176771122914324,7.390765791893934,0.8200866,0.118202426,-1.0250319,276.46774,3.6631985,-35.004642
2704046177000.0,-6.602896351811496,-0.1990824464369381,7.42244086425134,0.79443026,0.089186326,-1.0091494,276.685,3.5772412,-35.055042
2704051372000.0,-6.575791216426042,-0.2307051232552438,7.458581044765277,0.7840455,0.06383542,-0.9966267,276.8999,3.4924417,-35.097054
2704056180000.0,-6.548281194939311,-0.2760400127496085,7.477795775743931,0.75655663,0.033292156,-0.98837996,277.1197,3.4202037,-35.126827
2704061158000.0,-6.515615506313626,-0.3507046088713782,7.473129144381363,0.7480045,-0.004581489,-0.95569867,277.32297,3.3407643,-35.14777
2704066115000.0,-6.498589352974558,-0.4215262334512437,7.472666248463066,0.7244862,-0.031154128,-0.9242391,277.5221,3.2775269,-35.151512
2704071111000.0,-6.516690343421923,-0.4848800874869952,7.481716979948927,0.7156286,-0.06047566,-0.9053023,277.7106,3.21014,-35.144444
2704076249000.0,-6.520779354874041,-0.5529625322453451,7.485276335377875,0.70463306,-0.06811147,-0.8958339,277.91388,3.1641185,-35.132584
2704081146000.0,-6.472837385177072,-0.6283000613362542,7.468154177802117,0.6954701,-0.07849618,-0.8900307,278.1082,3.117417,-35.112606
2704086131000.0,-6.424033889375684,-0.7049914198247536,7.450724331872946,0.70096785,-0.09193522,-0.8536842,278.29315,3.0777628,-35.090565
2704091110000.0,-6.41070972913296,-0.7425233158473346,7.447880282928853,0.6966918,-0.08093964,-0.8338311,278.4792,3.044251,-35.073067
2704097114000.0,-6.446490069601742,-0.7305965149346609,7.4657702352209085,0.6918049,-0.09590584,-0.83108217,278.65503,3.0064871,-35.045486
2704101210000.0,-6.461780587475203,-0.7418631408557259,7.500298333651939,0.700357,-0.08674286,-0.8200866,278.8402,2.9870217,-35.02372
2704106180000.0,-6.474656114165915,-0.7676143152380523,7.556092566474302,0.6918049,-0.083383106,-0.80970186,279.021,2.9719763,-34.99687
2704111098000.0,-6.482171697110518,-0.7786665766117604,7.605018189307077,0.70157874,-0.06719518,-0.7984009,279.20865,2.9465594,-34.976677
2704116120000.0,-6.477745987402227,-0.7565377646544584,7.640424421533082,0.70341134,-0.07086037,-0.7825184,279.38763,2.9222944,-34.95276
2704121174000.0,-6.47493597144977,-0.7475607694687638,7.670515066923876,0.70096785,-0.07452556,-0.77671516,279.57477,2.9031863,-34.93289
2704126284000.0,-6.482197835747144,-0.820179090176584,7.666884153732008,0.711658,-0.07574729,-0.7699956,279.75284,2.8775969,-34.913612
2704131123000.0,-6.489074579648316,-0.8889462240132067,7.663445799732898,0.7162395,-0.062002823,-0.7489208,279.93793,2.8462188,-34.893204
2704136184000.0,-6.557270548218616,-0.9550296888453648,7.773787578959149,0.7360926,-0.05955936,-0.73273283,280.1188,2.8083537,-34.870087
2704141192000.0,-6.700410043088977,-1.0131801027979854,8.024281181197539,0.743423,-0.04428773,-0.7165449,280.2899,2.7689574,-34.85564
2704146086000.0,-6.792933098202204,-1.0838083620529673,8.160786605064759,0.7461719,-0.09468412,-0.73426,280.49225,2.751821,-34.82687
2704151279000.0,-6.768898532959597,-1.1943674123622656,8.026193240479413,0.7415904,-0.04886922,-0.71593404,280.67526,2.7260296,-34.83126
2704156223000.0,-6.754164451446043,-1.2653304326618706,7.895218026402878,0.77946407,-0.010079277,-0.6808093,280.87848,2.7000833,-34.807728
2704161211000.0,-6.764474288597122,-1.2309641892086332,7.75431635647482,0.79320854,-0.03573562,-0.64476824,281.0703,2.6771617,-34.77986
2704167169000.0,-6.776789045964029,-1.1899148551079135,7.5860140009352515,0.8008443,0.0018325958,-0.63194007,281.278,2.6708744,-34.792343
2704171143000.0,-6.839417625708951,-1.1627115780247133,7.554087204622633,0.81245077,0.011301007,-0.6392705,281.4752,2.6572592,-34.789867
2704176387000.0,-6.977815918072717,-1.12699583102498,7.594267460787625,0.8051204,0.0036651916,-0.62949663,281.65878,2.64102,-34.79362
2704181290000.0,-7.064971956960594,-1.0969442066537467,7.643325947722868,0.8008443,0.02321288,-0.61636305,281.87073,2.6149933,-34.830616
2704186199000.0,-7.01182481750646,-1.077963057105943,7.730639314922481,0.81153446,0.04062254,-0.6059783,282.07654,2.5858722,-34.86433
2704191102000.0,-6.958742636870155,-1.0590051071705426,7.817845963808139,0.816116,0.013439035,-0.57910025,282.2856,2.5460408,-34.909134
2704196181000.0,-6.951390410006273,-1.0397729928952322,7.848875254297365,0.81489426,-0.01038471,-0.58246,282.4989,2.5084808,-34.9583
2704201401000.0,-6.96315104708281,-1.020171753717064,7.85671565172522,0.84849185,-0.03573562,-0.57635134,282.69604,2.455954,-34.998833
2704206246000.0,-6.956186543174187,-1.019795412226681,7.859562448235198,0.86498517,-0.07849618,-0.57451874,282.92123,2.405556,-35.00217
2704211185000.0,-6.874842212218492,-1.093392781533044,7.8440682013594305,0.88697636,-0.10170906,-0.5849035,283.1446,2.3472753,-35.003906
2704216097000.0,-6.793942565801327,-1.1665878165670298,7.828658656784866,0.91446525,-0.13164146,-0.571159,283.37662,2.275842,-34.991646
2704221183000.0,-6.7126212921094,-1.28449261588337,7.696806645001572,0.9379836,-0.15454891,-0.5366451,283.6006,2.19886,-34.97563
2704226416000.0,-6.629909458126376,-1.4223454394687205,7.515628620088023,0.9633345,-0.14752395,-0.5381723,283.82843,2.1192317,-34.960266
2704231254000.0,-6.571101275876659,-1.526242128633919,7.366068393689495,1.0057896,-0.16249016,-0.5290093,284.0625,2.0448735,-34.91894
2704236974000.0,-6.578957795346002,-1.5458833657798494,7.267862413051273,1.028697,-0.160963,-0.52595496,284.29507,1.9708127,-34.88564
2704241098000.0,-6.584622181061312,-1.5600442857081391,7.197057961276443,1.0552697,-0.16157386,-0.50701815,284.5388,1.9209238,-34.85716
2704246105000.0,-6.57059678559914,-1.5921599843095111,7.114440545656457,1.0592403,-0.14385876,-0.49235737,284.7784,1.8712578,-34.835384
2704251393000.0,-6.5207074465341215,-1.6511200477162815,7.032803410926025,1.0699304,-0.1151481,-0.5002986,285.01505,1.814644,-34.817604
2704256265000.0,-6.481388353030543,-1.7112688310808672,6.957147627156195,1.0616838,-0.09101892,-0.47586402,285.24503,1.7612997,-34.82299
2704261142000.0,-6.470301339808514,-1.7962696388194337,6.879538303062193,1.0592403,-0.06811147,-0.47433686,285.4821,1.7094793,-34.83613
2704266093000.0,-6.459046100427282,-1.8825601861053964,6.80075139234056,1.073901,-0.064751714,-0.47952923,285.7258,1.6676861,-34.85022
2704271139000.0,-6.4155648598928,-1.9265622114592,6.765202123509842,1.087951,-0.046731193,-0.48197266,285.9645,1.6261398,-34.874992
2704276304000.0,-6.351569073181776,-1.944846721948064,6.756059915996673,1.0961977,-0.052839845,-0.48166725,286.1998,1.5831404,-34.893658
2704281251000.0,-6.248033408583392,-1.948980922998704,6.72821061499352,1.110553,-0.05681047,-0.47616947,286.45416,1.5619146,-34.931473
2704286342000.0,-6.097358282554082,-1.939259960223308,6.679605801116539,1.1102476,-0.036651913,-0.44806966,286.6965,1.5383825,-34.974037
2704291183000.0,-6.039724732866499,-2.032268893884131,6.664974329168766,1.1065824,-0.05589417,-0.43035457,286.9412,1.5178983,-34.992447
2704296185000.0,-6.0735103827808565,-2.239809206790932,6.684280285239295,1.0913107,-0.07391469,-0.43401974,287.17963,1.499138,-35.01653
2704301466000.0,-6.01952793124265,-2.2699022627989023,6.6992823886515085,1.0760391,-0.11056661,-0.41172317,287.40918,1.4751866,-35.013824
2704306796000.0,-5.879461130772246,-2.1198304819286555,6.709287212348099,1.0613784,-0.12889257,-0.40622538,287.6412,1.4580598,-35.011066
2704311296000.0,-5.786137477944325,-1.9904611589476904,6.706486480666871,1.0433578,-0.14385876,-0.40317106,287.88278,1.4871876,-34.999786
2704316200000.0,-5.709515365738758,-1.846794411032936,6.692119815876415,1.0158689,-0.15821409,-0.39706242,288.11584,1.5197226,-34.983494
2704321156000.0,-5.662028564493871,-1.7996140392401982,6.716236759866873,0.9975429,-0.17440203,-0.40042216,288.3514,1.5254657,-34.939964
2704326293000.0,-5.646054200016235,-1.8595167384365612,6.784126432802988,0.9828822,-0.183565,-0.38423425,288.57208,1.5321136,-34.89549
2704331403000.0,-5.627096566012783,-1.918071695613842,6.844254986092132,0.96852684,-0.20066923,-0.39400807,288.80426,1.5178081,-34.83591
2704336105000.0,-5.567546190287268,-1.9577720382190875,6.797937885173757,0.9450085,-0.24709499,-0.41233405,289.0273,1.5077436,-34.766888
2704341296000.0,-5.501802676805525,-2.0016011489089705,6.746803884563955,0.9486737,-0.27458394,-0.42913285,289.2572,1.5123624,-34.685226
2704346095000.0,-5.411878905982906,-1.951449264184318,6.67641955328874,0.9300423,-0.267559,-0.4373795,289.4833,1.528663,-34.60212
2704352474000.0,-5.198482273504274,-1.5927613891713115,6.5084264192865104,0.91538155,-0.26389378,-0.45142943,289.71005,1.546126,-34.51218
2704356144000.0,-5.075709794871795,-1.3863991848606467,6.411775721404682,0.8943067,-0.24556783,-0.48380527,289.9673,1.5904635,-34.427517
2704361139000.0,-4.887140372668969,-1.0843553201904292,6.353347137918106,0.8756753,-0.22266038,-0.4972443,290.21527,1.6357709,-34.34709
2704366119000.0,-4.684794152639368,-0.7690719034563395,6.343935650399605,0.8567385,-0.20708331,-0.50885075,290.4664,1.6897657,-34.27111
2704371113000.0,-4.560548257685637,-0.5530224556897367,6.403938049109254,0.84421575,-0.19822577,-0.5143485,290.72333,1.6664134,-34.189045
2704376761000.0,-4.488064774791108,-0.3952640877376636,6.5318503789216456,0.8362745,-0.19486602,-0.52687126,290.97894,1.6492692,-34.111965
2704381266000.0,-4.428947927923511,-0.2649434547609708,6.627847808041187,0.8078693,-0.20861048,-0.5421429,291.24283,1.5715946,-33.99954
2704386216000.0,-4.343721726648689,-0.0518777007771512,6.639469608727629,0.79809546,-0.22540927,-0.5555819,291.50076,1.4936497,-33.891243
2704391143000.0,-4.258891525905042,0.1601980507134102,6.651037409128055,0.7779369,-0.2171626,-0.5748242,291.77008,1.3893983,-33.75527
2704396178000.0,-4.251865117143573,0.3724672261074497,6.696246224493201,0.7449502,-0.22204952,-0.57848936,292.02588,1.2911909,-33.617466
2704401453000.0,-4.302437523917577,0.5916144673479603,6.767890423417035,0.7247916,-0.22693644,-0.5864306,292.27808,1.1993766,-33.48809
2704406326000.0,-4.352192256400609,0.8729476556080378,6.837797155952286,0.6966918,-0.22602014,-0.5815437,292.5246,1.0626036,-33.359715
2704411198000.0,-4.411957705636058,1.414572821823713,6.91997466327756,0.679893,-0.2452624,-0.5833763,292.76544,0.93191284,-33.230625
2704416093000.0,-4.472005298823152,1.9587549212953328,7.002540118605396,0.63255095,-0.28313604,-0.5852089,293.01834,0.761152,-33.109642
2704422126000.0,-4.467701724110071,2.3806397798576118,7.083823208271339,0.589485,-0.27366763,-0.57635134,293.25842,0.5946213,-33.003292
2704426473000.0,-4.444390593224542,2.620411550915927,7.137105967018639,0.552833,-0.28252518,-0.57757306,293.49292,0.44212168,-32.88725
2704431352000.0,-4.409111753005907,2.878511173978477,7.175370929233757,0.5155703,-0.31429017,-0.5580254,293.70306,0.14266999,-32.805546
2704436196000.0,-4.3453015085848365,3.0999702783073064,7.145342401391698,0.47861293,-0.31490102,-0.5338962,293.9061,-0.14294234,-32.734776
2704441092000.0,-4.280806265668743,3.3238067305769072,7.114991519410955,0.45356745,-0.30818152,-0.50915617,294.09674,-0.4943726,-32.662437
2704446182000.0,-4.179861960500978,3.5374602824892367,7.095081412039138,0.40775254,-0.31520647,-0.47952923,294.27292,-0.82919085,-32.589333
2704451483000.0,-4.060644773479452,3.7520512357260274,7.079185715178082,0.36010507,-0.31948254,-0.4352415,294.4314,-1.1565337,-32.52193
2704456304000.0,-3.921271057713116,3.9597512622532536,7.066993355973096,0.30818152,-0.32895094,-0.3903429,294.57693,-1.5326731,-32.44969
2704461202000.0,-3.657207981854072,4.220384842879076,7.063564039786519,0.25686884,-0.3567453,-0.34605515,294.70444,-1.8961937,-32.372875
2704466095000.0,-3.3934144681386167,4.480752362275187,7.060138224331042,0.18600847,-0.3726278,-0.32284227,294.81668,-2.2951028,-32.28072
2704471154000.0,-3.1686633226163883,4.690550547949245,7.111636775587526,0.15974127,-0.39920044,-0.26939157,294.90176,-2.6952565,-32.17843
2704476428000.0,-3.001672204896792,4.825948940014297,7.2425218942006975,0.095294975,-0.4297437,-0.21166481,294.97583,-3.0650656,-32.071815
2704481383000.0,-2.872554376328325,4.935059427042873,7.366866516672774,-0.0033597588,-0.4896085,-0.1872302,295.02026,-3.4943292,-31.894308
2704486209000.0,-2.8319084567973616,4.985866614246977,7.492191140491022,-0.1001819,-0.56779927,-0.14446963,295.0395,-3.9112456,-31.702827
2704492109000.0,-2.7822170093807257,5.047980664082082,7.645406076364969,-0.19975294,-0.6786713,-0.067500606,295.03357,-4.3302565,-31.443666
2704496180000.0,-2.771613512798397,5.025007471214497,7.807670770517512,-0.3390302,-0.72051555,-0.05222898,295.03497,-4.704723,-31.18478
2704501425000.0,-2.7803660094441542,4.933106827635477,8.070244299006797,-0.3830125,-0.8164214,-0.016187929,295.0108,-5.08486,-30.879404
2704506281000.0,-2.804878354321986,4.752345115387725,8.285065133662165,-0.45937067,-0.904386,0.01740966,294.98486,-5.4269385,-30.540148
2704511202000.0,-2.896336175887442,4.180733501803186,8.387955297323522,-0.52290064,-0.9859365,0.034208454,294.9588,-5.7564,-30.179277
2704516100000.0,-2.987366537608151,3.611793513317701,8.490364568124848,-0.5708536,-1.0409144,0.05009095,294.93854,-6.0354843,-29.774899
2704521180000.0,-3.0354199373055755,3.1930863096434554,8.475205988833054,-0.61483586,-1.0827587,0.07147124,294.91736,-6.2958555,-29.357265
2704526474000.0,-3.06372807896626,2.8372144832735104,8.402414227805695,-0.65576386,-1.1053606,0.09468412,294.89557,-6.540731,-28.93613
2704531308000.0,-3.0770161553372364,2.52865349129842,8.340062742561551,-0.7012733,-1.1249083,0.12461651,294.92963,-6.598955,-28.513397
2704536200000.0,-3.046957681329697,2.2731572272836638,8.291217678161841,-0.73364913,-1.1270463,0.1685988,294.95233,-6.6525664,-28.097366
2704541098000.0,-3.0168623408372763,2.0173475990857326,8.242312705670061,-0.7703011,-1.1175779,0.21746802,295.0001,-6.597736,-27.702879
2704546179000.0,-2.874369870119774,1.66371021864837,8.176032925081303,-0.80848014,-1.0818423,0.267559,295.0302,-6.5398407,-27.323256
2704551370000.0,-2.6772048033076863,1.261493446117237,8.10111012310621,-0.8686504,-1.0671816,0.32406402,295.04132,-6.473743,-26.947706
2704556349000.0,-2.5013121123548387,0.929081571801613,8.0502373125,-0.93554014,-1.0772609,0.38362336,295.06415,-6.3226995,-26.585732
2704562029000.0,-2.3565478762258065,0.7755437190919355,8.080944812499999,-1.0140363,-1.067487,0.44593164,295.06314,-6.161942,-26.240456
2704566092000.0,-2.252995571403226,0.665715498042742,8.102910406249999,-1.0824533,-1.0509937,0.47342056,295.08377,-5.879986,-25.859133
2704571135000.0,-2.1432024138475163,0.5507970702157636,8.18856129836567,-1.1114693,-1.0345002,0.539394,295.06607,-5.603515,-25.486773
2704576462000.0,-2.0364149555913373,0.439902418191772,8.307670633845907,-1.1572843,-1.0387764,0.59498274,295.03745,-5.310127,-25.12196
2704581310000.0,-1.9724311537229784,0.3253384668353883,8.410410243154525,-1.2000448,-1.0403035,0.6569856,294.98956,-4.983121,-24.73082
2704586182000.0,-2.009787574539632,0.1684413874547638,8.496330050040033,-1.2208142,-1.0424415,0.70921457,294.92218,-4.6586018,-24.34667
2704591095000.0,-2.047458365892714,0.0102239508790232,8.58297290948759,-1.2425,-1.0259482,0.782213,294.8353,-4.3036413,-23.929907
2704596179000.0,-2.3019461103027887,-0.2348370334638247,9.169113575976096,-1.260215,-1.0228939,0.8396343,294.73224,-3.9518588,-23.518595
2704601465000.0,-2.6609459164701192,-0.5252638036533068,9.996023194541833,-1.2812898,-1.022283,0.8772025,294.60794,-3.6028414,-23.120525
2704606308000.0,-2.9747109928081934,-0.7228350645304616,10.666170096919949,-1.2855659,-1.0106765,0.91690874,294.4883,-3.2076206,-22.734463
2704611214000.0,-3.243614509172377,-0.7016058541381128,11.062448838692672,-1.287704,-0.99112886,0.956615,294.3515,-2.81616,-22.360886
2704616179000.0,-3.515751883560509,-0.6801213393403118,11.463493264477748,-1.2901474,-0.9682214,0.9789116,294.25983,-2.3197227,-22.011244
2704621177000.0,-3.777791902976765,-0.6489024375399005,11.700058218395071,-1.3035865,-0.93584555,0.9914343,294.14874,-1.8350128,-21.681444
2704626459000.0,-4.044402686051518,-0.607596538809294,11.805200445475466,-1.3542882,-0.88331115,1.0033462,294.0221,-1.3533853,-21.374924
2704632188000.0,-4.327817531461762,-0.5669599392061955,11.90920873426912,-1.3808609,-0.79259765,0.98563105,293.9074,-0.88766986,-21.119982
2704636197000.0,-4.449454677021913,-0.5939904003168177,11.848390161489045,-1.3949108,-0.66767573,0.9602802,293.78342,-0.42594984,-20.898926
2704641181000.0,-4.600674316201707,-0.6275947450849247,11.772780341899146,-1.4114041,-0.57879484,0.92149025,293.6691,0.010883053,-20.729053
2704646178000.0,-4.639218817092097,-0.7574809859710028,11.477213214008575,-1.4248432,-0.47800204,0.8689558,293.56107,0.4411022,-20.60269
2704651360000.0,-4.595304021407665,-0.963542399394187,11.007663555578246,-1.4337007,-0.3885103,0.8151997,293.4605,0.86538553,-20.501516
2704656186000.0,-4.554406143373494,-1.1554475289156627,10.570371650602407,-1.3924674,-0.30695978,0.7687739,293.37222,1.2702684,-20.44544
2704661188000.0,-4.44724239428489,-1.3001570864950531,10.195930700124867,-1.3090842,-0.26725355,0.7131852,293.29898,1.6596367,-20.40247
2704666211000.0,-4.304006225223321,-1.41567021321679,9.863252841129574,-1.2052372,-0.22540927,0.6924158,293.22592,2.0213816,-20.382435
2704671139000.0,-4.246750076830044,-1.5138334349458944,9.5641515486951,-1.1523973,-0.15149458,0.6603453,293.1536,2.4165833,-20.391176
2704676361000.0,-4.254708308434118,-1.6053541371419475,9.269693572246975,-1.0274754,-0.06872234,0.6224717,293.0869,2.7567475,-20.412045
2704681261000.0,-4.264238675985898,-1.6780949316225302,8.99078564622448,-0.9056077,-0.004276057,0.57543504,293.01422,3.0947728,-20.429678
2704686154000.0,-4.302657371074854,-1.5666805955152907,8.675752186029351,-0.79626286,0.071776666,0.5494733,292.94608,3.3957567,-20.471573
2704691096000.0,-4.341460802738378,-1.454150522136591,8.357563884315814,-0.7144069,0.1740966,0.5198463,292.8873,3.6826036,-20.537651
2704696161000.0,-4.418725185976601,-1.2333833969450765,8.285398531442963,-0.6221663,0.24007004,0.49113566,292.8355,3.9329848,-20.611176
2704701720000.0,-4.531186538186545,-0.9133011632434188,8.393534811829703,-0.5338962,0.3042109,0.4783075,292.789,4.1573553,-20.709057
2704706192000.0,-4.632499560572439,-0.6643661439041646,8.485584402315483,-0.4550946,0.33292156,0.46578476,292.73395,4.323977,-20.83458
2704711216000.0,-4.806572880141502,-0.4322683265830519,8.617106324167873,-0.41813725,0.30848694,0.47067168,292.67834,4.4737706,-20.95877
2704716100000.0,-4.975795430455057,-0.2066382032159511,8.74496322431259,-0.3830125,0.2770274,0.46089783,292.62885,4.52817,-21.094862
2704721138000.0,-5.138445270313133,0.0018078083251071,8.831926774900882,-0.31795537,0.2012801,0.45112398,292.5775,4.5625496,-21.206852
2704726385000.0,-5.301078240844729,0.2050989578072659,8.896979555546565,-0.2593123,0.09682214,0.4352415,292.53088,4.5895576,-21.297184
2704731331000.0,-5.479372519440857,0.343994571463952,8.983738353490846,-0.2098322,-0.008552114,0.45448375,292.4568,4.530927,-21.387121
2704736162000.0,-5.739468964430601,0.29830192894325,9.155964622882324,-0.17470746,-0.1282817,0.4896085,292.38226,4.4616623,-21.440205
2704741128000.0,-6.006833681014967,0.2513324272339132,9.33300367355466,-0.13897185,-0.25534168,0.51068336,292.29935,4.3241396,-21.475555
2704746272000.0,-6.23484827591725,-0.0220805459809443,9.247499532610412,-0.11056661,-0.36193767,0.5149594,292.21255,4.1807413,-21.48168
2704751304000.0,-6.420030564362794,-0.4634736848723482,8.95577412038743,-0.09682214,-0.44806966,0.49693888,292.12802,4.0356283,-21.457228
2704756167000.0,-6.598993495346633,-0.8900426106332577,8.673846322366689,-0.040011674,-0.48838675,0.48349985,292.0234,3.8712952,-21.45425
2704761197000.0,-6.784102181928725,-1.3312603150497446,8.382236858240775,0.05009095,-0.54611355,0.49266282,291.91943,3.6980667,-21.421768
2704766303000.0,-6.799293054943637,-1.6103424031150504,8.22897621082523,0.10048734,-0.58246,0.50823987,291.82156,3.5252624,-21.38413
2704771149000.0,-6.763350963918768,-1.825994865863523,8.125143540487048,0.17256944,-0.5992588,0.53023106,291.72278,3.3257017,-21.336763
2704776276000.0,-6.752035870892575,-1.9835601978146395,8.022392197604,0.22449298,-0.61178154,0.56382865,291.60907,3.2751787,-21.368471
2704781219000.0,-6.7738478344984205,-2.048996056095313,7.932028548249078,0.23335053,-0.6169739,0.60048056,291.49005,3.2156887,-21.397678
2704786176000.0,-6.795721575868878,-2.114617247577673,7.841408963006845,0.24556783,-0.5879578,0.62858033,291.35852,3.1880853,-21.426836
2704791132000.0,-6.784560662908886,-2.1405689725958164,7.81824536459357,0.23976462,-0.5696318,0.6426302,291.22223,3.1617074,-21.452003
2704796208000.0,-6.71972668149656,-2.103033438410782,7.903553234872946,0.23884831,-0.5861252,0.6933321,291.06848,3.1251402,-21.476528
2704803643000.0,-6.623569564252389,-2.059980448133748,8.029740676627416,0.23518312,-0.6337727,0.7076874,290.92264,3.1130838,-21.508032
2704806175000.0,-6.575083311241946,-2.202745279548989,8.089001346256387,0.25289822,-0.659429,0.70402217,290.76944,3.0931087,-21.54147
2704811084000.0,-6.481078960519884,-2.47953538911353,8.203894958898022,0.2556471,-0.6948592,0.72601336,290.59384,3.0618203,-21.53422
2704816600000.0,-6.360169169293141,-2.6364702443861487,8.326868414480588,0.2724459,-0.6988298,0.7180721,290.43124,3.0270944,-21.528578
2704821072000.0,-6.2580338169703325,-2.722264133158447,8.424919243441762,0.2864958,-0.72265357,0.72173727,290.25995,2.990375,-21.508385
2704826238000.0,-6.141342059003363,-2.783861527545093,8.443374379700398,0.30909783,-0.7654142,0.7370089,290.08838,2.9986746,-21.454031
2704831059000.0,-6.0331277303576885,-2.8215013388871903,8.410439477224092,0.3155119,-0.7861836,0.7476991,289.91895,3.0084815,-21.400505
2704836077000.0,-5.887941149222695,-2.837886141112981,8.370499170610952,0.33383787,-0.79198676,0.75747293,289.7418,3.0278225,-21.30514
2704841089000.0,-5.726344720665412,-2.842638930537677,8.327723222101199,0.34880406,-0.78984874,0.76052725,289.56476,3.0467875,-21.208515
2704846061000.0,-5.571377952125524,-2.8947589193395364,8.248207597518702,0.35643986,-0.8002335,0.7858781,289.37494,3.0680528,-21.086454
2704851222000.0,-5.413568395055647,-2.975917927759533,8.144504312853494,0.39706242,-0.8170323,0.79045963,289.19208,3.0794382,-20.965582
2704856049000.0,-5.238037500644106,-3.0516918106533075,8.125211790461098,0.4382958,-0.8127562,0.788627,288.9981,3.0899198,-20.82157
2704861115000.0,-5.019787010878233,-3.1310556910336365,8.199615072231879,0.46883908,-0.80848014,0.7874053,288.80396,3.093496,-20.676155
2704866074000.0,-4.813876999478406,-3.108032455455873,8.25585812935531,0.50610185,-0.8231409,0.8344419,288.59134,3.1012332,-20.503637
2704871074000.0,-4.614068685270186,-2.9831524220738577,8.29582005299395,0.5045747,-0.8063421,0.84604836,288.39206,3.1167696,-20.34436
2704876274000.0,-4.420985478740314,-2.851076167216372,8.239124721637195,0.5174029,-0.77732605,0.8579602,288.1661,3.131508,-20.136984
2704881038000.0,-4.253284017782635,-2.7286992489171467,8.125812891714682,0.5140431,-0.7296785,0.8555168,287.94308,3.1534662,-19.944176
2704886021000.0,-4.122195917065339,-2.595188562008348,8.132935166720179,0.5186246,-0.62125,0.8210029,287.71985,3.1496208,-19.738346
2704891054000.0,-4.0254706904479045,-2.4559043471825333,8.241267481939316,0.54000485,-0.5870415,0.82772243,287.48627,3.1410773,-19.530258
2704896053000.0,-3.926895417515924,-2.3102307425796176,8.351629495647558,0.5354234,-0.59650993,0.82344633,287.26495,3.1203048,-19.314571
2704901162000.0,-3.791850229299363,-2.0609165864968157,8.50225659150743,0.5751296,-0.62125,0.8213083,287.04358,3.0840244,-19.10849
2704906026000.0,-3.673288259404357,-1.842496822286628,8.625155802118728,0.61361414,-0.6386596,0.8026769,286.8268,3.0167487,-18.865364
2704911042000.0,-3.5964746811513093,-1.7032722931641016,8.658761899260444,0.67347896,-0.6401868,0.77488256,286.61624,2.937807,-18.624739
2704916030000.0,-3.5210681079710864,-1.5718670022675512,8.693828077433409,0.73823065,-0.6398814,0.7623598,286.41635,2.8035219,-18.342346
2704921182000.0,-3.4477841091593224,-1.4692693529161305,8.737798374690563,0.8054258,-0.64476824,0.7535023,286.22742,2.6593976,-18.064116
2704926131000.0,-3.4043946450799805,-1.3660760285991274,8.807449852157053,0.8885035,-0.6453791,0.74189585,286.05,2.4700396,-17.76653
2704931030000.0,-3.4817174404653417,-1.243269140940378,8.998482830731943,0.9773844,-0.57360244,0.6908886,285.8924,2.2707443,-17.494677
2704936020000.0,-3.566950147322491,-1.1309635179690598,9.175031121380403,1.0662653,-0.56046885,0.68844515,285.72656,2.0291018,-17.184782
2704941017000.0,-3.714065910551368,-1.1404548447441492,9.17977638833796,1.1187997,-0.6414085,0.6908886,285.57938,1.783705,-16.875132
2704946014000.0,-3.8615754022177775,-1.141194636175241,9.180480205235412,1.2137892,-0.6750061,0.67011917,285.43994,1.4779084,-16.587584
2704951118000.0,-4.017074640029086,-1.0345667086711507,9.13160947482276,1.3026701,-0.70371675,0.6579019,285.30237,1.1661558,-16.2862
2704956014000.0,-4.166236918305763,-0.9322841199054718,9.08473034157426,1.3808609,-0.70707655,0.64873886,285.16263,0.83517057,-16.018835
2704961024000.0,-4.369080192650115,-0.7767614583298699,9.069612041014985,1.4144585,-0.7165449,0.63194007,285.03455,0.5017341,-15.748261
2704966146000.0,-4.576292013610473,-0.6122227850871376,9.060263108985804,1.4785993,-0.7171558,0.6096435,284.91687,0.14777388,-15.485971
2704971007000.0,-4.683146405687324,-0.4776655238434072,9.068178402193318,1.5488489,-0.7104363,0.6044512,284.80664,-0.2406112,-15.266387
2704976123000.0,-4.795606201997789,-0.3360496117835586,9.076508918558192,1.6029104,-0.72082096,0.6010914,284.71173,-0.6717039,-15.085949
2704981030000.0,-4.943184766026385,-0.2121725188875989,9.085871815408971,1.6707164,-0.7370089,0.59406644,284.62585,-1.1161188,-14.909702
2704986005000.0,-5.109123620116095,-0.0914895884654353,9.095928403799473,1.7336355,-0.73945236,0.5876524,284.5471,-1.5646601,-14.738412
2704991010000.0,-5.196356501890756,-0.0364025975161064,9.074989647759104,1.8008307,-0.75777835,0.5919284,284.46735,-2.0673866,-14.585827
2704995992000.0,-5.263179744927971,0.0017819987998199,9.04635112214886,1.8603901,-0.75777835,0.57604593,284.40213,-2.5732067,-14.4412565
2705001128000.0,-5.311095846234794,0.03242689507849,9.120480327959063,1.9336939,-0.75900006,0.5626069,284.34705,-3.122394,-14.325821
2705006031000.0,-5.351894836763854,0.0596262108951535,9.215677956748408,1.9862283,-0.7623598,0.5491679,284.30365,-3.6702402,-14.212494
2705011015000.0,-5.369985909891207,0.1611864858039724,9.492681887413914,2.0259347,-0.7507534,0.52687126,284.26868,-4.2357187,-14.116944
2705016017000.0,-5.379548272083042,0.2902798182303623,9.836931219882224,2.0295997,-0.72143185,0.4822781,284.25067,-4.792027,-14.028586
2705021012000.0,-5.436719794750947,0.6112199630902875,10.704538174752797,2.0030272,-0.66553766,0.41416663,284.247,-5.3434834,-13.9530735
2705026185000.0,-5.514549327030774,1.0186807711283614,11.807886823676183,1.9590448,-0.66523224,0.35338554,284.26108,-5.8774333,-13.87325
2705031022000.0,-5.56989167224733,1.3440855872329498,12.300076455834018,1.8820758,-0.65576386,0.2660318,284.29877,-6.3985014,-13.795009
2705036017000.0,-5.614111479663106,1.6388851413105998,12.40816977444536,1.772731,-0.65668017,0.16737708,284.36304,-6.8824577,-13.718566
2705041011000.0,-5.450505293459132,1.9955077977313689,12.356405584331602,1.6969837,-0.68752885,0.06566802,284.4617,-7.3956556,-13.588621
2705046013000.0,-5.155966556132725,2.39161173940422,12.20405748616559,1.6404786,-0.70005155,-0.024740042,284.58942,-7.8658586,-13.470517
2705051380000.0,-4.738703014605418,2.5551348769140168,11.881128499411073,1.6184875,-0.7831292,-0.059253927,284.7516,-8.369527,-13.332238
2705056147000.0,-4.337479262063967,2.6213161438343757,11.546086618465164,1.6062702,-0.82344633,-0.05375614,284.93057,-8.84512,-13.208111
2705061178000.0,-3.9020213065204143,2.623192021937843,10.98610259790778,1.6111571,-0.8756753,-0.011911872,285.1094,-9.388048,-13.010857
2705066124000.0,-3.4642409304082875,2.5702734387568555,10.26929679148893,1.6420058,-0.88331115,0.062002823,285.28156,-9.92469,-12.819296
2705071096000.0,-3.1176899380515715,2.521877377067168,9.680923676267732,1.6685784,-0.86498517,0.109650314,285.44382,-10.472429,-12.546836
2705076490000.0,-2.818086488157379,2.4732931172505683,9.150544749157458,1.733941,-0.8533788,0.17745635,285.58557,-11.033849,-12.274981
2705081476000.0,-2.53795360758812,2.430003841644909,8.670245256870103,1.7919732,-0.8350528,0.23854288,285.69696,-11.606621,-11.958169
2705086214000.0,-2.241772823204961,2.404088033159269,8.307423667460835,1.8438967,-0.7828238,0.26847526,285.80194,-12.187132,-11.662001
2705091152000.0,-1.9330896840567888,2.3770782690600525,7.929286688038511,1.9257526,-0.7489208,0.25411993,285.88745,-12.797445,-11.321512
2705096184000.0,-1.8004397,2.3560809077078595,7.7573999077078595,2.0073032,-0.7855727,0.29535335,285.95776,-13.416313,-10.980449
2705101455000.0,-1.8004397,2.339071531463229,7.740390531463229,2.0641136,-0.7635816,0.32650748,286.03644,-14.038448,-10.676141
2705107291000.0,-1.8235749650356476,2.5045343706416507,7.805600496435272,2.0766363,-0.6786713,0.3304781,286.09827,-14.674748,-10.309841
2705111209000.0,-1.8658135337260788,2.828363407069418,7.94639562739212,2.0885482,-0.61575216,0.30451632,286.16827,-15.315078,-9.955182
2705116184000.0,-1.91944724460788,3.239555202941838,8.125174539212008,2.0928242,-0.5723807,0.32528573,286.20642,-15.949035,-9.625575
2705121180000.0,-1.962119813337038,3.596157474631842,8.21813984565157,2.1352794,-0.5751296,0.35705075,286.2553,-16.58449,-9.311012
2705126449000.0,-1.9971713270908584,3.922136845345929,8.239170827104752,2.068695,-0.58062744,0.3115413,286.3239,-17.175852,-9.02134
2705131282000.0,-2.029322392942484,4.22114202634065,8.258461533759379,2.0030272,-0.5693264,0.2883284,286.4187,-17.871124,-8.733075
2705136201000.0,-1.886279653997737,4.499822508061475,8.28887517716387,1.9523253,-0.537256,0.28252518,286.5278,-18.53653,-8.461854
2705141337000.0,-1.649761624052423,4.7780789882425045,8.325976312370356,1.9419407,-0.5384777,0.29626966,286.64706,-19.181347,-8.1950035
2705146179000.0,-1.514289037248345,5.003440030150823,8.373245091653585,1.9071213,-0.54641896,0.32742378,286.78256,-19.890017,-7.936722
2705151460000.0,-1.4418071410564388,5.2174341294956665,8.435372616597284,1.9037615,-0.52931476,0.3381139,286.9254,-20.589191,-7.6959066
2705156265000.0,-1.37585836029482,5.412139989626698,8.491900311608545,1.840537,-0.52931476,0.34422258,287.09317,-21.294926,-7.369579
2705161211000.0,-1.3822205252109083,5.783224269864626,8.383319639591917,1.8023579,-0.52106804,0.35002577,287.2647,-21.990223,-7.065155
2705166182000.0,-1.4335908411614675,6.259567638463802,8.173167859427114,1.7461584,-0.5696318,0.31581733,287.4595,-22.645159,-6.7647405
2705171144000.0,-1.457673451865534,6.488330701514592,8.112807777983006,1.72264,-0.57971114,0.36926803,287.6514,-23.334883,-6.4416366
2705177456000.0,-1.4621395591134096,6.541923941854451,8.179799386701145,1.702176,-0.49449542,0.41783184,287.85498,-23.991272,-6.1528516
2705182042000.0,-1.4611429730033352,6.582584351799192,8.223948734948218,1.6096299,-0.48747048,0.41691554,288.1019,-24.727776,-5.875626
2705186198000.0,-1.3703205123749342,6.655941107530279,8.16805793944181,1.5693128,-0.4810564,0.44012842,288.3265,-25.455975,-5.6267505
2705191160000.0,-1.2618842636650869,6.743524414060032,8.10132787993681,1.5485435,-0.50488013,0.45753807,288.53986,-26.155657,-5.387722
2705196151000.0,-1.1537168226360075,6.741003659076897,8.179793880363242,1.5430456,-0.52442783,0.45753807,288.75586,-26.830088,-5.1635756
2705201475000.0,-1.0390249196784138,6.668790117129051,8.37519528134633,1.5167783,-0.5207626,0.48655418,288.9646,-27.47652,-4.945599
2705206471000.0,-0.974371703968254,6.593464086031746,8.505436425396827,1.5158621,-0.57879484,0.45723262,289.2058,-28.13145,-4.7111697
2705211243000.0,-1.0396581555555555,6.499161488444444,8.472792915555557,1.4834863,-0.64751714,0.45814893,289.43665,-28.75459,-4.4792295
2705216095000.0,-1.1060390992063491,6.403277958793651,8.439602154920635,1.4517213,-0.54244834,0.5564982,289.57553,-29.33595,-4.2345114
2705221150000.0,-1.099483534868527,6.340545191296983,8.386817095418616,1.4217888,-0.49632803,0.57696223,289.75525,-29.891287,-3.9817858
2705226503000.0,-1.0498645753508629,6.295061227827069,8.320658453944185,1.393689,-0.4783075,0.5839872,289.9068,-30.425184,-3.7483659
2705231432000.0,-1.0394863313091922,6.226263713760446,8.281574334261839,1.3643675,-0.47342056,0.6200282,290.0267,-30.928658,-3.5393858
2705236202000.0,-1.1376476545085554,6.077203890123358,8.310659376044569,1.3570372,-0.43860126,0.659429,290.1407,-31.417385,-3.3500617
2705241094000.0,-1.2383196027457224,5.92433163493832,8.340488311977715,1.3652838,-0.43035457,0.67347896,290.22858,-31.896639,-3.1521587
2705246929000.0,-1.3086491264163107,5.829297102457893,8.331920787654122,1.3362677,-0.4279111,0.6835582,290.30777,-32.35128,-2.964776
2705251517000.0,-1.3475984327584818,5.78326603010718,8.310675267789508,1.3112222,-0.40103304,0.711658,290.37823,-32.79769,-2.7886353
2705256445000.0,-1.3955947575510204,5.756188520408163,8.28157235510204,1.3041973,-0.39400807,0.72326446,290.43164,-33.202545,-2.635849
2705261204000.0,-1.4599879124489796,5.795539921899529,8.235066391051806,1.2904528,-0.40042216,0.7296785,290.4812,-33.588425,-2.4889028
2705266140000.0,-1.5267760218367346,5.836354907770801,8.18683074521193,1.2754866,-0.42241332,0.72418076,290.49634,-33.972332,-2.3511517
2705271118000.0,-1.5247232817187877,5.892722621070826,8.186019113996302,1.2809844,-0.44226643,0.70371675,290.5183,-34.348324,-2.2187626
2705276486000.0,-1.4792621605354128,5.962980674290538,8.214948659458155,1.2666291,-0.4447099,0.65576386,290.55243,-34.70461,-2.0956652
2705281411000.0,-1.4670009915783977,6.01495529600179,8.202175633074743,1.251052,-0.48716503,0.6417139,290.58478,-35.08144,-1.9780859
2705286201000.0,-1.566233705810831,6.018377112501865,8.041350471952857,1.2260065,-0.5198463,0.729984,290.6067,-35.442875,-1.8570744
2705291092000.0,-1.6675588008652842,6.021871080038789,7.877134216619424,1.1878275,-0.5476407,0.7657196,290.63245,-35.80143,-1.7400768
2705296174000.0,-1.7783588358604092,6.0062826240673886,7.73725320866426,1.1655309,-0.54550266,0.7797695,290.64685,-36.14886,-1.6160442
2705301490000.0,-1.9008866499914048,5.966898667491835,7.627853273439918,1.1426234,-0.5708536,0.786489,290.66748,-36.476624,-1.4793304
2705306337000.0,-1.9972691370387523,5.929018354948278,7.533951924532963,1.1099422,-0.59742624,0.7800749,290.68253,-36.83166,-1.3734778
2705311199000.0,-2.026024672996758,5.882290759147754,7.4656575266327,1.0910053,-0.61483586,0.7901542,290.69855,-37.175503,-1.2637883
2705316536000.0,-2.057589521908291,5.83099804446503,7.390691010467809,1.0705414,-0.6270532,0.80481493,290.71118,-37.524063,-1.1709604
2705321185000.0,-2.077459479312635,5.808687290884941,7.306914408608667,1.0815369,-0.6588182,0.82527894,290.72974,-37.868137,-1.0702332
2705326526000.0,-2.094444355902374,5.800194719574963,7.196513331512535,1.0980303,-0.67347896,0.8396343,290.74854,-38.200096,-0.97246075
2705331215000.0,-2.1068976,5.791568963218018,7.119166273960949,1.1090258,-0.6728681,0.8335256,290.75653,-38.536312,-0.88491184
2705336172000.0,-2.1068976,5.776184713116746,7.142242769594102,1.1307116,-0.65484756,0.81183994,290.76752,-38.87243,-0.8017299
2705341096000.0,-2.1068976,5.760902879850928,7.165165639172001,1.1420126,-0.66920286,0.78038037,290.78397,-39.221504,-0.72655517
2705346175000.0,-2.02836497808418,5.792309463957427,7.138997596032898,1.1459832,-0.713796,0.7806858,290.8037,-39.56674,-0.64979714
2705351539000.0,-1.9041027409288824,5.850298360909531,7.0851504665699085,1.1523973,-0.76052725,0.795652,290.8332,-39.90794,-0.57524824
2705356456000.0,-1.830178673196611,5.908019819122655,7.017735816295827,1.1545353,-0.77457714,0.79198676,290.8465,-40.24469,-0.5003758
2705361168000.0,-1.8694838572016783,5.975910564359807,6.903393571367488,1.1557571,-0.8060367,0.78954333,290.87097,-40.575283,-0.41189128
2705366096000.0,-1.9105908068572333,6.046913449022092,6.783809831340566,1.1417072,-0.86284715,0.75808376,290.89954,-40.912224,-0.31133857
2705371135000.0,-1.8868292303013348,6.150453888665973,6.686178777236033,1.1545353,-0.8863655,0.72784597,290.9313,-41.24918,-0.21548617
2705376527000.0,-1.8249179423787067,6.278403967029014,6.595375445767725,1.1484267,-0.9126327,0.729984,290.9768,-41.56894,-0.11071912
2705381421000.0,-1.752809084970821,6.402916433232073,6.506255245183468,1.1441506,-0.93462384,0.7189884,291.02936,-41.935112,-0.030295303
2705386180000.0,-1.6289314665760652,6.552298281725157,6.396951564953233,1.1377366,-0.96944314,0.72326446,291.0885,-42.29062,0.05805661
2705391096000.0,-1.5009671101926614,6.706608255919738,6.284041942761212,1.1496484,-0.99082345,0.7162395,291.15732,-42.683857,0.14893416
2705396177000.0,-1.3910255614402327,6.743123949761578,6.194944670209327,1.1435398,-1.0051788,0.7257079,291.23013,-43.061153,0.24540944
2705401543000.0,-1.287192355540289,6.714050620884183,6.11603133657965,1.1218541,-1.0155635,0.7501425,291.3075,-43.428585,0.34283656
2705406469000.0,-1.2337599281133085,6.671154513094601,6.084230648583645,1.1264355,-1.0125091,0.77549344,291.37695,-43.84651,0.44547793
2705411212000.0,-1.2996553610826906,6.584449887386424,6.167467093609224,1.1166617,-0.9822713,0.7831292,291.44543,-44.244083,0.5411998
2705416185000.0,-1.3687462293425974,6.493540736290753,6.254739883217531,1.1236867,-1.0125091,0.75777835,291.51306,-44.650547,0.66907144
2705421186000.0,-1.335880707951787,6.475545380087051,6.28503616288608,1.128879,-1.0384709,0.7690793,291.56912,-45.04364,0.79319817
2705426508000.0,-1.2206945330626937,6.513940801414581,6.272237793052649,1.1297953,-1.07665,0.8164214,291.63544,-45.427757,0.9228104
2705432367000.0,-1.1687281859951604,6.507277963566243,6.234143550060496,1.1453724,-1.078788,0.88331115,291.67676,-45.784496,1.059163
2705436199000.0,-1.221455683030853,6.4462251103902,6.181415937114338,1.14018,-1.0778717,0.89736104,291.7297,-46.126743,1.1955937
2705441184000.0,-1.2900482124470658,6.366802231193285,6.112823256911676,1.133155,-1.0894781,0.85154617,291.76767,-46.47677,1.3517805
2705446180000.0,-1.248287895375423,6.376759462333356,6.07411970180286,1.1227703,-1.0836749,0.8332202,291.79773,-46.814777,1.5061549
2705451509000.0,-1.1037533011673688,6.468415427954687,6.060018851972093,1.1218541,-1.0760391,0.84665924,291.8362,-47.1447,1.6533352
2705456167000.0,-0.977417752317469,6.548530550466256,6.047693507909097,1.138042,-1.1172725,0.8555168,291.88458,-47.48244,1.807011
2705461196000.0,-0.8533561590085703,6.64881270958317,6.003656097312037,1.1355985,-1.1856894,0.9056077,291.92984,-47.8055,1.9699122
2705466202000.0,-0.736630674892871,6.7562003802103625,5.942958883599533,1.1148291,-1.2217305,0.92271197,291.98477,-48.11998,2.1231892
2705471141000.0,-0.5618573505684062,6.93659339125529,5.848997576022567,1.1053606,-1.2232577,0.9239337,292.02487,-48.452465,2.3171206
2705476516000.0,-0.3267627879802539,7.188974207629794,5.721078424299819,1.1239921,-1.183246,0.88208944,292.07217,-48.778587,2.4962556
2705481277000.0,-0.1185236786812411,7.412524917724494,5.6077718045134,1.1285735,-1.1652255,0.90010995,292.1169,-49.117207,2.7204
2705486202000.0,-0.0470410721507671,7.495728381412274,5.502987793686074,1.1410962,-1.2061534,0.95814216,292.16986,-49.4538,2.9393182
2705491153000.0,-0.061030482484461,7.491065345751377,5.405062097128246,1.1340714,-1.255328,1.0057896,292.22284,-49.77653,3.149969
2705496140000.0,-0.1045015755705202,7.50404848260067,5.278718122478978,1.1297953,-1.278541,1.0241156,292.2937,-50.165108,3.4125872
2705502178000.0,-0.1835673506822998,7.535674607711766,5.100820033533876,1.1346822,-1.2922854,1.0302242,292.3706,-50.541973,3.6792498
2705507056000.0,-0.2474432783065563,7.561224829356669,4.9570991196759415,1.1435398,-1.276403,0.9947941,292.4509,-50.935905,3.9370184
2705511205000.0,-0.0034904953719722,7.690182001989619,4.980642660851595,1.1554517,-1.2751812,1.0256428,292.5282,-51.318436,4.204992
2705516177000.0,0.3809514692993079,7.877826400259516,5.053869506487889,1.1655309,-1.3475688,1.1142182,292.61823,-51.690765,4.4780464
2705521128000.0,0.6099105631793915,7.983481910931277,4.975513933310736,1.1621711,-1.3884968,1.1606439,292.72504,-52.109066,4.7276855
2705526407000.0,0.7298636863248877,8.030606279315313,4.769880085882552,1.1563679,-1.3982705,1.1646146,292.8369,-52.51591,4.983875
2705531250000.0,0.8795760835285634,8.080276344203188,4.622101634220014,1.14018,-1.398576,1.1386528,292.93515,-52.908665,5.323706
2705536344000.0,1.1727271676852815,8.154541158400768,4.60646691930935,1.1426234,-1.3826935,1.1239921,293.03305,-53.291443,5.652188
2705541089000.0,1.4457938921304383,8.223717943514142,4.591903369593783,1.1304061,-1.3875804,1.1365148,293.15823,-53.698742,6.019518
2705546128000.0,1.5857479946483544,8.258994734706764,4.525812548259531,1.1239921,-1.4358387,1.1756102,293.2912,-54.09442,6.3810244
2705551584000.0,1.6682344977030548,8.279616338937565,4.430953211863604,1.1139128,-1.455081,1.1670581,293.42737,-54.474804,6.71737
2705556212000.0,1.7424032752392908,8.304232186332968,4.367738533320257,1.1108584,-1.4456125,1.1548407,293.57352,-54.828045,7.1467414
2705561200000.0,1.8398453775458967,8.36044913000157,4.371486264341754,1.1200215,-1.4294246,1.1175779,293.73004,-55.171425,7.55692
2705566097000.0,1.935509767079868,8.41564046383179,4.375165622563942,1.1209377,-1.4214834,1.0574077,293.89865,-55.523746,7.9759407
2705571913000.0,2.2596763800293687,8.559232527165934,4.404065475477239,1.1273518,-1.4089607,0.9950995,294.0703,-55.87043,8.369161
2705576570000.0,2.601683527084353,8.70476738635993,4.436810856787404,1.1252137,-1.4074335,0.93584555,294.253,-56.207264,8.736769
2705581199000.0,2.911512487144197,8.81534276720363,4.47048608428214,1.1236867,-1.4581354,0.89827734,294.45535,-56.53729,9.124335
2705586202000.0,3.117580846011886,8.789115944205506,4.51169968563497,1.1059716,-1.4459181,0.84574294,294.65417,-56.856762,9.471986
2705591158000.0,3.321713323834845,8.763135505512981,4.552526111440413,1.1175779,-1.416902,0.79717916,294.86356,-57.156967,9.903669
2705596119000.0,3.468232445541529,8.694179212712069,4.643685484111924,1.1346822,-1.3875804,0.73945236,295.07953,-57.44751,10.305908
2705601546000.0,3.5894213656830427,8.589706299107503,4.777411267339391,1.1334605,-1.3585643,0.67073005,295.2973,-57.730682,10.677373
2705606206000.0,3.6836188458240287,8.506125692719966,4.909813718817925,1.106277,-1.3390167,0.59406644,295.50702,-57.970074,11.081049
2705611203000.0,3.726365848593122,8.452691939258598,5.155609021936876,1.0897835,-1.3249667,0.50610185,295.72247,-58.210392,11.449962
2705616140000.0,3.768599579365788,8.399899775792765,5.398453010629746,1.0509937,-1.3219124,0.40408736,295.9215,-58.385643,11.822855
2705621115000.0,3.850288921944492,8.382789719617307,5.557096646267885,1.0143417,-1.2983941,0.2910773,296.1256,-58.561283,12.155221
2705626549000.0,3.993823708912257,8.414187673245992,5.610922378727806,0.95905846,-1.2690725,0.18906279,296.33963,-58.726383,12.453528
2705631198000.0,4.094397275403756,8.439653519434357,5.651310628544935,0.92485,-1.205848,0.08277224,296.512,-58.830765,12.72438
2705636207000.0,4.061035810370141,8.458187709682406,5.6587244594699015,0.8793405,-1.1545353,-0.01740966,296.69232,-58.92735,12.959702
2705641612000.0,4.025036864770883,8.478187170311413,5.66672441078742,0.83108217,-1.03786,-0.15577064,296.85214,-59.01114,13.170438
2705646141000.0,3.9124943316325695,8.395299494416824,5.604765389713913,0.7556403,-1.0280862,-0.22388211,297.02936,-59.07936,13.373401
2705651542000.0,3.710133225853778,8.214017564104655,5.474073691824925,0.70432764,-1.0207558,-0.36987892,297.206,-59.168755,13.500051
2705656191000.0,3.543837938845781,8.034505735612674,5.333846350323311,0.6123924,-1.0512991,-0.5235115,297.39444,-59.249905,13.603026
2705661176000.0,3.443510583123181,7.610043784028451,4.909384559909473,0.5366451,-1.0613784,-0.6462954,297.5899,-59.33727,13.668657
2705666181000.0,3.34278071042677,7.183878875767863,4.48321981346589,0.46731192,-1.0552697,-0.74067414,297.80215,-59.44953,13.672268
2705671146000.0,3.342182901993274,6.933883607415306,4.247543677532606,0.39522982,-1.0351112,-0.82436264,298.026,-59.55604,13.645378
2705676578000.0,3.410457853022722,6.780265301780002,4.119528133213026,0.28619036,-0.99265605,-0.8903361,298.25,-59.645172,13.594595
2705681199000.0,3.480991921915866,6.669602538443359,4.021650725256026,0.16310102,-0.9642508,-0.9605856,298.51022,-59.75723,13.538721
2705686175000.0,3.61238442886403,6.639569826547976,3.965339684449346,0.048563786,-0.9428705,-1.0250319,298.76608,-59.850697,13.463018
2705691153000.0,3.743829746305341,6.609525043626911,3.90900601058768,-0.05375614,-0.9334021,-1.0732902,299.03354,-59.914375,13.408341
2705696118000.0,3.8532759769230767,6.66457252382847,3.8749530518125552,-0.10720685,-0.93279123,-1.1203269,299.3032,-59.96973,13.336583
2705701571000.0,3.959475249230769,6.780006555296198,3.851866274447392,-0.14355333,-0.9120218,-1.1704178,299.56894,-60.010445,13.249012
2705706190000.0,4.005366375427588,6.856129061431029,3.8567597552879263,-0.16707164,-0.8958339,-1.2049317,299.8458,-60.032814,13.196519
2705711349000.0,3.98536568270418,6.906130793239551,3.9017613139155953,-0.20250183,-0.883922,-1.251052,300.124,-60.051792,13.127131
2705716131000.0,3.9429624024972743,6.957629245149144,3.9708377141214943,-0.2660318,-0.8848383,-1.2986995,300.4115,-60.06906,13.068319
2705721142000.0,3.8621162166286793,7.019452799048657,4.084973505935983,-0.33475417,-0.9083566,-1.353372,300.70636,-60.083763,12.998389
2705726523000.0,3.746227312657792,7.142753919679934,4.255831888004415,-0.38637227,-0.9575313,-1.3747523,301.00458,-60.09098,12.92369
2705731226000.0,3.609526736069532,7.319843459295026,4.463989613664896,-0.4541783,-1.0913107,-1.395827,301.3356,-60.084663,12.8510065
2705736216000.0,3.464484023508312,7.507739866413741,4.684850139083949,-0.5204572,-1.1481212,-1.4205672,301.6502,-60.069023,12.752171
2705741178000.0,3.4639195428158547,7.720525749174236,4.683817810301404,-0.54733527,-1.237613,-1.4459181,302.0076,-60.050903,12.67127
2705746134000.0,3.615792193104872,7.960582254954582,4.448660163191577,-0.5867361,-1.3045027,-1.4584408,302.37173,-60.016277,12.593539
2705751448000.0,3.782710592881016,8.21909912583556,4.235480534625668,-0.63224554,-1.3060299,-1.4624114,302.69745,-59.995647,12.457539
2705756223000.0,3.935548934918115,8.452177815884024,4.071179200233957,-0.66767573,-1.2116512,-1.4630222,303.01175,-59.970497,12.318297
2705761165000.0,4.0832607832221,8.672936619075779,3.91218019885106,-0.6921103,-1.0836749,-1.4446963,303.35986,-59.970047,12.200888
2705766114000.0,4.171349513026949,8.777041010264425,3.816083638354312,-0.7180721,-0.977079,-1.4110987,303.6824,-59.959732,12.079605
2705771131000.0,4.260648595150799,8.88257581135423,3.718666696747487,-0.752586,-0.9034697,-1.3643675,304.01804,-59.970673,11.976996
2705776520000.0,4.291006614347537,8.777562565745672,3.5745622926847536,-0.7867944,-0.8304713,-1.31672,304.3177,-59.971584,11.870804
2705781159000.0,4.302098364513982,8.637065261984022,3.441459398951398,-0.81000733,-0.7724391,-1.2938126,304.59564,-59.964767,11.764176
2705786131000.0,4.25563516213474,8.432858637073863,3.342894476968344,-0.820392,-0.7489208,-1.2883148,304.88074,-59.96231,11.672338
2705791192000.0,4.108106087844968,8.132882599360796,3.3183061609882305,-0.8173377,-0.7583892,-1.3017539,305.1558,-59.957897,11.579689
2705796085000.0,3.962398006995026,7.905948149093534,3.275564338167817,-0.81581056,-0.77213365,-1.3274102,305.43884,-59.950413,11.492003
2705801537000.0,3.794861537044762,7.759353858158191,3.195984556489652,-0.81031275,-0.7635816,-1.3542882,305.71783,-59.947563,11.400417
2705806864000.0,3.6389733464550806,7.623351649091375,3.110736555438956,-0.81153446,-0.75411314,-1.3826935,305.99493,-59.92946,11.289139
2705811197000.0,3.635433010784063,7.626891910826721,2.923098653971504,-0.79901177,-0.752586,-1.4193454,306.274,-59.921307,11.171198
2705816218000.0,3.631330535500384,7.630994300435116,2.7056673354235987,-0.78954333,-0.68875057,-1.426065,306.5375,-59.918022,11.015149
2705821139000.0,3.571315865078177,7.625988873087159,2.5987737385395877,-0.7761043,-0.5934556,-1.4398094,306.79565,-59.923916,10.846734
2705827459000.0,3.440439250973054,7.610887941616767,2.5635376360778444,-0.7476991,-0.54428095,-1.4547756,307.04752,-59.93701,10.677222
2705831209000.0,3.358536233522325,7.59684251717458,2.5623647039924404,-0.7180721,-0.52870387,-1.4831808,307.31613,-59.98525,10.4954815
2705836211000.0,3.230281313985353,7.555348093141192,2.649125317662808,-0.6960809,-0.50762904,-1.4966198,307.56784,-60.037914,10.309849
2705841155000.0,3.10351355665013,7.514334811969446,2.734879910622884,-0.6612616,-0.514654,-1.5448782,307.83917,-60.11017,10.086775
2705846125000.0,2.9369044731498977,7.529835010174616,2.738729899886613,-0.6203337,-0.5360342,-1.6035212,308.10904,-60.190308,9.860768
2705851569000.0,2.7280288638672614,7.585009738241742,2.6874963414014665,-0.5739079,-0.52534413,-1.6789632,308.37823,-60.28536,9.618988
2705856571000.0,2.552344633603909,7.647223389795411,2.63805056271018,-0.50762904,-0.4569272,-1.7595973,308.637,-60.382248,9.3242
2705861256000.0,2.6303877384659984,7.877636292139485,2.556291162022696,-0.42455134,-0.37873647,-1.8536706,308.89938,-60.50076,9.009256
2705866184000.0,2.712478756771308,8.120000173196388,2.4702910923134267,-0.3182608,-0.28405234,-1.9410243,309.15262,-60.67182,8.611921
2705871126000.0,2.8197510514541597,8.361525835426091,2.432509,-0.21135938,-0.19639318,-2.0137172,309.39468,-60.865307,8.191703
2705876519000.0,2.9580378087434216,8.623793883482596,2.432509,-0.07941248,-0.1020145,-2.0748038,309.6172,-61.09268,7.7459335
2705881146000.0,3.007466825785364,8.77542449355366,2.5436239320682765,0.051923547,-0.031154128,-2.1569653,309.85837,-61.37853,7.2873745
2705886209000.0,2.959041074132922,8.83265491896677,2.829775967196296,0.18448131,-0.011911872,-2.2568417,310.09378,-61.69611,6.8105497
2705891104000.0,2.902792650020808,8.884046615688723,3.1239080772575947,0.27672195,-0.03481932,-2.3515258,310.34232,-62.041523,6.3358917
2705896092000.0,2.8033979800249686,8.918834438826467,3.5016080827091134,0.32620203,-0.10354166,-2.4248295,310.6013,-62.403973,5.852306
2705901161000.0,2.6729834907136647,8.939609139413578,3.813605774227456,0.34422258,-0.1591304,-2.4804184,310.8555,-62.72177,5.3366385
2705906151000.0,2.465257674227456,8.9207249886193,3.926910718430412,0.344528,-0.1777618,-2.5341744,311.12128,-63.037804,4.8154826
2705911196000.0,2.255242294633684,8.9016326958824,4.04146451472378,0.34513888,-0.14660765,-2.6032023,311.38458,-63.281315,4.257026
2705916161000.0,1.8562159799674267,8.9437682379886,4.192843651058632,0.35888332,-0.12461651,-2.6887233,311.65988,-63.51622,3.6940522
2705921132000.0,1.3910076976384365,9.006765441673453,4.357604976750815,0.37048978,-0.10720685,-2.7791314,311.93378,-63.737408,3.1189044
2705926421000.0,0.9262390330500666,9.285084572335416,4.558051176338691,0.31490102,-0.13744467,-2.83808,312.2166,-63.896416,2.4821358
2705931117000.0,0.5210382759701034,9.584380889321183,4.742233421695505,0.21655174,-0.16310102,-2.85213,312.4967,-64.028465,1.8433814
2705936157000.0,0.1923048225813333,9.860607349066669,4.946643027786666,0.14385876,-0.2434298,-2.8634307,312.79626,-64.1045,1.1051078
2705941123000.0,-0.1078416652835555,10.122706649155557,5.149558996568889,-0.0067195175,-0.38423425,-2.8979447,313.1216,-64.108,0.3841412
2705946117000.0,-0.3768245034870395,10.235152302046384,5.125645648758527,-0.17470746,-0.5381723,-2.925739,313.46594,-64.0426,-0.41373035
2705951554000.0,-0.6420241154142792,10.230416499499771,4.90780308319236,-0.33964106,-0.6740898,-2.9400945,313.84363,-63.91241,-1.1818687
2705956142000.0,-0.731724871356084,10.140036016217293,4.731105558820018,-0.44012842,-0.79779,-2.9174924,314.25443,-63.699986,-1.9917308
2705961180000.0,-0.6117170146652074,9.900020503333002,4.548693568530495,-0.49449542,-0.9138544,-2.8646526,314.6947,-63.436947,-2.7582266
2705966877000.0,-0.463647470171185,9.723356716778792,4.42437434321588,-0.51923543,-0.9764681,-2.7974575,315.1556,-63.161366,-3.5417306
2705971144000.0,-0.341160917354293,9.67980620215813,4.408042814967029,-0.5494733,-1.0308352,-2.7275133,315.63367,-62.85724,-4.275997
2705976566000.0,-0.18551946214614,9.624467348098316,4.3872906363484985,-0.5644395,-1.069625,-2.6502388,316.13977,-62.547577,-4.9371877
2705981148000.0,-0.0297151207278208,9.629164208225667,4.354465157224375,-0.55833083,-1.1044444,-2.56991,316.6455,-62.231606,-5.557041
2705986224000.0,0.1848721671791559,9.723372975667528,4.291659111875538,-0.5674938,-1.1252137,-2.499966,317.1449,-61.90576,-6.1414084
2705991220000.0,0.3512177356145252,9.837172803471669,4.28871937160814,-0.5717699,-1.1029172,-2.4288,317.653,-61.58305,-6.6462007
2705996203000.0,0.4749958731843575,9.970472030327215,4.34108710255387,-0.5720753,-1.0845913,-2.382069,318.15787,-61.260902,-7.124503
2706001334000.0,0.5873258154146963,10.10375288213896,4.364704651964351,-0.57818395,-1.1313224,-2.3414464,318.67813,-60.96134,-7.5265117
2706006217000.0,0.6808869108221172,10.227083713714078,4.360451788104765,-0.6218608,-1.2140946,-2.3051,319.19412,-60.655365,-7.905897
2706011113000.0,0.7568702779412964,10.336802444557684,4.334865614390542,-0.6783658,-1.280679,-2.2791383,319.72528,-60.351982,-8.2354555
2706016124000.0,0.7911064901569507,10.415056676008968,4.256611587219731,-0.7315111,-1.3503176,-2.2562308,320.2708,-60.043266,-8.536961
2706021085000.0,0.8380207914966635,10.45012234699714,4.2042184,-0.77854776,-1.3640621,-2.209805,320.81744,-59.742687,-8.793707
2706026531000.0,0.91937925521449,10.391363693040992,4.2042184,-0.8078693,-1.4587462,-2.175291,321.39792,-59.43796,-9.020035
2706031230000.0,0.9902950323962404,10.330118126923397,4.211648523030858,-0.84696466,-1.4776831,-2.1649065,321.9646,-59.140686,-9.234165
2706036454000.0,1.0860009891790734,10.013872122432003,4.394737969791233,-0.86345804,-1.4679092,-2.1282544,322.53653,-58.852,-9.418292
2706041144000.0,1.1719238332279798,9.729952949180737,4.559111917973883,-0.8564331,-1.4764613,-2.115121,323.12726,-58.558163,-9.578737
2706046177000.0,1.2066777,9.44537585484884,4.738756235300977,-0.86620694,-1.4340062,-2.081218,323.69196,-58.26601,-9.728492
2706051461000.0,1.2066777,9.159375740378575,4.929422930878263,-0.86070913,-1.3787229,-2.068695,324.25415,-57.98458,-9.876244
2706056145000.0,1.223166104115347,8.912844728347997,5.06446437030303,-0.8378017,-1.3521502,-2.0210476,324.82437,-57.651142,-9.987401
2706061218000.0,1.2659078895405669,8.656394412512219,5.159446303030303,-0.83108217,-1.3029755,-1.9935588,325.37405,-57.320843,-10.1066475
2706066132000.0,1.3166460371650284,8.426693481427833,5.170107513936886,-0.806953,-1.2385293,-1.9724839,325.9276,-56.945972,-10.219578
2706071132000.0,1.386007289105018,8.228518106363166,5.026430483414382,-0.7761043,-1.1707232,-1.9285016,326.45837,-56.587017,-10.322643
2706076251000.0,1.452927587172611,8.046596782068471,4.86553829066774,-0.75900006,-1.1007792,-1.8869628,326.98788,-56.196083,-10.420604
2706081193000.0,1.5121570176186645,7.898523205953338,4.6920804520514885,-0.7156286,-1.001819,-1.8396207,327.48392,-55.832737,-10.51603
2706086173000.0,1.5610195,7.744172135113048,4.501868571179515,-0.6835582,-0.9242391,-1.788308,327.96973,-55.48421,-10.594057
2706091120000.0,1.5610195,7.567795616180877,4.243756633887224,-0.6386596,-0.88056225,-1.7198911,328.42764,-55.16341,-10.661956
2706096506000.0,1.560344414817449,7.380342582898688,3.9693116708234553,-0.6020077,-0.8445212,-1.641395,328.86362,-54.87434,-10.71347
2706101548000.0,1.545080829658606,7.304024856330014,3.854835001280228,-0.5500842,-0.82711154,-1.5861117,329.2847,-54.61116,-10.754176
2706106209000.0,1.5309706411569464,7.23347409799273,3.749008790105896,-0.47678033,-0.81489426,-1.5152513,329.68335,-54.398743,-10.780588
2706111210000.0,1.502804406320496,7.103702847688242,3.585319562137994,-0.3930918,-0.816116,-1.4337007,330.06873,-54.213608,-10.788699
2706116265000.0,1.4585308044507672,6.906931129722588,3.35903205822579,-0.33200526,-0.8216137,-1.3628404,330.44067,-54.051636,-10.781066
2706121176000.0,1.3359672375706215,6.711799622076271,3.2043697046468926,-0.2773328,-0.83658,-1.282817,330.80322,-53.93055,-10.754048
2706126428000.0,1.115738563559322,6.498675131144068,3.11201576970339,-0.20647246,-0.8872818,-1.2052372,331.16266,-53.839653,-10.702289
2706131216000.0,0.9149664974576271,6.3043796127542375,3.0278210552118643,-0.13958271,-0.90377516,-1.169807,331.51132,-53.778347,-10.657905
2706136140000.0,0.705835388056688,6.171992653465347,3.0154000885847405,-0.10354166,-0.9492846,-1.0894781,331.857,-53.741196,-10.57045
2706141116000.0,0.4930521610017472,6.074852265346535,3.0431544023878856,-0.036957346,-1.001819,-1.0094548,332.20074,-53.735485,-10.47008
2706146116000.0,0.2656777487543895,6.001147531061076,3.0853453476485573,0.005192355,-1.0409144,-0.95264435,332.54236,-53.708725,-10.418429
2706152566000.0,-0.0405584983020037,5.92884188966467,3.1533978884459133,0.08032878,-1.0494665,-0.852157,332.86673,-53.721363,-10.333672
2706156712000.0,-0.2374043092005783,5.882364495985677,3.1971414286235627,0.17470746,-1.0390818,-0.8347474,333.20218,-53.717434,-10.298575
2706161144000.0,-0.3744286645973477,5.8705826,3.2829083893042474,0.21471913,-1.0134255,-0.79259765,333.51318,-53.730923,-10.235218
2706166177000.0,-0.5041232609648281,5.8705826,3.3940751516432828,0.28863382,-0.9783007,-0.7687739,333.8178,-53.7797,-10.175702
2706171127000.0,-0.5947347277407055,5.742922815616605,3.523998437126268,0.37201694,-0.93676186,-0.75747293,334.1097,-53.796192,-10.190034
2706176472000.0,-0.6657121495710201,5.512246159927203,3.679261538694861,0.44623706,-0.8894198,-0.75655663,334.3879,-53.83121,-10.208078
2706181152000.0,-0.6889187040590757,5.33305855308242,3.789073813263459,0.54153204,-0.8359691,-0.72601336,334.6551,-53.864727,-10.250251
2706186292000.0,-0.6185640786183897,5.192349106298237,3.845357572386851,0.623388,-0.768163,-0.6750061,334.90253,-53.915695,-10.297409
2706191158000.0,-0.5450373079038089,5.079131946691331,3.8851075572857994,0.73273283,-0.7131852,-0.59712076,335.14774,-53.925495,-10.361104
2706196131000.0,-0.4409204339830151,5.047096175901791,3.869089588262003,0.8362745,-0.66981375,-0.52564955,335.37076,-53.958794,-10.423078
2706202389000.0,-0.3126873074599522,5.00867,3.8424644886503065,0.95417154,-0.63621616,-0.44440445,335.58322,-54.00168,-10.457205
2706206165000.0,-0.2695492455103954,5.00867,3.746944429754601,1.0564915,-0.59498274,-0.35338554,335.76886,-54.074013,-10.48052
2706211142000.0,-0.212690629429107,5.00867,3.6210431233128832,1.1374311,-0.5549711,-0.26939157,335.94437,-54.1844,-10.460359
2706216111000.0,-0.1669824841662582,5.04932147539457,3.5037856227330653,1.1945469,-0.5296202,-0.19364429,336.0989,-54.32085,-10.425704
2706221939000.0,-0.1286827660797961,5.153277946916969,3.3779438428683464,1.2504412,-0.4718934,-0.10415252,336.21927,-54.48463,-10.380575
2706226439000.0,-0.1018693026359516,5.247189694391994,3.263116178323263,1.294118,-0.43157628,-0.008552114,336.32632,-54.700558,-10.30007
2706231191000.0,-0.076090043602719,5.35889960451284,3.125626713066465,1.3432927,-0.41355577,0.041233405,336.4175,-54.93312,-10.216226
2706236094000.0,-0.0402348550880663,5.508529945182255,2.995794151822549,1.3753631,-0.37110063,0.13316862,336.47028,-55.220673,-10.097643
2706241120000.0,0.0187017005057926,5.74427618649336,2.8915217649335974,1.434617,-0.3304781,0.22632557,336.5114,-55.52875,-9.970987
2706246130000.0,0.0715794546234836,6.01677716145571,2.775509342069124,1.4883732,-0.29993483,0.32498032,336.52414,-55.901222,-9.815694
2706251574000.0,0.0994235811665522,6.502060480109865,2.5885560188982986,1.5546521,-0.24678956,0.4111123,336.51007,-56.294495,-9.652698
2706256204000.0,0.1231043868047608,6.914783067429617,2.4295564071641107,1.6181821,-0.19028452,0.5128214,336.46268,-56.76938,-9.4454565
2706261136000.0,0.1390225762808155,7.242040581668211,2.2891063534198333,1.6853772,-0.14294247,0.6249151,336.39215,-57.26426,-9.22355
2706266118000.0,0.1478662542252085,7.485241875199258,2.16971667115848,1.7455474,-0.076052725,0.74006325,336.2897,-57.775616,-8.989613
2706271113000.0,0.1773624644799999,7.70833348,2.0860584496,1.8216002,0.0076358155,0.84513205,336.13528,-58.438835,-8.718758
2706276575000.0,0.2441393006348936,7.917567592340426,2.054895856953191,1.8826867,0.099571034,0.9300423,335.95337,-59.111103,-8.437598
2706281178000.0,0.29905091175539,8.09454242626421,2.0341888072442176,1.9734001,0.19853121,1.0082331,335.7299,-59.869793,-8.138567
2706286181000.0,0.3366148164343394,8.297387698235985,2.101803871752254,2.038152,0.267559,1.0870347,335.4856,-60.631443,-7.828677
2706291794000.0,0.3787587694551156,8.524965254018033,2.1776630276754214,2.111761,0.310625,1.1517864,335.21652,-61.44913,-7.491073
2706296127000.0,0.39264908,8.720226553262643,2.3093423279934746,2.1618521,0.301462,1.1887437,334.94437,-62.2663,-7.145008
2706301596000.0,0.39264908,8.985094327243067,2.544306091745514,2.201253,0.2452624,1.2205088,334.67365,-63.08915,-6.7857146
2706306165000.0,0.3910101672830096,9.216678768625522,2.7465985786083107,2.205529,0.1563815,1.2473868,334.41754,-63.913025,-6.3971252
2706311173000.0,0.3595631370658143,9.656937011064668,3.076792301483485,2.1945333,0.059864793,1.2855659,334.1814,-64.72837,-5.9936166
2706316179000.0,0.3281286655667568,10.097019431522009,3.4068541578559133,2.1584923,-0.0021380284,1.2910637,333.975,-65.48948,-5.5811377
2706321141000.0,0.3065430081563698,10.361252316657144,3.63113066971354,2.1120665,-0.13133603,1.2962561,333.81482,-66.22775,-5.146285
2706326641000.0,0.2893480591642863,10.533202165673712,3.8073789844119807,2.0793853,-0.34972036,1.3054191,333.70096,-66.94128,-4.6992593
2706331212000.0,0.2714074918182521,10.66900071424156,3.937866613213816,1.9706513,-0.43310347,1.3100005,333.6006,-67.55862,-4.258475
2706336171000.0,0.2347091022710764,10.782765715323391,4.003923589475311,1.9465221,-0.5882632,1.3252722,333.5808,-68.17205,-3.7909555
2706341095000.0,0.1982697253543003,10.895727777296962,4.06951434388378,1.8762726,-0.7461719,1.3295482,333.59424,-68.69449,-3.32784
2706346137000.0,0.1549960588492063,11.015945115575397,4.121342517757936,1.8258762,-0.90133166,1.3368785,333.65033,-69.19853,-2.8554575
2706351622000.0,0.1028841693981481,11.15056749363426,4.164769334143519,1.7773124,-1.0458013,1.3393221,333.74908,-69.66562,-2.379858
2706356200000.0,0.0426468268290753,11.27304978826228,4.152567408747924,1.7235563,-1.1499538,1.3435981,333.88202,-70.091324,-1.911666
2706361184000.0,-0.1083641827161274,11.458038459938306,3.892073285517678,1.6740762,-1.2342533,1.3203852,334.05273,-70.48753,-1.4497153
2706366161000.0,-0.2591630981468005,11.642767316064225,3.631945024820059,1.6239853,-1.2852604,1.2907583,334.24448,-70.85195,-1.0057226
2706371141000.0,-0.3371534500062183,11.730913796393354,3.438806911832637,1.5601498,-1.2996159,1.2495248,334.4531,-71.18355,-0.5776457
2706376640000.0,-0.3745793108519143,11.76366110588967,3.270390621071334,1.5045611,-1.3072516,1.1835514,334.67908,-71.48958,-0.1706884
2706381186000.0,-0.3782947805984345,11.74717492658278,3.1173051842564155,1.4611896,-1.2852604,1.1133019,334.90442,-71.854935,0.17192636
2706386203000.0,-0.3402114807054394,11.661487767759834,2.926888635083721,1.4068227,-1.2409728,1.0415252,335.1331,-72.18917,0.4867635
2706391124000.0,-0.2715177569804325,11.554012202265705,2.7477899625334707,1.3683381,-1.1869112,0.95905846,335.36182,-72.542076,0.7612196
2706396126000.0,-0.1432496989021627,11.401077211328529,2.580054872667353,1.352761,-1.1334605,0.88025683,335.5855,-72.87619,1.0069027
2706401289000.0,0.0089734965091005,11.23419787091359,2.4377525935147557,1.3365731,-1.0705414,0.79901177,335.8006,-73.22283,1.2266428
2706406250000.0,0.1810827150538964,11.062088691818342,2.3412035033398126,1.3524556,-1.0005972,0.72082096,336.0062,-73.56606,1.4154497
2706411185000.0,0.348030206374091,10.884554579824115,2.248294269220362,1.3655893,-0.93462384,0.64568454,336.2022,-73.9182,1.5996338
2706416180000.0,0.4936501518078809,10.67016956840859,2.1714392715034667,1.3796391,-0.9104946,0.5684101,336.3975,-74.26814,1.7549309
2706421113000.0,0.6374626024234737,10.458445592169795,2.0955382297141893,1.3881912,-0.8454375,0.53023106,336.56433,-74.61907,1.9284948
2706426600000.0,0.7942003684072223,10.236635392133593,1.9189648676443165,1.3903292,-0.70616025,0.4184427,336.7157,-74.968666,2.0488641
2706431326000.0,0.9284802220310248,10.0486433887429,1.746319324387556,1.3912456,-0.6420194,0.3848451,336.86694,-75.31034,2.1774256
2706436187000.0,1.0724894223668158,9.91771982391216,1.6200225363155754,1.393689,-0.51251596,0.30879238,336.97137,-75.651215,2.2822788
2706441322000.0,1.2324793894774295,9.862723744204962,1.5550266235969907,1.4013249,-0.419359,0.26725355,337.0679,-75.985886,2.3825397
2706446113000.0,1.3951107913811756,9.893349376577714,1.5304413505048684,1.4013249,-0.37507126,0.2302962,337.14767,-76.34064,2.4916391
2706451611000.0,1.5992300390191128,10.03575783699964,1.549429227839885,1.3884968,-0.35033122,0.20341812,337.20914,-76.687294,2.5844884
2706456196000.0,1.81043630514326,10.168754249060592,1.537984639901362,1.3808609,-0.3387248,0.20066923,337.26093,-77.032104,2.7007842
2706461218000.0,2.1643508454438702,10.35700671430249,1.4438584662517613,1.3600914,-0.34269542,0.19608775,337.31207,-77.36269,2.806064
2706466095000.0,2.508046825739784,10.539823773837483,1.3524499937529355,1.320996,-0.31764993,0.20677789,337.34833,-77.669975,2.9493837
2706471139000.0,2.71369911611318,10.654832864482502,1.2852531724646314,1.2788464,-0.28130344,0.22113322,337.38257,-77.96119,3.0890906
2706477472000.0,2.880791194996277,10.754185043931496,1.2175131315636634,1.2257011,-0.23762658,0.24037547,337.40692,-78.22821,3.2284133
2706481514000.0,2.9912761716396727,10.831411803389548,1.1842548117047922,1.1777482,-0.20677789,0.26419923,337.42047,-78.48211,3.4561205
2706486200000.0,3.167366920629487,11.093674837451996,1.2704268229253632,1.1588113,-0.20372356,0.29565877,337.4286,-78.71406,3.6856456
2706491186000.0,3.3547310850475878,11.372728078560694,1.362115608231758,1.1478158,-0.26450464,0.35735616,337.44345,-78.92176,3.9608672
2706496123000.0,3.6773953854043695,11.821006526331928,1.382930486124952,1.1404854,-0.34391713,0.42424592,337.46173,-79.10583,4.241267
2706501694000.0,4.143640852548869,12.4549363602913,1.3543014395553852,1.1438452,-0.376293,0.4783075,337.4823,-79.26817,4.530016
2706506469000.0,4.52508984624627,12.97667028828346,1.3368195295706742,1.1340714,-0.3491095,0.5338962,337.50262,-79.37319,4.8694363
2706511175000.0,4.607866610736972,13.142223745236093,1.4333922894237392,1.1218541,-0.32895094,0.6020077,337.5318,-79.45085,5.2213254
2706516326000.0,4.698470757335272,13.323431959592869,1.539096982582077,1.102001,-0.28344148,0.6750061,337.541,-79.47509,5.6660104
2706521091000.0,4.742151810426111,13.417149745240254,1.6676493601087945,1.0641272,-0.27977628,0.7131852,337.55667,-79.46259,6.1078343
2706526434000.0,4.718956505621033,13.389315766999092,1.8671291267543064,1.0442741,-0.26939157,0.79076505,337.5545,-79.407715,6.5662255
2706531203000.0,4.67029656148344,13.35632084481418,2.051872911366817,0.9957104,-0.27122417,0.8689558,337.55264,-79.28539,7.0372343
2706536156000.0,4.496964705263567,13.2862502585912,2.273147705006997,0.92179567,-0.29718593,0.9279043,337.55396,-79.12465,7.511679
2706541133000.0,4.322792961187996,13.21584014196859,2.4954946963147258,0.8011498,-0.35216382,0.98654735,337.55878,-78.88982,7.9915557
2706547047000.0,3.191203923593287,12.92622172260612,2.4585640067127343,0.6630942,-0.43371433,1.0974194,337.57507,-78.60501,8.492021
2706551664000.0,1.9333281491788563,12.61671284286099,2.307777584779682,0.5345071,-0.5002986,1.1319333,337.6041,-78.29725,8.976234
2706556156000.0,0.6409540971097,12.264756747098753,2.044353655441209,0.4447099,-0.56321776,1.1585059,337.6472,-77.94081,9.442254
2706561034000.0,-0.867817604663893,11.80445384190935,1.578935953098314,0.41325033,-0.6750061,1.1319333,337.723,-77.579384,9.896257
2706566015000.0,-2.261415067286652,11.410922757111598,1.143495912691466,0.42485678,-0.7968737,1.0161743,337.84033,-77.43272,10.07865
2706571009000.0,-3.5220118823851205,11.087448253829322,0.7439104452954048,0.48166725,-0.9056077,0.82863873,337.98706,-77.31367,10.233412
2706576022000.0,-4.524949259535156,10.846770278128952,0.5151498863172226,0.5525276,-0.9431759,0.6291912,338.17868,-77.44523,10.1254
2706581179000.0,-5.293403744335311,10.683473970922885,0.4527129744724302,0.5983425,-0.904386,0.47952923,338.38174,-77.61181,9.980855
2706586014000.0,-5.720408539484067,10.46437753080425,0.580296364370258,0.5815437,-0.80481493,0.3839288,338.60815,-78.00761,9.591763
2706591016000.0,-5.812483493333334,10.1590764,0.9340578933333334,0.5012149,-0.675617,0.36865717,338.8144,-78.40813,9.185738
2706596014000.0,-5.626191943757598,9.869144106237728,1.236835674908819,0.3594942,-0.59620446,0.35918877,339.0184,-78.90429,8.6322565
2706601151000.0,-5.11550616606191,9.588497108669223,1.489878107257084,0.2125811,-0.56077427,0.29443705,339.19714,-79.38457,8.064058
2706606252000.0,-4.5471468398091845,9.404427312172364,1.7582667384042776,0.06536258,-0.56321776,0.22327125,339.34357,-79.778336,7.481779
2706611052000.0,-3.915788366334661,9.380329933266932,2.037799504183267,-0.022907447,-0.5589417,0.20372356,339.47614,-80.13182,6.902927
2706616371000.0,-3.2773812614749485,9.345996751266654,2.2317284653781195,-0.059864793,-0.68203104,0.18478674,339.6243,-80.341606,6.405279
2706621040000.0,-2.778133914299118,9.308237998921,2.286268062826046,-0.1459968,-0.7788532,0.18600847,339.7626,-80.49355,5.9133554
2706626158000.0,-2.24136961291033,9.266932358363922,2.2232222564027264,-0.16982053,-1.0384709,0.18325958,339.96472,-80.5171,5.5367036
2706631129000.0,-1.7420900366439434,9.226990229994756,1.9036833526166757,-0.17867808,-1.3011429,0.16615535,340.1946,-80.50412,5.16615
2706636049000.0,-1.2963452453734892,9.201439054190608,1.5626238484297603,-0.15302174,-1.5289958,0.1591304,340.48383,-80.41184,4.9147468
2706641048000.0,-0.916916192926491,9.196696095700416,1.178451961303745,-0.082161374,-1.690875,0.1441642,340.82712,-80.32098,4.6684895
2706646018000.0,-0.5760358595230353,9.19693152411924,0.8729791327100271,0.0027488936,-1.7956384,0.12614368,341.23264,-80.25672,4.5247355
2706651672000.0,-0.2580979761589882,9.206714425293583,0.6724337190966576,0.07727446,-1.861001,0.13072516,341.6686,-80.203636,4.390016
2706656129000.0,-0.0368875836288642,9.214306799850013,0.5529722214815432,0.14752395,-1.8805487,0.12980886,342.14117,-80.21921,4.3300395
2706661099000.0,0.0781282590759103,9.222238673027247,0.5926328297641863,0.19425514,-1.8799378,0.13530666,342.62213,-80.24589,4.274523
2706666061000.0,0.1929589656153654,9.230157778601784,0.6322295980334972,0.20066923,-1.87444,0.14080444,343.11423,-80.29424,4.2787986
2706671099000.0,0.232744535035461,9.303789897669706,0.7508284097771024,0.20433442,-1.8374827,0.11759156,343.59464,-80.35631,4.2732534
2706676180000.0,0.249178086607565,9.398283456264776,0.8946220396572104,0.17715092,-1.7907515,0.09896017,344.06668,-80.41031,4.268178
2706681141000.0,0.2545554249959184,9.50253833877551,0.9828618206530612,0.14110987,-1.7376062,0.06811147,344.52502,-80.4466,4.276461
2706686340000.0,0.2443942500561224,9.629553091836735,0.9981035910204082,0.07269296,-1.6639969,0.03940081,344.96152,-80.46946,4.2757826
2706691113000.0,0.2287355867701552,9.755836380871308,1.0333446357035554,0.021685716,-1.6062702,-0.0012217305,345.3814,-80.462234,4.2623672
2706696099000.0,0.2048247331597396,9.899301103054585,1.0955128401101653,-0.016493361,-1.5457945,-0.04642576,345.77774,-80.44517,4.235861
2706701447000.0,0.2307098313551587,10.00514823045635,1.154546762281746,-0.04642576,-1.4871514,-0.08857546,346.16132,-80.42225,4.194483
2706706252000.0,0.3037519869669312,10.053842869510582,1.20019810755291,-0.0571159,-1.4370605,-0.129198,346.52908,-80.399765,4.138853
2706711220000.0,0.3792719513955026,10.10418937665344,1.2473980832671958,-0.0729984,-1.4220943,-0.14569137,346.89047,-80.36324,4.072648
2706716177000.0,0.4836056882798893,10.117241030837004,1.271569570914865,-0.07727446,-1.393689,-0.18417588,347.23398,-80.3338,3.9871106
2706721136000.0,0.6247029300174163,10.083183405286343,1.2667041522897244,-0.1001819,-1.3701707,-0.22082779,347.57275,-80.296165,3.8982642
2706726296000.0,0.788423234711096,10.04445277450145,1.1914391565322993,-0.112399206,-1.3680327,-0.23762658,347.9105,-80.24026,3.8282297
2706731246000.0,0.9621426283535026,10.00405294494631,1.0500396476265554,-0.13805555,-1.3411547,-0.2501493,348.2337,-80.17804,3.748367
2706736150000.0,1.1386503862372568,9.955880693697868,0.8935364799026877,-0.17745635,-1.3051136,-0.2434298,348.55676,-80.09853,3.699764
2706741184000.0,1.3486460522798889,9.853116645690454,0.6254569029555144,-0.19333886,-1.2663237,-0.22999077,348.86945,-80.01959,3.649236
2706746505000.0,1.5677893573158237,9.748573567383811,0.349008032543541,-0.20433442,-1.2067643,-0.21899518,349.17673,-79.94894,3.6421268
2706751530000.0,1.7156960225854525,9.73512770261712,0.2324754978969917,-0.19028452,-1.1258247,-0.20005837,349.46387,-79.87979,3.6383562
2706756178000.0,1.8525060086895784,9.722690612182172,0.1246858021682034,-0.16584991,-1.1212431,-0.18417588,349.77216,-79.84683,3.6870186
2706761139000.0,1.9355694761728508,9.753373801239936,0.0907160340473767,-0.12950343,-1.1414018,-0.1704314,350.06186,-79.81988,3.7368598
2706766096000.0,2.005853149467937,9.7929082499306,0.0731451134301841,-0.098043874,-1.1814134,-0.15363261,350.3531,-79.79685,3.7917378
2706771143000.0,2.072007296395544,9.876190413311004,0.0484935259871841,-0.06963864,-1.2186762,-0.124005646,350.65448,-79.79144,3.8864398
2706776544000.0,2.1398030018204324,9.989183124590404,0.0183621138953615,-0.023823744,-1.2479976,-0.09896017,350.96243,-79.797325,3.9841418
2706781741000.0,2.200666089853841,10.092877344026173,-0.0077311068943745,0.025045475,-1.2504412,-0.07513642,351.27502,-79.805885,4.104183
2706786205000.0,2.153439564496941,10.067447755311012,0.0358625717908735,0.06536258,-1.2333369,-0.049480084,351.58707,-79.819954,4.2296047
2706791185000.0,2.100754059058464,10.039078724889531,0.0844953047327498,0.09285152,-1.1933253,-0.028710667,351.89767,-79.84263,4.373239
2706796139000.0,2.0154561770781485,9.995561030073006,0.1367003031541397,0.10445796,-1.1557571,-0.017104227,352.20132,-79.8673,4.5174646
2706802357000.0,1.8771319851916373,9.92639880516841,0.2058624248896631,0.1151481,-1.1059716,-0.014966198,352.48767,-79.89493,4.659096
2706806186000.0,1.798392628329793,9.887334974352925,0.2473733517221304,0.10842858,-1.0797043,-0.014049901,352.7709,-79.909775,4.7906346
2706811198000.0,1.7266452825033434,9.853349505703722,0.2964636185587286,0.12034045,-1.0250319,-0.009162978,353.0298,-79.92927,4.9174247
2706816157000.0,1.655656637660294,9.819723420501926,0.3450347744331681,0.12095132,-0.9868528,-0.021380283,353.28705,-79.941864,5.013865
2706821127000.0,1.60482330946389,9.796323912804608,0.4258755551670359,0.12461651,-0.9550878,-0.027183503,353.52826,-79.95555,5.1090875
2706826444000.0,1.564213820877271,9.77827532450155,0.534167735181214,0.1282817,-0.93126404,-0.03726278,353.75977,-79.97079,5.196183
2706831140000.0,1.561223749524172,9.763503629996194,0.6034409248686715,0.12308934,-0.9068295,-0.04428773,353.98462,-79.97923,5.2651663
2706836399000.0,1.6187392324324323,9.74912495945946,0.6321986963513514,0.12858713,-0.88270026,-0.034208454,354.20078,-79.98957,5.333505
2706841119000.0,1.6618730979888745,9.749783995977747,0.6512229,0.1133155,-0.86620694,-0.021685716,354.4113,-79.975395,5.392323
2706846126000.0,1.6823912997860504,9.790820399572102,0.6512229,0.10995574,-0.8378017,-0.00580322,354.6093,-79.96343,5.4520755
2706851755000.0,1.7035058987558442,9.83669240914494,0.6494743488945242,0.10170906,-0.8210029,0.021685716,354.80847,-79.92927,5.531386
2706856161000.0,1.6767554837467311,9.866786516918932,0.609348743838656,0.08124508,-0.82772243,0.050701816,355.00388,-79.88903,5.61385
2706861285000.0,1.6456458317933274,9.901784748474524,0.5626842862112688,0.08368854,-0.84574294,0.073303826,355.20236,-79.84675,5.7071795
2706866121000.0,1.5974205545040585,9.941179342539431,0.4934100209503069,0.092240654,-0.86345804,0.1020145,355.39954,-79.796005,5.8088083
2706872014000.0,1.5043101044743614,10.000769888998878,0.3630553442407444,0.10262536,-0.86193085,0.11759156,355.59427,-79.745316,5.911027
2706876362000.0,1.4356109297366857,10.044737256384874,0.2668764651752128,0.11178834,-0.8680395,0.12675454,355.80194,-79.70756,6.0128684
2706881114000.0,1.36656408137146,10.066917320655191,0.1743101116243753,0.14569137,-0.8436049,0.122478485,355.99863,-79.67783,6.1117554
2706886225000.0,1.3031494174532667,10.044269243290763,0.0973065951388117,0.17012598,-0.82924956,0.1282817,356.19742,-79.644905,6.2145495
2706891180000.0,1.2453523353260412,10.017288528039543,0.0357955814888935,0.20066923,-0.82741696,0.12644911,356.40295,-79.66763,6.2885365
2706896136000.0,1.2014239317416913,9.971363379785444,0.0238151049219604,0.20219639,-0.8216137,0.13164146,356.60114,-79.685974,6.3635173
2706901232000.0,1.156254612801851,9.924140910959192,0.0114961968135885,0.22327125,-0.78801614,0.12034045,356.79846,-79.73707,6.4202332
2706906395000.0,1.110491427227598,9.87629758157341,-0.0009846749610433,0.22602014,-0.77671516,0.12889257,356.9979,-79.77824,6.4830294
2706911206000.0,1.0678482574042911,9.831716086769037,-0.0126146331457719,0.21746802,-0.7855727,0.13255776,357.1927,-79.82276,6.5390935
2706916146000.0,1.043872,9.78014345356037,-0.0257802893591331,0.20219639,-0.7666359,0.121256754,357.38086,-79.86473,6.592814
2706921144000.0,1.043872,9.72086841145511,-0.0405991365380805,0.18570304,-0.7415904,0.12492194,357.56757,-79.89957,6.6503334
2706926265000.0,1.056317168390244,9.69919599707317,-0.025482713563317,0.17684549,-0.7287622,0.12064589,357.75778,-79.948,6.685141
2706931167000.0,1.079217399414634,9.712935944390244,0.0157377304969755,0.16707164,-0.72356987,0.12095132,357.94128,-79.98987,6.720468
2706936113000.0,1.1132170107192392,9.746212275609272,0.0189923242995839,0.15790866,-0.72509706,0.129198,358.1263,-80.027695,6.7588716
2706941156000.0,1.1610631102139886,9.803627734892014,-0.024069149757975,0.14752395,-0.7290677,0.14263703,358.30893,-80.06101,6.7976074
2706946122000.0,1.2033982361758828,9.8433180266489,-0.0538368376242505,0.13622294,-0.73639804,0.16249016,358.4929,-80.077644,6.84548
2706951270000.0,1.2409361567240889,9.862086888931188,-0.0679135686089273,0.11728613,-0.73853606,0.18295415,358.67456,-80.08709,6.8960533
2706956135000.0,1.2679618123665692,9.878785705463748,-0.0880843599601486,0.10262536,-0.7483099,0.19303341,358.8653,-80.09336,6.9587154
2706961202000.0,1.2794726405076302,9.894133342769036,-0.1226167506316122,0.09865474,-0.7516697,0.20311269,359.05264,-80.09322,7.025441
2706966152000.0,1.2907176768798925,9.909126594132996,-0.1563517681614612,0.08307768,-0.75900006,0.2144137,359.247,-80.08101,7.1033278
2706971121000.0,1.2898557250254246,9.924047785261676,-0.1929378562043338,0.070554934,-0.75808376,0.22510384,359.43817,-80.06626,7.181919
2706976390000.0,1.2859081999530628,9.93983747336306,-0.2324123031612297,0.057726767,-0.7431176,0.22266038,359.62592,-80.0485,7.2579355
2706981179000.0,1.2872778367953792,9.960930838004066,-0.2652167920183976,0.037873644,-0.7266242,0.22388211,359.81665,-80.02784,7.3401933
2706986147000.0,1.3025450975505402,10.001643303080543,-0.2906620760487752,0.02565634,-0.7098254,0.23151793,0.0014163215,-80.00511,7.421201
2706991099000.0,1.3102604386130812,10.028678606185974,-0.2976470038652482,0.014966198,-0.68783426,0.23151793,0.1838762,-79.98773,7.4977946
2706996144000.0,1.3055012821907015,10.033437613524429,-0.2738511969060283,0.0033597588,-0.65576386,0.21930063,0.35737357,-79.9687,7.570398
2707001243000.0,1.3024458,10.03818852826956,-0.2467053128897772,-0.009162978,-0.64660084,0.20586158,0.5347158,-79.949005,7.64447
2707006249000.0,1.3024458,10.042751869407958,-0.2147625729468875,-0.014049901,-0.61117065,0.20647246,0.6939442,-79.92806,7.7154865
2707011595000.0,1.2878212721617188,10.035101639116814,-0.1842238686259883,-0.03023783,-0.56138515,0.20555615,0.8477177,-79.90308,7.780189
2707016191000.0,1.2484224855587052,10.005552643443234,-0.1645244821811129,-0.057421334,-0.5516113,0.20433442,1.0015557,-79.87533,7.84365
2707021140000.0,1.205997638975086,9.973734110025363,-0.1433120662725645,-0.06658431,-0.5540548,0.18936823,1.1461728,-79.84632,7.901771
2707026278000.0,1.1946689756315132,9.976550351604835,-0.1697997030262609,-0.102319926,-0.5540548,0.17898351,1.2860277,-79.8075,7.9591327
2707031175000.0,1.2063982602334309,10.0039186415173,-0.2284461668611921,-0.13347405,-0.5439755,0.1685988,1.4230397,-79.771835,8.010752
2707036169000.0,1.2210215870075236,10.028278519779953,-0.2893046356848152,-0.1731803,-0.51007247,0.15515977,1.5533674,-79.73549,8.04746
2707041116000.0,1.2478506876061808,10.035943948507402,-0.3544611600679557,-0.20738874,-0.48624873,0.15027285,1.6826757,-79.69576,8.082785
2707046089000.0,1.2748207941914085,10.043649664509344,-0.4199601282825014,-0.24923302,-0.48166725,0.14813483,1.8140656,-79.657845,8.117541
2707051309000.0,1.2526915940125467,10.032160711347574,-0.4822610066243151,-0.2883284,-0.50671273,0.14385876,1.946389,-79.61667,8.149759
2707056212000.0,1.211676342356865,10.013517397443024,-0.5381910028460256,-0.32467487,-0.54367006,0.129198,2.0802968,-79.57225,8.177977
2707061178000.0,1.1738294702053218,9.977596894024492,-0.5990094014621122,-0.36254853,-0.5671884,0.12339478,2.2219274,-79.52574,8.214494
2707066186000.0,1.1517501429978825,9.867200488536968,-0.6784948410790903,-0.39950588,-0.5674938,0.100792766,2.367482,-79.48093,8.241762
2707071431000.0,1.1327049259538462,9.753482568153846,-0.758969269276923,-0.43768495,-0.5546656,0.070249505,2.5228217,-79.44822,8.257253
2707076432000.0,1.1732302986384615,9.67243213053846,-0.7958105206692307,-0.46700647,-0.552833,0.034513887,2.681235,-79.417404,8.26477
2707081728000.0,1.2161461902076922,9.586600673307691,-0.8348249712538461,-0.4868596,-0.5500842,0.007941248,2.841984,-79.39692,8.265843
2707086208000.0,1.295838572002069,9.481394819244697,-0.8648386648297982,-0.49968776,-0.5149594,-0.03634648,2.9936035,-79.38474,8.250492
2707091181000.0,1.438739540744956,9.323710328091051,-0.8944044027273668,-0.5119051,-0.464563,-0.09101892,3.1402345,-79.37754,8.224078
2707096116000.0,1.6360394912977758,9.172080283740014,-0.8790706354869359,-0.52473325,-0.44409904,-0.15027285,3.2900429,-79.37299,8.198322
2707101443000.0,1.915114552825164,9.014182835096811,-0.8093018662707838,-0.514654,-0.38637227,-0.17684549,3.4144938,-79.37522,8.163721
2707106282000.0,2.168623886921472,8.870750179946736,-0.745924529263658,-0.50579643,-0.3210097,-0.22632557,3.5368483,-79.36973,8.138614
2707111200000.0,2.362911076042061,8.765638012883668,-0.6476147658440697,-0.50793445,-0.26419923,-0.28252518,3.6454766,-79.37139,8.102662
2707116182000.0,2.5346658092175067,8.675240859416446,-0.5346182532161804,-0.49541172,-0.19730948,-0.3408628,3.7335646,-79.38839,8.050029
2707121141000.0,2.636989042068686,8.659049049996627,-0.3977886751966804,-0.49693888,-0.13133603,-0.38973203,3.808949,-79.33549,8.063809
2707127457000.0,2.7063689447743067,8.703942041022874,-0.201892218366507,-0.49602258,-0.07452556,-0.42394048,3.8689706,-79.29541,8.06324
2707131262000.0,2.748166052088253,8.730987296066392,-0.08387669932933,-0.51923543,-0.035430185,-0.45204028,3.9158688,-79.21144,8.089882
2707136192000.0,2.8146929918264085,8.83467936995232,0.1298809588693198,-0.5320636,0.0012217305,-0.47250426,3.9481385,-79.13615,8.107028
2707141181000.0,2.8890784623917485,8.978800642697285,0.3809317739641918,-0.56077427,0.048563786,-0.46731192,3.9663608,-79.05468,8.121806
2707146131000.0,2.852178257142857,9.178000725,0.7129932894642856,-0.60903263,0.069027774,-0.46486846,3.9791021,-78.927376,8.146287
2707151327000.0,2.7252367959183674,9.431884089285717,1.1276690608418367,-0.6579019,0.06658431,-0.46089783,3.9851825,-78.794075,8.171615
2707156138000.0,2.5961835552678747,9.618149609539932,1.445157576877116,-0.7244862,0.061086524,-0.4529566,3.9816213,-78.60226,8.209961
2707161249000.0,2.4158368153754237,9.63277260705039,1.5328937296753635,-0.7840455,0.047036625,-0.43004912,3.9813886,-78.40009,8.253368
2707166139000.0,2.2513339509563512,9.640651101029915,1.612102037420304,-0.8530733,0.047647487,-0.410196,3.9677722,-78.14027,8.260191
2707171132000.0,2.1145353010789605,9.625016652444009,1.6746385665767534,-0.91507614,0.03390302,-0.41141775,3.9638448,-77.87057,8.267926
2707177554000.0,1.9375162901900675,9.604693986598932,1.750700968757117,-0.9691377,0.014966198,-0.41783184,3.9623702,-77.5953,8.244729
2707181230000.0,1.817259702820356,9.589276487781378,1.7167824391609003,-1.0332786,-0.017715093,-0.41172317,3.9700134,-77.30294,8.225896
2707186205000.0,1.6545076565297363,9.5684108575808,1.6708780091442583,-1.0906999,-0.025045475,-0.39706242,3.976308,-77.00804,8.174801
