timestamp,acc_x,acc_y,acc_z,gyro_x,gyro_y,gyro_z,ori_azimuth,ori_pitch,ori_roll
5203794176000.0,-5.980507738389654,-2.140208138389657,7.261718978632612,5.169142,2.5506678,3.6047158,83.40508,11.92177,-32.3918
5203799230000.0,-5.972969793022889,-2.1326701930228915,7.265487872605513,5.169142,0.763887,0.03176499,84.40896,12.465626,-31.640495
5203804180000.0,-5.965586961688207,-2.125287361688209,7.26917921118206,-1.1893547,0.7623598,0.024740042,83.4796,12.224703,-32.671333
5203809192000.0,-5.958111658526705,-2.117812058526708,7.272916784706433,-1.1914927,0.7528914,0.038179077,83.54025,11.039025,-32.93441
5203814396000.0,-5.950349990998284,-2.110050390998285,7.276797537424078,-1.1863003,0.73975784,0.03145956,83.61447,11.369401,-33.18607
5203819198000.0,-5.943187898863102,-2.102888298863104,7.28037850870581,-1.1707232,0.7315111,0.028710667,83.683525,11.686571,-33.430355
5203824182000.0,-5.935754357171777,-2.0954547571717788,7.284095201931164,-1.1554517,0.73975784,0.03145956,83.754196,11.994524,-33.668587
5203829178000.0,-5.928302917707519,-2.088003317707521,7.287820843856098,-1.1636983,0.75808376,0.031154128,83.8279,12.29732,-33.900307
5203834186000.0,-5.92083358047033,-2.0805339804703307,7.29155543448061,-1.1914927,0.788627,0.04062254,83.90018,12.591373,-34.13208
5203839226000.0,-5.913316515838653,-2.0730169158386533,7.295313888304003,-1.2293663,0.77671516,0.05131268,83.97084,12.882031,-34.350773
5203844213000.0,-5.905878499704095,-2.065578899704095,7.2990328187042515,-1.5302174,0.79229224,0.057726767,84.046234,13.232087,-34.579266
5203849166000.0,-5.898491193926178,-2.0581915939261792,7.302726394455693,-1.255328,0.77518797,0.054061573,84.11784,13.449217,-34.789185
5203854238000.0,-5.890926401900014,-2.050626801900015,7.306508711477963,-1.2470814,0.75747293,0.0580322,84.187836,13.787003,-34.99789
5203859222000.0,-5.88349286020869,-2.0431932602086897,7.310225404703317,-1.2498302,0.7498371,0.06688975,84.257484,14.056069,-35.19879
5203864212000.0,-5.876050369630898,-2.0357507696308983,7.313946572278462,-1.2428054,0.7351763,0.070249505,84.32593,14.314313,-35.38706
5203869313000.0,-5.868442324653481,-2.0281427246534807,7.3177505153247155,-1.239751,0.7165449,0.08246681,84.388054,14.564365,-35.56815
5203874262000.0,-5.861060984799876,-2.0207613847998758,7.321441108176296,-1.2449434,0.6994407,0.09162979,84.44945,14.808152,-35.740437
5203879140000.0,-5.853785540102788,-2.013485940102788,7.325078754555365,-1.2495248,0.6536258,0.095294975,84.50093,15.034774,-35.898712
5203884216000.0,-5.854507730298851,-2.023444064018391,7.310863734271265,-1.2030991,0.5867361,0.10293079,84.54444,15.242776,-36.042923
5203889239000.0,-5.858931203494253,-2.041137587291954,7.288746922556322,-1.1071932,0.5225952,0.09712757,84.587006,15.436598,-36.170185
5203894180000.0,-5.863684008546084,-2.0547927289485077,7.267660942102985,-0.98837996,0.44501534,0.09712757,84.620544,15.600671,-36.274506
5203899256000.0,-5.868942643509303,-2.0653102185201213,7.246625962959757,-0.8530733,0.38148534,0.0852157,84.6546,15.73813,-36.36045
5203904228000.0,-5.861471717301394,-2.077701082698606,7.243103003181435,-0.71868294,0.32742378,0.07574729,84.69267,15.84271,-36.435543
5203909179000.0,-5.848161602152148,-2.0910111978478523,7.247539770000936,-0.6075055,0.110872045,0.029321533,84.71984,15.928241,-36.442863
5203914305000.0,-5.841852,-2.0973208,7.259773867244005,-0.19517145,-0.027794369,-0.0067195175,84.75734,15.912405,-36.46055
5203919180000.0,-5.841852,-2.0973208,7.277545719642178,0.06536258,-0.013744468,-0.002443461,84.78896,15.905677,-36.46072
5203924195000.0,-5.847356639294264,-2.093651027697491,7.282445399024737,0.027488936,0.01038471,0.0030543262,84.834305,15.872279,-36.42818
5203934146000.0,-5.871415495635832,-2.076501208728336,7.2592196,-0.0070249503,-0.0009162979,0.009162978,84.87427,15.781727,-36.39176
5203939240000.0,-5.876508857423262,-2.0663144851534767,7.2592196,0.008552114,0.00030543262,0.011911872,84.92342,15.680507,-36.376877
5203944144000.0,-5.878968950555556,-2.0613942988888887,7.248505567430556,0.0067195175,0.0143553335,0.010995574,84.98092,15.58339,-36.37296
5203949261000.0,-5.874107394444445,-2.071117411111111,7.2047516131944445,0.0018325958,0.0021380284,0.01160644,85.032364,15.486453,-36.363136
5203954142000.0,-5.869665508194307,-2.081835462986588,7.176696943833824,-0.0021380284,-0.007330383,0.0030543262,85.08752,15.388646,-36.366165
5203959230000.0,-5.865680740382728,-2.097774950327118,7.192636347955512,-0.0021380284,0.0070249503,0.006414085,85.138145,15.292607,-36.373558
5203964221000.0,-5.861771940039254,-2.1134105598626105,7.208271875858685,0.00061086525,0.005497787,0.009468411,85.203316,15.194905,-36.388702
5203969241000.0,-5.861006,-2.099995205576841,7.231934542464879,0.003970624,0.003970624,0.015271631,85.26604,15.100003,-36.407703
5203974167000.0,-5.861006,-2.079911951809281,7.257038426181354,0.004276057,0.0015271631,0.0125227375,85.32837,15.009978,-36.42497
5203979193000.0,-5.874005462704192,-2.073833785435938,7.263552814564062,-0.0012217305,-0.009162978,0.005497787,85.39795,14.920435,-36.442265
5203989240000.0,-5.885510419507874,-2.072815868740157,7.273022068740158,0.005192355,-0.006414085,0.005497787,85.46519,14.831277,-36.462315
5203994189000.0,-5.880845597322835,-2.077480788346457,7.277686988346456,-0.0033597588,-0.003970624,0.007941248,85.53235,14.73869,-36.48728
5203999193000.0,-5.888370829075597,-2.061744141848807,7.266056142129536,0.0125227375,-0.0030543262,0.0125227375,85.60407,14.633712,-36.52177
5204004154000.0,-5.897897699899739,-2.042690400200521,7.251765935371967,0.011911872,0.00030543262,0.009773844,85.67606,14.539434,-36.555935
5204009171000.0,-5.910798719409677,-2.036031226863441,7.280271425182141,-0.0021380284,0.0036651916,0.009468411,85.74699,14.442938,-36.599827
5204014279000.0,-5.924506442480852,-2.031461985839716,7.316825162525687,0.003970624,-0.0021380284,0.0033597588,85.818436,14.347684,-36.639843
5204019187000.0,-5.921791289979996,-2.0490395911984,7.335635328241499,0.0036651916,-0.002443461,0.0061086523,85.88468,14.254951,-36.685444
5204024150000.0,-5.913148052645936,-2.074969664211675,7.348600409874523,0.008246681,-0.0036651916,0.0067195175,85.95134,14.1650095,-36.726982
5204029243000.0,-5.898003758832368,-2.095908638248551,7.341379869585748,0.006414085,-0.0018325958,0.0070249503,86.02038,14.067912,-36.780613
5204034219000.0,-5.877546834342133,-2.1112512515132003,7.315808847477999,0.0061086523,-0.00061086525,0.009162978,86.08683,13.973076,-36.83209
5204039193000.0,-5.864912541756919,-2.114584393742479,7.301433581227436,0.007941248,-0.004886922,0.009773844,86.15995,13.884382,-36.882084
5204044175000.0,-5.856300276462094,-2.111713658628158,7.292821375884476,0.007330383,-0.005192355,0.0143553335,86.23008,13.79897,-36.932236
5204050806000.0,-5.844837423959086,-2.107892734392298,7.281358603176895,0.009162978,-0.0018325958,0.006414085,86.31122,13.720466,-36.979397
5204054186000.0,-5.840358028708947,-2.108391602491506,7.284349209966025,0.010995574,0.0021380284,0.008552114,86.385864,13.642933,-37.02627
5204059160000.0,-5.83586255792752,-2.112887167157418,7.302331468629672,0.009162978,0.002443461,0.005192355,86.46355,13.571482,-37.070347
5204064378000.0,-5.8322754,-2.1164744,7.31208374209515,0.008552114,0.004276057,0.0061086523,86.53944,13.500057,-37.116447
5204069270000.0,-5.8322754,-2.1164744,7.294079858611944,0.0061086523,0.00580322,0.004581489,86.6158,13.433545,-37.160507
5204074194000.0,-5.8322754,-2.1164744,7.275958206471447,0.00061086525,-0.0015271631,0.009468411,86.688446,13.369344,-37.19895
5204079223000.0,-5.8322754,-2.108202470302577,7.274311019798282,0.013439035,0.0076358155,0.015271631,86.76174,13.304483,-37.24089
5204084215000.0,-5.8322754,-2.094808544564811,7.28324030362346,0.011911872,0.008246681,0.008857546,86.83451,13.248028,-37.276592
5204089264000.0,-5.840284243475251,-2.0845404291588783,7.295958843475251,0.0018325958,0.008857546,0.003970624,86.90533,13.191999,-37.319702
5204095167000.0,-5.859852208307373,-2.076713161495327,7.315526808307373,0.0015271631,0.00061086525,0.004886922,86.974174,13.13676,-37.359024
5204099177000.0,-5.873145032121841,-2.0713959764485983,7.328819632121841,0.005497787,-0.002443461,0.007330383,87.03563,13.085505,-37.394676
5204104222000.0,-5.877381302822621,-2.0685902,7.319165416935723,0.0125227375,0.0027488936,0.005192355,87.09717,13.036447,-37.42886
5204109224000.0,-5.87263700713083,-2.0685902,7.290699642784985,0.009162978,0.005497787,0.008857546,87.15417,12.989447,-37.461094
5204114239000.0,-5.8705826,-2.073898485622568,7.2783732,0.01282817,0.0021380284,0.010079277,87.20655,12.940323,-37.489838
5204119211000.0,-5.8705826,-2.083162366322957,7.2783732,0.005497787,0.0012217305,0.005192355,87.259315,12.89682,-37.518753
5204124164000.0,-5.860959497985496,-2.087744,7.1725190024778405,0.008246681,0.0036651916,0.007941248,87.309525,12.852705,-37.546574
5204129225000.0,-5.841431623368251,-2.087744,6.9577122287570505,0.0061086523,0.008552114,0.005192355,87.36244,12.814901,-37.573074
5204134216000.0,-5.840912004340338,-2.100698906510506,6.984383636565622,-0.0015271631,0.007941248,0.015271631,87.412926,12.777261,-37.59949
5204139229000.0,-5.857449551153978,-2.125505226730968,7.228312495237685,0.0012217305,0.0036651916,0.013133603,87.46765,12.742084,-37.624126
5204144289000.0,-5.8731140471337575,-2.137610440976645,7.455777681316348,0.006414085,0.0009162979,0.004581489,87.5323,12.720701,-37.654182
5204149246000.0,-5.884743688878001,-2.102721434786869,7.610839814110729,-0.0015271631,0.0015271631,0.0009162979,87.59473,12.702329,-37.683212
5204154218000.0,-5.896408522195003,-2.06772685363384,7.766371168610158,0.0033597588,0.005497787,0.01160644,87.64023,12.673989,-37.69457
5204159218000.0,-5.887386248862038,-2.07988538573202,7.712664671555077,-0.0067195175,-0.0027488936,0.0076358155,87.690025,12.655207,-37.70096
5204169189000.0,-5.867359055583475,-2.1133449893255603,7.53045227697256,0.0033597588,0.00061086525,0.008857546,87.73498,12.629137,-37.71253
5204174250000.0,-5.886845609709519,-2.07437157585687,7.598655775977486,0.005192355,-0.0009162979,-0.00061086525,87.76225,12.593614,-37.709084
5204179145000.0,-5.892583223565168,-2.0539231254311563,7.539102371847611,0.0018325958,-0.006414085,0.0036651916,87.79891,12.5692215,-37.71494
5204184166000.0,-5.872190823155217,-2.067518082697201,7.226419738804071,0.0015271631,-0.01160644,0.009162978,87.83753,12.546282,-37.71961
5204189226000.0,-5.8516400272830085,-2.0812186371218546,6.911308381863161,0.01038471,-0.007330383,0.005497787,87.86371,12.513226,-37.725967
5204194265000.0,-5.85444700110055,-2.09026300022011,6.975340797618809,0.009773844,-0.00030543262,0.005192355,87.88607,12.481959,-37.732185
5204199246000.0,-5.878309952976489,-2.0950355905952973,7.3810111290145075,0.010079277,0.005192355,0.008552114,87.908226,12.449714,-37.738968
5204209216000.0,-5.895935141918416,-2.0539275833247994,7.556656962621608,0.013439035,-0.004276057,0.004276057,87.964005,12.441404,-37.770935
5204214215000.0,-5.901814610889073,-2.030908405987482,7.534015480250359,0.0015271631,-0.002443461,0.007330383,88.01681,12.435264,-37.807175
5204224148000.0,-5.93050803001282,-2.0380817982203454,7.390547635593093,0.011911872,0.0067195175,0.016798794,88.03693,12.410158,-37.816235
5204229178000.0,-5.93762,-2.0422421716361523,7.347840435338565,0.01160644,0.0070249503,0.011301007,88.0522,12.386535,-37.82924
5204234171000.0,-5.93762,-2.0468742516904,7.333944098440376,0.0070249503,0.0036651916,0.008857546,88.063385,12.36028,-37.844135
5204239216000.0,-5.93762,-2.0494366,7.30162867942129,0.009773844,0.005497787,0.01160644,88.077934,12.340074,-37.867268
5204244244000.0,-5.93762,-2.0494366,7.247388120564629,0.010079277,-0.0009162979,0.0067195175,88.09457,12.323937,-37.885685
5204249209000.0,-5.93762,-2.0494366,7.193827186848775,0.008552114,-0.0067195175,0.0067195175,88.11294,12.306464,-37.90891
5204254182000.0,-5.934827894772118,-2.0494366,7.15906768230563,0.003970624,0.0018325958,0.003970624,88.134415,12.291693,-37.93295
5204259188000.0,-5.930237655438529,-2.0494366,7.136116006319418,0.014966198,-0.0015271631,0.0036651916,88.15293,12.274018,-37.95157
5204269200000.0,-5.906936764420018,-2.0564721451933274,7.068859771131039,0.01282817,0.010079277,0.007330383,88.178154,12.263554,-37.98171
5204274182000.0,-5.897266946158268,-2.05287536666028,7.03420752220732,0.004276057,0.004276057,0.008246681,88.202,12.253244,-38.005005
5204279180000.0,-5.892681216516574,-2.039118465031615,7.002108085073769,0.0012217305,0.0061086523,0.009162978,88.22921,12.242497,-38.033844
5204284181000.0,-5.879249762522926,-2.032030712329325,6.983239748828205,0.009162978,0.008246681,0.010079277,88.25865,12.234756,-38.05942
5204289267000.0,-5.849471424271449,-2.036993785979213,6.988202926125943,0.0030543262,0.0061086523,-0.00061086525,88.29109,12.233188,-38.082645
5204294188000.0,-5.837940427867223,-2.043636458954482,7.000510647386206,-0.008857546,0.0009162979,0.0018325958,88.321266,12.225121,-38.11107
5204299205000.0,-5.852265752872192,-2.0531866091433115,7.024386022858279,-0.00580322,0.0027488936,0.008857546,88.35349,12.216729,-38.13942
5204304190000.0,-5.854253173202374,-2.0590134,7.057860957340761,-0.0018325958,0.0033597588,0.008246681,88.38284,12.214273,-38.165665
5204309182000.0,-5.836732325295023,-2.0590134,7.106919441251924,0.004276057,0.005497787,0.007330383,88.40977,12.2098255,-38.192432
5204314247000.0,-5.818955263065308,-2.0590134,7.156695326870923,0.007330383,0.005497787,0.009162978,88.43206,12.207668,-38.217205
5204319177000.0,-5.813122,-2.0694658157301493,7.193933249603407,0.0076358155,0.0015271631,0.007330383,88.45543,12.205908,-38.24028
5204324215000.0,-5.813122,-2.085579423578525,7.226160339108291,-0.0070249503,-0.005192355,0.004886922,88.47775,12.20689,-38.261856
5204329190000.0,-5.816097452307203,-2.09632896875546,7.261544954221269,0.003970624,0.0015271631,0.0027488936,88.50009,12.197423,-38.28457
5204334183000.0,-5.827490422682869,-2.0925312590898257,7.30711739089826,0.0018325958,-0.002443461,0.004276057,88.519966,12.194221,-38.301914
5204339205000.0,-5.838949564927329,-2.088711491827496,7.3529545182749585,-0.0009162979,-0.0033597588,0.0106901415,88.539925,12.190592,-38.32176
5204344183000.0,-5.844780896022447,-2.087744,7.379208574286186,-0.0009162979,0.003970624,0.01160644,88.56141,12.187863,-38.34179
5204349200000.0,-5.848745890988613,-2.087744,7.399033135104802,0.00030543262,0.007941248,0.011301007,88.58034,12.184833,-38.360374
5204354187000.0,-5.854323952169373,-2.0920864282540585,7.425475684762175,0.0027488936,0.00580322,0.013744468,88.59378,12.177593,-38.37515
5204359172000.0,-5.863388862071584,-2.1056837931073766,7.466267779322131,0.0067195175,0.0018325958,0.0070249503,88.61052,12.171835,-38.389156
5204364254000.0,-5.868935639053073,-2.1172978804734632,7.505227443787705,-0.0070249503,-0.0030543262,0.008552114,88.616165,12.17021,-38.396603
5204369267000.0,-5.861603298709431,-2.1209640506452843,7.534556805162276,-0.00061086525,0.005497787,0.01282817,88.62399,12.164178,-38.406082
5204374200000.0,-5.854387971576938,-2.1245717142115312,7.563418113692249,0.0015271631,0.003970624,0.007330383,88.63546,12.164233,-38.40608
5204379235000.0,-5.845635021572764,-2.1144632431455257,7.581047978427237,0.0021380284,0.011911872,0.008552114,88.64468,12.161369,-38.411743
5204384166000.0,-5.836149594074521,-2.0954923881490406,7.59053340592548,0.005497787,0.0067195175,0.01038471,88.65397,12.158471,-38.412884
5204389171000.0,-5.8322754,-2.087744,7.5944076,0.009468411,0.007330383,0.0067195175,88.66505,12.156903,-38.407204
5204394263000.0,-5.8322754,-2.087744,7.5944076,0.0033597588,0.006414085,0.008246681,88.67284,12.155673,-38.40043
5204399234000.0,-5.833778881794196,-2.086240502506596,7.59140063641161,-0.0009162979,0.007330383,0.00030543262,88.68707,12.148006,-38.39622
5204404231000.0,-5.841670581926122,-2.0783487199703163,7.575617236147758,-0.004886922,0.005192355,0.004276057,88.69596,12.139525,-38.392067
5204409137000.0,-5.849418566886544,-2.0706006541062005,7.560121266226913,-0.006414085,0.011301007,0.0070249503,88.71192,12.133159,-38.38451
5204414257000.0,-5.851429,-2.075109236415111,7.52024607410422,-0.006414085,0.008552114,0.005497787,88.72663,12.127679,-38.37421
5204419261000.0,-5.851429,-2.0835888980270725,7.4736084222241885,0.0018325958,0.0067195175,0.0070249503,88.73972,12.119936,-38.36654
5204424286000.0,-5.848782209344791,-2.087744,7.434875242986036,0.005497787,0.0106901415,0.00580322,88.751785,12.114206,-38.36
5204429221000.0,-5.843705679269603,-2.087744,7.404416804640172,-0.0036651916,0.0061086523,0.00061086525,88.76345,12.110219,-38.35066
5204434215000.0,-5.850673477029627,-2.084803466717968,7.372711574066949,0.0036651916,0.0070249503,0.004581489,88.77507,12.106931,-38.3443
5204439218000.0,-5.86449987100808,-2.080194604559446,7.340450020200077,0.0015271631,0.015271631,0.017715093,88.7853,12.107088,-38.33927
5204444182000.0,-5.862052394197292,-2.069636794197292,7.292136243592843,0.011301007,0.01282817,-0.00061086525,88.80595,12.110154,-38.32702
5204449237000.0,-5.846446100193424,-2.054030500193424,7.229711189796905,0.004276057,0.019242255,0.0070249503,88.81429,12.110387,-38.322685
5204454310000.0,-5.831847777331978,-2.040715045336045,7.167041769252103,0.004886922,0.02443461,0.004581489,88.83592,12.111633,-38.316143
5204459190000.0,-5.827527283294814,-2.0493560334103726,7.106554717389295,0.0030543262,0.026572637,-0.00061086525,88.85581,12.114192,-38.31107
5204464211000.0,-5.823081955311085,-2.0582466893778317,7.044319986364057,0.005192355,0.041233405,-0.00030543262,88.87267,12.117698,-38.310402
5204469219000.0,-5.809956985517642,-2.063260575261729,7.009222684470725,0.0033597588,0.04428773,-0.006414085,88.892395,12.124576,-38.30638
5204479223000.0,-5.782548327272727,-2.0533637577062938,6.9871416422937065,-0.0030543262,0.063224554,-0.032070424,88.921555,12.135496,-38.309334
5204484136000.0,-5.769387442424242,-2.0358156669277387,7.004689733072261,-0.0106901415,0.06811147,-0.03176499,88.94907,12.147872,-38.31533
5204489237000.0,-5.743901174193549,-2.030283,7.025462898924731,-0.0012217305,0.07574729,-0.043066,88.995125,12.167069,-38.32324
5204494223000.0,-5.713950325806452,-2.030283,7.046856234408602,-0.0012217305,0.08155051,-0.04337143,89.036896,12.187781,-38.332584
5204499204000.0,-5.679571486147186,-2.034940116305916,7.069749190764791,0.011301007,0.07788532,-0.05681047,89.08365,12.20205,-38.33846
5204504180000.0,-5.640277088126159,-2.044763690166976,7.094308125417439,0.026267206,0.08246681,-0.07666359,89.13347,12.216952,-38.34736
5204509175000.0,-5.612785413356643,-2.0428366444755244,7.116990463706293,0.030848695,0.084910266,-0.087964594,89.185165,12.231345,-38.344276
5204514217000.0,-5.595902029545455,-2.0301741727272726,7.138094847727273,0.03604105,0.09315695,-0.0983493,89.24364,12.245785,-38.34269
5204519158000.0,-5.581050506564703,-2.0207062,7.157216263412455,0.03940081,0.09132435,-0.10995574,89.303696,12.264786,-38.329243
5204524309000.0,-5.571252198550005,-2.0207062,7.171913827748535,0.055588737,0.09743301,-0.1255328,89.36939,12.282355,-38.31949
5204529164000.0,-5.567604806559528,-2.0207062,7.185215441292226,0.058643065,0.099571034,-0.13469578,89.42831,12.30013,-38.306683
5204534223000.0,-5.583495027664808,-2.0207062,7.197133044899967,0.062308256,0.1142318,-0.14660765,89.49446,12.317533,-38.297993
5204539220000.0,-5.599190507969826,-2.0207062,7.208904593670056,0.06291912,0.10781772,-0.15760323,89.55741,12.336687,-38.283573
5204544231000.0,-5.679303145725264,-2.039008835542748,7.255261910634005,0.06658431,0.11026118,-0.17654006,89.62858,12.357944,-38.274357
5204549159000.0,-5.774508223919308,-2.061676688760807,7.309664616340058,0.08002335,0.124005646,-0.18936823,89.70083,12.377732,-38.266453
5204554225000.0,-5.839095694733851,-2.081517768308392,7.339184568308392,0.07666359,0.13225232,-0.20066923,89.77677,12.402617,-38.257397
5204559172000.0,-5.888455584390983,-2.099466878727032,7.357133678727031,0.08124508,0.15485434,-0.2134974,89.8593,12.425371,-38.25518
5204564230000.0,-5.941269772816625,-2.1284841715622957,7.386151027913507,0.08246681,0.16432275,-0.22479841,89.94226,12.452857,-38.258762
5204569200000.0,-5.99473404886268,-2.164127115304689,7.421794064700927,0.08032878,0.18600847,-0.23090707,90.030045,12.481405,-38.271027
5204574217000.0,-6.0238113,-2.1739979009552437,7.46734272270044,0.08246681,0.21227567,-0.23457226,90.12574,12.511315,-38.29086
5204579186000.0,-6.0238113,-2.153567668391113,7.523525755586562,0.0729984,0.22388211,-0.24220806,90.224205,12.546027,-38.311115
5204584192000.0,-6.037076703430276,-2.1398986386278898,7.578360679045489,0.054367006,0.22235495,-0.24281894,90.32617,12.587008,-38.337067
5204589438000.0,-6.060492015137957,-2.130532513944817,7.634557622744222,0.034208454,0.23426682,-0.2489276,90.43369,12.632578,-38.367775
5204594167000.0,-6.088057958257941,-2.1096885630991338,7.651218978633302,0.0027488936,0.2302962,-0.26236662,90.532364,12.679819,-38.390797
5204599191000.0,-6.125104373349375,-2.0726421963618864,7.628065059865255,-0.01038471,0.23304509,-0.27091873,90.63192,12.727293,-38.417778
5204604244000.0,-6.160201524243835,-2.057930530684039,7.601670075756165,-0.020158553,0.23273966,-0.28130344,90.72385,12.780273,-38.44192
5204609170000.0,-6.190934813029316,-2.0798828405211727,7.570936786970684,-0.028099801,0.22693644,-0.3032946,90.82127,12.83869,-38.462692
5204614212000.0,-6.214214977575185,-2.1007197962904747,7.536326611128576,-0.027794369,0.23243423,-0.31795537,90.9139,12.888517,-38.498566
5204619193000.0,-6.209216231164204,-2.115715722351462,7.491338832945615,-0.023823744,0.24465153,-0.33017266,91.0122,12.942186,-38.53185
5204624185000.0,-6.213286469243935,-2.136572856941508,7.446804523970603,-0.008857546,0.25045475,-0.33536503,91.11917,12.999668,-38.567516
5204629183000.0,-6.237380321252391,-2.170304249753348,7.403435489721131,-0.0070249503,0.27763826,-0.34147367,91.23281,13.060805,-38.609867
5204634178000.0,-6.267324987166928,-2.1930888,7.354395480603448,-0.0033597588,0.28710666,-0.35796702,91.35933,13.122021,-38.656776
5204639268000.0,-6.310302278507053,-2.1930888,7.292317226293103,0.005192355,0.31245756,-0.37904188,91.4925,13.183167,-38.712578
5204644199000.0,-6.339846,-2.202973143589333,7.238660396011852,0.022907447,0.32345316,-0.39492437,91.63757,13.251007,-38.7681
5204649223000.0,-6.339846,-2.2376511758468807,7.200129249059021,0.030543262,0.33261612,-0.40866885,91.78981,13.321993,-38.82615
5204654211000.0,-6.339846,-2.2720807190197805,7.161874201089133,0.024740042,0.35308012,-0.42638394,91.95546,13.396443,-38.892307
5204659183000.0,-6.336740449133377,-2.291702300751073,7.122818972482667,0.033292156,0.35613444,-0.43493605,92.11959,13.466381,-38.95332
5204664222000.0,-6.332757534697921,-2.3076340832618025,7.082989162693958,0.020158553,0.36468655,-0.44806966,92.29212,13.545871,-39.016926
5204669213000.0,-6.31640439869403,-2.327985843843284,7.037309057089552,0.020158553,0.37751472,-0.46486846,92.481346,13.631777,-39.08456
5204674230000.0,-6.278661474194816,-2.356293221956009,6.980694694972506,0.013133603,0.37384954,-0.4859433,92.67329,13.724501,-39.145756
5204679236000.0,-6.248929140090949,-2.382137026873992,6.929007333915211,-0.009773844,0.376293,-0.50732356,92.8815,13.826597,-39.21742
5204684224000.0,-6.234914521050316,-2.4031590651899664,6.886963220698254,-0.023823744,0.37507126,-0.51923543,93.090225,13.929525,-39.28311
5204690148000.0,-6.218270053689306,-2.4281258965820744,6.83702951446384,-0.030848695,0.37384954,-0.5369505,93.31985,14.046899,-39.345455
5204694264000.0,-6.2987399118390455,-2.4622918700839147,6.866981031109089,-0.041233405,0.37415496,-0.559858,93.55255,14.16995,-39.40351
5204699332000.0,-6.436135948640178,-2.511361956425033,6.930772143352542,-0.061086524,0.36713,-0.5696318,93.78279,14.296032,-39.456135
5204704223000.0,-6.603515931240658,-2.573283696801196,7.003769379521674,-0.070249505,0.37507126,-0.58276546,94.03853,14.42984,-39.51675
5204709222000.0,-6.794345968858994,-2.644844917319382,7.0848722389138015,-0.07819075,0.36377025,-0.59681535,94.29152,14.5680895,-39.566425
5204714232000.0,-6.944809756857447,-2.696378810325063,7.140017435855236,-0.06719518,0.37995818,-0.6267477,94.56839,14.707379,-39.629833
5204719382000.0,-7.074037522353231,-2.736762392164088,7.180401059862442,-0.058948494,0.39645153,-0.63316184,94.836945,14.845504,-39.688175
5204724331000.0,-7.197108621881087,-2.774831881625081,7.214903136156201,-0.05222898,0.40011674,-0.6606508,95.13177,14.993685,-39.746716
5204729183000.0,-7.313479888182914,-2.8093124051757723,7.232143375428995,-0.038789943,0.4269948,-0.6719518,95.42397,15.135102,-39.813522
5204734569000.0,-7.444301293571121,-2.850978822163095,7.2404360018840785,-0.029626964,0.43951756,-0.6881397,95.733894,15.279925,-39.88766
5204739245000.0,-7.573112349403135,-2.9186045558607794,7.147047882165971,-0.019242255,0.45051312,-0.7134906,96.04972,15.423929,-39.962646
5204744242000.0,-7.710766080368186,-2.9908726891557604,7.047248815820509,-0.010079277,0.47586402,-0.7706065,96.38768,15.57671,-40.045345
5204749159000.0,-7.813659927245814,-3.057598194236285,6.958727075381626,0.015882496,0.52106804,-0.8396343,96.73811,15.729185,-40.128498
5204754208000.0,-7.8091865011009345,-3.111279401396984,6.900572628920344,0.04153884,0.5549711,-0.9080512,97.105354,15.888949,-40.205544
5204759255000.0,-7.785621015150218,-3.157867463810665,6.854145262261405,0.06505715,0.5870415,-0.9755518,97.53059,16.073624,-40.303074
5204764221000.0,-7.561730458752033,-3.1293723237267828,6.931489128905247,0.08155051,0.6065892,-1.0598512,97.98282,16.268572,-40.392723
5204769220000.0,-7.336352107677822,-3.10068782810066,7.00934696002739,0.12767084,0.61391956,-1.1151345,98.465355,16.469585,-40.48154
5204774219000.0,-7.347005937444509,-3.0967403404555105,6.998491307566107,0.16523905,0.6081163,-1.1520919,98.965034,16.679253,-40.560028
5204779211000.0,-7.439280277687705,-3.101354062285273,6.956967907450299,0.20738874,0.6218608,-1.2165382,99.49043,16.892078,-40.631813
5204784208000.0,-7.4939644350605406,-3.064396753666241,7.012945837030909,0.25778514,0.6423248,-1.2950343,100.01996,17.09818,-40.66282
5204789242000.0,-7.530220441076935,-3.006387068323682,7.118088368052944,0.32589662,0.6582073,-1.3472633,100.55597,17.29766,-40.68803
5204794356000.0,-7.568528600765306,-2.950304589852608,7.227911874468537,0.3707952,0.65270954,-1.3997977,101.11859,17.502747,-40.713367
5204799184000.0,-7.640609901785714,-2.966686672619048,7.404838470982143,0.42455134,0.6020077,-1.4172074,101.67398,17.693844,-40.725113
5204804081000.0,-7.713721362244898,-2.983302882086168,7.584293637329932,0.45814893,0.5702427,-1.4709635,102.22775,17.873177,-40.728283
5204809052000.0,-7.796193638754752,-2.992965125500873,7.728146688585225,0.52748215,0.58276546,-1.5580118,102.78926,18.043398,-40.721043
5204814150000.0,-7.926614547621494,-2.9628680168601664,7.66293628653036,0.5561928,0.59803706,-1.6401732,103.35414,18.224174,-40.69805
5204819079000.0,-8.0189447493991,-2.930450857613126,7.550439099425227,0.58246,0.6041457,-1.724778,103.93028,18.393723,-40.660152
5204824060000.0,-7.989034284251228,-2.8855853160518343,7.256320132762044,0.6044512,0.6392705,-1.7602082,104.514755,18.564665,-40.62806
5204829064000.0,-7.9409682989130435,-2.844519879076087,6.933764057880435,0.6206391,0.6762278,-1.8014416,105.11966,18.741709,-40.601906
5204834056000.0,-7.85042417243083,-2.813026171566205,6.547966356694664,0.63804877,0.70554936,-1.8387043,105.72964,18.920048,-40.576614
5204839081000.0,-7.759281497035573,-2.781324272480237,6.159618310128459,0.66767573,0.74464476,-1.8677205,106.37614,19.099512,-40.581215
5204844079000.0,-7.533726945370279,-2.8348651652499752,5.665727827324721,0.6973027,0.79076505,-1.8594738,107.018845,19.275307,-40.59167
5204849060000.0,-7.289125021102455,-2.900719525697663,5.157708510383591,0.75594574,0.8341365,-1.8585575,107.67003,19.446133,-40.603313
5204854100000.0,-6.818435151062943,-3.029720073405586,4.754415407961651,0.8127562,0.84665924,-1.8277088,108.34719,19.616085,-40.64381
5204859098000.0,-6.309658751396416,-3.1693841729053776,4.375327264380992,0.8784242,0.82802784,-1.7705929,109.00842,19.766897,-40.686745
5204864157000.0,-5.787130332964042,-3.323091701342597,4.301414187343911,0.9388999,0.7770206,-1.7073684,109.71433,19.941952,-40.736233
5204869119000.0,-5.274050588226458,-3.4747848072105905,4.2523370676931735,1.0027353,0.6792821,-1.6200147,110.373795,20.086899,-40.775627
5204874115000.0,-4.820131740166206,-3.6562709451523543,4.3324041806094185,1.0577132,0.54336464,-1.5289958,111.05723,20.267372,-40.769264
5204879125000.0,-4.3805126737907525,-3.8454093875133175,4.444864642360964,1.1029172,0.4266894,-1.4321736,111.68789,20.41859,-40.752254
5204884122000.0,-4.20753359442736,-3.84294301455596,4.667847583170254,1.142318,0.310625,-1.3298537,112.2843,20.602547,-40.641953
5204889139000.0,-4.055302404836455,-3.825033479340229,4.900671727984345,1.1557571,0.20952678,-1.2238685,112.82084,20.762941,-40.518497
5204894161000.0,-4.162409862697674,-3.7510704686511622,5.173114754418605,1.1502593,0.12736541,-1.1264355,113.32347,20.949581,-40.31751
5204899117000.0,-4.3390151682480615,-3.662767815875969,5.452739702015504,1.1392636,0.049480084,-1.0531317,113.77486,21.118517,-40.105927
5204904173000.0,-4.5387050808396605,-3.5903187523894595,5.719907004466279,1.1218541,-0.011301007,-0.96577793,114.169464,21.252237,-39.87703
5204909222000.0,-4.7417069021884775,-3.521211720589549,5.983377309513176,1.0818423,-0.008552114,-0.8915578,114.53685,21.381483,-39.65755
5204914223000.0,-4.958856292191436,-3.4985497652392947,6.219978958438287,1.0451905,-0.021380283,-0.8304713,114.82723,21.452225,-39.43506
5204919233000.0,-5.186065471032745,-3.503383998790932,6.442353954206549,1.0027353,-0.02107485,-0.7788532,115.09599,21.520758,-39.230892
5204924179000.0,-5.445734494273443,-3.629513739298497,6.584006597888332,0.9837985,-0.024129177,-0.76083267,115.320564,21.539246,-39.045643
5204929182000.0,-5.728683779080172,-3.826720933249821,6.682610239629564,0.9639453,-0.002443461,-0.7467828,115.53172,21.55905,-38.878357
5204934182000.0,-5.925990776941601,-3.930399933293197,6.717299681908489,0.9254609,0.030848695,-0.7144069,115.72187,21.553333,-38.737713
5204939221000.0,-5.993781658438692,-3.891662228938391,6.654350760646198,0.88147855,0.07849618,-0.6844745,115.91222,21.5527,-38.61203
5204944245000.0,-5.98991672215058,-3.8868137214562046,6.582005877720464,0.8530733,0.15851954,-0.67164636,116.148224,21.566917,-38.52322
5204949252000.0,-5.88527216051979,-3.929622900942367,6.496387568415832,0.84207773,0.22632557,-0.6462954,116.37318,21.580147,-38.451313
5204954180000.0,-5.69129960060148,-4.018064194524984,6.476612534546576,0.8249735,0.2764165,-0.6230826,116.60888,21.581532,-38.40335
5204959183000.0,-5.351387918082973,-4.180630637962677,6.557895852714374,0.83169305,0.30634892,-0.61727935,116.84609,21.580708,-38.368954
5204964233000.0,-5.008282981701111,-4.344724289643739,6.639942775909932,0.84513205,0.34147367,-0.5705481,117.09018,21.582582,-38.342262
5204969169000.0,-4.881937668006304,-4.193785772645784,6.816310167651694,0.84116143,0.3549127,-0.54336464,117.335594,21.591236,-38.3157
5204974184000.0,-4.806243969030733,-3.9619736713356977,7.019736786052009,0.82802784,0.35460728,-0.50426924,117.56145,21.589798,-38.301983
5204979193000.0,-4.92277081766522,-3.7835778906512303,7.276306006657019,0.7965683,0.3408628,-0.47494772,117.8378,21.638731,-38.22842
5204984143000.0,-5.096567060791124,-3.623502483994211,7.546147627496382,0.77121735,0.30879238,-0.47250426,118.102776,21.688196,-38.152397
5204989256000.0,-5.3757344671532845,-3.4275881496350364,7.842985109489051,0.7443393,0.24862215,-0.47861293,118.30348,21.681557,-38.060738
5204994236000.0,-5.691363571386861,-3.223357501459854,8.140047562043796,0.7128797,0.20005837,-0.49266282,118.49982,21.68454,-37.96482
5204999192000.0,-6.050859526201696,-3.176651200716305,8.291642326107446,0.67347896,0.17073683,-0.5323691,118.65605,21.638361,-37.871437
5205004203000.0,-6.439840408435439,-3.217358420518379,8.364011367577758,0.6236934,0.14844026,-0.56230146,118.805305,21.604834,-37.769463
5205009186000.0,-6.732677713580617,-3.3302172872071,8.234433711436834,0.58001655,0.17440203,-0.6062838,118.90385,21.514175,-37.691235
5205014281000.0,-6.941884387974873,-3.5150977624289563,7.90846019383787,0.5299256,0.2302962,-0.63255095,119.00765,21.441967,-37.61646
5205019204000.0,-7.003179793694045,-3.686735144939665,7.561653206305955,0.47403142,0.2687807,-0.6414085,119.11976,21.36602,-37.576023
5205024218000.0,-6.933087235500195,-3.854957382191514,7.178480164499805,0.47647488,0.3390302,-0.6704246,119.26024,21.30092,-37.5531
5205029178000.0,-6.755328245279773,-3.963140980066781,6.838503685642012,0.48838675,0.4083634,-0.66981375,119.457985,21.275143,-37.56606
5205034170000.0,-6.445738528149347,-4.001839663138723,6.543426025174543,0.48899764,0.48655418,-0.6533204,119.66913,21.256063,-37.59643
5205039382000.0,-6.2110160354403545,-3.9921251314961137,6.395659912764181,0.5155703,0.5155703,-0.6249151,119.94265,21.276615,-37.633152
5205044182000.0,-6.07813299824629,-3.936018999293377,6.41042468439648,0.54611355,0.49418998,-0.59315014,120.20826,21.293476,-37.676594
5205049169000.0,-5.940073059394874,-3.8777270656902414,6.42576466692362,0.6087272,0.42577308,-0.54336464,120.49881,21.320814,-37.70288
5205054174000.0,-5.851429,-3.8402996,6.435614,0.62888575,0.36071593,-0.48502702,120.76701,21.344137,-37.727123
5205059218000.0,-5.851429,-3.8402996,6.435614,0.657291,0.27366763,-0.43585235,121.00144,21.345884,-37.731747
5205064262000.0,-6.208999017455392,-3.74802343227308,6.523276412335144,0.68752885,0.1853976,-0.4083634,121.20195,21.327301,-37.703712
5205069200000.0,-6.9198205738944925,-3.564585543289372,6.697542512218774,0.70249504,0.1020145,-0.40469822,121.376976,21.303272,-37.65816
5205074321000.0,-7.471810495791419,-3.461613535618969,6.819271464483679,0.69913524,0.06261369,-0.42424592,121.546936,21.271685,-37.59952
5205079183000.0,-7.768142957708889,-3.471172640854034,6.862287338226237,0.6927212,0.047647487,-0.44348818,121.7034,21.239292,-37.528004
5205084164000.0,-7.964460867596839,-3.543931438306176,6.90315641104498,0.70005155,0.03268129,-0.4801401,121.80167,21.129469,-37.52745
5205089244000.0,-8.040410064591667,-3.691082914547761,6.941130959976583,0.70432764,-0.0033597588,-0.514654,121.89846,21.028711,-37.515553
5205094205000.0,-8.038100179516277,-3.851169589715583,6.953682004028654,0.7281514,-0.031154128,-0.539394,121.999084,20.91009,-37.526363
5205099177000.0,-7.933405354918788,-4.033541308390666,6.933418538506277,0.74036866,-0.029321533,-0.5531385,122.105705,20.801352,-37.53244
5205104171000.0,-7.828247278885027,-4.216719981573162,6.913065411632031,0.7351763,-0.009773844,-0.5571091,122.246994,20.713509,-37.532608
5205109176000.0,-7.58024901311609,-4.409619183022404,7.01240012499389,0.73548174,-0.016187929,-0.54733527,122.383286,20.625128,-37.52679
5205114435000.0,-7.219184281466394,-4.618872586598778,7.201138587291243,0.7528914,-0.04428773,-0.52656585,122.5157,20.536049,-37.521328
5205119207000.0,-6.903502104313129,-4.823983085483564,7.344042597187916,0.7486154,-0.06841691,-0.50946164,122.70303,20.50225,-37.486298
5205124275000.0,-6.636064716891507,-5.128308300418013,7.334820435683071,0.74372846,-0.08032878,-0.47708577,122.87365,20.460037,-37.45247
5205129418000.0,-6.372812941829704,-5.406918116205941,7.286478182827722,0.74036866,-0.06627888,-0.43127087,123.07589,20.465635,-37.349785
5205134221000.0,-6.208861842534653,-5.363197805306931,6.84927530209901,0.7189884,-0.01863139,-0.39920044,123.27199,20.474033,-37.257656
5205139224000.0,-6.038083714328713,-5.317656952625743,6.393867013053465,0.73823065,0.04642576,-0.3866777,123.536995,20.532192,-37.133957
5205144406000.0,-5.86202089540636,-5.212050257597173,6.017314239575971,0.77549344,0.116980694,-0.38148534,123.797485,20.58639,-37.029484
5205149278000.0,-5.697150841413428,-5.066022423816254,5.739390372438162,0.8005389,0.15302174,-0.3820962,124.0556,20.637846,-36.935474
5205154223000.0,-5.542329124137931,-4.962106793103448,5.461421565517242,0.83169305,0.172264,-0.37782016,124.35536,20.69709,-36.874393
5205159226000.0,-5.39611999871834,-4.8938759696877225,5.183624023659852,0.870483,0.18600847,-0.37782016,124.65637,20.750431,-36.82038
5205164210000.0,-5.340441178784481,-4.848592016147118,5.00453326239067,0.91782504,0.17348573,-0.3811799,124.95374,20.787643,-36.773598
5205169257000.0,-5.351280928967631,-4.819686179150781,4.896136552866861,0.96974856,0.15057829,-0.3912592,125.2494,20.817707,-36.72634
5205174158000.0,-5.361807106032743,-4.791616532406369,4.790875551603499,1.0143417,0.09010262,-0.4260785,125.55831,20.850317,-36.670166
5205179230000.0,-5.489688604828463,-4.649059058322744,4.63103715133418,1.0274754,0.051923547,-0.47494772,125.87102,20.884436,-36.6105
5205184133000.0,-5.627373240934415,-4.49760576691428,4.470404884185319,1.0445796,0.009773844,-0.52564955,126.18135,20.91608,-36.529835
5205189205000.0,-5.81662422015583,-4.362756529468509,4.432299145329747,1.0555751,-0.0143553335,-0.57726765,126.51014,20.952461,-36.45386
5205194209000.0,-6.012207377302662,-4.23384952562842,4.418963979649383,1.0735956,-0.05131268,-0.6591236,126.8522,20.99952,-36.354095
5205199244000.0,-6.07500596198583,-4.161534427022239,4.454636324099586,1.1157454,-0.06963864,-0.72356987,127.18645,21.016472,-36.28904
5205204220000.0,-6.079695359663452,-4.114639666778193,4.510909634865184,1.178359,-0.067500606,-0.7831292,127.539215,21.040157,-36.210888
5205209191000.0,-6.029031076746449,-4.105019030609068,4.649676567425569,1.2257011,-0.093767814,-0.81397796,127.86689,21.02844,-36.151367
5205214274000.0,-5.948515426989687,-4.114491521083869,4.834389315674256,1.2858714,-0.09315695,-0.82802784,128.20982,21.009506,-36.095016
5205219207000.0,-5.831563731545688,-4.105612026729291,5.000159581144321,1.3118331,-0.09896017,-0.82863873,128.54344,20.978685,-36.03006
5205224193000.0,-5.688843803313407,-4.08522350204953,5.159190286541418,1.3261884,-0.15821409,-0.8045095,128.86247,20.9373,-35.954277
5205229145000.0,-5.527301860553335,-4.01416654073987,5.310026868633906,1.3460416,-0.20372356,-0.7828238,129.17596,20.88585,-35.85688
5205234182000.0,-5.304238716255192,-3.791103317485696,5.442352399811898,1.3680327,-0.26816985,-0.75808376,129.46564,20.828222,-35.74466
5205239269000.0,-5.0789613259346345,-3.565825847425347,5.575991466141548,1.3771957,-0.3381139,-0.72173727,129.72827,20.75757,-35.593033
5205244199000.0,-4.861091316045739,-3.341669638758761,5.722017408151974,1.3860532,-0.37751472,-0.70005155,129.9799,20.683365,-35.436893
5205249198000.0,-4.640349600848395,-3.112098308428624,5.876536664109185,1.3518448,-0.37843102,-0.6774496,130.21278,20.613302,-35.28062
5205254178000.0,-4.484373530695784,-2.855121847364144,6.117536690827832,1.328021,-0.39675698,-0.6582073,130.37032,20.492342,-35.075584
5205259188000.0,-4.3820297392280345,-2.5724576982529204,6.434315403169122,1.3011429,-0.43951756,-0.6374379,130.51624,20.380789,-34.872417
5205264218000.0,-4.379487541296697,-2.350549943997022,6.646459958493503,1.2507466,-0.4877759,-0.6227771,130.60979,20.239815,-34.639374
5205269230000.0,-4.450953112005956,-2.1751341839807794,6.77964602300352,1.2137892,-0.5540548,-0.6133087,130.6918,20.105507,-34.39992
5205274217000.0,-4.522062210395236,-2.000593402815376,6.912167751597185,1.1792754,-0.59650993,-0.61422503,130.71667,19.922585,-34.141747
5205279167000.0,-4.6741696052269885,-1.791008458975427,6.93180515241566,1.1325442,-0.6536258,-0.5992588,130.72691,19.753614,-33.874702
5205284187000.0,-4.879406952790504,-1.5557364681382757,6.881747378779675,1.0830641,-0.6658431,-0.5821546,130.74194,19.599625,-33.617523
5205289227000.0,-4.976763843710304,-1.324715913318798,6.930446061304389,1.0968086,-0.63285637,-0.5815437,130.7129,19.377048,-33.377365
5205294292000.0,-5.027344079325054,-1.0948053891458909,7.022410165342686,1.0812315,-0.63346726,-0.57543504,130.67606,19.176052,-33.13659
5205299187000.0,-5.035590638826872,-0.9116266704282524,7.083725965293282,1.0574077,-0.67073005,-0.5537493,130.60085,18.92159,-32.941395
5205304238000.0,-5.015955094174955,-0.7496324787700426,7.127906376456261,1.0439687,-0.6792821,-0.5522222,130.53879,18.678886,-32.759342
5205309219000.0,-4.938671134845206,-0.5523322219676297,7.169497620692575,1.0115929,-0.6872234,-0.5653558,130.43427,18.399668,-32.58889
5205314227000.0,-4.825843868448293,-0.3311906148913145,7.210115483720711,0.98440933,-0.7128797,-0.550695,130.32266,18.126362,-32.42161
5205319289000.0,-4.622716006179473,-0.0890421683503492,7.291727278237507,0.9804387,-0.72326446,-0.5537493,130.21175,17.826653,-32.25913
5205324245000.0,-4.337922879365933,0.1659962769263836,7.410745090059108,0.990518,-0.72418076,-0.54305923,130.09523,17.533945,-32.10172
5205329238000.0,-4.1276035,0.35434186,7.4986396,0.97005403,-0.729984,-0.5335908,129.9605,17.206343,-31.935429
5205334186000.0,-4.1276035,0.35434186,7.4986396,0.9615019,-0.7620544,-0.5152648,129.82207,16.878763,-31.76935
5205339214000.0,-4.1276035,0.35434186,7.4986396,0.95905846,-0.7703011,-0.49693888,129.65985,16.505083,-31.572416
5205344192000.0,-4.20183628134715,0.4454455752331606,7.680846974093264,0.9398162,-0.7819075,-0.47952923,129.49458,16.141876,-31.37224
5205349218000.0,-4.2948307875911125,0.5595750051339247,7.909105763273908,0.91874135,-0.81092364,-0.46486846,129.32791,15.784416,-31.171274
5205354225000.0,-4.410179002239032,0.6334543424387292,8.092807073827533,0.890947,-0.8268061,-0.4392121,129.15839,15.431134,-30.973627
5205359193000.0,-4.544538173918306,0.6718427072677762,8.236763329198185,0.84421575,-0.8542951,-0.41416663,128.9864,15.092572,-30.771215
5205364230000.0,-4.617825204266974,0.6990144038777569,8.318266005045409,0.8026769,-0.8854492,-0.38698313,128.78127,14.720311,-30.569473
5205369393000.0,-4.639208449401759,0.7168337128009226,8.34677712260343,0.7629707,-0.89644474,-0.36132678,128.57529,14.363535,-30.372746
5205374198000.0,-4.659108990341646,0.7334174391956176,8.373311292633703,0.72601336,-0.8790351,-0.3213151,128.35197,13.995666,-30.189947
5205379229000.0,-4.607893185049834,0.6963388275234068,8.47679302114165,0.68875057,-0.8707884,-0.26908615,128.12245,13.640763,-30.00983
5205384134000.0,-4.536956455813954,0.6443186334883721,8.599749860465117,0.6618725,-0.8912524,-0.21930063,127.88742,13.295288,-29.834465
5205389257000.0,-4.286798783065233,0.6351409803322287,8.932807492118664,0.63255095,-0.89736104,-0.16798794,127.64245,12.949147,-29.673815
5205394214000.0,-3.995157889354135,0.6389783458556302,9.31270818955622,0.59437186,-0.9016371,-0.11728613,127.38747,12.612978,-29.51634
5205399196000.0,-3.793955097718233,0.6724393434373038,9.67842495938874,0.55680364,-0.8414669,-0.074830994,127.14177,12.285851,-29.353603
5205404187000.0,-3.7989581128951215,0.7724976618589072,10.008617169876493,0.49754974,-0.8155051,-0.04734206,126.88882,11.976296,-29.18773
5205409184000.0,-3.8101455097666377,0.8299209492826275,10.228443531547104,0.45540005,-0.8200866,-0.028405234,126.64812,11.662486,-28.943956
5205414209000.0,-3.8309421476231633,0.8216022767675022,10.278355636127918,0.42913285,-0.7828238,-0.021991149,126.41527,11.364342,-28.725004
5205419275000.0,-3.843371586931402,0.8052279365709171,10.313849446618928,0.36987892,-0.7049385,-0.016493361,126.16803,11.059415,-28.499239
5205424191000.0,-3.7782439676946864,0.717114159020262,10.214242341891122,0.3304781,-0.6582073,-0.013439035,125.927704,10.763052,-28.280437
5205429181000.0,-3.712135989665555,0.6276740145984213,10.113135862519329,0.269697,-0.62858033,0.017104227,125.69083,10.485854,-28.081434
5205434215000.0,-3.5264850302902886,0.5183354883027411,9.95801106173688,0.23518312,-0.56230146,0.038789943,125.46793,10.219604,-27.90983
5205439207000.0,-3.271347167785235,0.3984980134228187,9.772456359060405,0.19517145,-0.5360342,0.077579886,125.23525,9.96984,-27.742247
5205444233000.0,-3.007773169822437,0.2807240269974633,9.57969290074462,0.16829337,-0.4841107,0.112704635,125.03449,9.749532,-27.595545
5205449170000.0,-2.7137438146060058,0.1801350302086572,9.35917087423288,0.15607607,-0.47678033,0.19058995,124.81153,9.529671,-27.451801
5205454147000.0,-2.4173322081826365,0.0787310526883233,9.136862159234106,0.1255328,-0.4841107,0.26389378,124.62623,9.355762,-27.283045
5205459216000.0,-2.003573639911397,-0.0947151250608135,9.008905516713654,0.10140363,-0.48624873,0.35796702,124.41441,9.1739435,-27.12655
5205464987000.0,-1.4782740708336688,-0.3262030956368908,8.910968183648812,0.08979719,-0.5152648,0.44929138,124.18249,8.991074,-26.967482
5205469199000.0,-1.1703584209269942,-0.4907584899254028,8.840361196439229,0.062002823,-0.5119051,0.53023106,123.96839,8.843412,-26.781126
5205474276000.0,-1.049457649552417,-0.6745276250467476,8.758149043564751,0.057421334,-0.4841107,0.59712076,123.73372,8.685682,-26.600948
5205479210000.0,-0.9804051073667206,-0.8113551039224556,8.680368569628433,0.08155051,-0.47952923,0.6740898,123.53513,8.576599,-26.332966
5205484250000.0,-1.0864523417447496,-0.7988789755605816,8.608630561227788,0.08827003,-0.46761733,0.743423,123.323524,8.467853,-26.08168
5205489219000.0,-1.191005656749596,-0.7865786021815832,8.537903147786754,0.06047566,-0.47036624,0.81061816,123.12839,8.390426,-25.814653
5205494217000.0,-1.3352325374323584,-0.7495213089890989,8.49431967390793,0.02076942,-0.47861293,0.84635377,122.925606,8.312058,-25.555387
5205499225000.0,-1.7602622947219828,-0.5351257930044702,8.648533946670849,-0.025045475,-0.4908302,0.89461213,122.7016,8.234928,-25.302114
5205504223000.0,-2.184443350419575,-0.3211583830821111,8.802440283585602,-0.07422013,-0.47342056,0.91415983,122.47067,8.163719,-25.091208
5205509201000.0,-2.5461379707148697,-0.1927200768225996,8.902771321827595,-0.113926366,-0.47067168,0.92149025,122.231705,8.099674,-24.878508
5205514236000.0,-2.8658765238077937,-0.1270203471922972,8.964090935325643,-0.13347405,-0.5164866,0.9419542,121.98552,8.041098,-24.662527
5205519241000.0,-3.1864498508858965,-0.08619126,8.998560151665485,-0.19058995,-0.5522222,0.93767816,121.6884,7.9382467,-24.53622
5205524221000.0,-3.509968943322871,-0.08619126,8.98890317687557,-0.2593123,-0.57940567,0.9407325,121.38616,7.842385,-24.404034
5205529195000.0,-3.746274540471092,-0.158663286359743,8.99448778372591,-0.3100141,-0.5858198,0.91629785,121.08112,7.7411532,-24.33031
5205534193000.0,-3.848768960171306,-0.3441293323126338,9.02377146680942,-0.35338554,-0.5537493,0.8924741,120.78094,7.6568656,-24.26282
5205539183000.0,-3.8464734545183807,-0.4995617246933457,9.050014954025128,-0.37720928,-0.53878313,0.86651236,120.496025,7.578774,-24.251915
5205544252000.0,-3.701900668273616,-0.6170271170553746,9.07260443713355,-0.37293324,-0.51007247,0.80664754,120.235794,7.5114694,-24.25244
5205549135000.0,-3.550273539651266,-0.7535081827012117,9.061821056743176,-0.36346483,-0.49327368,0.73945236,120.02783,7.4882007,-24.275059
5205554060000.0,-3.36441681913112,-0.9533040941877648,8.964246768495714,-0.36254853,-0.4447099,0.7458665,119.821266,7.4627976,-24.314507
5205559064000.0,-3.189296720985421,-1.1724918126742578,8.846222191550494,-0.3631594,-0.42821655,0.7593055,119.64597,7.4660697,-24.306637
5205564124000.0,-3.06037624572736,-1.4509600844631263,8.660576677024583,-0.33261612,-0.41508293,0.7861836,119.4695,7.457018,-24.31237
5205569063000.0,-2.9684909519463623,-1.697328667487241,8.484785564595217,-0.33444872,-0.38423425,0.77640975,119.34349,7.498046,-24.286377
5205574055000.0,-2.939786377464225,-1.8982604890423296,8.317342005303713,-0.32711834,-0.38056904,0.732122,119.222206,7.5280757,-24.256952
5205579061000.0,-2.971938551184533,-2.048287450104384,8.238830920849596,-0.29443705,-0.3145956,0.75747293,119.12904,7.6005797,-24.245493
5205584056000.0,-3.119567573876736,-2.1003918697286013,8.330014040573658,-0.28130344,-0.28527406,0.7874053,119.049126,7.6782894,-24.223438
5205589102000.0,-3.299802169801215,-2.1370671184674017,8.432110164074569,-0.27000242,-0.28619036,0.8188649,118.998375,7.7798343,-24.206146
5205594086000.0,-3.653764320053559,-2.0829895121227726,8.589426230404777,-0.26633725,-0.29932398,0.84299403,118.94307,7.874134,-24.193922
5205599066000.0,-4.017264718599176,-2.034194888875809,8.754548417304296,-0.25870144,-0.30298916,0.84116143,118.87557,7.9633174,-24.191456
5205604130000.0,-4.426401244555621,-2.005650500882872,8.954359331959976,-0.25289822,-0.33017266,0.8371908,118.80155,8.046287,-24.178963
5205609106000.0,-4.811205724235561,-2.015472252434881,9.167883563514534,-0.24648413,-0.35979962,0.799928,118.69935,8.101885,-24.195358
5205614179000.0,-5.118403738391846,-2.212629255492639,9.4704964397886,-0.22999077,-0.39278635,0.7641924,118.598625,8.150774,-24.201925
5205619181000.0,-5.414072885347682,-2.3928937105960264,9.76652120509106,-0.19883664,-0.4111123,0.70432764,118.47839,8.17158,-24.234348
5205624105000.0,-5.604376313990066,-2.373375431125828,10.025138713783113,-0.20311269,-0.45173484,0.6224717,118.375565,8.201897,-24.247108
5205629122000.0,-5.816434720699656,-2.283717899057459,10.271511464292187,-0.23151793,-0.47036624,0.5522222,118.28172,8.256141,-24.265606
5205634098000.0,-6.157623716748232,-1.6920354214790647,10.39243944834149,-0.2782491,-0.4978552,0.47250426,118.21537,8.324279,-24.264814
5205639154000.0,-6.504298066431031,-1.0908403638752946,10.51531161219866,-0.33658674,-0.54275376,0.3594942,118.15061,8.40035,-24.25469
5205644138000.0,-6.617561361087144,-0.8370417925547101,10.431836980469056,-0.3827071,-0.5045747,0.28619036,118.102615,8.4870405,-24.257627
5205649279000.0,-6.714107034512511,-0.6053324666718958,10.327567306376972,-0.43860126,-0.48258355,0.18936823,118.09476,8.604278,-24.236706
5205654183000.0,-6.761041351519411,-0.5727317713571969,10.12382331372337,-0.47678033,-0.47952923,0.08735373,117.9911,8.606192,-24.283396
5205659168000.0,-6.735227385908943,-0.8463600116837893,9.746939631448038,-0.5012149,-0.46028697,-0.0036651916,117.91881,8.628827,-24.333656
5205664188000.0,-6.580170375957257,-1.2623305742356783,9.264203394775896,-0.46639562,-0.4111123,-0.056199603,117.80728,8.600561,-24.409973
5205669396000.0,-6.298886898842386,-1.8248975799940637,8.667093080736123,-0.42271876,-0.36254853,-0.0852157,117.72067,8.584657,-24.484806
5205674154000.0,-5.848398748818688,-2.3442253402707727,8.105238259357579,-0.33261612,-0.31795537,-0.087964594,117.675186,8.59542,-24.561697
5205679229000.0,-5.181789078656756,-2.9033174013715604,7.490236817007345,-0.22266038,-0.27672195,-0.08307768,117.640015,8.591371,-24.646961
5205684167000.0,-4.630692922094161,-3.281971924529738,7.128706553071654,-0.105068825,-0.2593123,-0.049785517,117.663445,8.667559,-24.700727
5205689247000.0,-4.371493337446994,-3.1497271573230403,7.504281552745461,0.01863139,-0.29657507,-0.0067195175,117.68167,8.710192,-24.750034
5205694169000.0,-4.189429999122294,-3.004385495611469,7.916900834113516,0.11026118,-0.37018433,0.03726278,117.79594,8.865988,-24.708593
5205699219000.0,-4.104532968695144,-2.8298753434757167,8.412132083382094,0.17531833,-0.4437936,0.07971791,117.89393,8.990042,-24.659555
5205704195000.0,-4.079478061651197,-2.667862468304836,8.850157902882266,0.21594086,-0.47678033,0.09560041,117.97768,9.078774,-24.564016
5205709172000.0,-4.158646157596483,-2.5234974229408893,9.199428542550072,0.23487769,-0.5513059,0.12339478,118.03751,9.148994,-24.441345
5205714214000.0,-4.261592292892712,-2.394253710004527,9.491894958352194,0.24862215,-0.61086524,0.14966199,118.05806,9.173492,-24.277079
5205720585000.0,-4.454936136079674,-2.2782473464101405,9.690763026708918,0.24648413,-0.6597345,0.16401732,118.0705,9.195634,-24.101095
5205724226000.0,-4.564499793464592,-2.2186088347180704,9.77626071033914,0.24648413,-0.6649268,0.1591304,118.056206,9.179442,-23.923046
5205729222000.0,-4.707529129533038,-2.189016611565818,9.672687826306566,0.24617869,-0.6310238,0.13316862,118.04463,9.165741,-23.74855
5205734214000.0,-4.828762510708132,-2.1759853678152994,9.583648257150244,0.23243423,-0.59498274,0.116980694,118.00186,9.134608,-23.59722
5205739266000.0,-4.841266428316678,-2.246841147553411,9.566976396019989,0.21899518,-0.57726765,0.10842858,117.96707,9.106858,-23.454763
5205744199000.0,-4.853475815799449,-2.3160279174362506,9.55069724104066,0.18753563,-0.5656612,0.10323623,117.92951,9.080255,-23.344599
5205749250000.0,-4.828077049717135,-2.362346355911401,9.422983897785022,0.18173242,-0.5537493,0.092240654,117.898605,9.053161,-23.24252
5205754182000.0,-4.796374206683288,-2.403107309483172,9.2780557370793,0.16982053,-0.5503896,0.0888809,117.868286,9.036427,-23.14484
5205759174000.0,-4.733020874537608,-2.460430537669544,9.130853038224416,0.17654006,-0.52931476,0.098043874,117.83834,9.032994,-23.056276
5205764198000.0,-4.658862476263872,-2.523465050369914,8.982536628853268,0.18478674,-0.50976706,0.09987647,117.81294,9.033631,-22.97074
5205769269000.0,-4.559723863098057,-2.5895958397063006,8.840369620464235,0.22174409,-0.48747048,0.11026118,117.778725,9.034505,-22.889658
5205774190000.0,-4.34987153623875,-2.6654998053718617,8.737676206347702,0.24312437,-0.45998153,0.13164146,117.74323,9.035812,-22.81882
5205779415000.0,-4.137842324477044,-2.740168680249932,8.643488565743004,0.2773328,-0.41783184,0.17104226,117.70701,9.040284,-22.749063
5205784170000.0,-4.046090631594676,-2.752539710744363,8.697096206669384,0.31581733,-0.3839288,0.22021692,117.66366,9.034524,-22.688654
5205789245000.0,-3.94816427168342,-2.7657432816716474,8.754311512179662,0.34330627,-0.35338554,0.27275133,117.61912,9.041212,-22.611248
5205794281000.0,-3.850990449316309,-2.778845386733677,8.811087133568776,0.364992,-0.3408628,0.30115658,117.569466,9.036726,-22.54208
5205799272000.0,-3.754684939500136,-2.791830415797338,8.86735542712578,0.38912117,-0.33261612,0.33444872,117.5055,9.01835,-22.485315
5205804229000.0,-3.659035488055782,-2.804726987440007,8.923240406320746,0.4129449,-0.31123585,0.34972036,117.441605,8.993715,-22.438309
5205809263000.0,-3.5619002573576024,-2.817823889124332,8.979993479806211,0.42149702,-0.30298916,0.36102137,117.37043,8.964181,-22.393232
5205814255000.0,-3.465575451706964,-2.8308115198768453,9.03627304731504,0.43096542,-0.3145956,0.376293,117.29534,8.9268,-22.351156
5205819233000.0,-3.369520787738839,-2.8437627269854207,9.092394779498324,0.44715336,-0.3747658,0.32925636,117.23558,8.891864,-22.296747
5205824207000.0,-3.312869162898344,-2.8575780487270785,9.130738753961188,0.44684792,-0.3662137,0.33841935,117.158875,8.85179,-22.263493
5205829228000.0,-3.398475648584654,-2.8746993279864697,9.105057192629518,0.4279111,-0.34238997,0.33475417,117.09975,8.819996,-22.216785
5205834618000.0,-3.490696073342354,-2.8856803007004697,9.07980018108732,0.4147775,-0.3182608,0.3555236,117.05308,8.80338,-22.110687
5205839233000.0,-3.5751287161028418,-2.769585444455942,9.097390299689565,0.3866777,-0.32620203,0.37873647,117.00791,8.796639,-22.005882
5205844203000.0,-3.666056177537212,-2.644560214654143,9.116333504338137,0.364992,-0.3454443,0.3839288,116.95452,8.791555,-21.911846
5205849160000.0,-3.728556134933545,-2.527266393890101,9.116067720888712,0.33658674,-0.3885103,0.3885103,116.89451,8.7936125,-21.813072
5205854071000.0,-3.7565456200357072,-2.4199733189545727,9.092743149970245,0.3042109,-0.40469822,0.37751472,116.83998,8.803807,-21.71918
5205859074000.0,-3.761415982252764,-2.359843205915745,9.098556029578727,0.2611449,-0.41416663,0.36163223,116.755005,8.792832,-21.629116
5205864096000.0,-3.73267699832686,-2.36942286722438,9.1464543361219,0.24312437,-0.40591997,0.3378085,116.678314,8.786183,-21.541922
5205869053000.0,-3.752214641140124,-2.365465633366554,9.189912962527409,0.21960606,-0.39003745,0.2919936,116.59606,8.776163,-21.457441
5205874060000.0,-3.8430129983057606,-2.341571255311939,9.22814360813235,0.1966986,-0.35827246,0.20311269,116.53777,8.778144,-21.37976
5205879061000.0,-3.973657066654268,-2.330694112665055,9.23354462097824,0.20372356,-0.32650748,0.15699236,116.4751,8.779101,-21.292986
5205884066000.0,-4.165313381792821,-2.339608448633067,9.1889734065464,0.22327125,-0.26175576,0.05100725,116.46254,8.798349,-21.220518
5205889128000.0,-4.324361011484538,-2.335219275290842,9.201054213880878,0.25320363,-0.21655174,-0.070554934,116.45822,8.810973,-21.155237
5205894089000.0,-4.381050536561599,-2.292702069822014,9.375846961419906,0.28588495,-0.19272798,-0.16462818,116.48052,8.82579,-21.100368
5205899063000.0,-4.471314044100824,-2.2829965339505573,9.513036228599129,0.30695978,-0.14110987,-0.19425514,116.515785,8.8375225,-21.089193
5205904133000.0,-4.673722206582647,-2.381846985041202,9.527158009500727,0.32834008,-0.09193522,-0.2782491,116.596214,8.856124,-21.077396
5205909115000.0,-4.779089944345898,-2.4998862857206205,9.610383381818185,0.3726278,-0.06566802,-0.38973203,116.670715,8.85731,-21.06051
5205914118000.0,-4.464629097161863,-2.7123597687538803,10.005583996363637,0.41172317,-0.043066,-0.44226643,116.75379,8.857257,-21.055227
5205919128000.0,-4.149728268780488,-2.925130536292683,10.40133756,0.4560109,-0.030543262,-0.47250426,116.868996,8.8613405,-21.065962
5205924157000.0,-4.142355124602042,-3.195773790492919,10.276709460204192,0.5015204,-0.062002823,-0.52320606,117.00266,8.862983,-21.06621
5205929112000.0,-4.174298815516569,-3.455647884382066,10.095159767407408,0.52656585,-0.086132,-0.5225952,117.12819,8.857053,-21.072073
5205934136000.0,-4.346870963040936,-3.624468543532164,9.738760928888889,0.5681047,-0.12095132,-0.57940567,117.30668,8.892134,-20.987463
5205939118000.0,-4.518000429395711,-3.791877883477583,9.385341539259258,0.6420194,-0.24770586,-0.6096435,117.49203,8.951777,-20.867626
5205944250000.0,-4.591642983266012,-3.8794780880169264,9.123208000192344,0.7519751,-0.27305678,-0.6569856,117.699005,8.997553,-20.765078
5205949156000.0,-4.582605950086555,-3.8975522487401424,8.951503190228891,0.883922,-0.28252518,-0.7079928,117.90633,9.0207,-20.632904
5205954173000.0,-4.565854261145494,-3.831438021797965,8.90123940847582,0.9981538,-0.20952678,-0.7357872,118.1609,9.049757,-20.55401
5205959143000.0,-4.5408900861743415,-3.671667197713207,8.991110751180111,1.1191051,-0.083383106,-0.7959574,118.43784,9.051003,-20.485678
5205964167000.0,-4.488353570764272,-3.542813047099448,8.999822036832413,1.2000448,-0.035124753,-0.8744536,118.731514,9.042595,-20.419561
5205969202000.0,-4.414352400069061,-3.4392113154005526,8.944321129834254,1.289842,0.0143553335,-0.90102625,119.02925,9.002726,-20.38993
5205974583000.0,-4.328137500790587,-3.3236609534657107,8.89398726346755,1.3921618,0.096516706,-0.9392053,119.33129,8.92353,-20.374899
5205979182000.0,-4.101400120867806,-3.1212168461298035,9.04379552408531,1.5213599,0.12095132,-0.98471475,119.63768,8.820225,-20.35646
5205984116000.0,-3.858146754366612,-2.9040263208861923,9.204516106361464,1.6804903,0.14019357,-1.0595458,119.94241,8.677059,-20.350227
5205989166000.0,-3.60299740947321,-2.658266302341288,9.447358787573163,1.7913623,0.19181168,-1.056186,120.23433,8.514407,-20.361832
5205994122000.0,-3.3508319343899147,-2.410374813822602,9.708072503556956,1.8383989,0.21533,-1.0320568,120.535805,8.337897,-20.368689
5205999258000.0,-3.0366117687500003,-2.1850782630319148,9.925978236702129,1.8573358,0.19883664,-1.0094548,120.780075,8.121666,-20.343391
5206004154000.0,-2.698134240178572,-1.993571278837386,10.095216698708208,1.9007072,0.16340645,-0.95814216,121.00215,7.8886485,-20.32288
5206009168000.0,-2.46119147561365,-1.928026549970066,10.20497311155458,1.9795089,0.15118915,-0.88422745,121.17701,7.600577,-20.269907
5206014336000.0,-2.3525460070045896,-2.021856689902215,10.23954229774496,2.0463986,0.14202617,-0.8185594,121.33222,7.308076,-20.213055
5206019177000.0,-2.3098015708032253,-1.8798812882500784,10.340883291863022,2.0680842,0.13561209,-0.7791586,121.47134,6.9735985,-20.115938
5206024182000.0,-2.334899583317625,-1.463256628652215,10.52660763053723,2.0894647,0.1591304,-0.73853606,121.586784,6.624118,-20.032516
5206029209000.0,-2.3097795629570905,-0.8822344948270737,10.78596341115846,2.0864103,0.21135938,-0.6826419,121.71358,6.2890396,-19.948093
5206034186000.0,-2.24365199722525,-0.1737254157922902,11.10243077237142,2.0696115,0.226631,-0.63071835,121.82468,5.9574647,-19.865664
5206039224000.0,-2.117466740284974,0.2741671121243523,11.269333826424871,2.0433443,0.2284636,-0.59528816,121.90773,5.5527606,-19.808634
5206044201000.0,-1.941064923380829,0.4814392320207254,11.300204304404144,2.0390682,0.19211712,-0.5479461,121.96748,5.1505237,-19.750177
5206049162000.0,-1.8049446566346865,0.6460662315749077,11.346561487232472,2.0253236,0.15271631,-0.5002986,121.9805,4.625215,-19.698084
5206054196000.0,-1.7373443895055352,0.7385718180428045,11.421277564132842,2.0054705,0.12217305,-0.42730024,121.969444,4.107281,-19.642132
5206059176000.0,-1.6704692742287823,0.8300850919025831,11.495192157490775,1.9898936,0.119729586,-0.3643811,121.947945,3.5542805,-19.567657
5206064242000.0,-1.59591902173137,0.8961070620972781,11.600685889781348,1.9504927,0.12889257,-0.27977628,121.89705,3.015434,-19.49179
5206069222000.0,-1.5193045772869254,0.9471833732083892,11.719863667559126,1.9071213,0.119729586,-0.204029,121.829315,2.4879916,-19.412895
5206074182000.0,-1.4807002930159043,1.0042374211794922,11.759688534920478,1.8509218,0.098043874,-0.15821409,121.74567,1.9540321,-19.322369
5206079186000.0,-1.4949023004840465,1.0705135054628074,11.688678497579769,1.7947221,0.14049901,-0.062308256,121.625175,1.4310247,-19.250898
5206084174000.0,-1.5858005171178116,1.1502426924188422,11.548852079086794,1.784032,0.15821409,0.009162978,121.50995,0.90631497,-19.155468
5206089217000.0,-1.7998077348810326,1.2525939747037858,11.297626054233696,1.7715092,0.16065755,0.0421497,121.37875,0.40250805,-19.06997
5206094188000.0,-2.023319994452515,1.3256974078445614,11.092732903486471,1.7617353,0.18142697,0.08277224,121.22325,-0.11113663,-19.001497
5206099230000.0,-2.277596605801707,1.3388496392591247,10.978746806337387,1.7846428,0.160963,0.14782938,121.05174,-0.62508726,-18.923222
5206104228000.0,-2.542317607880898,1.3820905183764165,10.86866512187986,1.8029687,0.13622294,0.20830505,120.851944,-1.1483066,-18.889597
5206109169000.0,-2.8963076313976743,1.644954353381231,10.781044075327753,1.8032742,0.07727446,0.25595254,120.63834,-1.6668495,-18.840809
5206114335000.0,-3.2664174191911712,1.9197883083771567,10.689432999333382,1.7919732,0.03634648,0.3051272,120.38797,-2.1818864,-18.830332
5206119206000.0,-3.509767691187812,2.120893854584783,10.6827961716825,1.7837266,-0.027488936,0.3539964,120.12657,-2.6911716,-18.796888
5206124236000.0,-3.613966035775416,2.247744087256654,10.786994468964544,1.790446,-0.116675265,0.38637227,119.8591,-3.1936667,-18.745302
5206129182000.0,-3.670814220272761,2.389261624483966,10.81758234067453,1.7922786,-0.20066923,0.4034765,119.51252,-3.7348151,-18.752514
5206134187000.0,-3.613394897382971,2.5747702522484337,10.667408819203834,1.767844,-0.27214047,0.4251622,119.16097,-4.2621856,-18.738419
5206139289000.0,-3.5463370452068617,2.764479077800202,10.5168611987891,1.7373008,-0.3231477,0.45570546,118.798225,-4.8027754,-18.716537
5206144242000.0,-3.4266752569770795,2.9525189695329392,10.386942230935562,1.7437148,-0.31703907,0.43768495,118.449585,-5.3319044,-18.693544
5206150386000.0,-3.278239556011244,3.1857749951347847,10.22578290557878,1.7843374,-0.38362336,0.4615087,118.08105,-5.9023094,-18.632578
5206154233000.0,-3.1855155320401547,3.2831361927846907,10.013561756770889,1.7571539,-0.3323107,0.44959682,117.73033,-6.438566,-18.61096
5206159195000.0,-3.066255576921468,3.33282795317369,9.566337314231935,1.7956384,-0.34605515,0.48533243,117.36812,-6.9976945,-18.552378
5206164280000.0,-2.9850047578125,3.4599546202116933,9.426850354334675,1.7718146,-0.29168814,0.46120325,117.02469,-7.578384,-18.51158
5206169196000.0,-2.957320252604166,3.67747618093078,9.687876161122311,1.8044959,-0.3200934,0.48655418,116.664795,-8.179583,-18.442726
5206174442000.0,-2.940301687637409,3.9128763051243034,9.899178556232032,1.7944167,-0.3005457,0.4792238,116.31461,-8.771125,-18.404661
5206179185000.0,-3.03632477743954,4.154854611745307,9.492040575257906,1.8228219,-0.3109304,0.46883908,115.96485,-9.371782,-18.351648
5206184198000.0,-3.1378140772873326,4.410607774530694,9.061725859123964,1.8393153,-0.3213151,0.43585235,115.62871,-10.001155,-18.281738
5206189248000.0,-3.207822855663942,4.468199342341155,8.87893796291414,1.861001,-0.30604348,0.48533243,115.27514,-10.632635,-18.2149
5206194264000.0,-3.262703247121891,4.4344268378328495,8.81139277757272,1.8860464,-0.33536503,0.4709771,114.95792,-11.247336,-18.140226
5206199188000.0,-3.32484663846878,4.34391576984625,8.683107800439284,1.8848248,-0.29352075,0.44868052,114.57424,-11.912507,-18.129425
5206204184000.0,-3.3999105848342226,4.168766544242234,8.462920635498378,1.9260582,-0.30848694,0.4370741,114.201096,-12.5820875,-18.096802
5206209169000.0,-3.422129345914397,4.02049800860895,8.316809503404668,1.9410243,-0.35216382,0.43310347,113.82955,-13.223441,-18.081738
5206214461000.0,-3.3876193284824905,3.892317995340467,8.242858951264592,1.9343048,-0.29229903,0.3903429,113.46974,-13.852443,-18.096588
5206219176000.0,-3.379696508618536,3.783956017287035,8.202126767174619,1.9953914,-0.3036,0.37598756,113.12807,-14.465216,-18.109858
5206224267000.0,-3.39999607094679,3.674338295928054,8.189947199350486,2.0201313,-0.33383787,0.37904188,112.79285,-15.0526705,-18.13699
5206229456000.0,-3.4140772770921024,3.56760894687879,8.17011823965185,2.021353,-0.30085114,0.3277292,112.49563,-15.628582,-18.169527
5206234222000.0,-3.36197701212813,3.51876494422487,8.078942826967253,2.046704,-0.34513888,0.32498032,112.19424,-16.210943,-18.169876
5206239218000.0,-3.307362466647642,3.467563803381608,7.9833674258400515,2.0350976,-0.34605515,0.32650748,111.931885,-16.757847,-18.191936
5206244260000.0,-3.259334530296022,3.461187283348752,7.974915336170213,2.0308216,-0.34880406,0.3051272,111.682,-17.299837,-18.204908
5206249165000.0,-3.2339861694033303,3.5915505523126736,8.232020825531915,2.0387628,-0.4538729,0.32895094,111.42978,-17.835398,-18.186918
5206254152000.0,-3.2082140438637063,3.72409318683318,8.493424510638299,1.9914207,-0.47616947,0.30726522,111.200356,-18.344328,-18.182919
5206259202000.0,-3.180363763449569,3.825518244709694,8.532913861710291,1.9712621,-0.52595496,0.3359759,110.96432,-18.858732,-18.1388
5206264198000.0,-3.151808912260209,3.907103619012704,8.443169873305482,1.9404135,-0.57910025,0.3576616,110.74093,-19.344194,-18.093113
5206269174000.0,-3.105026794764557,4.002582534886076,8.337723175341772,1.8909334,-0.6249151,0.3680463,110.533165,-19.829927,-18.012583
5206274271000.0,-3.0111081049620254,4.136045995949368,8.189430412151898,1.8377881,-0.6817256,0.3744604,110.32975,-20.296846,-17.917429
5206279140000.0,-2.9286490586663656,4.244379383608038,8.040435821291487,1.7971655,-0.6927212,0.4016439,110.12139,-20.77989,-17.813204
5206284201000.0,-2.8593409357266504,4.313687316098442,7.868989732671031,1.7599027,-0.7104363,0.45265114,109.91428,-21.241222,-17.694078
5206291186000.0,-2.7623337426048966,4.407629539264586,7.630033130144716,1.738217,-0.73273283,0.49113566,109.7021,-21.731495,-17.55447
5206294285000.0,-2.7056076857194866,4.431940710530627,7.500373615873305,1.7486018,-0.7370089,0.505491,109.48585,-22.211628,-17.418201
5206299206000.0,-2.6155305879675983,4.470545187394193,7.294483177109311,1.7556267,-0.7076874,0.57543504,109.24609,-22.723907,-17.270185
5206304204000.0,-2.6483068168726493,4.401826577162815,7.250375333709475,1.7592919,-0.70005155,0.6407976,109.01016,-23.227377,-17.120535
5206309197000.0,-2.823884280145084,4.209119716523374,7.395975926786674,1.7363845,-0.711658,0.6783658,108.76521,-23.718155,-16.974833
5206314237000.0,-2.9481735942268967,4.082685447079883,7.503962663593645,1.6743816,-0.7156286,0.74006325,108.492256,-24.23275,-16.811193
5206319273000.0,-2.9014089609159397,4.1762148639516665,7.485976251719252,1.6071864,-0.74036866,0.8219192,108.21217,-24.73355,-16.638697
5206324266000.0,-2.85504362848512,4.268945677780264,7.468143417229806,1.5607607,-0.806953,0.86101454,107.987595,-25.178133,-16.46661
5206329273000.0,-2.893596144244105,4.400530294036061,7.433577321735685,1.5134187,-0.9071349,0.8940013,107.75508,-25.60095,-16.276796
5206334200000.0,-2.996436164701803,4.559464995353675,7.386831835704378,1.4404203,-1.0177015,0.91721416,107.52994,-25.996988,-16.070759
5206339211000.0,-3.1610405657854987,4.712251727492447,7.275443640181269,1.3836098,-1.1472049,0.9459248,107.31676,-26.411596,-15.819148
5206344283000.0,-3.38116244478852,4.858999742598187,7.105766277643505,1.3243558,-1.2299771,0.91874135,107.1262,-26.79249,-15.565036
5206349188000.0,-3.5129462422040327,5.045446670562987,6.943624561718906,1.2962561,-1.2925909,0.9129381,106.93944,-27.199348,-15.288575
5206354225000.0,-3.5322069096426434,5.300650664963066,6.779908938770213,1.2666291,-1.3860532,0.9502009,106.76943,-27.580326,-14.991713
5206359216000.0,-3.481858858024692,5.563927663374486,6.611859104732511,1.2544118,-1.4676038,0.95325524,106.60999,-27.992683,-14.713615
5206364238000.0,-3.3317121752660706,5.843746633489428,6.43441300243366,1.2257011,-1.613906,1.0128145,106.453926,-28.38917,-14.393761
5206369203000.0,-3.183269666326096,6.120389641577977,6.258980923996027,1.205848,-1.7489072,1.0619892,106.295044,-28.838066,-14.057899
5206374197000.0,-2.9843759896991053,6.282938330387639,6.117785828300352,1.183246,-1.767844,1.0280862,106.15228,-29.263975,-13.730733
5206379190000.0,-2.7510591497695853,6.36503119984639,6.001127295545315,1.17897,-1.8228219,1.0894781,106.003494,-29.688326,-13.3540745
5206384182000.0,-2.4571553908685138,6.4181204549191,5.9263834450809005,1.1765264,-1.8689423,1.1676689,105.82849,-30.188858,-12.95291
5206389214000.0,-2.058331302268923,6.422601620773666,5.921902279226335,1.1847731,-1.9019289,1.1551461,105.67415,-30.674732,-12.560821
5206394151000.0,-1.7261431183837987,6.3600061171745965,5.889006548014157,1.1911873,-1.8683313,1.1502593,105.50627,-31.19318,-12.133277
5206399235000.0,-1.6016935757176562,6.048882360469917,5.750197554227291,1.2073752,-1.8964312,1.237613,105.34015,-31.707159,-11.686864
5206404050000.0,-1.5400220535376865,5.745203460802015,5.600224455385262,1.2110404,-1.92392,1.3017539,105.20113,-32.239887,-11.170259
5206409052000.0,-1.766312617551963,5.383138474364896,5.348790518706697,1.2202033,-1.8658879,1.2760975,105.06124,-32.76336,-10.684772
5206414105000.0,-1.7403087310417482,5.100232255723246,5.252110931595453,1.2565498,-1.6780468,1.1334605,104.95898,-33.259987,-10.22217
5206419097000.0,-1.0141082107124657,5.048695579596237,5.58944273872991,1.2901474,-1.5726726,1.1246029,104.84005,-33.751602,-9.752707
5206424073000.0,-0.4707087423918418,4.9685565,5.841671695817882,1.2883148,-1.6603317,1.2342533,104.756935,-34.196106,-9.346198
5206429081000.0,-0.5645748501792336,4.7857645,5.7972089302637,1.2925909,-1.7418822,1.2675453,104.678764,-34.635616,-8.992827
5206434052000.0,-0.6662641234214074,4.644894921452323,5.740476127258021,1.3011429,-1.7391334,1.2495248,104.633705,-35.08305,-8.4554205
5206439116000.0,-0.7926604301995147,4.610026958119888,5.648947569911027,1.31672,-1.7394388,1.2483032,104.59572,-35.523933,-7.903748
5206444219000.0,-0.9374784590085924,4.576415911874862,5.548986129081296,1.3219124,-1.7550159,1.2266175,104.59056,-35.927498,-7.3878574
5206449074000.0,-1.2652714692200926,4.56105056956378,5.369724479543953,1.3206906,-1.7421877,1.1838568,104.589005,-36.320663,-6.897094
5206454064000.0,-1.6965458870438446,4.52371649412714,5.159201059365193,1.3182472,-1.7373008,1.1539245,104.59317,-36.7043,-6.441648
5206459061000.0,-2.434563673074509,4.416446545234466,4.863135641988703,1.3197744,-1.7308867,1.0897835,104.614105,-37.073986,-6.017945
5206464457000.0,-3.090196736097561,4.345998994661247,4.587978076070461,1.3274102,-1.6383406,0.8698721,104.667336,-37.44268,-5.70505
5206469125000.0,-2.1977214365853657,4.753872431300813,4.810087293089431,1.3451253,-1.5741998,0.8038987,104.70275,-37.80787,-5.3850245
5206474124000.0,-1.2419622201626015,5.190667484805782,5.047945899747064,1.3481796,-1.709201,0.93279123,104.75984,-38.226032,-5.0564446
5206479102000.0,-1.360045839863131,5.186885404961505,4.947694545508982,1.3255776,-1.7794504,0.9621128,104.833626,-38.62828,-4.7953334
5206484101000.0,-1.7439833654833192,5.074263526229684,4.763404689296407,1.3228287,-1.8121318,0.9315695,104.9111,-39.031097,-4.510258
5206489173000.0,-1.732195114441417,5.175892132152589,4.789610385558583,1.314582,-1.706452,0.8927795,104.95856,-39.432198,-4.1703353
5206494105000.0,-1.6908273644998055,5.290802740638381,4.830978135500195,1.2971723,-1.5164729,0.89644474,104.99174,-39.818592,-3.853702
5206499145000.0,-1.3562799162387678,5.451416041848524,5.090509257252888,1.2767084,-1.3561208,0.88697636,105.02605,-40.209908,-3.592454
5206504080000.0,-0.9875960171324184,5.614757085987954,5.375189169220895,1.248914,-1.2528846,0.8582657,105.03721,-40.58453,-3.3734307
5206509344000.0,-0.4416778389547304,5.753466443692777,5.62410883896236,1.208597,-1.1829406,0.82650065,105.03876,-40.972225,-3.1513538
5206514277000.0,0.094985434920312,5.877619715971516,5.848386036283486,1.1838568,-1.1236867,0.8060367,105.02526,-41.347363,-2.9614763
5206519225000.0,0.7009568095690936,6.053918472994057,5.947652360475483,1.1795808,-1.0482447,0.75686204,105.02631,-41.710167,-2.7304518
5206524249000.0,1.3801274439821691,6.28179816422734,5.929779461812779,1.1734722,-0.9593639,0.7284568,105.01227,-42.05652,-2.5245185
5206529193000.0,2.05479967,6.4639615,5.880542472,1.1890492,-0.8933904,0.7153232,105.0219,-42.410244,-2.212233
5206534217000.0,2.7519599002040813,6.5719723734693885,5.772531803591837,1.239751,-0.84482664,0.6954701,105.025505,-42.76241,-1.9319263
5206539244000.0,3.34771123687982,6.699940832689552,5.78811090943834,1.3048081,-0.8011498,0.6423248,105.02739,-43.170757,-1.5404546
5206545131000.0,3.867135232170887,6.88462473687982,6.022813502422712,1.3396275,-0.66798115,0.48563787,105.02979,-43.573868,-1.2109888
5206549227000.0,4.228535042721627,7.013122319954958,6.186112605678018,1.3478742,-0.4896085,0.42730024,105.00537,-44.01434,-0.7905067
5206554222000.0,4.171390298238255,7.0658634473154365,6.153311257969799,1.3478742,-0.64934975,0.50243664,105.02871,-44.451565,-0.33898944
5206559205000.0,3.5508541102558726,7.000807288842282,5.858056280390101,1.2815952,-0.6921103,0.41599923,105.04018,-44.86199,0.0016187546
5206564212000.0,2.981621840149893,7.00056362159172,5.58607600592434,1.2782356,-0.6743952,0.3680463,105.05791,-45.27524,0.4778934
5206569275000.0,2.4495067740364025,7.052477350481799,5.330833769057816,1.2852604,-0.64965516,0.35827246,105.094055,-45.661457,0.9434795
5206574144000.0,1.981194239560659,7.108610758502246,5.140125241497754,1.3084733,-0.60048056,0.35521814,105.12322,-46.077003,1.3073279
5206579215000.0,1.593264207948078,7.181347734368448,5.0673882656315525,1.3521502,-0.55833083,0.34513888,105.153046,-46.490616,1.6568593
5206584135000.0,1.273855716308384,7.297596191713895,4.969314623392613,1.3750577,-0.55771995,0.3387248,105.171165,-46.948498,1.9179918
5206589218000.0,1.0788356235342975,7.525912343375024,4.8028342047879615,1.3863586,-0.56107974,0.34055737,105.18198,-47.40559,2.1638708
5206594191000.0,0.9066872388143566,7.698959391445248,4.65121884868891,1.4159856,-0.53023106,0.36132678,105.17779,-47.888622,2.347221
5206599189000.0,0.7857637005880304,7.732317590870284,4.530295158071261,1.4541647,-0.48380527,0.32711834,105.17974,-48.367893,2.5094385
5206604551000.0,0.6615703820261438,7.765865581568627,4.403789635947713,1.4932601,-0.47494772,0.2687807,105.17864,-48.907486,2.6451364
5206609168000.0,0.6796325084967321,7.744191029803922,4.367665383006536,1.5271631,-0.47678033,0.20769419,105.17423,-49.445877,2.7587237
5206614194000.0,0.6992946803921569,7.720596423529412,4.328341039215686,1.5479325,-0.5103779,0.15210545,105.18461,-50.015068,2.8527923
5206619541000.0,0.8124140809749493,7.690221387677726,4.252238306025728,1.5589281,-0.49632803,0.020158553,105.2054,-50.582355,2.901682
5206624260000.0,0.9785164453525488,7.659623608937035,4.160444878518232,1.582141,-0.48808134,-0.028405234,105.22434,-51.146786,2.9579322
5206629203000.0,1.1385550308191237,7.555871278585626,4.172128427555184,1.5897768,-0.65484756,-0.005192355,105.301025,-51.71156,3.0431852
5206634208000.0,1.2839704128674547,7.365326912647767,4.312529542054608,1.5720617,-0.77304995,-0.06261369,105.38192,-52.267273,3.0839467
5206639283000.0,1.3530239688136276,7.227183880012095,4.419707401018043,1.5641204,-0.81092364,-0.16218472,105.493484,-52.839256,3.1847124
5206644167000.0,1.3577385229109968,7.137607155246447,4.49514026657595,1.5583172,-0.84757555,-0.20311269,105.62562,-53.39492,3.298462
5206649168000.0,1.2414387548343644,7.049026527908601,4.619338548343644,1.5641204,-0.9245446,-0.22143865,105.81514,-53.90957,3.4463778
5206654173000.0,1.0262185860307325,6.962938580243464,4.781949360307324,1.5519031,-0.9859365,-0.24678956,106.01157,-54.407833,3.579227
5206659163000.0,0.6483192209919671,6.853263499290118,4.896925583373809,1.5479325,-0.99173975,-0.26939157,106.2319,-54.885605,3.722523
5206664227000.0,0.1273824428040352,6.721896878031011,4.973933622305249,1.5457945,-1.0228939,-0.29046643,106.469055,-55.350292,3.8665683
5206669241000.0,-0.2299284066304884,6.684006469659595,5.0182467,1.5464053,-1.0824533,-0.2938262,106.72572,-55.78043,4.000597
5206674216000.0,-0.3662573523384312,6.773325415638875,5.0182467,1.5393804,-1.1414018,-0.33567044,106.98922,-56.198887,4.1172676
5206679181000.0,-0.4126367468018896,6.910704331991373,4.995762789298552,1.5222762,-1.1798862,-0.42088616,107.29449,-56.59976,4.1659646
5206684189000.0,-0.3141245675598233,7.127431202444284,4.936655479696005,1.5250251,-1.2528846,-0.46883908,107.61451,-56.99552,4.2233996
5206689187000.0,-0.1771879291769723,7.339907263681591,4.922561639772566,1.5192219,-1.3176364,-0.5580254,107.970795,-57.401695,4.241578
5206694473000.0,0.0206987104690831,7.559381457711442,4.969334812651031,1.491122,-1.3726143,-0.6563747,108.34356,-57.795925,4.2515388
5206699153000.0,0.1958991405756929,7.753694592039801,5.010745794314143,1.4453071,-1.4196508,-0.7629707,108.741165,-58.217888,4.2673035
5206704171000.0,0.4183855710042986,8.024511094958967,5.123164887143416,1.4107933,-1.4785993,-0.8567385,109.159035,-58.62916,4.2680383
5206709161000.0,0.6611551646932395,8.332642132473621,5.27723030840172,1.3564262,-1.5204436,-0.97494096,109.59417,-59.01783,4.237697
5206714220000.0,0.807418147534819,8.625833066016712,5.405768610696379,1.3002267,-1.541213,-1.0836749,110.04229,-59.41351,4.2385254
5206719245000.0,0.8789107634818942,8.902866401671309,5.513007429637883,1.2363913,-1.5399913,-1.1578951,110.495155,-59.784992,4.218066
5206724425000.0,0.860102693450103,9.132101131292316,5.553944446766755,1.1728612,-1.5121969,-1.2125676,110.961945,-60.147434,4.2217026
5206729191000.0,0.7391761413453046,9.279900445392991,5.513635525915023,1.0824533,-1.4361442,-1.2507466,111.41033,-60.476254,4.200631
5206734217000.0,0.5672411480162183,9.368356118374209,5.426972237143987,0.9957104,-1.3322971,-1.2928963,111.86352,-60.800705,4.168858
5206739239000.0,0.3246747835027689,9.349331419600476,5.270017851463608,0.86620694,-1.219287,-1.3350459,112.2875,-61.079563,4.113929
5206744205000.0,0.0803415330146029,9.309600843768754,5.124587156031207,0.7122689,-1.108415,-1.3875804,112.71502,-61.356613,4.0064464
5206749225000.0,-0.1745099588037607,9.23266399639928,4.994757042008402,0.5488624,-1.0317514,-1.4804319,113.12319,-61.589195,3.8686059
5206754194000.0,-0.3701256739270436,9.19893823823598,4.7180586066111845,0.43066,-1.0009027,-1.5864171,113.53943,-61.821968,3.663792
5206759222000.0,-0.4675011826771409,9.2401356139846,4.175002851645019,0.3286455,-1.0082331,-1.6771306,113.94794,-62.00814,3.438311
5206764448000.0,-0.5687112878338649,9.28295532075912,3.610561846184957,0.23304509,-1.0592403,-1.7647897,114.39022,-62.18254,3.1472788
5206769237000.0,-0.6261971526691475,9.350904266576457,3.2334130683525037,0.15943582,-1.1087204,-1.8237382,114.834984,-62.327835,2.8470035
5206774158000.0,-0.6780118449610961,9.426633728687415,2.874695932653924,0.106901415,-1.108415,-1.897042,115.286095,-62.446766,2.5273402
5206779220000.0,-0.7583378294398406,9.501686187034512,2.390334008035246,0.051923547,-1.1194105,-1.9511036,115.727135,-62.668694,2.1909106
5206784206000.0,-0.8735428035613133,9.571810801531525,1.7592110653938948,0.024129177,-1.1026118,-1.9755383,116.158455,-62.874126,1.8454621
5206789193000.0,-0.9333297139583148,9.627434319791574,1.232321789503665,-0.021685716,-1.0354166,-1.9868392,116.56674,-63.14124,1.4817954
5206794482000.0,-0.9422764056831228,9.672167778415616,0.7760402079219288,-0.06505715,-0.9233228,-2.0228803,116.95683,-63.390247,1.1031404
5206800405000.0,-0.8257868362035541,9.715910121163166,0.3565233285783522,-0.07727446,-0.80909103,-2.0485365,117.310005,-63.74538,0.7004688
5206804232000.0,-0.6368815852757904,9.738466133548734,0.167618065874298,-0.059864793,-0.72387534,-2.0769417,117.63777,-64.08316,0.2826702
5206809145000.0,-0.3943700885921993,9.767422937533656,-0.074893445927379,-0.019547688,-0.6740898,-2.0433443,117.92111,-64.51068,-0.13144368
5206814226000.0,-0.0250020525517993,9.887055714285712,-0.1312137439912759,0.025350908,-0.61727935,-1.9782871,118.17105,-64.92936,-0.5508205
5206819282000.0,0.4062222990294438,10.054264857142858,-0.0828110074154852,0.08368854,-0.64965516,-1.9352211,118.42096,-65.34827,-0.95721185
5206824183000.0,0.8676343369374118,10.26977426042353,0.1374895939124706,0.15882497,-0.768163,-1.8973475,118.63964,-65.852974,-1.2658821
5206829184000.0,1.3905198672498824,10.553755280564706,0.5702224478832942,0.22418754,-0.9954049,-1.8500054,118.88011,-66.357475,-1.5424821
5206834159000.0,1.903867675526088,10.85145236504276,1.010993125607764,0.258396,-1.3035865,-1.8289305,119.18818,-66.867645,-1.7320377
5206839221000.0,2.411610498414529,11.186842575670225,1.481470445200346,0.2724459,-1.613906,-1.8002199,119.54172,-67.37718,-1.8832684
5206844300000.0,2.9207376482658707,11.587721557818949,1.951806029598736,0.25778514,-1.8787161,-1.7507398,120.01222,-67.79747,-1.9486732
5206849216000.0,3.4126571084116253,12.149914868908596,2.4023876663008163,0.2284636,-2.0922134,-1.6853772,120.53917,-68.20709,-1.9774745
5206854553000.0,3.9234827143301416,12.740794356248465,2.873358641901956,0.16462818,-2.2540927,-1.6258179,121.1583,-68.52393,-1.9115283
5206859170000.0,3.8547285978066954,12.824022780996808,2.8805959471560683,0.076052725,-2.3331997,-1.5628988,121.79866,-68.818146,-1.818729
5206864161000.0,3.780405055340044,12.913993122759637,2.888419510189049,-0.02565634,-2.3432791,-1.4953982,122.48956,-69.02992,-1.6298293
5206870321000.0,3.52080173471195,12.950427670397042,2.8467505244745035,-0.13500121,-2.2974641,-1.4486669,123.17687,-69.20775,-1.4350566
5206874249000.0,3.286514844482289,12.9431064380109,2.7991609085149864,-0.2452624,-2.2675319,-1.4156802,123.86032,-69.35097,-1.2306999
5206879220000.0,2.9632579143165687,12.875131712640131,2.725607564619973,-0.38240165,-2.1826215,-1.4025466,124.51898,-69.45555,-1.0558243
5206884208000.0,2.6095217590558466,12.742480564640545,2.63717365405739,-0.4550946,-2.0839667,-1.3842206,125.15725,-69.5429,-0.88104206
5206889237000.0,2.3533179178710397,12.633532930516951,2.584662535742079,-0.571159,-1.9553796,-1.3811663,125.76221,-69.58722,-0.7712609
5206894443000.0,2.180107620358533,12.543463921623124,2.5638772407170647,-0.7012733,-1.8252654,-1.3933836,126.335434,-69.60356,-0.67379487
5206899153000.0,2.023399879043913,12.461976209005002,2.5450722580878264,-0.79412484,-1.7128662,-1.4077389,126.876625,-69.603966,-0.6428982
5206904233000.0,1.872654733872988,12.328026082297388,2.5710703175195144,-0.8958339,-1.6221527,-1.4407257,127.387665,-69.56276,-0.6310145
5206909219000.0,1.7346091772381227,12.17157369548039,2.6216870824804857,-0.9776898,-1.5650368,-1.4727961,127.87495,-69.49972,-0.63005835
5206914262000.0,1.645041793029885,12.004660068505748,2.6843978734436784,-1.0671816,-1.570229,-1.5103643,128.36444,-69.40273,-0.68045986
5206919298000.0,1.5918237993563218,11.831701832183908,2.7553551365977014,-1.1389582,-1.5769486,-1.5537357,128.83899,-69.28719,-0.74377733
5206924394000.0,1.5289481506295424,11.671721570478043,2.824222691780121,-1.1948525,-1.5928311,-1.577254,129.32857,-69.12877,-0.8336113
5206929224000.0,1.457923566741734,11.539142544989252,2.885777380591668,-1.269378,-1.5971072,-1.6071864,129.818,-68.94548,-0.93271196
5206934162000.0,1.3243595213655786,11.419781116646968,3.006341507773434,-1.3295482,-1.6264287,-1.6187929,130.33626,-68.72438,-1.0383855
5206939237000.0,1.1078386536730611,11.31814869324484,3.205187242612965,-1.38025,-1.666135,-1.6215417,130.85672,-68.487404,-1.142435
5206944177000.0,0.9248401925002538,11.21874415446329,3.354208851782269,-1.4193454,-1.7195857,-1.6288722,131.40385,-68.21581,-1.2578888
5206949244000.0,0.8262808676246572,11.115256841474562,3.3640647250939373,-1.4712689,-1.7757853,-1.6410894,131.95923,-67.930084,-1.364396
5206954172000.0,0.7258440514529914,11.005387870177872,3.364098385215985,-1.5305228,-1.8191566,-1.6563611,132.53714,-67.59095,-1.4981521
5206959201000.0,0.6108818278347579,10.868175010895513,3.338139110849311,-1.5824465,-1.8209893,-1.6459764,133.11295,-67.24476,-1.6191493
5206965781000.0,0.4604639651566951,10.688644166974669,3.304173705135905,-1.6511687,-1.8054122,-1.6545285,133.71036,-66.8679,-1.7615067
5206969230000.0,0.3645075477666166,10.549553108383405,3.310138852177994,-1.6982054,-1.758681,-1.6658295,134.29486,-66.48861,-1.8971107
5206974188000.0,0.2263235402957191,10.348963329280886,3.3190540362185503,-1.7437148,-1.724778,-1.6691893,134.88174,-66.08543,-2.053782
5206979193000.0,0.1049041372793641,10.157844818963127,3.2893760765363647,-1.7525724,-1.6594155,-1.674687,135.44545,-65.68528,-2.214405
5206984178000.0,-0.0009797181360317,9.976959940948156,3.2276104938268184,-1.7669277,-1.5540411,-1.6737708,135.98546,-65.27736,-2.3744552
5206989152000.0,-0.1265040413207886,9.786965532817142,3.22443508667507,-1.7626517,-1.416902,-1.6639969,136.50983,-64.85371,-2.5687659
5206994266000.0,-0.2896537866075448,9.5753121427028,3.321443020932745,-1.7537941,-1.3319917,-1.6566665,137.01692,-64.43386,-2.7611783
5206999297000.0,-0.4548306980501139,9.377532798025817,3.3945191571146545,-1.7412714,-1.2791518,-1.6615535,137.50352,-64.01248,-2.9850383
5207004185000.0,-0.6361050395899772,9.231802107061505,3.366083987243736,-1.7327193,-1.2345587,-1.6649132,137.96606,-63.598835,-3.2074406
5207009190000.0,-0.8217183946241458,9.082583181473044,3.336968188306757,-1.7357736,-1.1905763,-1.6655241,138.42888,-63.147488,-3.463512
5207014233000.0,-0.941585523807063,9.02889217714614,3.269355453000287,-1.7333301,-1.1673635,-1.6740762,138.88399,-62.705864,-3.7164705
5207019258000.0,-1.0014577279414298,9.061131238300316,3.168033245851277,-1.7305813,-1.1902709,-1.711339,139.34045,-62.268543,-3.967581
5207024195000.0,-1.0484434669150378,9.111151907296303,3.118525876775692,-1.7192802,-1.2220359,-1.743104,139.79346,-61.821804,-4.2611647
5207029165000.0,-1.0806843580510934,9.184844878072385,3.132343380936714,-1.6832392,-1.212873,-1.7788396,140.24416,-61.386612,-4.5582376
5207034178000.0,-1.1229737457707347,9.228434291829595,3.164637018686973,-1.6621643,-1.2415836,-1.8035797,140.72223,-60.965565,-4.865096
5207039206000.0,-1.1824331311998353,9.218524713315498,3.229051245112163,-1.6233743,-1.2647965,-1.8417587,141.20026,-60.561646,-5.1771793
5207044201000.0,-1.2022459368699228,9.178867170989529,3.309717888812763,-1.5864171,-1.3084733,-1.894904,141.70094,-60.162228,-5.495374
5207049184000.0,-1.1695505410492315,9.09946399021239,3.412474791367329,-1.5384641,-1.3213016,-1.9272798,142.1991,-59.779816,-5.8098016
5207054191000.0,-1.1235195953390256,8.974826014264188,3.491064905996986,-1.5079209,-1.3286319,-1.9575176,142.72426,-59.383537,-6.138661
5207059177000.0,-1.0563674661778,8.778166504369663,3.5294375226117527,-1.4801265,-1.3017539,-1.9755383,143.24399,-59.00226,-6.4662337
5207064176000.0,-0.9559422872801082,8.576707258264063,3.549407371196597,-1.4624114,-1.2538009,-1.9682078,143.77791,-58.598465,-6.785552
5207069252000.0,-0.8008880025710419,8.36526948579161,3.540010147767253,-1.4315627,-1.196685,-1.9630154,144.3031,-58.20885,-7.105741
5207074187000.0,-0.6373546006395816,8.164724745776347,3.546192083085278,-1.3738359,-1.1753048,-1.9581286,144.84389,-57.80435,-7.411431
5207079201000.0,-0.4442004964641995,7.971570782783588,3.58482297652856,-1.3338243,-1.1273518,-1.930945,145.35747,-57.410007,-7.713601
5207084171000.0,-0.2883543541321344,7.808035763897576,3.6319852806880375,-1.2611313,-1.0974194,-1.8765781,145.88472,-57.024536,-7.977496
5207089233000.0,-0.2030728533268178,7.699064934225958,3.698315290695856,-1.2006557,-1.0876455,-1.8277088,146.39969,-56.653435,-8.231918
5207094169000.0,-0.1412260449397698,7.608582026573175,3.7748570977526072,-1.1337659,-1.1117748,-1.7782288,146.93056,-56.28625,-8.433021
5207099182000.0,-0.1325945232811938,7.556792743401655,3.882751152283352,-1.058324,-1.1139128,-1.7244726,147.4434,-55.94767,-8.618847
5207104324000.0,-0.1266191718990102,7.506449166314377,3.99808948424761,-1.0161743,-1.1410962,-1.6875153,147.98056,-55.600075,-8.7686405
5207109187000.0,-0.1500575266146619,7.486917217648046,4.154345236738802,-0.97066486,-1.1368202,-1.6609426,148.50174,-55.28308,-8.90622
5207114192000.0,-0.1741802832159033,7.4668149344740815,4.31516367005536,-0.9147707,-1.1081096,-1.6221527,149.0292,-54.95897,-9.023636
5207119263000.0,-0.2479158235973816,7.469754815729058,4.480092267242197,-0.8555168,-1.1093313,-1.6181821,149.56212,-54.65335,-9.132984
5207124177000.0,-0.3416705848173798,7.483148437624513,4.640814704392373,-0.7883216,-1.0891727,-1.6163495,150.07492,-54.373524,-9.236154
5207129244000.0,-0.4795108667414837,7.508350649995034,4.838536936249875,-0.71685034,-1.0708468,-1.6151277,150.60603,-54.075947,-9.335892
5207134162000.0,-0.6432268032118382,7.541093716158506,5.053706542903963,-0.6747007,-1.0586295,-1.6368134,151.1351,-53.792377,-9.437469
5207139197000.0,-0.7721835806874655,7.624729777747101,5.235657885229156,-0.64476824,-1.0629056,-1.6783522,151.6767,-53.49292,-9.556149
5207144205000.0,-0.8692877835219952,7.748316949180931,5.385727863951776,-0.63071835,-1.0497719,-1.6911805,152.20789,-53.206295,-9.6725
5207149177000.0,-0.9503239585337128,7.845624699234468,5.4779334,-0.6102544,-1.0473285,-1.724778,152.76332,-52.88405,-9.8257265
5207154179000.0,-1.006741525861223,7.9020422420158996,5.4779334,-0.59528816,-1.0348058,-1.7592919,153.31345,-52.568375,-9.979645
5207159193000.0,-1.038456584960184,7.963541989926935,5.425133212921764,-0.56077427,-1.0045679,-1.7534887,153.86308,-52.25035,-10.1462555
5207164202000.0,-1.0227040797717757,8.03442803710697,5.271546606025778,-0.51923543,-0.956615,-1.7354681,154.40726,-51.941956,-10.316461
5207170117000.0,-0.9793218183499548,8.111958744786945,5.060430703535811,-0.48838675,-0.90316427,-1.711339,154.94057,-51.64791,-10.497335
5207174215000.0,-0.7480458420018132,8.115516908522212,4.672598658567543,-0.43463063,-0.86742866,-1.6887369,155.46188,-51.377476,-10.673296
5207179205000.0,-0.4664286819292839,8.119849567633725,4.200348315865821,-0.40561453,-0.81214535,-1.6249015,155.93996,-51.15818,-10.844207
5207184177000.0,-0.2536932468167442,8.012336085741895,3.966472174909953,-0.3481932,-0.75716746,-1.566564,156.40498,-50.965748,-11.012031
5207189268000.0,-0.0652330018622507,7.853858260423438,3.8294101824826496,-0.27580565,-0.7174612,-1.496009,156.84544,-50.79467,-11.164548
5207194938000.0,0.1415886291245173,7.660557989639639,3.727550143629344,-0.20616703,-0.68844515,-1.4330899,157.2477,-50.73865,-11.266157
5207199261000.0,0.2969960434594594,7.500710196396396,3.687588264864865,-0.13958271,-0.67164636,-1.3710871,157.62968,-50.70831,-11.353944
5207204221000.0,0.4510619402840237,7.349808078343195,3.700013446863905,-0.062002823,-0.6554584,-1.3136657,158.00749,-50.709465,-11.398727
5207209219000.0,0.5879536311242604,7.2223574517751485,3.7566582355029583,0.0067195175,-0.6627888,-1.2666291,158.37634,-50.73135,-11.428772
5207214241000.0,0.676598860097704,7.121762587682323,3.820902558126876,0.07391469,-0.66859204,-1.217149,158.75055,-50.766495,-11.418497
5207219296000.0,0.7238980777576942,7.044056664833555,3.891851418131063,0.12156218,-0.67256266,-1.16492,159.11597,-50.819702,-11.394867
5207224241000.0,0.7701680344992672,6.9680416720566685,3.9612563860283343,0.1872302,-0.67347896,-1.1133019,159.49431,-50.875237,-11.330705
5207229225000.0,0.7950291048284881,6.904261213268283,4.035849903279348,0.23457226,-0.6731735,-1.0607675,159.86269,-50.943657,-11.253601
5207234176000.0,0.8093379430630722,6.847025790604567,4.112163683955337,0.2919936,-0.6398814,-1.0036516,160.21254,-51.037468,-11.1693325
5207239219000.0,0.7673770807854309,6.781611806867433,4.123851277108557,0.32650748,-0.6078109,-0.93401295,160.57314,-51.109905,-11.055737
5207244265000.0,0.6985456877688473,6.712780393315698,4.104185122281005,0.364992,-0.54641896,-0.86376345,160.90788,-51.203712,-10.940416
5207249219000.0,0.6868458320773625,6.673510439753482,4.064410339613188,0.40683624,-0.46700647,-0.8005389,161.23195,-51.288998,-10.816457
5207254213000.0,0.6964312693356047,6.644754178023851,4.016483153321976,0.44348818,-0.37048978,-0.7415904,161.52509,-51.388332,-10.692012
5207259184000.0,0.7508810810899715,6.587998529898649,3.987877372635135,0.48563787,-0.2764165,-0.6789767,161.78922,-51.494522,-10.584788
5207264205000.0,0.8235559939366999,6.519598430743243,3.966502500675676,0.52839845,-0.2302962,-0.61544675,162.03075,-51.61474,-10.473037
5207269216000.0,0.8806398716067916,6.44838438865307,3.952880292576871,0.5644395,-0.13561209,-0.5748242,162.23581,-51.74747,-10.379761
5207274187000.0,0.920069463795424,6.374453951547779,3.947951596769852,0.5900958,-0.058643065,-0.50243664,162.41705,-51.89516,-10.270379
5207279214000.0,0.9438235324866858,6.337197793322408,3.9535891029905774,0.64568454,0.015271631,-0.42638394,162.58066,-52.054104,-10.153431
5207284205000.0,0.9536141784463336,6.332302534238018,3.96827503359279,0.6963864,0.073303826,-0.34574974,162.71634,-52.222824,-10.030187
5207289195000.0,0.8628062044043256,6.377706513906515,4.01681859689874,0.75502944,0.118507855,-0.27305678,162.83513,-52.40115,-9.897044
5207294429000.0,0.692572022043078,6.462823544275628,4.092975893082492,0.81489426,0.14172074,-0.2049453,162.93225,-52.597046,-9.753717
5207299192000.0,0.5154991475305961,6.536685720933676,4.161637554984209,0.86193085,0.16523905,-0.13805555,163.00972,-52.80271,-9.601073
5207304190000.0,0.2887409234366364,6.60754786019542,4.232499792903671,0.9147707,0.16310102,-0.07086037,163.07613,-53.02828,-9.433807
5207309176000.0,0.0500981685533118,6.655881,4.279359687250024,0.97035944,0.15699236,-0.014966198,163.12697,-53.257748,-9.296942
5207314227000.0,-0.2188736075641401,6.655881,4.274640788898644,1.0149527,0.14874569,0.038179077,163.1683,-53.49963,-9.146157
5207319234000.0,-0.4787175992543689,6.640439053592233,4.218496146330097,1.0830641,0.14782938,0.08857546,163.19357,-53.75039,-9.034444
5207324228000.0,-0.7201721561592234,6.584718619805825,4.028118466252427,1.1624765,0.16676621,0.13836098,163.20804,-54.016026,-8.913978
5207329217000.0,-0.9312855873274208,6.544696182865502,3.806665605458535,1.2840388,0.20891592,0.18692477,163.1986,-54.301266,-8.850517
5207334178000.0,-1.031198022633263,6.562072156807168,3.472176133930694,1.4074335,0.28619036,0.24251351,163.16815,-54.608013,-8.783324
5207339610000.0,-1.1308139556621448,6.5927796215168994,3.113414720902346,1.5601498,0.3924809,0.3051272,163.08955,-54.97747,-8.77891
5207344266000.0,-1.1374975471782958,6.713084443281121,2.86612166033126,1.7299703,0.5235115,0.38912117,162.97623,-55.384636,-8.771907
5207349210000.0,-1.1445945567263731,6.840830800412201,2.6035321217867047,1.8802432,0.64721173,0.47525316,162.79375,-55.89624,-8.798352
5207354181000.0,-1.0904570729630012,6.989703941832423,2.4031291039987632,2.0182989,0.7480045,0.5467244,162.57762,-56.447136,-8.822766
5207359179000.0,-0.9227351336535092,7.177157890363805,2.319268041626301,2.1038198,0.7959574,0.62796944,162.33315,-57.022278,-8.832422
5207364217000.0,-0.6627772840529745,7.36486778078621,2.3815835110714034,2.1875083,0.8032878,0.6948592,162.03145,-57.723255,-8.840005
5207369196000.0,-0.2785340066344334,7.548636317511037,2.648883207196413,2.2186625,0.7910705,0.72601336,161.72118,-58.424404,-8.837063
5207374438000.0,0.1260057122303974,7.742111848644104,2.930302168250298,2.257758,0.74097955,0.8081747,161.39586,-59.196808,-8.755693
5207379183000.0,0.3518762587555464,7.839390667134455,3.1594291217005472,2.2919664,0.6814202,0.8885035,161.07826,-59.965324,-8.660982
5207384217000.0,0.4861926873181302,7.884162775358581,3.3832898186564857,2.3176227,0.61422503,0.9593639,160.77179,-60.734707,-8.5377655
5207389212000.0,0.5418569203796761,7.961978466164154,3.4195803187604694,2.3393085,0.5653558,1.0497719,160.50426,-61.48813,-8.242199
5207394254000.0,0.5508437481481482,8.060833477777777,3.343192188888889,2.3612995,0.5571091,1.1420126,160.23979,-62.239765,-7.926968
5207399248000.0,0.5312792630844259,8.145400676455164,3.197625915322496,2.3802364,0.5849035,1.2504412,159.99065,-62.95682,-7.5524597
5207404218000.0,0.4813613493036182,8.215285600419508,2.977987255228107,2.4208589,0.6441574,1.3701707,159.72769,-63.678253,-7.1587853
5207409220000.0,0.4243278534458456,8.190066246661722,2.743709115578635,2.4740043,0.7305948,1.4892895,159.43018,-64.4319,-6.7434993
5207414229000.0,0.3620519699508531,8.092204488408754,2.499053837425816,2.543643,0.8185594,1.5958854,159.11017,-65.19157,-6.3125553
5207419369000.0,0.3003689263240018,7.982514201835705,2.317059954217531,2.6245825,0.9221011,1.6997325,158.73672,-66.01092,-5.8775697
5207424248000.0,0.244615995484167,7.866719567049104,2.231286193795319,2.6975808,0.98899084,1.8051068,158.34557,-66.83498,-5.424064
5207429132000.0,0.1811974722223402,7.745498025584089,2.199210454807878,2.7834074,1.0262536,1.8939877,157.91911,-67.71667,-4.9771643
5207434218000.0,0.0871491257811353,7.599723091620003,2.363794995896891,2.850908,0.9868528,1.9749273,157.49478,-68.59838,-4.506493
5207439195000.0,-0.0096020753773087,7.474836577308706,2.5198877546174145,2.9251282,0.89980453,2.0549507,157.06862,-69.5004,-4.029061
5207444431000.0,-0.1380172008601583,7.443705660158312,2.656085720316623,2.9840767,0.73639804,2.1218405,156.6778,-70.39756,-3.5255606
5207449161000.0,-0.2540224612753375,7.415583192984634,2.7791216977339745,3.0454686,0.54733527,2.175902,156.33005,-71.24394,-3.0206597
5207454235000.0,-0.3752922939992166,7.543293936388562,2.966897090716804,3.0628784,0.3866777,2.191479,156.02614,-72.070816,-2.5012033
5207459225000.0,-0.4922827658166862,7.781954514923619,3.19151862773208,3.0204232,0.23426682,2.1817052,155.77852,-72.872406,-1.9644427
5207464226000.0,-0.6043998204734912,8.15572070171724,3.257574373282761,2.9568932,0.15577064,2.1697934,155.5698,-73.60107,-1.4607608
5207469403000.0,-0.7159900468422807,8.659943152984328,3.187313947015672,2.9220738,0.032375857,2.1557434,155.42406,-74.298615,-0.951746
5207474251000.0,-0.8430223067056195,9.267205337171337,3.029985557535659,2.8658743,-0.070554934,2.1594086,155.30724,-74.90739,-0.47203538
5207479226000.0,-1.1009369167331156,10.655031986939337,2.3504009422667123,2.8356364,-0.09773844,2.1432207,155.21208,-75.48742,-0.006302557
5207484193000.0,-1.3584367896992608,12.040626955662484,1.671909126379103,2.8481593,-0.086437434,2.1197023,155.13501,-76.097664,0.43105128
5207489217000.0,-1.4011803591406051,12.831706218069328,1.485679405814052,2.87687,-0.12217305,2.083356,155.08719,-76.67753,0.85734797
5207494355000.0,-1.392839763920671,13.494787348334604,1.414783845664887,2.8906143,-0.14049901,2.0525072,155.03883,-77.23033,1.2685779
5207499187000.0,-1.4950110918449055,14.059763352755242,1.621230956126857,2.876259,-0.116980694,1.9651535,155.01593,-78.0332,1.5811288
5207504169000.0,-1.7312820350331894,14.572521438099251,2.159124493899484,2.8334985,-0.099571034,1.7684549,155.01848,-78.80278,1.8512896
5207509163000.0,-1.890750311488152,15.209388481706162,2.780184316473933,2.8735101,-0.20555615,1.4364496,155.06863,-79.621025,2.0624588
5207514204000.0,-1.9868460583033172,15.955274432322277,3.4757346158672986,2.903137,-0.43249258,1.056186,155.1665,-80.40489,2.206915
5207520158000.0,-1.8295676862430528,16.886119917584146,4.114352629998951,2.8441887,-0.72356987,0.70463306,155.3253,-81.09395,2.225375
5207524269000.0,-1.557109167599874,17.55901005284681,4.444605247939603,2.726597,-0.840856,0.43890667,155.51244,-81.774155,2.1680639
5207529187000.0,-1.3046451490882207,17.761743174470183,4.638176326269098,2.529593,-0.79717916,0.35124752,155.72746,-82.30653,2.0546553
5207534223000.0,-1.1097333340068998,17.447982752193198,4.661946295909315,2.2605069,-0.5830709,0.39584067,155.9305,-82.784225,1.9147608
5207539169000.0,-1.2587354635608203,16.730151515381895,4.722200730781471,1.933083,-0.21166481,0.44135013,156.04567,-83.13155,1.8168368
5207544179000.0,-1.746507548868458,15.597672283592646,4.819755023833098,1.5632042,0.15027285,0.41325033,156.10172,-83.391556,1.7144623
5207549156000.0,-2.2418504182909604,14.526760800494351,4.895738404599223,1.16492,0.4718934,0.2883284,156.04623,-83.534584,1.6319691
5207554242000.0,-2.783619686793785,13.610912640183615,4.904337955993998,0.81092364,0.72418076,0.11301007,155.90948,-83.59527,1.5239017
5207559568000.0,-3.3288231211895307,12.675351347216594,4.907028332574345,0.5027421,0.9129381,-0.074830994,155.72112,-83.53513,1.2834332
5207564215000.0,-3.4297951524835915,12.25703850627988,4.8024500470302245,0.25045475,0.9804387,-0.17134771,155.4976,-83.39146,1.0230654
5207569260000.0,-3.5394151003808445,11.802898570294142,4.688914981273803,0.16065755,1.0818423,-0.3399465,155.24103,-83.185165,0.58608997
5207574193000.0,-3.478696462063655,11.450306371663244,4.507553968531828,0.021991149,1.1102476,-0.46609017,154.98648,-82.87279,0.14305077
5207579185000.0,-3.2578202968069814,11.180346802053387,4.257227565903491,-0.056505036,1.0708468,-0.57360244,154.72684,-82.53312,-0.33389395
5207584165000.0,-2.908765492799625,10.907352826284106,3.9637891954811977,-0.10445796,0.96852684,-0.643852,154.48212,-82.14337,-0.85016775
5207590097000.0,-2.371359173637714,10.578691458447343,3.5729483541396294,-0.116675265,0.82986045,-0.76083267,154.26413,-81.71697,-1.3977634
5207594474000.0,-1.9853519742934385,10.34743734398296,3.288954765986729,-0.1518,0.67256266,-0.8035932,154.06847,-81.29995,-1.8922148
5207599176000.0,-1.727130475743426,10.266281525026624,3.049177726222659,-0.17195857,0.5109888,-0.8741482,153.91895,-80.86314,-2.413148
5207604216000.0,-1.450346904349963,10.179291876464324,2.7921644807077906,-0.23671028,0.38423425,-0.9092729,153.7788,-80.48913,-2.8250358
5207609218000.0,-1.2017010143320892,10.106526615224372,2.535552177935944,-0.31612277,0.28710666,-0.9184359,153.67825,-80.097786,-3.237634
5207615229000.0,-0.926886275260828,10.03157720354136,2.2257610676156583,-0.41447207,0.2003638,-0.893085,153.61072,-79.6817,-3.638748
5207619264000.0,-0.7813348483495746,9.987130070765662,2.0465355727455528,-0.4978552,0.12614368,-0.850019,153.55037,-79.32009,-3.9701355
5207624184000.0,-0.6975211377231245,9.947045198375871,1.897128452559938,-0.5571091,0.059253927,-0.79168135,153.51045,-78.94516,-4.281119
5207629182000.0,-0.6123786731477185,9.90632483410673,1.7453526829079655,-0.6062838,0.005497787,-0.7290677,153.47716,-78.625496,-4.5266232
5207634176000.0,-0.6623684991882641,9.874598412958436,1.5726076805134477,-0.63285637,-0.017715093,-0.6597345,153.45074,-78.30756,-4.7481623
5207639227000.0,-0.7806385327791361,9.84700233414833,1.3873179409127954,-0.66675943,-0.02687807,-0.6044512,153.43297,-77.98498,-4.950491
5207644170000.0,-0.8928148674063154,9.852658255023664,1.2260289271394211,-0.7067711,-0.018936822,-0.54641896,153.40727,-77.70584,-5.1104217
5207649210000.0,-0.9939252679028628,9.97998228636822,1.1361530068973542,-0.74006325,-0.008857546,-0.5161811,153.38213,-77.42732,-5.259765
5207654223000.0,-1.0944940055396073,10.106624224687716,1.0467585647994413,-0.7809912,-0.0018325958,-0.48441613,153.35278,-77.17314,-5.4147096
5207659178000.0,-1.1355190011995344,10.225068430131593,0.9824066814090054,-0.79351395,0.00580322,-0.47158796,153.31885,-76.92319,-5.564823
5207664235000.0,-1.1441896444006805,10.34212229442306,0.9303828040945304,-0.79137594,0.011911872,-0.44012842,153.27963,-76.67691,-5.6990256
5207669217000.0,-1.0917192065845285,10.3524912823672,0.8922891507493436,-0.79473567,0.0070249503,-0.40866885,153.2383,-76.446556,-5.8469224
5207674188000.0,-0.9522945544536456,10.21306632902444,0.8730581479761664,-0.79198676,-0.00030543262,-0.39950588,153.1939,-76.22345,-5.9903398
5207679209000.0,-0.7829118832847523,10.07458274087848,0.9484301822695748,-0.79198676,-0.022602014,-0.3921755,153.15399,-76.02148,-6.1217437
5207684166000.0,-0.5777348971363956,9.940979408885315,1.1488356286762489,-0.77732605,-0.11301007,-0.3622431,153.1319,-75.83165,-6.23761
5207689202000.0,-0.3537119855697164,9.80500978515054,1.2865562396083017,-0.7696902,-0.2706133,-0.32528573,153.13217,-75.65439,-6.3199677
5207694257000.0,-0.1084270345188541,9.66821645133002,1.338443452850044,-0.7528914,-0.40866885,-0.29352075,153.15,-75.489746,-6.3894563
5207699185000.0,0.1177671233763494,9.55026589125483,1.3929601706843615,-0.7247916,-0.52687126,-0.25534168,153.20947,-75.31736,-6.402524
5207704193000.0,0.3267666827527978,9.45526615984946,1.454709996097851,-0.68539083,-0.61422503,-0.2003638,153.29587,-75.16136,-6.394316
5207709131000.0,0.4726006882605769,9.36094868826923,1.519809709778846,-0.643852,-0.70402217,-0.15118915,153.4158,-75.02474,-6.3264117
5207714545000.0,0.5124844133163462,9.256253380961535,1.5995771390673077,-0.61941737,-0.78801614,-0.11484267,153.55643,-74.900665,-6.2413907
5207719229000.0,0.4672440525381991,9.195795448894822,1.6369036707758493,-0.6160576,-0.86345804,-0.076052725,153.7247,-74.788025,-6.1018777
5207724233000.0,0.2290896997478119,9.202904677199228,1.6013582715769177,-0.62125,-0.9080512,-0.050396383,153.90724,-74.68232,-5.9530354
5207729157000.0,-0.0052572293368935,9.209900248776146,1.5663811441477524,-0.6230826,-0.92179567,-0.027183503,154.10086,-74.56768,-5.7859106
5207734219000.0,-0.1989257660484922,9.235051828017728,1.4627871307812634,-0.6264423,-0.90285885,-0.010079277,154.29724,-74.45302,-5.6135592
5207739241000.0,-0.3577507777874337,9.272668166072826,1.3123213421308768,-0.6441574,-0.8381071,-0.00061086525,154.48436,-74.33524,-5.4403834
5207744214000.0,-0.5333950205581791,9.31347602134492,1.154325444996222,-0.63529986,-0.73426,0.02107485,154.64601,-74.212555,-5.324961
5207749229000.0,-0.7556614167567057,9.363373092557612,0.9728834554703436,-0.6133087,-0.6133087,0.03268129,154.78485,-74.08973,-5.216566
5207754203000.0,-0.9536886041781794,9.408670192741392,0.7981339591128369,-0.573297,-0.5479461,0.022296581,154.90009,-73.99502,-5.1474447
5207759221000.0,-1.043406385859906,9.433790920543649,0.6474081458442237,-0.4908302,-0.4447099,0.014049901,154.96999,-73.92056,-5.08716
5207764203000.0,-1.1324805166567098,9.458731427899336,0.497763665632141,-0.43157628,-0.4175264,-0.0106901415,155.03426,-73.87047,-5.079467
5207769280000.0,-1.136136897424737,9.493467450852377,0.4213795,-0.29443705,-0.36926803,-0.03848451,155.06429,-73.863846,-5.084578
5207774214000.0,-1.0547270606819006,9.536314686253174,0.4213795,-0.15118915,-0.267559,-0.0571159,155.07251,-73.87423,-5.100262
5207779186000.0,-0.94123544945598,9.613559051079736,0.5070179450166113,-0.053450707,-0.172264,-0.07269296,155.06255,-73.93334,-5.1510715
5207784223000.0,-0.7459181028623338,9.778827769414452,0.8125142959717608,-0.00061086525,-0.106901415,-0.08307768,155.0328,-74.01638,-5.210594
5207789214000.0,-0.4719180612133662,9.871408758970144,0.9984509491920024,0.00580322,-0.07819075,-0.09407325,154.98926,-74.117096,-5.260285
5207794260000.0,-0.0516756580621747,9.838318829635716,0.9785969743152562,0.027794369,-0.05467244,-0.09621128,154.92842,-74.233826,-5.3143706
5207799246000.0,0.3635698080717612,9.8056223596275,0.9589790752396604,0.06078109,-0.040317107,-0.083383106,154.87997,-74.32216,-5.32821
5207804221000.0,0.7175095227287217,9.70424865635958,0.9323541693975136,0.13225232,-0.04337143,-0.06078109,154.82896,-74.425865,-5.340271
5207809365000.0,1.0054141139347572,9.510567299649344,0.8957117645946233,0.19394971,-0.04917465,-0.041233405,154.77374,-74.53496,-5.3503985
5207814210000.0,1.1976198755809269,9.384722301141704,0.8846538130114171,0.2519819,-0.052534413,-0.013133603,154.7435,-74.70849,-5.233846
5207819268000.0,1.3375055405104097,9.296887022968434,0.8911601402296844,0.3051272,-0.0421497,0.018020526,154.7096,-74.896255,-5.1135454
5207824176000.0,1.4732427574882472,9.211656586971122,0.8974735158697112,0.34788775,-0.033292156,0.034513887,154.68698,-75.10908,-4.942513
5207829211000.0,1.5847738080366025,9.138670208275313,0.9333681349154564,0.3735441,-0.025961773,0.05375614,154.65974,-75.33055,-4.7653627
5207834221000.0,1.67544583847225,9.07663121981301,0.990634637441814,0.40286562,-0.033292156,0.077579886,154.63287,-75.56199,-4.584694
5207839206000.0,1.7212140141321044,9.115094665258576,1.0313946238863287,0.4382958,-0.04917465,0.09193522,154.61166,-75.80202,-4.3650804
5207845249000.0,1.7360303485919095,9.253381020822664,1.0659661225294417,0.47433686,-0.047647487,0.11209377,154.58586,-76.04732,-4.141162
5207849199000.0,1.7303475564134887,9.334233090450676,1.1116521075638195,0.52503866,-0.05681047,0.15088372,154.5727,-76.29342,-3.892866
5207854238000.0,1.673314548857548,9.40647496883864,1.2447291516624643,0.58459806,-0.06994407,0.18387043,154.55942,-76.54664,-3.643987
5207859135000.0,1.6178887425464858,9.476681057043807,1.3740560587771824,0.6038403,-0.13164146,0.20066923,154.55959,-76.79732,-3.3846798
5207864213000.0,1.4948319746009522,9.567807,1.3712668499859983,0.66859204,-0.22052236,0.23701571,154.56778,-77.07332,-3.1125464
5207869277000.0,1.3409165326519183,9.667399,1.303362925707085,0.6963864,-0.30695978,0.269697,154.5918,-77.33736,-2.837535
5207874200000.0,1.1618105983567135,9.794159965531062,1.2268714783567134,0.7147123,-0.3817908,0.30573806,154.63632,-77.57732,-2.5654106
5207879242000.0,0.953763582985972,9.948985740681364,1.139782042985972,0.7324274,-0.4373795,0.3371976,154.69772,-77.81806,-2.2863076
5207884166000.0,0.7625869062205137,10.08280456805871,1.0877883968547963,0.7538077,-0.4905248,0.36285394,154.77075,-78.07219,-2.0310063
5207889192000.0,0.5775569073562816,10.204755983575048,1.0625570513367115,0.7690793,-0.5323691,0.37201694,154.85532,-78.321945,-1.773886
5207894231000.0,0.4009605400895938,10.32364724294056,1.0152918110066236,0.77640975,-0.57879484,0.3894266,154.94482,-78.58398,-1.5501654
5207899222000.0,0.2509934584549416,10.43195703224682,0.9069822261425832,0.7877107,-0.6188065,0.38362336,155.04536,-78.84302,-1.3330067
5207904576000.0,0.0914586772789984,10.546495433226951,0.7915600568270529,0.8026769,-0.6230826,0.39522982,155.142,-79.10548,-1.1514331
5207909187000.0,-0.0142359087345035,10.606117949766784,0.7102565215054621,0.806953,-0.593761,0.39095375,155.24193,-79.36031,-0.9794524
5207914254000.0,-0.1303830497734135,10.671636772431569,0.6209125584877869,0.80756384,-0.528093,0.37934732,155.32677,-79.63594,-0.8464149
5207921108000.0,-0.2863054474264087,10.748320468460893,0.4882701325740118,0.806953,-0.41416663,0.36163223,155.39075,-79.90545,-0.7232985
5207924237000.0,-0.3493118098612279,10.701065726240538,0.3465058118324222,0.8213083,-0.38423425,0.34422258,155.4609,-80.17263,-0.6052582
5207929212000.0,-0.4494897111438183,10.625932347350716,0.1211055255782169,0.818254,-0.31123585,0.32559118,155.48038,-80.45701,-0.5393265
5207934222000.0,-0.3692468971193562,10.54212506589182,0.1490402873918641,0.80909103,-0.24801129,0.2959642,155.496,-80.73694,-0.48386815
5207939232000.0,-0.2448468771014751,10.456332007331246,0.2391230642769781,0.8176431,-0.18234327,0.2742785,155.4912,-81.01484,-0.4362483
5207944229000.0,-0.0681459869921639,10.38666215732369,0.3545034910186859,0.81061816,-0.15485434,0.25900686,155.47868,-81.31827,-0.41639757
5207949253000.0,0.1493670229977898,10.32865903254973,0.4898449230460117,0.806953,-0.14049901,0.23732115,155.45285,-81.618385,-0.40732265
5207954098000.0,0.3387338778461209,10.25640653504072,0.6139788359408487,0.81153446,-0.12095132,0.23640485,155.42227,-81.891754,-0.37197387
5207959079000.0,0.517642206588084,10.169507513716246,0.7366588590227175,0.8081747,-0.1160644,0.23060162,155.39296,-82.156006,-0.3448771
5207964121000.0,0.6494202612062057,10.09423056138909,0.8403316271447653,0.7959574,-0.09162979,0.22418754,155.3594,-82.38994,-0.27835777
5207969076000.0,0.7566809013325799,10.025973947292716,0.9329657925100177,0.78893244,-0.06719518,0.22113322,155.32457,-82.619286,-0.21410982
5207974059000.0,0.8198713637511094,9.966275036091115,0.9680526548762448,0.77671516,-0.045814894,0.22785273,155.28864,-82.816536,-0.11839371
5207979048000.0,0.8669857214742136,9.909737627748743,0.9821869577655064,0.7703011,-0.030543262,0.23701571,155.24754,-83.008415,-0.025354516
5207984063000.0,0.8444929494164721,9.887214526842282,1.022984350583528,0.766025,-0.015882496,0.24007004,155.20204,-83.17437,0.08628239
5207989107000.0,0.7921446304768256,9.879161198066022,1.0753326695231744,0.7742717,-0.0125227375,0.23457226,155.15549,-83.337,0.19578344
5207994076000.0,0.7172002969434256,9.87532834200289,1.1355142333333337,0.7831292,0.017715093,0.23945917,155.09494,-83.48825,0.3149809
5207999076000.0,0.5894669969545404,9.880650671668334,1.2153475666666669,0.78801614,0.03359759,0.23701571,155.03812,-83.63557,0.42871016
5208004072000.0,0.4677544823030303,9.883265,1.2865037137373738,0.77457714,0.050701816,0.23701571,154.97527,-83.763306,0.5287349
5208009067000.0,0.3517880496666666,9.883265,1.3493188155555556,0.75991637,0.053450707,0.2284636,154.91257,-83.8878,0.6236829
5208014087000.0,0.2486727410021668,9.874082286023835,1.4295640200975082,0.7415904,0.049785517,0.21410827,154.84618,-83.990456,0.69185084
5208019146000.0,0.1568137265200433,9.85658497905381,1.5257972900686168,0.7128797,0.04886922,0.20922135,154.77843,-84.08283,0.75871706
5208024110000.0,0.0721212639802712,9.837074738594328,1.5109272365598028,0.66737026,0.032375857,0.20005837,154.70947,-84.15285,0.7978993
5208029111000.0,-0.0016974918865598,9.812468503082616,1.2648647272811344,0.6200282,0.04734206,0.19456059,154.6321,-84.21235,0.8349484
5208034082000.0,-0.0838467175394433,9.773619092536784,1.0389842347987943,0.5870415,0.113926366,0.21838433,154.54102,-84.24184,0.8565828
5208039173000.0,-0.1832419575401524,9.708796159368903,0.8401937710423684,0.5882632,0.16523905,0.2180789,154.45119,-84.26824,0.8693508
5208044138000.0,-0.2789013142988682,9.64663111548053,0.6658498831421447,0.5888741,0.17715092,0.21319197,154.35399,-84.33407,0.87352794
5208049115000.0,-0.3657621991454057,9.591771934874354,0.6292768764837905,0.57818395,0.18203785,0.20738874,154.24446,-84.39579,0.875753
5208054385000.0,-0.4613299403249654,9.53374000528069,0.5920620379299699,0.56382865,0.17165314,0.1685988,154.1365,-84.50298,0.84665066
5208059121000.0,-0.5829271231602893,9.4821534263547,0.5736382168689577,0.52839845,0.14660765,0.15210545,154.03091,-84.59844,0.8225605
5208064125000.0,-0.7114052276594363,9.427647674465838,0.5541718316093914,0.50793445,0.12064589,0.118202426,153.93692,-84.70501,0.7649963
5208069130000.0,-0.8010746135625,9.393677202392578,0.5216956251259766,0.47067168,0.11056661,0.08032878,153.84576,-84.795364,0.7024273
5208074151000.0,-0.8621202453750001,9.374893808105467,0.4794332846308593,0.44532076,0.105068825,0.042760566,153.76117,-84.882324,0.6315986
5208079145000.0,-0.8881159523487793,9.497526248181364,0.500120228124564,0.41172317,0.12217305,0.02076942,153.67197,-84.96007,0.5235917
5208084118000.0,-0.8833699907364225,9.744314656302938,0.5760551926915795,0.3924809,0.118202426,-0.019547688,153.5909,-85.03271,0.4018899
5208089159000.0,-0.8607972570933667,10.012750145107868,0.6331845899615075,0.36193767,0.12370021,-0.04153884,153.50542,-85.100716,0.26878858
5208094212000.0,-0.821810211601468,10.298655588667083,0.672171649023364,0.35124752,0.13316862,-0.05497787,153.41963,-85.16466,0.12864159
5208099193000.0,-0.7871742431246627,10.53798485629481,0.7255093818055662,0.3436117,0.1572978,-0.06291912,153.32886,-85.2055,-0.013450352
5208104171000.0,-0.7614465797787372,10.677649015110632,0.813718478737183,0.33017266,0.16035213,-0.06688975,153.24063,-85.23695,-0.1555048
5208109139000.0,-0.7357705991635186,10.817032611132529,0.9017503778043328,0.3313944,0.14996742,-0.064751714,153.1505,-85.26506,-0.28631842
5208114197000.0,-0.6540393258023464,10.836617704116126,0.9826215157436866,0.3222314,0.15149458,-0.059864793,153.05533,-85.28266,-0.41522953
5208119301000.0,-0.5471233847564128,10.802598818452973,1.0603785808460926,0.31245756,0.15760323,-0.050396383,152.9609,-85.29711,-0.539558
5208124255000.0,-0.5070530786486487,10.719035135135137,1.0855440216216214,0.30634892,0.183565,-0.049785517,152.86221,-85.28739,-0.6566474
5208129233000.0,-0.4927896018938865,10.614436567068914,1.0902985155280742,0.3036,0.19883664,-0.035124753,152.76385,-85.27491,-0.76454526
5208134170000.0,-0.5074999033200273,10.448792378054716,1.1171996821633725,0.2950479,0.20922135,-0.04886922,152.66507,-85.2472,-0.8576101
5208139300000.0,-0.5361995587089865,10.247894265894264,1.1554659059974686,0.2837469,0.18753563,-0.06963864,152.57104,-85.21773,-0.9464657
5208144258000.0,-0.5723302999087279,10.13017974614946,1.2624231198516829,0.26328292,0.1554652,-0.102319926,152.4773,-85.1805,-1.0378919
5208149233000.0,-0.6130986369737593,10.053173197851304,1.407377204040692,0.22296582,0.110872045,-0.12736541,152.39381,-85.13332,-1.1306558
5208154190000.0,-0.5448831202178981,10.030161478463564,1.444056651687443,0.18784106,0.025961773,-0.14905111,152.33112,-85.065056,-1.235648
5208159181000.0,-0.3801799128286206,10.05438252275261,1.3859261453937366,0.12339478,-0.0076358155,-0.14294247,152.26651,-84.97773,-1.3381317
5208164207000.0,-0.262597814011914,10.085999729258395,1.2237097329569195,0.051923547,-0.074830994,-0.14630222,152.24254,-84.84231,-1.4546998
5208170228000.0,-0.1680128942217042,10.130802976344643,0.9299986525606492,-0.01740966,-0.14752395,-0.13836098,152.22934,-84.69278,-1.5631331
5208174187000.0,-0.1461073186237122,10.139067064160493,0.7969329510690403,-0.08032878,-0.20097467,-0.15057829,152.22974,-84.55045,-1.6414402
5208179230000.0,-0.2377585572691125,10.086694784565337,0.8056616293963492,-0.11026118,-0.21197024,-0.15515977,152.23843,-84.40219,-1.7130281
5208184533000.0,-0.3271153815854679,10.030477268206932,0.8204203138975389,-0.1151481,-0.0729984,-0.14263703,152.2205,-84.31235,-1.7643738
5208189228000.0,-0.3421708309325297,9.970255816675037,0.8844059952385737,-0.06383542,-0.06536258,-0.129198,152.24298,-84.23115,-1.8119202
5208194229000.0,-0.3582075300133936,9.906109388749371,0.952561989357107,-0.118507855,-0.10262536,-0.15515977,152.24261,-84.1091,-1.8893367
5208199177000.0,-0.4622854123223587,9.832591132481571,0.958949433960688,-0.1704314,-0.14385876,-0.16432275,152.24008,-84.00596,-1.9569963
5208204249000.0,-0.6198213036324325,9.75143614162162,0.9303065414594596,-0.20158553,-0.1518,-0.20219639,152.2399,-83.89024,-2.0387795
5208209176000.0,-0.7381563656894049,9.737088496952104,1.0163785835994197,-0.22876903,-0.13469578,-0.23090707,152.24634,-83.74387,-2.123768
5208214271000.0,-0.83730200918239,9.7654159081761,1.181621363836478,-0.2611449,-0.14630222,-0.25992316,152.26399,-83.58658,-2.2168648
5208219305000.0,-0.8757526452634725,9.785890221137564,1.2917566108974998,-0.31123585,-0.2312125,-0.26267207,152.29245,-83.41208,-2.3384352
5208224219000.0,-0.8663771307301524,9.79995329714115,1.3573852615798383,-0.34422258,-0.31703907,-0.27672195,152.32487,-83.23191,-2.468568
5208229246000.0,-0.8231349033252964,9.824746353827608,1.339518591410488,-0.3924809,-0.39400807,-0.28405234,152.37708,-82.997,-2.6129305
5208234209000.0,-0.7515108956600361,9.858171066907776,1.2487948616636528,-0.42546764,-0.4529566,-0.28221974,152.44757,-82.760826,-2.753366
5208239961000.0,-0.6734561259972862,9.92297264531886,1.0789852071913162,-0.4474588,-0.48991394,-0.26633725,152.5302,-82.50733,-2.884976
5208244269000.0,-0.617476647109905,9.98454986458616,0.919443658751696,-0.45540005,-0.4896085,-0.24281894,152.61736,-82.25476,-3.0099835
5208249192000.0,-0.5535056687991858,10.054917703595658,0.7371263321573949,-0.44073927,-0.46914452,-0.23793201,152.7046,-82.03197,-3.116828
5208254230000.0,-0.4736536627882825,10.129068166160478,0.5015875058646027,-0.4260785,-0.40317106,-0.23579398,152.77689,-81.81383,-3.2170153
