timestamp,acc_x,acc_y,acc_z,gyro_x,gyro_y,gyro_z,ori_azimuth,ori_pitch,ori_roll
7987831775000.0,-6.518296586591212,0.2462477457033152,7.182795035372801,6.173404,5.710674,-7.7772307,86.3204,9.177486,-31.866552
7987836763000.0,-6.517097774173715,0.2479260840892413,7.183514325326875,6.173404,0.75533485,0.028099801,83.43477,7.9919086,-30.897322
7987841712000.0,-6.515908334988833,0.2495912999416769,7.184227991321806,-1.1881329,0.7623598,0.035430185,86.204445,9.315223,-32.158264
7987846745000.0,-6.514698707302935,0.2512847797123999,7.184953770459508,-1.187522,0.7476991,0.036957346,86.08536,7.708462,-32.436825
7987851753000.0,-6.513495088099481,0.2529698476026802,7.185675944495194,-1.1838568,0.7266242,0.036651913,85.968704,7.8743744,-32.710407
7987856758000.0,-6.5122921899139214,0.2546539060673075,7.186397685918639,-1.1603385,0.73426,0.033292156,85.853096,8.030242,-32.983097
7987861759000.0,-6.511090253085553,0.2563366186310638,7.187118850525761,-1.1606439,0.75747293,0.028099801,85.73783,8.186103,-33.249435
7987866805000.0,-6.509877500988782,0.258034472579617,7.187846504316511,-1.169807,0.7800749,0.035430185,85.61989,8.33205,-33.51354
7987871736000.0,-6.508692387911261,0.2596936318781339,7.18855757463799,-1.2006557,0.7874053,0.050396383,85.501625,8.477934,-33.77521
7987876730000.0,-6.507492133457977,0.2613739891153663,7.189277729816548,-1.2281445,0.75655663,0.044593163,85.387085,8.622551,-34.026867
7987881728000.0,-6.506290917647502,0.2630556922534695,7.189998461811428,-1.2043208,0.77488256,0.054061573,85.26593,8.7526245,-34.290993
7987886767000.0,-6.505079847925817,0.2647511908754988,7.1907251061736135,-1.2403619,0.7635816,0.067500606,85.142075,8.898799,-34.53323
7987891713000.0,-6.503891129758828,0.2664153973022812,7.191438339556303,-1.2476922,0.75502944,0.06078109,85.02357,9.029784,-34.77595
7987897136000.0,-6.502587769746782,0.2682401024079103,7.192220358285442,-1.2431108,0.74464476,0.063224554,84.89701,9.15815,-35.011383
7987901741000.0,-6.501481007280348,0.2697895707854544,7.192884418076643,-1.2437216,0.74097955,0.06872234,84.772194,9.285558,-35.24142
7987906707000.0,-6.500287482327403,0.271460506716591,7.193600535540944,-1.2452488,0.7156286,0.079107046,84.63995,9.4054785,-35.467293
7987911816000.0,-6.499059588854871,0.2731795586038598,7.194337274188772,-1.2495248,0.70280045,0.09682214,84.504585,9.51977,-35.691593
7987916729000.0,-6.497878801884709,0.2748326613484578,7.195045748836801,-1.244027,0.65240407,0.093462385,84.36924,9.629945,-35.893017
7987921706000.0,-6.496682633199488,0.2765072985069892,7.195763452545989,-1.1859949,0.5870415,0.09865474,84.2236,9.720696,-36.08366
7987926687000.0,-6.495485503157076,0.2781832815663915,7.196481733071498,-1.0784826,0.5198463,0.096516706,84.078735,9.797041,-36.254917
7987931698000.0,-6.49428116293573,0.2798693588823249,7.197204339719427,-0.9440922,0.44868052,0.09193522,83.92883,9.850418,-36.403233
7987936711000.0,-6.493076342035788,0.2815561091486938,7.197927234775516,-0.818254,0.3820962,0.090713486,83.77504,9.878642,-36.5308
7987941861000.0,-6.4918385946520445,0.2832889565198886,7.1986698857906495,-0.6942484,0.32498032,0.08002335,83.62285,9.87758,-36.637405
7987946772000.0,-6.490658288360479,0.2849413863140512,7.199378072030517,-0.5647449,0.08032878,0.030848695,83.46694,9.852877,-36.66801
7987951749000.0,-6.489462119675258,0.2866160234725826,7.200095775739705,-0.09101892,-0.022296581,0.004276057,83.31515,9.719485,-36.721024
7987956706000.0,-6.488270757775993,0.2882839311267599,7.20081059536728,0.07269296,-0.00030543262,0.014049901,83.160995,9.630141,-36.7392
7987961729000.0,-6.487063533483073,0.2899740461453058,7.201534932464176,0.017104227,-0.0015271631,0.012217305,83.01365,9.492541,-36.71987
7987966756000.0,-6.4858553478329615,0.2916655070647226,7.202259846377394,0.003970624,-0.006414085,0.013133603,82.8664,9.309636,-36.706226
7987971710000.0,-6.48466470695159,0.2933324052932466,7.202974233392727,0.008857546,-0.0012217305,0.01282817,82.72376,9.13927,-36.694763
7987976746000.0,-6.483454358247798,0.2950268944896228,7.203700445142671,0.013439035,0.014660766,0.008246681,82.58549,8.975858,-36.684696
7987981709000.0,-6.482261554312746,0.2966968209951063,7.20441612999473,0.002443461,0.011911872,0.009468411,82.447075,8.817191,-36.6711
7987986745000.0,-6.481051205608955,0.2983913101914824,7.205142341744673,0.00580322,0.00580322,0.00580322,82.31546,8.659062,-36.66039
7987991712000.0,-6.479857440316711,0.3000625825978367,7.205858603413055,-0.0076358155,0.0143553335,0.010995574,82.18361,8.508629,-36.653477
7987996729000.0,-6.478651658059578,0.3017506787650764,7.206582075285467,-0.004276057,0.011911872,0.0070249503,82.057556,8.35884,-36.64104
7988001742000.0,-6.477446837159635,0.3034374290314453,7.207304970341556,-0.004581489,0.010079277,0.005497787,81.9318,8.214556,-36.631523
7988006786000.0,-6.4762345657414615,0.3051346100295631,7.208032335724145,-0.00030543262,-0.007330383,0.012217305,81.805695,8.070591,-36.6171
7988011764000.0,-6.475038156716942,0.3068095836633122,7.208750183637413,-0.017104227,-0.0018325958,0.0067195175,81.687965,7.936678,-36.607925
7988016716000.0,-6.473847996514166,0.3084758089414008,7.209464282244586,-0.00580322,0.0030543262,0.010995574,81.56553,7.795293,-36.5946
7988021801000.0,-6.472625871184782,0.3101867854234447,7.210197559994478,-0.006414085,-0.003970624,0.01160644,81.448074,7.6646805,-36.57911
7988026758000.0,-6.471434509285517,0.3118546930776219,7.210912379622054,0.0030543262,-0.009162978,0.0033597588,81.33471,7.5325913,-36.56537
7988031698000.0,-6.470247233154315,0.3135168806530981,7.2116247477802595,-0.0076358155,-0.008246681,0.003970624,81.22002,7.4062095,-36.551937
7988036748000.0,-6.4690335197003535,0.3152160805025221,7.212352978387331,-0.015882496,-0.005192355,0.0125227375,81.10721,7.2797027,-36.537796
7988041854000.0,-6.467806347245714,0.3169341229641378,7.213089284422917,0.006414085,-0.015271631,0.006414085,81.00059,7.1535053,-36.51974
7988046753000.0,-6.466628925025724,0.318582515055688,7.2137957402138175,0.0030543262,-0.01038471,-0.00030543262,80.89403,7.0360794,-36.507298
7988052731000.0,-6.465192176703391,0.3205939639071448,7.214657792207694,0.00580322,-0.01740966,0.011301007,80.78385,6.912465,-36.489376
7988056768000.0,-6.464221926958115,0.321952314361031,7.21523994408111,0.0018325958,-0.026267206,0.0067195175,80.68366,6.7974353,-36.471542
7988061832000.0,-6.463004848753984,0.3236562248635029,7.215970193545311,0.0061086523,-0.02076942,0.007330383,80.57973,6.6793256,-36.456745
7988066758000.0,-6.461820937372951,0.3253137017859312,7.216680542846388,0.0030543262,-0.016187929,0.004886922,80.47971,6.5673676,-36.439175
7988071886000.0,-6.4605884774537605,0.3270391467023364,7.217420021371747,0.005497787,-0.009468411,0.0067195175,80.38001,6.4545527,-36.424244
7988076740000.0,-6.459421870502171,0.3286723974090898,7.218119987979019,0.0125227375,-0.016493361,0.007941248,80.28257,6.344069,-36.406834
7988081711000.0,-6.458227143852737,0.3303450157163149,7.218836826463724,0.01160644,-0.016187929,0.002443461,80.18912,6.237813,-36.393417
7988086735000.0,-6.457019679220518,0.3320354672100786,7.2195613077647,0.012217305,-0.0076358155,-0.0015271631,80.09628,6.131242,-36.38071
7988091887000.0,-6.45578145115818,0.3337689875317088,7.220304247187994,0.0036651916,-0.01038471,0.0061086523,80.00229,6.0280075,-36.36536
7988096698000.0,-6.454652658702731,0.3349869176096546,7.220998781273264,0.008246681,-0.010079277,0.006414085,79.914246,5.925559,-36.35308
7988101761000.0,-6.4536704427026095,0.3332680385838216,7.221735445837406,0.016798794,0.004276057,0.00580322,79.82577,5.8249645,-36.344486
7988106707000.0,-6.452710924563838,0.3315888808390518,7.222455086946283,0.015271631,0.00061086525,0.007330383,79.72416,5.7225637,-36.33264
7988111755000.0,-6.45173161854594,0.32987509428515,7.22318956901616,0.016187929,0.004886922,0.0076358155,79.62564,5.6199737,-36.32708
7988116839000.0,-6.450745328570705,0.3281490857986134,7.223929289072272,0.013439035,0.0067195175,0.01160644,79.52644,5.519674,-36.320015
7988122765000.0,-6.449595691593276,0.326137219887674,7.224791519806443,0.0061086523,0.01038471,0.005497787,79.43232,5.423822,-36.314377
7988126764000.0,-6.448819890332268,0.3247795668708251,7.225373372777409,0.0036651916,0.0030543262,0.0106901415,79.333855,5.326773,-36.30665
7988131707000.0,-6.447860954189941,0.3231014276204415,7.226092577387433,0.00061086525,-0.006414085,0.010995574,79.24062,5.2352266,-36.29899
7988136726000.0,-6.446887274137677,0.3213974865122733,7.226822839968398,0.0070249503,-0.004581489,0.015882496,79.14547,5.1421595,-36.292835
7988141741000.0,-6.445914370080674,0.3196949033966201,7.227552520550893,0.007330383,0.0021380284,0.017104227,79.05261,5.053472,-36.28538
7988146783000.0,-6.444936228055666,0.3179831538314908,7.228286129623065,0.003970624,-0.008552114,0.015271631,78.95982,4.9655547,-36.273655
7988151760000.0,-6.443970695953631,0.3162934716447299,7.229010281220089,0.0018325958,-0.010079277,0.013744468,78.8684,4.8787074,-36.26655
7988156715000.0,-6.443009431825525,0.3146112584168013,7.229731231825525,-0.004276057,-0.0076358155,0.0076358155,78.780266,4.796261,-36.25747
7988161739000.0,-6.442034781779187,0.3129056198179894,7.230462221904578,-0.0070249503,-0.0106901415,0.014660766,78.68901,4.7131314,-36.246887
7988166720000.0,-6.441068473681892,0.3112145796387134,7.231186955500073,-0.0036651916,-0.005192355,0.024129177,78.60063,4.632114,-36.239468
7988171725000.0,-6.440097509613038,0.3095153915043477,7.231915181086392,-0.004581489,0.004276057,0.0125227375,78.51845,4.5565677,-36.232075
7988176756000.0,-6.439121501574994,0.3078073764186346,7.232647189662769,-0.01282817,0.003970624,0.019242255,78.42751,4.4786844,-36.22435
7988181711000.0,-6.438160237446888,0.306125163190706,7.233368140268205,-0.008857546,0.004581489,0.014049901,78.346375,4.4036036,-36.218987
7988186731000.0,-6.43718636339581,0.3044208825844091,7.234098548348788,-0.014049901,0.00030543262,0.016798794,78.26103,4.3314037,-36.212597
7988191753000.0,-6.436212101347102,0.3027159229818547,7.234829247428606,-0.014660766,0.00061086525,0.017104227,78.17966,4.2598624,-36.20754
7988196775000.0,-6.435237839298393,0.3010109633793002,7.235559946508424,-0.009773844,0.004886922,0.019242255,78.09774,4.188757,-36.202602
7988201749000.0,-6.434272889192803,0.2993222996869255,7.2362836616065955,-0.012217305,0.012217305,0.018020526,78.018105,4.121258,-36.19864
7988206714000.0,-6.433309685076547,0.2976366914777095,7.237006067208208,-0.008246681,0.014049901,0.025350908,77.93573,4.0505958,-36.194637
7988211762000.0,-6.43233037905865,0.2959229049238077,7.237740549278085,-0.0015271631,0.01038471,0.021380283,77.85887,3.9832106,-36.19086
7988216734000.0,-6.431365816950689,0.2942349202276905,7.238463973377021,0.003970624,0.0061086523,0.018325957,77.78019,3.9150307,-36.187607
7988221794000.0,-6.430384182947012,0.2925170596962438,7.23920020144231,-0.008857546,0.010995574,0.016798794,77.7036,3.8511808,-36.18589
7988226753000.0,-6.429422142823646,0.2908334884758003,7.239921734046216,-0.0015271631,0.0030543262,0.014049901,77.629005,3.7833598,-36.179237
7988231717000.0,-6.428459132706205,0.289148219764713,7.240643994148211,-0.01282817,0.0036651916,0.01863139,77.55372,3.72296,-36.17658
7988236771000.0,-6.427478662695418,0.2874323962220388,7.241379349215794,-0.01160644,-0.0067195175,0.0125227375,77.48363,3.6613994,-36.16829
7988241793000.0,-6.42650440064671,0.2857274366194843,7.242110048295612,-0.009773844,0.0030543262,0.013133603,77.41108,3.6014502,-36.16627
7988246777000.0,-6.42553751055297,0.2840353779458222,7.242835218389961,-0.01282817,-0.0018325958,0.019547688,77.33887,3.543445,-36.157257
7988251753000.0,-6.42457217244975,0.28234603525719,7.243559224487367,-0.021685716,0.004581489,0.018020526,77.270744,3.4886265,-36.154186
7988256718000.0,-6.423608968333494,0.280660427047974,7.244281630088979,-0.010995574,0.006414085,0.021685716,77.19917,3.4290354,-36.14878
7988261714000.0,-6.422639750253975,0.2789642943967669,7.245008546178739,-0.018020526,0.0076358155,0.022296581,77.130264,3.3772988,-36.14502
7988266723000.0,-6.421668010189861,0.2772637482698862,7.245737353763528,-0.026572637,0.020158553,0.027488936,77.0597,3.3230352,-36.145233
7988271763000.0,-6.420690256162483,0.2755526777010144,7.246470671836463,-0.023518313,0.018325957,0.024129177,76.9925,3.2699876,-36.141586
7988276755000.0,-6.419721814078224,0.2738579030423222,7.247197005927752,-0.02321288,0.022907447,0.026267206,76.92289,3.2186263,-36.143517
7988281712000.0,-6.418760161952487,0.2721750108181362,7.247918247532424,-0.02076942,0.030848695,0.021991149,76.857635,3.1685877,-36.145657
7988286752000.0,-6.41778240792511,0.2704639402492644,7.24865156560536,-0.0125227375,0.03176499,0.018020526,76.79234,3.1175878,-36.147095
7988291725000.0,-6.416817651818334,0.2687756160550185,7.2493751352039135,-0.007941248,0.022602014,0.013744468,76.72945,3.0684993,-36.147724
7988296714000.0,-6.417805735167604,0.2677021879653143,7.2487461734334175,-0.0015271631,0.025045475,0.014966198,76.66709,3.0176935,-36.151863
7988301730000.0,-6.419949222969604,0.2669876915339346,7.24731717659162,-0.007330383,0.016493361,0.013744468,76.60746,2.9706578,-36.150078
7988306719000.0,-6.422081172858793,0.2662770410761687,7.245895871718469,-0.0033597588,0.015882496,0.0061086523,76.54917,2.9290137,-36.156155
7988311759000.0,-6.424234916583291,0.2655591260015766,7.244460037571208,-0.0015271631,0.025045475,0.013439035,76.486786,2.88753,-36.1627
7988316928000.0,-6.426443785891213,0.2648228357197182,7.242987452907084,0.005497787,0.026572637,0.003970624,76.43358,2.8487134,-36.16634
7988321708000.0,-6.428486423788653,0.2641419559465932,7.241625689569007,0.008246681,0.02443461,0.0018325958,76.376045,2.8086503,-36.171627
7988326702000.0,-6.430620510328364,0.2634305932714914,7.240202960257218,0.006414085,0.017715093,-0.0015271631,76.32292,2.770499,-36.17569
7988331719000.0,-6.432764425460468,0.2627159543966444,7.238773678527692,0.0009162979,0.0076358155,0.0012217305,76.26894,2.7325544,-36.17809
7988336760000.0,-6.43491859651507,0.2619978968785852,7.237337559492704,0.008857546,0.0106901415,-0.00030543262,76.21845,2.6938486,-36.1821
7988341797000.0,-6.437071058249256,0.2612804091343946,7.235902580008626,0.012217305,0.005497787,0.0021380284,76.16583,2.656926,-36.180984
7988346724000.0,-6.439176513671994,0.260578590171594,7.234498938174588,0.007941248,0.0018325958,-0.004886922,76.11786,2.6224136,-36.180958
7988351749000.0,-6.44132384744493,0.2598628117490096,7.233067377343242,0.00061086525,-0.003970624,0.003970624,76.06387,2.5853593,-36.17915
7988356702000.0,-6.443440413450374,0.2591572892560623,7.231656328428285,0.020463986,-0.0021380284,0.004581489,76.01598,2.5461695,-36.178276
7988361778000.0,-6.445609541058618,0.2584342462166517,7.23021023832283,0.02321288,0.003970624,0.007330383,75.9648,2.51131,-36.177223
7988366726000.0,-6.447723970413541,0.2577294359410403,7.228800613846512,0.0143553335,0.004581489,0.0070249503,75.91504,2.475595,-36.175148
7988371764000.0,-6.449876859477831,0.2570118057533825,7.227365349474707,0.010079277,0.00061086525,0.005497787,75.865395,2.4385893,-36.17355
7988377766000.0,-6.452441694762441,0.2561568600633623,7.225655453333466,0.017104227,-0.0018325958,0.002443461,75.81708,2.4019194,-36.17255
7988381763000.0,-6.454149733188397,0.25558751352504,7.224516757086124,0.008552114,0.003970624,0.005192355,75.767914,2.3696687,-36.172882
7988386744000.0,-6.4562782644367545,0.2548780026150116,7.223097731314794,0.004581489,0.006414085,0.00580322,75.7211,2.336184,-36.171547
7988391953000.0,-6.45850422694884,0.254136014594466,7.221613751141564,0.008246681,0.01282817,0.0018325958,75.67569,2.3037431,-36.173008
7988396776000.0,-6.460565240040754,0.2534490097522521,7.220239737631199,0.004276057,0.0015271631,0.005497787,75.62767,2.2730873,-36.170227
7988401764000.0,-6.46269676259984,0.2527385017379535,7.218818717645775,0.0070249503,0.018325957,0.010995574,75.58157,2.240887,-36.177246
7988406725000.0,-6.464816747246117,0.2520318396972686,7.217405389628998,-0.007330383,0.007941248,0.0061086523,75.53778,2.215169,-36.173218
7988411766000.0,-6.466970918300719,0.2513137821792094,7.21596927059401,-0.007330383,0.0067195175,0.017715093,75.48721,2.182269,-36.17683
7988416734000.0,-6.469093894257724,0.2506061230342543,7.214553948363139,-0.009162978,-0.0009162979,0.013439035,75.44429,2.1570187,-36.175358
7988421762000.0,-6.471242510020972,0.2498899172812684,7.21312153286861,-0.009162978,0.0067195175,0.019242255,75.39453,2.1280878,-36.178204
7988426759000.0,-6.473377878550995,0.2491781272757651,7.211697948893637,0.00030543262,-0.004581489,0.013133603,75.350624,2.1005058,-36.173294
7988431716000.0,-6.475496153876855,0.248472035008949,7.21028576042777,-0.0106901415,0.006414085,0.021991149,75.300446,2.0745325,-36.177227
7988436777000.0,-6.477658871533539,0.2477511286215462,7.20884394363823,-0.01038471,-0.009162978,0.022907447,75.255226,2.0465546,-36.170227
7988441958000.0,-6.479872868802709,0.2470131290180816,7.207367940321373,-0.005497787,-0.0012217305,0.022907447,75.20833,2.0190885,-36.173214
7988447769000.0,-6.482356084037443,0.2461853900302929,7.205712457736109,-0.007941248,-0.010995574,0.027488936,75.15953,1.9926842,-36.16687
7988451763000.0,-6.484062840473087,0.2456164708223721,7.204574616151951,0.0012217305,-0.02687807,0.038789943,75.109,1.961718,-36.161175
7988456722000.0,-6.486181970459154,0.2449100936686217,7.2031618579106285,0.004276057,-0.027183503,0.036651913,75.06229,1.9346037,-36.157166
7988461731000.0,-6.488322466950426,0.2441965943415122,7.201734855282925,0.0036651916,-0.028405234,0.022907447,75.016075,1.9067107,-36.14858
7988466728000.0,-6.4904578354804485,0.2434848043360089,7.200311271307952,0.0015271631,-0.018325957,0.045814894,74.958435,1.8730738,-36.143764
7988471763000.0,-6.492609442554426,0.2427676014787528,7.19887686159933,0.0015271631,-0.0125227375,0.05222898,74.91197,1.8445957,-36.137283
7988476751000.0,-6.494740965113512,0.2420570934644541,7.197455841613906,-0.0015271631,-0.01038471,0.03756821,74.86561,1.8174527,-36.132797
7988481707000.0,-6.496858813109268,0.2413511436411052,7.196043938035767,0.00061086525,-0.010995574,0.04184427,74.810974,1.7852702,-36.12955
7988486735000.0,-6.499007428872517,0.2406349378881193,7.194611522541237,-0.005192355,0.00030543262,0.04520403,74.76268,1.7586607,-36.130245
7988491924000.0,-6.501224844782521,0.2398957987369172,7.19313324012256,-0.007330383,0.0009162979,0.04550946,74.71441,1.7309086,-36.127808
7988496827000.0,-6.501525887087852,0.2396453427391714,7.192707379359002,-0.004276057,-0.00061086525,0.041233405,74.66732,1.7038896,-36.127975
7988501745000.0,-6.497985766945942,0.2403533672604277,7.194359435425227,-0.0009162979,-0.0033597588,0.036957346,74.620735,1.6776079,-36.12797
7988506698000.0,-6.494420452781063,0.2410664305897857,7.19602324870217,-0.008552114,-0.009773844,0.03756821,74.56877,1.6595138,-36.142395
7988511750000.0,-6.49078387552264,0.2417937465477741,7.197720318089435,-0.0125227375,-0.008857546,0.03268129,74.521,1.6416657,-36.157642
7988516755000.0,-6.487181130237919,0.2425142961063117,7.199401599222305,-0.017104227,-0.0143553335,0.03726278,74.47014,1.6241889,-36.168995
7988521775000.0,-6.483567587514783,0.2432370051540358,7.201087919159768,-0.009162978,-0.016798794,0.029932396,74.42591,1.6077129,-36.180992
7988526748000.0,-6.479987876765349,0.243952947802309,7.202758450842837,-0.013744468,-0.021991149,0.028099801,74.378624,1.5936085,-36.190475
7988531744000.0,-6.476391609943677,0.2446722016673348,7.204436708692951,-0.019547688,-0.023823744,0.020463986,74.33663,1.58032,-36.199852
7988536793000.0,-6.472757192172938,0.2453990857274859,7.206132770319296,-0.013744468,-0.03726278,0.0106901415,74.29639,1.566192,-36.204205
7988541778000.0,-6.4691688434727705,0.2461167559671083,7.20780733304604,-0.0125227375,-0.04184427,0.008246681,74.25689,1.5545727,-36.210407
7988546763000.0,-6.465580494772604,0.2468344262067306,7.209481895772784,-0.0067195175,-0.048258353,0.013744468,74.21832,1.5409276,-36.212185
7988556709000.0,-6.458421073273737,0.2482663115032771,7.212822959138923,-0.011301007,-0.043982297,-0.009162978,74.1912,1.5346828,-36.215416
7988561771000.0,-6.454777297723036,0.2489950671207232,7.214523387729249,-0.012217305,-0.044593163,-0.0030543262,74.15217,1.5205139,-36.21579
7988566749000.0,-6.451193987827464,0.2497117295987252,7.21619559901385,-0.005192355,-0.03940081,-0.005497787,74.12479,1.5109206,-36.21878
7988571772000.0,-6.447578285616644,0.2504348705442865,7.217882926712233,0.009773844,-0.040317107,-0.005497787,74.09466,1.498294,-36.21997
7988576748000.0,-6.443996415379528,0.2511512450903971,7.219554466156221,0.0030543262,-0.041233405,-0.0009162979,74.06418,1.4887663,-36.22266
7988581713000.0,-6.440422463263916,0.2518660360111042,7.221222310476839,0.006414085,-0.035124753,-0.009468411,74.03881,1.4758375,-36.22698
7988586709000.0,-6.436826196442245,0.25258528987613,7.222900568326953,0.008552114,-0.034513887,-0.0033597588,74.00691,1.4616107,-36.22964
7988591950000.0,-6.433053571459783,0.2533398153978674,7.224661126652101,0.0125227375,-0.030543262,-0.008857546,73.9826,1.4497308,-36.234806
7988596769000.0,-6.429584714411417,0.2540335872904933,7.226279926608005,0.01863139,-0.029321533,-0.0106901415,73.955154,1.4353607,-36.239395
7988601754000.0,-6.425996365711251,0.2547512575301157,7.227954489334749,0.019242255,-0.027183503,-0.016798794,73.931564,1.423165,-36.24524
7988606711000.0,-6.42242817222946,0.2554648967232567,7.229619646292918,0.017104227,-0.02565634,-0.014966198,73.906136,1.4093554,-36.251236
7988611713000.0,-6.418827586432423,0.256185014383957,7.231299919664869,0.01985312,-0.029321533,-0.016187929,73.88423,1.396005,-36.2562
7988616803000.0,-6.4151636556633465,0.2569178010478844,7.233009754023771,0.010079277,-0.0290161,-0.020463986,73.86308,1.3864197,-36.262634
7988621766000.0,-6.41159114320619,0.2576323040367,7.234676926503778,0.016493361,-0.040011674,-0.0143553335,73.83882,1.3710847,-36.264805
7988626755000.0,-6.407999915189112,0.2583505501401054,7.236352832911748,0.018020526,-0.036651913,-0.015271631,73.818985,1.3611642,-36.271023
7988631716000.0,-6.404428842390411,0.2590647651970295,7.238019333551141,0.017104227,-0.034208454,-0.0070249503,73.79386,1.3478827,-36.27399
7988636758000.0,-6.400799463424265,0.2597906414955603,7.2397130437353425,0.0106901415,-0.028099801,-0.0106901415,73.77363,1.3378551,-36.278862
7988641772000.0,-6.397190239676495,0.2605124867476098,7.241397348150969,0.0021380284,-0.029321533,-0.009773844,73.74911,1.3265258,-36.28241
7988646762000.0,-6.39359829183019,0.261230876816961,7.243073590479245,0.004276057,-0.023823744,-0.0067195175,73.72555,1.3145988,-36.289562
7988651755000.0,-6.390004184496202,0.2619496987841495,7.244750840568439,0.009773844,-0.02076942,-0.009773844,73.70406,1.3048242,-36.295563
7988656758000.0,-6.386402878869936,0.2626699604107955,7.246431449860696,0.018020526,-0.0143553335,-0.004276057,73.67886,1.2920551,-36.304104
7988661765000.0,-6.382798693926761,0.2633907979012246,7.248113402834178,0.016187929,-0.005497787,-0.0027488936,73.656494,1.281657,-36.314037
7988666940000.0,-6.379073577673328,0.2641358216705418,7.249851790419114,0.02687807,-0.0076358155,-0.0021380284,73.63276,1.2658751,-36.322533
7988671767000.0,-6.375598961991141,0.2648307452907338,7.2514732777374675,0.024129177,-0.0106901415,-0.004276057,73.60985,1.2540084,-36.333057
7988676756000.0,-6.372007733974064,0.2655489913941392,7.253149184145437,0.011911872,-0.0070249503,-0.002443461,73.58569,1.2413199,-36.344727
7988681707000.0,-6.368443859467639,0.2662617667916057,7.254812325581768,0.014660766,-0.0033597588,-0.00030543262,73.56243,1.2263311,-36.35532
7988686714000.0,-6.364839674524464,0.2669826042820348,7.25649427855525,0.006414085,-0.0018325958,0.0061086523,73.53732,1.2158071,-36.366203
7988691758000.0,-6.361208855899862,0.2677087685124572,7.258188660580064,0.005192355,-0.012217305,0.0061086523,73.51399,1.2039161,-36.374454
7988696779000.0,-6.3601221598239706,0.2680570613883204,7.258097140176029,0.008246681,-0.008857546,0.011301007,73.486984,1.1911001,-36.386936
7988701739000.0,-6.362974311835699,0.2678193813094625,7.255244988164301,-0.002443461,-0.009773844,0.0070249503,73.46356,1.1834624,-36.395
7988706704000.0,-6.3658293390006655,0.2675814616337508,7.252389960999334,-0.004886922,-0.016187929,0.013133603,73.42228,1.1681626,-36.398903
7988711749000.0,-6.368730368617434,0.2673397084083801,7.249488931382566,-0.0070249503,-0.006414085,0.017715093,73.3837,1.1562757,-36.406998
7988717024000.0,-6.371763655283133,0.2670869337277399,7.246455644716867,-0.020158553,0.002443461,0.026572637,73.341896,1.145755,-36.412987
7988721772000.0,-6.374493900797586,0.2668594125554783,7.243725399202414,-0.01985312,0.007941248,0.032986723,73.29993,1.132304,-36.42067
7988726798000.0,-6.377384004832051,0.2666185697981516,7.240835295167948,-0.027794369,0.009162978,0.042455133,73.25437,1.1217442,-36.429516
7988731721000.0,-6.380214880709822,0.2663826627360109,7.238004419290178,-0.024129177,0.0009162979,0.04734206,73.20877,1.1081426,-36.43696
7988736766000.0,-6.38311591032659,0.2661409095106403,7.23510338967341,-0.030543262,-0.0018325958,0.05222898,73.16051,1.0970756,-36.446117
7988741756000.0,-6.385985313257744,0.2659017918506602,7.232233986742256,-0.029321533,0.0076358155,0.062308256,73.10936,1.0817169,-36.45627
7988746768000.0,-6.388867366863145,0.2656616199645239,7.229351933136855,-0.027794369,0.014966198,0.06414085,73.06004,1.068336,-36.464806
7988751765000.0,-6.391740795008832,0.2654221668689487,7.226478504991168,-0.02107485,0.02443461,0.065973446,73.00796,1.0517989,-36.47647
7988756749000.0,-6.394606747756101,0.265183336725193,7.223612552243899,-0.03176499,0.022296581,0.08460484,72.949936,1.035817,-36.48671
7988761759000.0,-6.397487651300206,0.2649432606777981,7.220731648699794,-0.030543262,0.034208454,0.09285152,72.8959,1.0171112,-36.503246
7988766810000.0,-6.400392131100859,0.2647012199362031,7.217827168899141,-0.037873644,0.042760566,0.10262536,72.83541,0.9994918,-36.517963
7988772848000.0,-6.403864166150621,0.2644118827756901,7.214355133849379,-0.039095376,0.042455133,0.10293079,72.77626,0.98052305,-36.533073
7988776765000.0,-6.40611656119698,0.2642241826005114,7.21210273880302,-0.0421497,0.051618114,0.10873401,72.71267,0.96117043,-36.552914
7988781713000.0,-6.408961812840938,0.2639870775541023,7.209257487159062,-0.043066,0.05009095,0.105374254,72.65304,0.94322854,-36.569035
7988786766000.0,-6.411867442702887,0.2637449409737657,7.206351857297113,-0.04153884,0.06383542,0.10476339,72.59143,0.92407924,-36.59163
7988791725000.0,-6.414719019683967,0.2635073088142785,7.203500280316033,-0.04886922,0.065973446,0.0983493,72.53388,0.9088511,-36.609882
7988796723000.0,-6.417593022860302,0.2632678077993325,7.200626277139698,-0.046120327,0.06261369,0.09987647,72.47464,0.88981974,-36.629906
7988801756000.0,-6.4204871521093,0.2630266296064107,7.1977321478907,-0.052839845,0.0580322,0.10140363,72.418495,0.8758077,-36.649548
7988806718000.0,-6.423340454182324,0.2627888536888113,7.194878845817676,-0.06261369,0.05589417,0.10323623,72.36251,0.8616369,-36.668358
7988811764000.0,-6.42624205882974,0.2625470525440699,7.19197724117026,-0.049785517,0.048258353,0.09773844,72.30935,0.8448669,-36.68374
7988816712000.0,-6.429087310473698,0.2623099474976608,7.1891319895263015,-0.042760566,0.051618114,0.09193522,72.25649,0.8314099,-36.70118
7988821768000.0,-6.431994665427589,0.262067667159212,7.186224634572411,-0.03940081,0.040927973,0.087659165,72.205666,0.8165869,-36.711983
7988826737000.0,-6.434851992715146,0.2618295558060174,7.183367307284854,-0.029932396,0.02076942,0.07819075,72.159454,0.8007308,-36.720562
7988831727000.0,-6.4377213956463,0.2615904381460373,7.1804979043537,-0.017104227,0.020158553,0.054061573,72.12076,0.78667647,-36.73129
7988836738000.0,-6.440602874221052,0.2613503141792717,7.177616425778948,-0.010079277,0.03023783,0.062308256,72.0744,0.7679719,-36.739277
7988843044000.0,-6.444229017484351,0.2610481346274011,7.173990282515649,-0.025045475,0.04153884,0.05955936,72.041084,0.7575328,-36.747166
7988846855000.0,-6.446420459282072,0.2608655139055205,7.171798840717928,-0.020463986,0.022296581,0.044898596,72.00948,0.741827,-36.74899
7988851813000.0,-6.449271461232506,0.260627929665404,7.168947838767494,-0.008857546,0.015577064,0.036957346,71.97709,0.7273765,-36.757393
7988856726000.0,-6.4520965868038,0.2603925017969707,7.1661227131962,-0.0015271631,0.01160644,0.04337143,71.94511,0.7130065,-36.76098
7988861727000.0,-6.4549723150720775,0.2601528570239125,7.163246984927922,0.0143553335,-0.008552114,0.025350908,71.924965,0.6997053,-36.75784
7988866722000.0,-6.457844593156469,0.2599134997670788,7.16037470684353,0.034208454,-0.0067195175,0.01282817,71.90102,0.68195915,-36.75991
7988871761000.0,-6.460742172589353,0.2596720340579325,7.157477127410647,0.027183503,-0.037873644,-0.003970624,71.885025,0.67078775,-36.74684
7988876753000.0,-6.463612725581802,0.259432820559211,7.154606574418198,0.04795292,-0.049785517,-0.024129177,71.87504,0.651708,-36.739906
7988881719000.0,-6.466468327777416,0.2591948529641286,7.151750972222584,0.055283304,-0.059864793,-0.03359759,71.86717,0.6385744,-36.72498
7988886734000.0,-6.469352106474759,0.2589545373198801,7.148867193525241,0.060170226,-0.08827003,-0.034208454,71.86317,0.62342745,-36.70187
7988891732000.0,-6.472226109651094,0.2587150363049341,7.145993190348906,0.0693332,-0.109650314,-0.03970624,71.86419,0.60833365,-36.678432
7988896698000.0,-6.464460340526555,0.2613174485140328,7.149312310783224,0.08582657,-0.12522738,-0.0421497,71.86413,0.5902753,-36.64935
7988901892000.0,-6.440109387352585,0.2683792256210132,7.162218321788213,0.10598512,-0.14110987,-0.04550946,71.86609,0.5706409,-36.614986
7988906706000.0,-6.417539982543288,0.2749243536520113,7.174180111733922,0.12583824,-0.15271631,-0.042455133,71.860695,0.55003846,-36.5999
7988911747000.0,-6.393906337000357,0.2817781115257672,7.1867059495229375,0.12614368,-0.15607607,-0.048563786,71.85973,0.53183514,-36.58315
7988916788000.0,-6.370272691457426,0.2886318693995232,7.199231787311954,0.13652839,-0.1554652,-0.052534413,71.85685,0.50635403,-36.564857
7988921944000.0,-6.346099893119924,0.2956419815989053,7.212043376211014,0.14935656,-0.1563815,-0.046120327,71.85237,0.47998512,-36.545834
7988926756000.0,-6.323539864880967,0.3021843904242403,7.2240001965722,0.16554448,-0.1469131,-0.053450707,71.85417,0.4539904,-36.530533
7988931716000.0,-6.300285970436821,0.3089280204686421,7.236324766188054,0.1685988,-0.12583824,-0.06078109,71.853714,0.4275584,-36.51892
7988936748000.0,-6.276694519460422,0.3157695419169143,7.248828240846718,0.17256944,-0.124005646,-0.06261369,71.8538,0.39816225,-36.50503
7988941854000.0,-6.252756135381429,0.3227116739747198,7.261515590132716,0.183565,-0.116675265,-0.0711658,71.85891,0.36951065,-36.499065
7988946773000.0,-6.229694460629262,0.3293995603030288,7.273738283265858,0.19394971,-0.09987647,-0.09132435,71.86877,0.34304827,-36.49664
7988951754000.0,-6.206342112196543,0.3361717420068928,7.286115033519198,0.20066923,-0.10781772,-0.12980886,71.88802,0.32018214,-36.48945
7988956716000.0,-6.1830788411820565,0.3429180912569576,7.298444572719573,0.23732115,-0.112399206,-0.16187929,71.91204,0.29108855,-36.488163
7988961756000.0,-6.159449883924296,0.3497704895278821,7.310967925716327,0.24220806,-0.10629055,-0.18600847,71.94655,0.27361158,-36.487843
7988966769000.0,-6.135947510366131,0.3565861785223551,7.3234241893220275,0.25809056,-0.10354166,-0.2049453,71.990036,0.2504997,-36.4855
7988971769000.0,-6.112506084515178,0.3633841926800182,7.3358481506283315,0.25320363,-0.11759156,-0.2443461,72.04872,0.23935612,-36.480278
7988976756000.0,-6.089125606371438,0.3701645320008714,7.348239809635239,0.26297748,-0.1282817,-0.2602286,72.10504,0.22114839,-36.477062
7988981739000.0,-6.065763881368378,0.3769394329103984,7.360621529473102,0.26908615,-0.14508049,-0.29993483,72.18287,0.2162699,-36.468357
7988986740000.0,-6.042317767232255,0.3837388066708931,7.373047975571667,0.3036,-0.16340645,-0.33292156,72.26289,0.20473535,-36.4566
7988991972000.0,-6.017788659221818,0.3908522486854717,7.386048408682583,0.3136793,-0.17379116,-0.36041048,72.35384,0.20373641,-36.442856
7988996725000.0,-5.995505239807902,0.3973144409437463,7.397858626300356,0.33322698,-0.19639318,-0.38728857,72.45484,0.19868545,-36.421074
7989001756000.0,-5.971918477116673,0.4041546027891869,7.410359616166759,0.33414328,-0.22357668,-0.40591997,72.561104,0.19940947,-36.3958
7989006726000.0,-5.948617699820826,0.410911828861904,7.422709033705225,0.33444872,-0.26145032,-0.4034765,72.667656,0.1972921,-36.36199
7989011758000.0,-5.925026248844427,0.4177533503101762,7.435212508363889,0.3463606,-0.2932153,-0.4092797,72.78192,0.19730234,-36.32329
7989016794000.0,-5.901416044727347,0.4246003101697745,7.447725922191598,0.35002577,-0.30268374,-0.408058,72.89096,0.19792731,-36.281597
7989021770000.0,-5.878087137720479,0.4313656938594807,7.460090248483632,0.36682457,-0.3173445,-0.43157628,73.00893,0.19834225,-36.23095
7989026748000.0,-5.854748854143271,0.4381337967548502,7.472459544360188,0.36377025,-0.3136793,-0.43401974,73.11715,0.19911405,-36.184547
7989031733000.0,-5.83137775256987,0.4449114168700403,7.484846233782573,0.37873647,-0.30451632,-0.4456262,73.23501,0.19779754,-36.137264
7989036744000.0,-5.807884755582045,0.4517243866588503,7.497297527803751,0.38881573,-0.2742785,-0.473726,73.357704,0.2019025,-36.098724
7989041956000.0,-5.783449413275012,0.4588106366167983,7.510248265069442,0.38637227,-0.24190263,-0.4886922,73.47792,0.20563696,-36.065014
7989046742000.0,-5.76101128045048,0.4653176957685134,7.522140480831836,0.3903429,-0.21655174,-0.5018258,73.60552,0.21047446,-36.03921
7989051780000.0,-5.73739169976306,0.4721673748337747,7.534658864244068,0.39492437,-0.20433442,-0.50579643,73.73321,0.21718177,-36.019928
7989056726000.0,-5.714203441311297,0.4788919704385351,7.546948646768263,0.39950588,-0.18325958,-0.51343226,73.86494,0.22628987,-36.011196
7989061752000.0,-5.690640120045919,0.485725334269818,7.55943721267336,0.40561453,-0.16554448,-0.5164866,73.99449,0.23437175,-36.00567
7989066704000.0,-5.667423731883135,0.4924580874915676,7.571741903951123,0.41172317,-0.14294247,-0.5155703,74.123474,0.24253048,-36.00805
7989071768000.0,-5.6436822557812905,0.4993431162304488,7.584324891962148,0.398895,-0.14080444,-0.52503866,74.2553,0.25647104,-36.00992
7989076768000.0,-5.620240829930338,0.5061411303881118,7.596748853268452,0.37965274,-0.1282817,-0.5207626,74.38017,0.2686101,-36.021397
7989081718000.0,-5.597033818337894,0.5128711644041983,7.609048574961693,0.37751472,-0.11728613,-0.53023106,74.5114,0.28414387,-36.033104
7989086744000.0,-5.573470497072516,0.5197045282354813,7.621537140866789,0.36254853,-0.112399206,-0.52198434,74.63308,0.303769,-36.04665
7989091781000.0,-5.549855604670266,0.5265528476979111,7.63405303948676,0.33353242,-0.13927728,-0.48747048,74.74694,0.32462016,-36.054173
7989097798000.0,-5.52164619280123,0.5347335779352429,7.649004034522766,0.31123585,-0.15057829,-0.41416663,74.84246,0.33969292,-36.06751
7989101754000.0,-5.53827674830914,0.5352262657753029,7.648912927970767,0.2843578,-0.15118915,-0.36254853,74.93182,0.36046216,-36.07628
7989106703000.0,-5.577183954153568,0.5333283530111123,7.643693662729001,0.26358834,-0.15454891,-0.32528573,74.99902,0.37510806,-36.08126
7989111744000.0,-5.616814429938932,0.5313951587811092,7.638377373360696,0.23396139,-0.16401732,-0.2864958,74.96257,0.37098944,-36.017998
7989116761000.0,-5.65625622660927,0.529471168411753,7.633086394634097,0.20280726,-0.15607607,-0.24953845,74.91476,0.36478236,-35.960938
7989121897000.0,-5.696633557224947,0.5275015422333568,7.627669917309039,0.17073683,-0.13897185,-0.22052236,74.8574,0.35917464,-35.9059
7989126759000.0,-5.734856801277405,0.5256369934640104,7.622542403143457,0.14508049,-0.074830994,-0.18173242,74.785194,0.35015354,-35.868534
7989131709000.0,-5.773771868751626,0.5237386972056262,7.61732208329162,0.11453723,-0.040927973,-0.15607607,74.709076,0.34573093,-35.828976
7989136759000.0,-5.813473099205125,0.5218020515278807,7.611996302432676,0.10567969,-0.003970624,-0.1255328,74.61971,0.33368227,-35.809547
7989141868000.0,-5.853638165816398,0.519842779692712,7.606608299579537,0.0870483,0.032986723,-0.10445796,74.52687,0.32705,-35.800247
7989146762000.0,-5.892112982022224,0.5179659591091701,7.60144703789168,0.07391469,0.057421334,-0.08552113,74.42635,0.3153429,-35.797962
7989151758000.0,-5.931389684466914,0.5160500221178796,7.596178205976574,0.059864793,0.06658431,-0.067500606,74.321175,0.30375355,-35.801517
7989156710000.0,-5.970320475200721,0.5141509588711083,7.590955776904595,0.03940081,0.095294975,-0.050396383,74.21214,0.2926988,-35.817047
7989161743000.0,-6.009888057947743,0.5122208325946541,7.585647924416858,0.011911872,0.14263703,-0.04642576,74.10393,0.28477055,-35.83982
7989168062000.0,-6.059565696608269,0.5097975327852138,7.578983843377715,-0.007330383,0.18906279,-0.045814894,73.99347,0.27642906,-35.869602
7989171926000.0,-6.08994303412754,0.5083157112210932,7.574908830063069,-0.044593163,0.22113322,-0.043676864,73.88369,0.27672958,-35.907448
7989176762000.0,-6.1279618758053855,0.5064611333007809,7.569808735759335,-0.07452556,0.25809056,-0.047647487,73.77851,0.2797059,-35.958218
7989181717000.0,-6.166916251428571,0.5045609195714286,7.564583142857143,-0.08368854,0.26389378,-0.0421497,73.67182,0.28340617,-36.0073
7989186779000.0,-6.206711821439583,0.5026196719633597,7.559244706677345,-0.10415252,0.25442538,-0.03359759,73.568016,0.2955641,-36.060368
7989191733000.0,-6.245658335432976,0.500719841728201,7.554020168385223,-0.124311075,0.25381452,-0.02321288,73.464165,0.3073156,-36.11546
7989196767000.0,-6.285233779809791,0.4987893319575533,7.548711261287416,-0.122783914,0.27458394,-0.01160644,73.359344,0.31586024,-36.171986
7989201748000.0,-6.324392557807588,0.4968791473791671,7.543458248523375,-0.12461651,0.2764165,0.0012217305,73.252815,0.32657874,-36.221016
7989206743000.0,-6.363661398622485,0.4949635938820703,7.53819047121834,-0.112704635,0.30695978,0.022296581,73.141815,0.32921347,-36.282204
7989211769000.0,-6.403173949960957,0.4930361520649715,7.532890001001101,-0.12156218,0.34605515,0.038789943,73.03033,0.33456162,-36.344368
7989216922000.0,-6.443684928283111,0.4910600064852838,7.527455595304835,-0.11789699,0.37293324,0.049480084,72.91593,0.33077076,-36.409554
7989221769000.0,-6.481790247888678,0.4892012101288417,7.522343900290319,-0.116675265,0.4120286,0.059253927,72.798645,0.32609546,-36.486885
7989226745000.0,-6.520909717737511,0.4872929430214235,7.517096160576634,-0.13622294,0.41783184,0.07422013,72.678215,0.32192728,-36.559654
7989231721000.0,-6.560029187586345,0.4853846759140054,7.511848420862949,-0.15118915,0.40866885,0.086132,72.558,0.31463933,-36.636307
7989236733000.0,-6.599431676107718,0.4834626030156171,7.506562715186705,-0.18967366,0.37598756,0.09162979,72.43729,0.315126,-36.70492
7989241830000.0,-6.639502403161478,0.4815079331107718,7.50118736765442,-0.20280726,0.33536503,0.1020145,72.313126,0.30964124,-36.76586
7989246762000.0,-6.678275961299429,0.4796165397478726,7.495986030783862,-0.22693644,0.29077184,0.1255328,72.184784,0.31140012,-36.81397
7989251750000.0,-6.717489770705776,0.4777036707101311,7.490725635749325,-0.23365596,0.25320363,0.14721853,72.05584,0.3097472,-36.850574
7989256717000.0,-6.756538485886475,0.4757988550504555,7.485487387526279,-0.2406809,0.23487769,0.16646078,71.921875,0.30903852,-36.87852
7989261719000.0,-6.795862358109921,0.4738806170940034,7.480212227950746,-0.22266038,0.2312125,0.1685988,71.788795,0.3023397,-36.898853
7989266746000.0,-6.835382771078185,0.471952791782711,7.474910703123435,-0.20189096,0.2302962,0.17715092,71.6491,0.2912405,-36.913883
7989271764000.0,-6.874832429378316,0.470028417919161,7.469618669786765,-0.18997909,0.23762658,0.17684549,71.51438,0.2784047,-36.92939
7989276732000.0,-6.913889006188808,0.4681232187652918,7.464379366953649,-0.18173242,0.24801129,0.1740966,71.37993,0.25999206,-36.94468
7989281734000.0,-6.953212878412254,0.4662049808088397,7.4591042073781155,-0.14721853,0.27275133,0.15577064,71.25368,0.23509747,-36.96528
7989286745000.0,-6.992607505303834,0.4642832914046451,7.453819556311943,-0.110872045,0.31490102,0.12797627,71.13416,0.20960361,-36.99287
7989291814000.0,-7.032458106723396,0.4623393593372209,7.448473737861648,-0.08735373,0.35888332,0.10354166,71.02225,0.18157919,-37.026928
7989296681000.0,-7.0707206589248175,0.4604728930969066,7.443340950645711,-0.06291912,0.40286562,0.06536258,70.92724,0.1522656,-37.07154
7989301752000.0,-7.0843469179836775,0.4671569763548638,7.424480800970038,-0.034208454,0.44959682,0.025350908,70.843506,0.12136403,-37.127712
7989306709000.0,-7.080261073377616,0.4794145106749764,7.397081604481617,0.002443461,0.47739118,0.0036651916,70.768486,0.08685613,-37.188946
7989311753000.0,-7.0761035183659216,0.4918871762208001,7.369201526392532,0.02565634,0.4810564,-0.010079277,70.73829,0.07140794,-37.365154
7989316724000.0,-7.072006134154355,0.5041793293588432,7.341724946658026,0.03023783,0.4896085,0.006414085,70.70547,0.050833683,-37.546566
7989321854000.0,-7.067777692994563,0.5168646533576686,7.313369514342996,0.015271631,0.4474588,0.018936822,70.679405,0.033071775,-37.710346
7989326691000.0,-7.063790759292824,0.5288254549526625,7.286633602821008,-0.016798794,0.4025602,0.043676864,70.64352,0.013773075,-37.87159
7989331709000.0,-7.059654634977066,0.5412338284080438,7.258897236474651,-0.040011674,0.34391713,0.083383106,70.59818,-0.008423331,-38.012955
7989336749000.0,-7.055500376995514,0.5536966028630301,7.231039267884446,-0.05375614,0.28405234,0.11789699,70.5464,-0.02853824,-38.137577
7989341901000.0,-7.051253802169929,0.5664363278614607,7.20256223332557,-0.067500606,0.22510384,0.15424347,70.48031,-0.050403394,-38.242554
7989346755000.0,-7.047252856090078,0.578439166592513,7.175732356433338,-0.077579886,0.19028452,0.19364429,70.40145,-0.07632226,-38.33463
7989351758000.0,-7.04312909563736,0.5908104484572545,7.148078900707784,-0.0720821,0.2012801,0.21868975,70.31562,-0.10620778,-38.42071
7989356731000.0,-7.039030062910722,0.6031075471407162,7.120591266223838,-0.09682214,0.22540927,0.21868975,70.225815,-0.1292102,-38.49861
7989361760000.0,-7.034884871762068,0.6155431210959001,7.092794098755556,-0.09193522,0.25411993,0.2180789,70.12842,-0.16396575,-38.578888
7989366747000.0,-7.030774299429925,0.6278748385972923,7.065229081025526,-0.10567969,0.25534168,0.2098322,70.0352,-0.18730459,-38.656036
7989371827000.0,-7.026587071146934,0.6404365239606516,7.037150017446511,-0.10476339,0.26908615,0.20922135,69.940674,-0.21592328,-38.742615
7989376800000.0,-7.022488038420296,0.6527336226441134,7.009662382962565,-0.106901415,0.29626966,0.20066923,69.853386,-0.23761788,-38.831104
7989381720000.0,-7.018432691343068,0.6648996643739811,6.982467699338795,-0.09560041,0.2996294,0.19303341,69.767334,-0.26230064,-38.914326
7989386742000.0,-7.0142932699971645,0.6773179289201996,6.954709223493555,-0.09162979,0.29229903,0.19058995,69.683754,-0.28402093,-38.999756
7989391964000.0,-7.009988997144058,0.6902307480082828,6.92584527270426,-0.09193522,0.28130344,0.18875736,69.60403,-0.30574116,-39.082623
7989396758000.0,-7.0060375065163685,0.7020852203767758,6.899347038295244,-0.10262536,0.30115658,0.18845193,69.52578,-0.32557297,-39.16984
7989401766000.0,-7.00190962477597,0.7144688661050638,6.871665945696089,-0.10934488,0.30176744,0.18570304,69.45044,-0.34514007,-39.24616
7989406716000.0,-6.997829549972661,0.7267090910162111,6.844305440830709,-0.10140363,0.3005457,0.19761491,69.37095,-0.36794135,-39.32526
7989411773000.0,-6.993661279612997,0.739213902607256,6.81635350687026,-0.11453723,0.30848694,0.204029,69.295654,-0.3828981,-39.404896
7989416749000.0,-6.989559774113752,0.7515184196088458,6.788849290262153,-0.118202426,0.30879238,0.22113322,69.213234,-0.4055527,-39.47969
7989421796000.0,-6.985399746329449,0.7639985034727974,6.760952630048907,-0.14966199,0.30573806,0.22724187,69.13378,-0.41810519,-39.553555
7989426766000.0,-6.981303186375419,0.7762881838381311,6.733481577689122,-0.14966199,0.2996294,0.23457226,69.04885,-0.43990773,-39.624363
7989431703000.0,-6.977233826920078,0.7884962627040573,6.706192928695106,-0.16676621,0.312763,0.24220806,68.96282,-0.45208803,-39.697655
7989436784000.0,-6.973045774379551,0.801060420840126,6.67810833774137,-0.1881465,0.3051272,0.24984388,68.87551,-0.46457404,-39.761185
7989441780000.0,-6.968927783729584,0.8134143932959021,6.650493573638858,-0.19242255,0.30818152,0.2666427,68.78324,-0.48012006,-39.829403
7989446967000.0,-6.964652359890238,0.826240665339159,6.621823080964773,-0.20769419,0.32436943,0.27977628,68.69088,-0.48934624,-39.89719
7989451763000.0,-6.960699220747476,0.8381000832530705,6.5953137918063165,-0.24465153,0.33964106,0.29657507,68.592316,-0.49667704,-39.96357
7989456711000.0,-6.95662079445924,0.8503353626187993,6.567964341690377,-0.28313604,0.33964106,0.3200934,68.487854,-0.5040744,-40.0281
7989461742000.0,-6.952473954795512,0.8627758821194017,6.540156119472655,-0.3359759,0.3222314,0.32925636,68.38411,-0.5009086,-40.089905
7989466786000.0,-6.948316399783818,0.8752485476652254,6.51227604138357,-0.35918877,0.2932153,0.33536503,68.274475,-0.4999505,-40.14625
7989471772000.0,-6.944206651709211,0.8875777923939083,6.48471655102826,-0.3659083,0.25289822,0.33536503,68.165504,-0.49222705,-40.19252
7989476747000.0,-6.940105970467502,0.8998798366227887,6.457217861794874,-0.37720928,0.22785273,0.32284227,68.06073,-0.47796163,-40.233315
7989481718000.0,-6.936008586255936,0.9121719897608318,6.429741282060369,-0.3659083,0.18753563,0.29871312,67.96221,-0.46574885,-40.256992
7989486752000.0,-6.931859273819602,0.9246199275795624,6.401916477718486,-0.35338554,0.15943582,0.26908615,67.87204,-0.44881633,-40.276085
7989491770000.0,-6.9277231495038425,0.9370283010349436,6.374180111372128,-0.34788775,0.15485434,0.24281894,67.79115,-0.42977312,-40.28981
7989496749000.0,-6.93394910254463,0.940075164725318,6.351312091626393,-0.36193767,0.14294247,0.22082779,67.72108,-0.40530336,-40.2931
7989501760000.0,-7.033345319646908,0.8596116809024559,6.370244567906105,-0.3811799,0.10751228,0.17928895,67.66935,-0.37323323,-40.28818
7989508702000.0,-7.158148749951597,0.7638453842691191,6.399281510745402,-0.39003745,0.07147124,0.13439035,67.57054,-0.38179508,-40.337425
7989511767000.0,-7.201864405138134,0.7354301775858217,6.414582020872738,-0.408058,0.007941248,0.105374254,67.48274,-0.37982962,-40.367607
7989516874000.0,-7.2747048133070225,0.6880838609360339,6.440076215071859,-0.39675698,-0.03390302,0.079107046,67.423676,-0.36010015,-40.412132
7989521748000.0,-7.360665384963806,0.6187271099410548,6.473891589141675,-0.37201694,-0.07513642,0.061086524,67.373184,-0.3364895,-40.437954
7989526750000.0,-7.474602668645295,0.5097436322223371,6.523429493588417,-0.36163223,-0.09315695,0.038789943,67.33468,-0.30753756,-40.4581
7989531707000.0,-7.5305973800895964,0.4479933981333997,6.590749767894475,-0.34391713,-0.07971791,0.02443461,67.30414,-0.2705158,-40.492172
7989536752000.0,-7.516167725833748,0.4431835317969139,6.682137142906919,-0.3268129,-0.06078109,0.021991149,67.277725,-0.23484135,-40.522305
7989541820000.0,-7.497178863026396,0.3897603953455571,6.697175066431594,-0.32253686,-0.051923547,0.034513887,67.26854,-0.18410979,-40.572475
7989546792000.0,-7.473193446141447,0.279427402538787,6.620421481946403,-0.31398472,-0.03756821,0.043066,67.261734,-0.13811336,-40.62853
7989551743000.0,-7.4545564925567485,0.1682833474269752,6.5638636002551465,-0.30757064,-0.01863139,0.028099801,67.251526,-0.093705125,-40.68605
7989556710000.0,-7.442001161147282,0.0552852873918705,6.530382760197079,-0.33322698,-0.021685716,0.014966198,67.23778,-0.047155634,-40.739937
7989561721000.0,-7.436781631896292,-0.045213383601447,6.508694582845946,-0.3481932,-0.03481932,-0.02076942,67.249466,0.02218104,-40.81393
7989566815000.0,-7.466196397648478,-0.084432961893277,6.5430116901115465,-0.35460728,-0.06811147,-0.03481932,67.25816,0.092038535,-40.87933
7989571779000.0,-7.528696582852432,-0.0990682357678483,6.583164751277824,-0.36193767,-0.093462385,-0.054367006,67.30028,0.19431241,-40.95587
7989576753000.0,-7.725048615828524,-0.0205273676296784,6.649924606512778,-0.3622431,-0.16187929,-0.08032878,67.349846,0.29799563,-41.008587
7989581699000.0,-7.920295329760923,0.0575713725816982,6.7163086523495465,-0.32925636,-0.18967366,-0.1020145,67.40164,0.4035155,-41.07523
7989586756000.0,-8.026408811889455,0.0920107487846706,6.747891583209485,-0.3032946,-0.21960606,-0.12797627,67.464226,0.5136627,-41.120075
7989591818000.0,-8.103312582282708,0.1122486205582366,6.768129439767888,-0.28619036,-0.25778514,-0.14446963,67.53064,0.61844116,-41.153324
7989596700000.0,-8.156993903225807,0.1369792303502304,6.782162243225806,-0.27275133,-0.29749137,-0.17134771,67.59269,0.7064866,-41.194942
7989601697000.0,-8.176596829749105,0.171284103579109,6.78706288530466,-0.26083946,-0.33200526,-0.18509217,67.65501,0.7899193,-41.225967
7989606692000.0,-8.211167295038655,0.1992020743536549,6.786123050836677,-0.24312437,-0.37384954,-0.20066923,67.724945,0.86825615,-41.249508
7989611766000.0,-8.268228816811822,0.2182226130580291,6.776612838584989,-0.24740042,-0.39920044,-0.2049453,67.7946,0.9475288,-41.26722
7989616685000.0,-8.304832011692984,0.2072106661043374,6.781248352008795,-0.23273966,-0.4083634,-0.21074851,67.86486,1.0152258,-41.275574
7989621756000.0,-8.309685596242256,0.1441153440895462,6.81036925114931,-0.21838433,-0.39920044,-0.22693644,67.93945,1.0851564,-41.281796
7989626701000.0,-8.289725387009785,0.0878005587482857,6.835011110771245,-0.22235495,-0.4016439,-0.23671028,68.0099,1.1514492,-41.28923
7989631709000.0,-8.226906028969875,0.0397623078851991,6.853487347153093,-0.20861048,-0.41691554,-0.24098633,68.08322,1.2115881,-41.2954
7989637491000.0,-8.154377768549196,-0.0157003851040912,6.874819136042839,-0.20555615,-0.43585235,-0.25259277,68.17439,1.2855816,-41.300343
7989641771000.0,-8.07332581814475,-0.0956899700774719,6.86083999969419,-0.19303341,-0.4474588,-0.2302962,68.2528,1.3475771,-41.30319
7989646679000.0,-7.977499394536188,-0.191516611819368,6.841674634923548,-0.18295415,-0.45631635,-0.22082779,68.338905,1.4126827,-41.30125
7989651700000.0,-7.8576925017055315,-0.274051887472538,6.852748767074581,-0.17837265,-0.4642576,-0.21868975,68.42799,1.4796962,-41.28999
7989656698000.0,-7.733164716640972,-0.3524584146049335,6.871197397388707,-0.16554448,-0.4615087,-0.21533,68.5117,1.5394999,-41.27967
7989661982000.0,-7.579964969024072,-0.4192966865413323,6.890239974902034,-0.15424347,-0.46761733,-0.20311269,68.60403,1.6112884,-41.261185
7989666751000.0,-7.435083122784102,-0.4746925905168875,6.907284856111215,-0.14782938,-0.47036624,-0.21135938,68.70146,1.6831871,-41.24471
7989671709000.0,-7.276702390138822,-0.5169403495021542,6.936107540114888,-0.13133603,-0.46639562,-0.19639318,68.791725,1.7533423,-41.22277
7989676710000.0,-7.111631086644327,-0.5490375527237913,6.972790078602202,-0.09865474,-0.46822822,-0.17928895,68.88273,1.8183153,-41.198956
7989681710000.0,-6.946383298347911,-0.5079740610819565,7.053313627793975,-0.09285152,-0.49754974,-0.18112154,68.97973,1.8938527,-41.153282
7989686795000.0,-6.778114603012633,-0.3922892184191772,7.179515355199222,-0.093462385,-0.528093,-0.15454891,69.05804,1.9538962,-41.108356
7989691874000.0,-6.616428852385656,-0.380157512952682,7.269316790319075,-0.10903945,-0.5525276,-0.13530666,69.141685,2.0184445,-41.03799
7989696730000.0,-6.464827055606046,-0.4169094363587869,7.338226562758075,-0.118507855,-0.58062744,-0.11575896,69.21301,2.0754843,-40.96041
7989701737000.0,-6.352304002203912,-0.4309563,7.409036729153269,-0.10415252,-0.6264423,-0.10934488,69.25831,2.1017125,-40.848682
7989706702000.0,-6.266303304153269,-0.4309563,7.479111344908896,-0.09743301,-0.6407976,-0.13500121,69.30696,2.1331785,-40.741077
7989711779000.0,-6.178362610497053,-0.4309563,7.550766697213291,-0.101098195,-0.64568454,-0.1337795,69.33921,2.1676729,-40.59696
7989716732000.0,-6.150596599347084,-0.444675621509126,7.552388484048079,-0.06841691,-0.63316184,-0.10720685,69.370026,2.1915975,-40.45826
7989721735000.0,-6.154151557872088,-0.4660049457820152,7.516839641193055,-0.057421334,-0.6081163,-0.103847094,69.40769,2.2238667,-40.325836
7989727287000.0,-6.169171287342469,-0.4847205724674609,7.481626122305626,-0.03940081,-0.59498274,-0.115453534,69.43348,2.2446532,-40.16973
7989731718000.0,-6.338665108408511,-0.4291967248515942,7.513771484801322,-0.020463986,-0.6096435,-0.12186762,69.45483,2.2603061,-40.017334
7989736754000.0,-6.531301281481992,-0.3660917606011983,7.550305911686522,-0.014660766,-0.61422503,-0.11881329,69.48635,2.2807689,-39.8774
7989741801000.0,-6.722606010479846,-0.3061931253358925,7.585360205911708,-0.00030543262,-0.6246097,-0.13164146,69.52447,2.2984881,-39.735477
7989746716000.0,-6.880710475786948,-0.3016758535508637,7.594395032495202,0.029626964,-0.61666846,-0.12339478,69.5526,2.3063154,-39.60195
7989751605000.0,-7.037978579731286,-0.2971824778119002,7.603382065489443,0.048563786,-0.63132924,-0.12492194,69.57457,2.3016515,-39.488422
7989756628000.0,-7.137928486370415,-0.3013509549835967,7.577165110050701,0.06688975,-0.6417139,-0.13103059,69.59453,2.2899184,-39.3816
7989761640000.0,-7.233363463684262,-0.3061226938840839,7.54853437769162,0.08002335,-0.64660084,-0.14721853,69.61774,2.277411,-39.275158
7989766613000.0,-7.257849561502913,-0.2575529887281494,7.453159994956802,0.102319926,-0.6621779,-0.17592919,69.65361,2.2656245,-39.17438
7989771602000.0,-7.277049342575848,-0.2047535506811332,7.352361244564999,0.1255328,-0.6924158,-0.22907446,69.70316,2.258336,-39.07026
7989776595000.0,-7.287305491724346,-0.250240068811315,7.381139607282576,0.15485434,-0.6957755,-0.24098633,69.75507,2.249419,-38.97385
7989781595000.0,-7.296912172434546,-0.3030763011315077,7.419565728257599,0.19425514,-0.6918049,-0.21960606,69.812416,2.2367568,-38.873753
7989786649000.0,-7.167583893457205,-0.3423041096778019,7.466832838703301,0.21166481,-0.6786713,-0.226631,69.87786,2.226124,-38.780357
7989791583000.0,-7.0321510063253605,-0.379664818015418,7.513533699743032,0.2510656,-0.67347896,-0.2660318,69.94617,2.2042754,-38.688576
7989796586000.0,-6.81653044278375,-0.3747755859632766,7.567573217486442,0.27366763,-0.6640105,-0.30848694,70.026955,2.1930964,-38.60247
7989801612000.0,-6.5921448138426415,-0.3656169908153363,7.622524979640377,0.3118467,-0.68844515,-0.32253686,70.109795,2.1721601,-38.510704
7989806615000.0,-6.405488568680243,-0.3295653587017819,7.693787572841198,0.33261612,-0.6988298,-0.36254853,70.21471,2.1677463,-38.411106
7989811707000.0,-6.22406385910515,-0.2865963068200509,7.77017704493832,0.35308012,-0.7254025,-0.4089743,70.324326,2.1590414,-38.30287
7989817177000.0,-6.1950661680574965,-0.3664395307696147,7.891553600718706,0.3747658,-0.72356987,-0.40469822,70.41701,2.1352,-38.18221
7989821657000.0,-6.203631563146337,-0.4563762462816929,7.998621039329207,0.37965274,-0.73792523,-0.4083634,70.5259,2.1208105,-38.05286
7989826650000.0,-6.143032469810007,-0.44562588864717,8.01798286043967,0.39278635,-0.7302894,-0.40653083,70.617584,2.0922577,-37.895454
7989831639000.0,-6.0622367735999205,-0.4028517668894857,8.008477309260916,0.38545597,-0.72387534,-0.40744713,70.708694,2.068752,-37.738754
7989836658000.0,-6.032110625604341,-0.3239048989866798,7.998973888929452,0.40622538,-0.7449502,-0.3915646,70.810036,2.0485437,-37.56968
7989841689000.0,-6.017848845091268,-0.233580538924519,7.989466217266897,0.40500367,-0.75686204,-0.35705075,70.90263,2.032018,-37.41034
7989846645000.0,-6.056322455576559,-0.2808364512764899,7.916910156203363,0.41416663,-0.75900006,-0.32375857,70.98395,1.9987376,-37.236706
7989851652000.0,-6.113571679584121,-0.3762519724097104,7.821494849278679,0.4071417,-0.7498371,-0.31245756,71.05848,1.9676439,-37.06852
7989856642000.0,-6.16148700066001,-0.4345567149314605,7.722041687409037,0.42546764,-0.7516697,-0.3155119,71.10554,1.9113612,-36.899376
7989861737000.0,-6.206903722017262,-0.4799732034828228,7.618822195363005,0.42760566,-0.7687739,-0.3286455,71.15048,1.8609408,-36.7336
7989866750000.0,-6.255803678291139,-0.5017610187310126,7.527051783544303,0.4370741,-0.78801614,-0.33750305,71.20676,1.8258667,-36.59046
7989871713000.0,-6.310954021097047,-0.4867199928270042,7.451846627848101,0.462425,-0.8170323,-0.35033122,71.26701,1.790091,-36.443962
7989876754000.0,-6.354084381991676,-0.5120631479788854,7.410075344594457,0.47861293,-0.8038987,-0.30390546,71.31654,1.7600152,-36.325626
7989881718000.0,-6.383039452948939,-0.5796247904070653,7.405249516231855,0.45723262,-0.7984009,-0.25809056,71.36852,1.7355636,-36.20093
7989886752000.0,-6.455977905755289,-0.6404176026631159,7.391870857819204,0.4465425,-0.7996226,-0.17165314,71.40878,1.6896597,-36.07753
7989891787000.0,-6.570123195739014,-0.6939231598535286,7.370468718375499,0.40958515,-0.81122905,-0.124005646,71.44499,1.6544862,-35.956715
7989896692000.0,-6.681321338215712,-0.7460472428761651,7.34961916644474,0.37232238,-0.82711154,-0.050701816,71.46312,1.6139327,-35.83969
7989901739000.0,-6.707602679958514,-0.668300099199921,7.364599600158041,0.33383787,-0.8921687,-0.02107485,71.478165,1.5823203,-35.708958
7989906696000.0,-6.712291706222837,-0.560451320011853,7.388044976293955,0.32925636,-0.926988,0.0143553335,71.46509,1.5388476,-35.586697
7989911759000.0,-6.762288842676394,-0.539797421869228,7.424760923808644,0.3155119,-1.0051788,0.052534413,71.47344,1.5172325,-35.439793
7989917046000.0,-6.827753943442926,-0.5444734970077576,7.466845502401182,0.3036,-1.0748174,0.12034045,71.45794,1.4856696,-35.29017
7989921781000.0,-6.882862287169892,-0.5555449056773227,7.521376126483481,0.26633725,-1.1007792,0.20005837,71.41289,1.4374154,-35.119892
7989926751000.0,-6.938840386068641,-0.5708116744146263,7.5875324431733135,0.23518312,-1.104139,0.2941316,71.33869,1.3775306,-34.942272
7989931743000.0,-6.898440103731012,-0.5809991854526073,7.690260356702496,0.17531833,-1.0989466,0.37751472,71.24826,1.3254313,-34.758526
7989936775000.0,-6.825664205854135,-0.5895610684125433,7.805845445873679,0.11453723,-1.1129965,0.40561453,71.14514,1.2750574,-34.57392
7989941751000.0,-6.684776916444065,-0.5527165273832675,7.890777110567368,0.09896017,-1.1866057,0.36835176,71.04779,1.2279811,-34.371178
7989946714000.0,-6.476558411582434,-0.4714604926338284,7.946640477358692,0.15057829,-1.2495248,0.36560285,70.93009,1.1691859,-34.17312
7989951695000.0,-6.328415263321869,-0.5064296063321869,8.018823104390046,0.18234327,-1.2534955,0.38973203,70.821304,1.1151807,-33.958874
7989956701000.0,-6.2168783830467325,-0.6131171583046733,8.101263609751163,0.19486602,-1.244638,0.38240165,70.72501,1.059147,-33.73678
7989961718000.0,-6.056979686529372,-0.6251226978646185,8.115048840563809,0.20616703,-1.2217305,0.34574974,70.615326,0.97944385,-33.49554
7989966818000.0,-5.867351114618501,-0.5838990896607023,8.090314615378123,0.24556783,-1.1884383,0.3222314,70.50527,0.8897011,-33.267212
7989971732000.0,-5.687240064105716,-0.5787199046404425,8.09925013122311,0.29138273,-1.169807,0.29352075,70.43033,0.8167295,-33.02689
7989976704000.0,-5.511643509219422,-0.6616404066277402,8.191925827596805,0.3484986,-1.1499538,0.24862215,70.36967,0.73831093,-32.8036
7989981709000.0,-5.373486125012334,-0.7836776037987173,8.29019761371485,0.4175264,-1.1346822,0.19058995,70.31241,0.64514977,-32.556385
7989986744000.0,-5.316393994227923,-0.988258422200296,8.39962478145042,0.48349985,-1.1221595,0.090713486,70.28472,0.55329573,-32.321434
7989991816000.0,-5.268484460304983,-1.1538810170413456,8.525491413299797,0.53878313,-1.0720685,0.005497787,70.29032,0.46295872,-32.076683
7989996714000.0,-5.2426747877220565,-1.22762290570665,8.680349371796888,0.59681535,-0.9954049,-0.059253927,70.32125,0.36936805,-31.851215
7990001734000.0,-5.216222244568464,-1.3032015666090238,8.839064551800032,0.67347896,-0.94989544,-0.1469131,70.423,0.3109757,-31.61182
7990006710000.0,-5.395987320037106,-1.5272578905998762,9.033333422541745,0.7678576,-0.93584555,-0.25473082,70.550354,0.24782476,-31.392773
7990011733000.0,-5.645136041280149,-1.802437059029066,9.241577077690168,0.87689704,-0.8622363,-0.32284227,70.69054,0.17086342,-31.210737
7990016783000.0,-5.871174613,-2.0528494527272727,9.409769854545456,0.99204516,-0.77732605,-0.37232238,70.86926,0.10091354,-31.012701
7990021702000.0,-5.980185466363636,-2.177433494214876,9.386410702479338,1.1123856,-0.72509706,-0.4633413,71.0801,0.020810733,-30.832972
7990026673000.0,-6.090348701181818,-2.303334545289256,9.362804614876032,1.2449434,-0.68416905,-0.50732356,71.35216,-0.024851644,-30.69862
7990031690000.0,-6.03284433173121,-2.2689791831011785,9.164097261135772,1.3756685,-0.6386596,-0.5766568,71.65589,-0.080807135,-30.585407
7990036733000.0,-5.914562978302464,-2.176571708082045,8.901659788152456,1.4908166,-0.58062744,-0.55771995,71.93764,-0.16938724,-30.491947
7990041766000.0,-5.824760683178028,-2.10397148602256,8.6599602849436,1.5888605,-0.5742133,-0.5696318,72.291,-0.24141544,-30.408092
7990046764000.0,-5.906921895782246,-2.150920820402158,8.542586948994606,1.7223345,-0.57818395,-0.5992588,72.63545,-0.34689805,-30.340849
7990051672000.0,-5.987603614762138,-2.197024728592447,8.427327178518883,1.8399261,-0.58246,-0.625526,72.96173,-0.4844121,-30.269163
7990056714000.0,-6.2754413671532845,-2.1435037537712898,8.4855170243309,1.9071213,-0.5897904,-0.6209445,73.2794,-0.6369811,-30.198639
7990061785000.0,-6.662519106292474,-2.041641195318399,8.628124487037503,1.9788979,-0.58551437,-0.62888575,73.60167,-0.8079417,-30.133448
7990066762000.0,-7.081082196579247,-1.9235513336374,8.690597397947547,2.028378,-0.6105598,-0.6713409,73.95085,-0.9673535,-30.074274
7990071781000.0,-7.58929525262776,-1.7641119537058152,8.580983207940292,2.0964894,-0.6386596,-0.72601336,74.29841,-1.1395153,-30.01813
7990076696000.0,-7.975606697973778,-1.5876896205601907,8.511159454410013,2.1615467,-0.6374379,-0.8145888,74.669685,-1.3175699,-29.985754
7990081706000.0,-8.179335153277712,-1.373238779976162,8.50401094874851,2.2296581,-0.623388,-0.9236283,75.057144,-1.4958934,-29.951637
7990086713000.0,-8.382941615494637,-1.15891635306913,8.49686672362932,2.2974641,-0.5873469,-1.0467176,75.50999,-1.694552,-29.971931
7990091749000.0,-8.368930092418994,-0.8380154974342775,8.42019701395965,2.375044,-0.5390886,-1.1337659,75.97912,-1.8955884,-30.001862
7990096729000.0,-8.257158168636641,-0.4735425517240677,8.313284319849195,2.4269676,-0.48075095,-1.2095132,76.47671,-2.084246,-30.047121
7990101744000.0,-7.948571913047453,-0.2041969199542836,8.351017906281431,2.4630086,-0.40958515,-1.2428054,76.97262,-2.323268,-30.129995
7990106708000.0,-7.570413784858736,0.0261753258754686,8.442297955289385,2.4678955,-0.36560285,-1.2556335,77.47944,-2.5516658,-30.222971
7990111729000.0,-6.971224536076663,0.3542069104284103,8.554183111612176,2.4608707,-0.3717115,-1.2415836,77.941986,-2.842965,-30.30681
7990116765000.0,-6.182816948421646,0.7654023073562569,8.683318613866968,2.443461,-0.39584067,-1.1753048,78.38569,-3.1294441,-30.398142
7990121690000.0,-5.411786890994927,1.1675344221040025,8.80960780143743,2.4278839,-0.43004912,-1.094976,78.75621,-3.459478,-30.41923
7990126692000.0,-4.845528256371531,1.421367591938833,8.827030423541627,2.3967297,-0.4642576,-1.0152581,79.09996,-3.781266,-30.433733
7990131705000.0,-4.374234331130829,1.607166104021144,8.795309026430054,2.3585508,-0.46975538,-0.95203346,79.417534,-4.097289,-30.447016
7990136733000.0,-4.0156870687147785,1.7641501790583531,8.977244161061625,2.3301454,-0.43860126,-0.8885035,79.49606,-4.500053,-30.281303
7990141768000.0,-3.7395725563533904,1.9000160066351568,9.314717301399746,2.2721133,-0.42119157,-0.8396343,79.555115,-4.8842998,-30.115938
7990146914000.0,-3.4147186086021506,2.098597604516129,9.38627992903226,2.2214115,-0.43218717,-0.8035932,79.569016,-5.3169484,-29.89744
7990151714000.0,-3.0536742327255726,2.3650826984852737,9.081111682187938,2.126422,-0.43463063,-0.7901542,79.57058,-5.71964,-29.693419
7990156714000.0,-2.717273590682684,2.640030786903018,8.834910825568903,2.0879374,-0.33841935,-0.7284568,79.53424,-6.173105,-29.45712
7990161737000.0,-2.5058572426018166,2.907824974978025,8.816117868834848,2.0552561,-0.30634892,-0.68019843,79.49835,-6.596412,-29.211433
7990166821000.0,-2.3139511139862177,3.1339293645151898,8.823874927399787,2.0265455,-0.2828306,-0.63316184,79.423035,-7.092337,-28.961401
7990171717000.0,-2.2092801178103465,3.1885402694554985,8.928546113656218,1.9764545,-0.2519819,-0.58276546,79.32768,-7.573562,-28.727896
7990177441000.0,-2.1184130291569088,3.2292060934938527,9.01650542710773,1.9168952,-0.25870144,-0.5308419,79.20172,-8.109633,-28.464272
7990181695000.0,-2.124376101053864,3.2053538370389347,9.00159774736534,1.8603901,-0.31429017,-0.48349985,79.0617,-8.631399,-28.200274
7990186735000.0,-2.1314409535128807,3.177094464088115,8.9839356162178,1.7806722,-0.30695978,-0.41508293,78.92382,-9.162503,-27.93953
7990191748000.0,-1.996398580051256,3.096698580594567,8.866062585135829,1.7458528,-0.29260445,-0.33658674,78.770744,-9.689553,-27.66891
7990196754000.0,-1.6523795888057409,2.939432794146592,8.600676846335213,1.7150042,-0.18051068,-0.2144137,78.57634,-10.203905,-27.42823
7990201751000.0,-1.5194408630038818,2.77802322463422,8.482331784711855,1.7263051,-0.089186326,-0.112704635,78.40278,-10.726008,-27.197247
7990206708000.0,-1.6375662667462925,2.6126476001891112,8.53903163511496,1.7098118,-0.047036625,-0.03176499,78.19412,-11.237982,-26.982563
7990211778000.0,-1.8597728257999837,2.5403421722366115,8.529761545158326,1.7266107,-0.0036651916,0.06383542,77.98816,-11.775411,-26.77425
7990216728000.0,-2.2003899809507894,2.5878702368201187,8.438666491269112,1.7290541,0.04428773,0.15241088,77.75677,-12.306701,-26.576292
7990221922000.0,-2.5636799666735883,2.6374608640988373,8.360786435423588,1.7128662,0.09896017,0.22999077,77.53686,-12.810643,-26.405798
7990226709000.0,-2.9587242591362126,2.6802968604651163,8.470256259136212,1.7159204,0.10567969,0.2687807,77.3027,-13.318402,-26.233334
7990231736000.0,-3.359927363636364,2.7312082013808974,8.517891797008055,1.7333301,0.06719518,0.30665436,77.035805,-13.8158865,-26.114475
7990236733000.0,-3.660690853146853,2.8244026715942283,8.081572706417633,1.7104226,-0.004276057,0.3210097,76.76793,-14.297491,-25.987827
7990241707000.0,-3.96007,2.9171681898734176,7.647261888607595,1.6862935,0.03268129,0.35216382,76.483734,-14.765349,-25.92508
7990246725000.0,-4.214087933551198,3.1100629244989104,7.481583924270152,1.7397442,0.07849618,0.37110063,76.20596,-15.238979,-25.845324
7990252035000.0,-4.459585311698287,3.333323276242415,7.34067571782779,1.7916678,0.060170226,0.38087448,75.92616,-15.700747,-25.756498
7990256688000.0,-4.528040416391428,3.545534208011368,7.083968932268223,1.9110919,0.041233405,0.38789943,75.65228,-16.21505,-25.744106
7990261735000.0,-4.602292063368923,3.775714429940856,6.805525101036945,1.9315559,-0.04886922,0.39858958,75.3916,-16.747587,-25.728987
7990266717000.0,-4.685787543391598,3.975047405540223,6.675029526811816,1.9339994,-0.0290161,0.43157628,75.11328,-17.298878,-25.731451
7990271796000.0,-4.7852267628028216,4.139121896923235,6.744636850608198,1.9776763,0.01863139,0.4792238,74.83399,-17.85829,-25.711124
7990276756000.0,-4.890320333541927,4.3478824595744685,6.759236002377972,2.053118,-0.040011674,0.50946164,74.562164,-18.499105,-25.683372
7990281692000.0,-5.003715769920735,4.609185022695035,6.714863843763037,2.0992384,-0.13439035,0.54611355,74.275024,-19.138935,-25.649904
7990286770000.0,-5.075915089835854,4.86216828125657,6.676978035044877,2.111761,-0.1826487,0.59040123,73.97903,-19.808079,-25.612808
7990291746000.0,-5.110594997331608,5.097221734220102,6.646151258365004,2.1282544,-0.21868975,0.6270532,73.68671,-20.480658,-25.548155
7990296815000.0,-5.146373628998753,5.349146130452845,6.633902016825925,2.13925,-0.26419923,0.6569856,73.38074,-21.195078,-25.468302
7990301705000.0,-5.185285900498545,5.713945818861654,6.809006019630245,2.1536055,-0.3491095,0.68569624,73.07864,-21.905184,-25.36317
7990306744000.0,-5.218198658317982,6.072292797797357,6.9623384,2.1627684,-0.464563,0.70524395,72.76458,-22.662743,-25.233969
7990311734000.0,-5.210543314865839,6.328745824229075,6.9623384,2.172237,-0.5500842,0.70096785,72.46273,-23.409328,-25.089739
7990316704000.0,-5.202918654152983,6.584170982819384,6.9623384,2.155438,-0.6239988,0.68019843,72.15343,-24.191214,-24.899342
7990321709000.0,-5.147224582633878,6.872243745945689,6.947621329709457,2.1398609,-0.7104363,0.6609562,71.86631,-24.95794,-24.686432
7990326697000.0,-5.065583307928218,7.17612997355678,6.924943310985568,2.1294763,-0.7959574,0.63407815,71.60503,-25.700935,-24.461794
7990331684000.0,-4.875245162038216,7.5281101178768575,6.986384288874734,2.1212296,-0.8888089,0.5934556,71.344925,-26.477713,-24.207489
7990336735000.0,-4.58768072922293,7.926592022726115,7.121950469324841,2.1010711,-0.98349303,0.5589417,71.11162,-27.228004,-23.939358
7990341761000.0,-4.333620438303462,8.283576048325045,7.260493062803791,2.0821342,-1.078788,0.52626044,70.87755,-28.015919,-23.635931
7990346773000.0,-4.212012773106878,8.477247732851646,7.413628357276908,2.053729,-1.1435398,0.514654,70.66514,-28.775425,-23.325933
7990351874000.0,-4.093666460484814,8.65957736864778,7.550587586682243,2.0302107,-1.2858714,0.50762904,70.422585,-29.58371,-22.918339
7990356720000.0,-4.036061687675233,8.68329697473715,7.489594222897196,1.969735,-1.4126259,0.5036584,70.19834,-30.35281,-22.51158
7990361739000.0,-3.9764004506279207,8.707863359995619,7.426423423714954,1.9052887,-1.518611,0.5039638,69.98987,-31.124115,-22.067097
7990366785000.0,-3.9265702794920503,8.689647590640936,7.314070916828317,1.8542814,-1.611768,0.49754974,69.81,-31.860647,-21.611979
7990371776000.0,-3.897894461793821,8.584503225177482,7.103781387421258,1.8399261,-1.672549,0.49388456,69.647644,-32.570393,-21.154306
7990376753000.0,-3.885253936246787,8.427368985861182,6.9091613447300775,1.8332067,-1.7434094,0.48808134,69.50728,-33.26812,-20.68079
7990381713000.0,-3.905605662039417,8.162795806769495,6.746347644644388,1.8231273,-1.7916678,0.47800204,69.379906,-33.941868,-20.215498
7990386800000.0,-3.898852899029126,7.955036058296558,6.613191039254192,1.8209893,-1.8310685,0.46700647,69.28847,-34.60922,-19.764177
7990391772000.0,-3.860328748867314,7.825454899073257,6.522133774205648,1.7843374,-1.8738291,0.46975538,69.207695,-35.248497,-19.315237
7990396797000.0,-3.821393943042071,7.69449244430715,6.430105866548985,1.7394388,-1.8976529,0.47952923,69.15976,-35.85026,-18.898382
7990401745000.0,-3.667584113769124,7.523587534631433,6.290470207649513,1.6905695,-1.9226984,0.49357912,69.1185,-36.427616,-18.483685
7990406701000.0,-3.473673763942976,7.337928683553547,6.133691602190543,1.6233743,-1.9462167,0.50243664,69.080315,-36.97505,-18.076256
7990411770000.0,-3.2931001016539647,7.24245216506405,6.029293174606778,1.5564847,-1.9688187,0.52198434,69.07004,-37.499104,-17.672693
7990416728000.0,-3.1391133204637587,7.269399863831684,5.998495850526998,1.4770721,-1.9935588,0.54825157,69.059875,-37.991604,-17.273294
7990422080000.0,-2.9713059403069053,7.298538561790281,5.964471976624041,1.3836098,-2.026851,0.5708536,69.06775,-38.46109,-16.857841
7990426699000.0,-2.786520896112532,7.324936323989769,5.915447336095482,1.2932017,-2.0210476,0.6038403,69.06256,-38.903614,-16.45172
7990431693000.0,-2.586733818670077,7.353477225575447,5.862442561295823,1.2012665,-2.0323486,0.6441574,69.06871,-39.341694,-16.00962
7990436828000.0,-2.382598575111992,7.37510812019297,5.791769384131634,1.1175779,-2.0720549,0.6759224,69.07183,-39.750496,-15.5719185
7990441943000.0,-2.180040212732598,7.391987972708477,5.711590172811854,1.0341948,-2.110234,0.70371675,69.06694,-40.129345,-15.138907
7990446678000.0,-1.9917375221000653,7.432362272840772,5.636813304574677,0.9315695,-2.1029036,0.7079928,69.061615,-40.503014,-14.689172
7990451709000.0,-1.789730520767726,7.535610411366813,5.556010279045934,0.89736104,-2.1227567,0.7247916,69.058334,-40.868015,-14.23254
7990456668000.0,-1.5862608983770683,7.635746000843081,5.479805378606808,0.8173377,-2.1294763,0.7556403,69.047806,-41.21747,-13.74296
7990461734000.0,-1.3510685516598169,7.727777853683212,5.423563862788492,0.7281514,-2.1346686,0.7968737,69.03308,-41.54927,-13.259779
7990466848000.0,-1.1282834602694063,7.780985203652968,5.3518825457534245,0.6630942,-2.1142046,0.8353582,69.0176,-41.904827,-12.746587
7990471708000.0,-0.9540117916118722,7.729978726940639,5.245619244931507,0.60231316,-2.0781636,0.8698721,68.99026,-42.232105,-12.244833
7990476845000.0,-0.7706446378536009,7.666596739220779,5.131673457142857,0.54458636,-2.051591,0.88025683,68.96219,-42.57084,-11.709742
7990481694000.0,-0.606165523552932,7.509427844502165,5.007400514285714,0.49602258,-2.0295997,0.9111055,68.915,-42.891636,-11.187464
7990486738000.0,-0.4350719676584022,7.345938484848485,4.8781300000000005,0.44593164,-2.0097466,0.9425651,68.874756,-43.21282,-10.646419
7990491747000.0,-0.3132777590132518,7.1995006766564735,4.763237275667686,0.41538838,-1.9361374,0.95356065,68.815926,-43.519093,-10.135919
7990496755000.0,-0.23505447345158,7.067498781447503,4.660569038521916,0.38515055,-1.8726074,0.97249746,68.74602,-43.807316,-9.63594
7990502487000.0,-0.1841231970134586,6.932555100519832,4.555343082681763,0.37415496,-1.8078557,1.0097603,68.66913,-44.0972,-9.123099
7990506706000.0,-0.163982785195471,6.840484761518194,4.483413083393862,0.36285394,-1.7421877,1.0161743,68.58091,-44.37173,-8.641179
7990512639000.0,-0.1356601818970305,6.7110101653350425,4.382260989112013,0.34238997,-1.6621643,1.0262536,68.50011,-44.646343,-8.158565
7990516734000.0,-0.1943891442154811,6.549210678253138,4.342674224131799,0.32895094,-1.6013832,1.010982,68.413055,-44.913116,-7.7035894
7990521685000.0,-0.2737444040376569,6.34586269872385,4.2980369714016735,0.3100141,-1.5503759,1.0067059,68.30706,-45.168922,-7.271822
7990526748000.0,-0.3951797158884052,6.127327801038781,4.174543227898695,0.26908615,-1.473407,0.999681,68.21314,-45.412533,-6.8547
7990531665000.0,-0.520962004629996,5.913032069667589,4.03944364250099,0.2275473,-1.3884968,0.9825767,68.10951,-45.645725,-6.46445
7990536947000.0,-0.6971101955654895,5.770990575681717,3.99792764885114,0.22021692,-1.3261884,0.9621128,68.02601,-45.855465,-6.0916977
7990541750000.0,-0.8657193495350917,5.659955178095664,3.981477985766652,0.21899518,-1.3002267,0.95478237,67.93301,-46.05211,-5.739996
7990546721000.0,-1.0345894165278078,5.575985241938974,4.004394233704826,0.22052236,-1.239751,0.9428705,67.85571,-46.232376,-5.422238
7990551740000.0,-1.2010157256762606,5.51357542692058,4.056402358580394,0.22540927,-1.1911873,0.9300423,67.77673,-46.41059,-5.1182313
7990556706000.0,-1.351822469877408,5.51845450122592,4.131192799124343,0.24587326,-1.1670581,0.9104946,67.73124,-46.573414,-4.838238
7990561728000.0,-1.4992230951313483,5.547934608686515,4.215421809509632,0.26175576,-1.16492,0.9104946,67.67831,-46.73457,-4.5700374
7990566915000.0,-1.662576760502188,5.5592773303188165,4.239866337049385,0.2452624,-1.1533136,0.90408057,67.6486,-46.872334,-4.3272257
7990571696000.0,-1.824771861721192,5.549736450802251,4.19693247884976,0.23426682,-1.1239921,0.88789266,67.61575,-47.01384,-4.0975347
7990576765000.0,-1.975435595458656,5.627520371847685,4.206443974037978,0.23182335,-1.102001,0.86590147,67.62092,-47.138573,-3.8679736
7990581713000.0,-2.1039820801768307,5.779871842158144,4.263575700833919,0.23335053,-1.0861185,0.8393288,67.62396,-47.258793,-3.6542377
7990586711000.0,-2.1224186850638715,6.019187750262038,4.36170701904684,0.22082779,-1.0479393,0.8008443,67.65081,-47.367386,-3.439346
7990591799000.0,-2.042617163150999,6.338393629593843,4.4973694229774,0.20525073,-0.99204516,0.752586,67.676414,-47.472836,-3.2452433
7990596811000.0,-1.946357635171616,6.639886558522947,4.6430041720208255,0.20891592,-0.9633345,0.6966918,67.724686,-47.582947,-3.0589871
7990601761000.0,-1.7132622688006172,6.836417928075588,4.880669984303895,0.21074851,-0.95814216,0.6414085,67.774254,-47.685555,-2.8947124
7990607077000.0,-1.4619098849062104,7.042109094217125,5.11698567334046,0.22052236,-0.9737192,0.5861252,67.82718,-47.817944,-2.7207148
7990611725000.0,-1.2326175714063563,7.171897300184663,5.147269771775683,0.22235495,-0.96944314,0.5342017,67.88355,-47.945522,-2.5677044
7990617094000.0,-0.966434279499286,7.320370727120419,5.192123690118992,0.22021692,-0.9550878,0.47708577,67.945885,-48.07301,-2.3912826
7990621803000.0,-0.7002728852717753,7.414815022827225,5.475456801370776,0.23243423,-0.8949176,0.410196,68.00719,-48.20145,-2.2429378
7990626668000.0,-0.4252940823588766,7.512388074136126,5.76817618685388,0.2764165,-0.84971356,0.3387248,68.06981,-48.35625,-2.0628042
7990631720000.0,-0.1289428064493794,7.548257338005573,6.056807610065017,0.3417791,-0.84696466,0.27275133,68.13774,-48.516644,-1.9046845
7990636717000.0,0.1660362596115849,7.572502176104027,6.33966405454699,0.39370266,-0.83077675,0.21319197,68.202705,-48.68161,-1.7760994
7990641786000.0,0.4628759179917204,7.5848308,6.658309187830943,0.48075095,-0.79473567,0.1469131,68.27225,-48.8491,-1.6165549
7990646769000.0,0.7523182391518244,7.5848308,7.0028836138442285,0.5177083,-0.7819075,0.124311075,68.34309,-49.01328,-1.4644495
7990651760000.0,0.9736594783218224,7.557687813091434,7.29989142449232,0.5739079,-0.77488256,0.08979719,68.43836,-49.177586,-1.2827072
7990656730000.0,1.1012252280898878,7.493905002247192,7.53049102247191,0.62949663,-0.7620544,0.03359759,68.5342,-49.347973,-1.1205127
7990661776000.0,1.126774889275635,7.453764679209784,7.70441072060207,0.6771441,-0.73945236,-0.02076942,68.64904,-49.489697,-0.91334575
7990666760000.0,1.0414610934524928,7.440294094675447,7.812175303104421,0.7281514,-0.70402217,-0.09468412,68.76915,-49.643993,-0.7341407
7990671771000.0,0.9010255865484034,7.400235917080588,7.855573597567157,0.7834347,-0.7131852,-0.15118915,68.91569,-49.77647,-0.5397073
7990676733000.0,0.6649905348788647,7.313529229923973,7.783318024936645,0.8155051,-0.6930266,-0.2312125,69.06277,-49.912956,-0.384049
7990681702000.0,0.3994119602929631,7.337710041110579,7.7141716730493055,0.872621,-0.72784597,-0.31306845,69.2323,-50.04384,-0.2371551
7990686759000.0,0.0794824457424604,7.550996532618478,7.649258578267113,0.92179567,-0.763887,-0.3585779,69.40161,-50.17831,-0.10782997
7990691729000.0,-0.2324851454052543,7.770561899944103,7.576948793907211,0.95814216,-0.79901177,-0.4025602,69.58767,-50.307415,-0.008156953
7990696713000.0,-0.5393069737488354,8.015129853735793,7.483568023868083,1.022283,-0.7828238,-0.42363504,69.76868,-50.45493,0.07978347
7990701766000.0,-0.8492063023868052,8.255935688763778,7.413068830227579,1.1059716,-0.7315111,-0.43982297,69.9638,-50.639256,0.12586342
7990706703000.0,-1.1453901841075251,8.450892185314407,7.480553717135834,1.2284501,-0.7134906,-0.47067168,70.16232,-50.84806,0.16506884
7990713709000.0,-1.567237665363735,8.7305539907709,7.57268562980456,1.3762794,-0.71837753,-0.56138515,70.38459,-51.121094,0.14972132
7990716731000.0,-1.808151713174086,8.96623088961274,7.4731777486427795,1.5323554,-0.72601336,-0.600786,70.59291,-51.42448,0.13605918
7990721719000.0,-2.2057954161780677,9.355230350705757,7.30893376742671,1.5500705,-0.73823065,-0.72143185,70.86347,-51.736984,0.031910643
7990726758000.0,-2.440562150778195,9.61685530261443,7.13820452599862,1.5045611,-0.7351763,-0.8481864,71.13365,-52.06693,-0.08257188
7990731701000.0,-2.43693279954765,9.689443085179793,6.963993734148585,1.3820826,-0.76174897,-0.9798279,71.42828,-52.370346,-0.21593693
7990736763000.0,-2.4332160736870354,9.763778378593882,6.785588913524496,1.2202033,-0.7846564,-1.1023064,71.75695,-52.707542,-0.42956987
7990741729000.0,-2.3756366648829075,9.810418234820387,6.520097698315142,1.1273518,-0.84940815,-1.1490375,72.104774,-53.019268,-0.6410745
7990746678000.0,-2.3053241026809363,9.850596542121435,6.233825554413479,0.9773844,-0.9767735,-1.217149,72.49073,-53.25822,-0.86680275
7990751697000.0,-2.1928808615017554,9.745072210137751,5.959481360493383,0.8579602,-1.1395692,-1.3008375,72.90259,-53.51463,-1.0796504
7990756696000.0,-2.076502908292068,9.624384189069955,5.687932637976052,0.79443026,-1.3356569,-1.3683381,73.353806,-53.735138,-1.2741367
7990761760000.0,-2.0017846806959403,9.319857658864954,5.346290107601492,0.7684685,-1.5189165,-1.4230106,73.84173,-53.969975,-1.442082
7990766739000.0,-1.9474649044739023,8.939618503417565,4.980865900652445,0.782213,-1.6939293,-1.4584408,74.37427,-54.1897,-1.5881438
7990771753000.0,-1.863682060950056,8.580549580815788,4.714801968640017,0.8222246,-1.840537,-1.5060883,74.9429,-54.434845,-1.7015239
7990776747000.0,-1.7712494250432305,8.230278721289798,4.481287994558031,0.86926126,-2.0088303,-1.565953,75.55753,-54.677803,-1.7939415
7990781713000.0,-1.7014965089959568,7.9966883202830195,4.239398742621294,0.9147707,-2.1566598,-1.6197093,76.20712,-54.941006,-1.8730416
7990786745000.0,-1.636549758254717,7.789670772169812,3.991789289858491,0.95722586,-2.3124304,-1.6441438,76.89489,-55.20907,-1.9325309
7990791861000.0,-1.4942052919430784,7.626289822329182,3.7693578349272783,1.0094548,-2.4584272,-1.6749926,77.62179,-55.487778,-1.9755982
7990796715000.0,-1.2655944878623,7.529008490781626,3.5942516006696663,1.0280862,-2.6038132,-1.7201965,78.38259,-55.761417,-2.0060043
7990801694000.0,-1.0465417305648854,7.574827166900763,3.436661153709924,1.0207558,-2.7143798,-1.7556267,79.1677,-56.058777,-2.019784
7990806689000.0,-0.8420513111755725,7.764711189496182,3.3003342074503816,0.9999864,-2.8280005,-1.7971655,79.98647,-56.349777,-2.0265675
7990811729000.0,-0.6040382723865946,7.977924434041081,3.109766544994595,0.981355,-2.9526172,-1.8099937,80.816216,-56.656033,-1.9773327
7990816847000.0,-0.3348581590218378,8.213192066352432,2.870259858637838,0.95722586,-3.0973923,-1.7794504,81.66647,-56.948463,-1.9119524
7990821681000.0,-0.0806149648043242,8.435404597535136,2.644043500324325,0.9569204,-3.2534683,-1.7424932,82.52571,-57.281982,-1.7882013
7990827606000.0,0.2310091406443244,8.707768943264865,2.366771691675676,0.9483683,-3.3631186,-1.7259997,83.39479,-57.60029,-1.654312
7990831664000.0,0.4444387811355675,8.894309789673514,2.1768697508324326,0.9502009,-3.3689218,-1.7519615,84.264694,-57.915382,-1.5219195
7990836765000.0,0.6146641550364431,8.851384456177115,2.017458747093659,0.94134337,-3.2904255,-1.7821994,85.142685,-58.225628,-1.3929816
7990841732000.0,0.7706816435276969,8.782043307944607,1.870108863666181,0.91813046,-3.1764994,-1.7931949,86.001396,-58.52586,-1.2781248
7990846724000.0,0.9699985366398746,8.654277442854344,1.798654223152323,0.88239485,-3.0604348,-1.790446,86.75421,-58.958385,-1.0458761
7990851749000.0,1.1869833463340522,8.503331900313665,1.7562006569398156,0.86834496,-2.9410107,-1.7953329,87.4675,-59.38165,-0.84835404
7990856695000.0,1.5026207766937418,8.402524590179066,1.6712508569134206,0.84971356,-2.8209758,-1.7858646,88.12904,-59.811317,-0.6318207
7990861789000.0,1.876360184170205,8.321471969171128,1.56318160459664,0.8136725,-2.6966646,-1.7690657,88.746155,-60.223473,-0.44485122
7990866803000.0,2.1803467576641675,8.267860472586035,1.5498821252280732,0.79320854,-2.5705209,-1.7348573,89.278046,-60.61657,-0.21751642
7990871722000.0,2.422888025291301,8.238074996748262,1.6179639110649444,0.75686204,-2.4419339,-1.6933185,89.76213,-60.987007,-0.0150212925
7990876695000.0,2.6572987661998724,8.259888982813495,1.7313476827498409,0.73792523,-2.3585508,-1.6670512,90.148285,-61.355625,0.27157447
7990881695000.0,2.867271890183181,8.405515618360564,1.9514807543956436,0.7247916,-2.349693,-1.6423112,90.50627,-61.708385,0.54265815
7990886738000.0,3.0790507830327467,8.552394642973336,2.1735069704576,0.67164636,-2.3790147,-1.5641204,90.99608,-62.085308,0.80636454
7990891735000.0,3.4111217715079984,8.750827751072961,2.3621316433866566,0.6133087,-2.3603833,-1.4395039,91.4509,-62.44834,1.0679789
7990896711000.0,3.8759498219176742,9.006483098712446,2.5155250461178307,0.5412266,-2.2941043,-1.2513574,91.87178,-62.78282,1.3509573
7990901738000.0,4.242512286347161,9.074719121895557,2.689703255671902,0.42943826,-2.1612413,-1.0323622,92.35945,-63.0889,1.6546708
7990906697000.0,4.465656301852598,8.886640941670022,2.8873449363001744,0.33353242,-1.9947804,-0.8176431,92.789764,-63.36707,1.9813889
7990911768000.0,4.693840069271044,8.69431497838636,3.0894503935427573,0.2125811,-1.8500054,-0.6407976,93.227776,-63.619442,2.3823407
7990916779000.0,4.6954049162935325,8.518259972947762,3.324891041262437,0.08582657,-1.7061466,-0.5143485,93.59832,-63.828434,2.7923079
7990921775000.0,4.427611652446103,8.359567066231342,3.6026025146869816,-0.061086524,-1.5781704,-0.41599923,93.9137,-63.98305,3.2123885
7990926732000.0,4.088502346411483,8.281478090909092,3.845614778787879,-0.22968534,-1.4651603,-0.3286455,94.23504,-64.02566,3.6717088
7990931696000.0,3.6809686344497607,8.276739727272728,4.058859005303031,-0.38881573,-1.4333953,-0.22540927,94.52809,-64.0165,4.1451874
7990936720000.0,3.3037630856380136,8.330461765616658,4.172383972717566,-0.47494772,-1.3833044,-0.18081611,94.81191,-63.921764,4.558423
7990941761000.0,2.9600956693272824,8.442153692738922,4.18527171670226,-0.6197228,-1.3316863,-0.07727446,95.06476,-63.75337,5.001792
7990946664000.0,2.6269057393010544,8.559236434010153,4.156448405700898,-0.7629707,-1.2681563,0.020158553,95.3115,-63.525906,5.3804064
7990951746000.0,2.284833114525576,8.706517695431472,3.999665034595861,-0.8707884,-1.1884383,0.10934488,95.52625,-63.261585,5.76808
7990956687000.0,1.9779681503111533,8.843550645763523,3.855295138008617,-0.9605856,-1.0809261,0.1872302,95.714775,-62.974293,6.1114225
7990961726000.0,1.7662109896601244,8.959054463858307,3.739791239508537,-0.9987647,-0.9786061,0.23732115,95.8743,-62.669117,6.4533873
7990966736000.0,1.5556725147917665,9.073893544758258,3.6249520786660288,-1.0005972,-0.89888823,0.26939157,96.01231,-62.397404,6.756563
7990971850000.0,1.342468063076923,9.166082514398422,3.5430936346745563,-0.9673051,-0.84421575,0.27000242,96.12727,-62.12632,7.0463448
7990976714000.0,1.1403389307692309,9.244178015779092,3.47877975443787,-0.91507614,-0.8573494,0.24465153,96.238045,-61.862694,7.3282037
7990981719000.0,0.9072671677817472,9.241480911740824,3.26827263480026,-0.8399397,-0.8897252,0.19181168,96.36966,-61.6713,7.5650716
7990986761000.0,0.6602685779019162,9.198354126258526,2.985988511026308,-0.784351,-0.89675015,0.12736541,96.502304,-61.494045,7.783967
7990991687000.0,0.4418102726320686,9.148735398428617,2.7544787890933526,-0.71593404,-0.91782504,0.052534413,96.68626,-61.381878,7.9511595
7990996771000.0,0.3059073421368758,9.068200276336194,2.689044140359764,-0.67256266,-0.9654725,-0.031154128,96.88702,-61.28536,8.099952
7991001662000.0,0.1892307416572686,8.970049180217309,2.626508347189959,-0.64904433,-1.0262536,-0.11881329,97.12659,-61.277546,8.184881
7991006718000.0,0.1075928589026789,8.811308965904834,2.563012166747846,-0.65026605,-1.0763446,-0.22357668,97.38725,-61.283283,8.246564
7991011736000.0,0.0292791521650052,8.655145301888322,2.509687554283168,-0.6383542,-1.0806206,-0.31978795,97.67334,-61.31675,8.270669
7991016816000.0,-0.0338056073422481,8.505318855660912,2.5136303489991088,-0.6197228,-1.0503827,-0.4370741,97.97776,-61.362015,8.263404
7991021750000.0,-0.0950773009266553,8.359798445092796,2.5174598271740014,-0.6084218,-1.0042624,-0.55771995,98.302605,-61.4188,8.217694
7991026759000.0,-0.2018931639169329,8.225696581469649,2.536094347380192,-0.5815437,-0.98807454,-0.68661255,98.64124,-61.49472,8.139795
7991031738000.0,-0.3288445032374867,8.098745337593185,2.5614845431309905,-0.57635134,-0.9828822,-0.81122905,98.98312,-61.57616,8.028229
7991036769000.0,-0.4416741521809803,8.034433641164641,2.608632953472979,-0.5671884,-0.98715824,-0.8668178,99.32878,-61.65424,7.891474
7991041956000.0,-0.554051378562212,7.984488198525346,2.6627405996313365,-0.539394,-1.0012082,-0.97433007,99.69523,-61.75098,7.7123337
7991046765000.0,-0.6935672195127993,7.950054327291495,2.7158985533443434,-0.5006041,-1.0454959,-1.0751228,100.091034,-61.848587,7.508891
7991051746000.0,-0.8855966256090008,7.930358965885632,2.7749844833195705,-0.45662177,-1.1371256,-1.1869112,100.51469,-61.961296,7.285744
7991056693000.0,-1.0349921576271186,7.962527430707876,2.747302218644068,-0.4147775,-1.2626585,-1.2922854,100.97308,-62.077065,7.0304494
7991061731000.0,-1.1399455745762712,8.054361681954138,2.620483571186441,-0.37934732,-1.4046847,-1.3973542,101.47011,-62.206623,6.7637134
7991066697000.0,-1.2401863499646717,8.138765968406178,2.452702684344403,-0.32559118,-1.4929546,-1.5103643,101.999054,-62.34956,6.4434476
7991071747000.0,-1.3329383394670435,8.207109437670335,2.1598014609669933,-0.22785273,-1.5100589,-1.5946637,102.55198,-62.51288,6.116059
7991076670000.0,-1.4205566393311084,8.263585672725982,1.9238780109848757,-0.13652839,-1.4416419,-1.6804903,103.114525,-62.727013,5.7431693
7991081703000.0,-1.502698358581268,8.29438907654619,1.814355706738621,-0.032070424,-1.3304645,-1.7553213,103.675095,-62.967113,5.351336
7991088018000.0,-1.605763122552013,8.33303868813463,1.6769360064971952,0.05681047,-1.2153164,-1.8414533,104.22233,-63.284817,4.912186
7991091743000.0,-1.6536212003086102,8.429711286956074,1.740171049315914,0.15149458,-1.1157454,-1.9312505,104.74903,-63.624664,4.443954
7991096830000.0,-1.7087481940643967,8.6201498642115,1.9406328114905875,0.23732115,-1.0064005,-2.028378,105.24909,-63.97698,3.939832
7991101735000.0,-1.669410645452236,8.78690638433689,2.0766767245299795,0.3051272,-0.9025534,-2.1358902,105.73033,-64.37386,3.3787537
7991106697000.0,-1.5486786677845528,8.94083948094512,2.164207394156504,0.3576616,-0.7855727,-2.243097,106.184616,-64.77487,2.7824078
7991111737000.0,-1.4260488476626016,9.097192323932926,2.2531139993394307,0.39522982,-0.68111473,-2.3261747,106.62102,-65.15176,2.1455321
7991116964000.0,-1.19323458237065,9.323957694764772,2.3782897923461577,0.42363504,-0.5992588,-2.3887885,107.036194,-65.5185,1.4821779
7991121731000.0,-0.8391575599408103,9.61746897275232,2.5366927899887743,0.44043383,-0.5421429,-2.439185,107.43185,-65.8675,0.7990129
7991126711000.0,-0.4121029123318073,9.952407373407643,2.676879648397691,0.45478916,-0.52320606,-2.43216,107.807915,-66.19131,0.1549345
7991131718000.0,0.0985225432981686,10.329411351910828,2.781868036922771,0.46853364,-0.50885075,-2.4174993,108.168106,-66.493546,-0.49675727
7991136749000.0,0.6465075356166134,10.658333068157615,2.8443117,0.47403142,-0.51251596,-2.355191,108.5108,-66.77131,-1.0500039
7991141837000.0,1.2519167240127795,10.917793975505855,2.8443117,0.48349985,-0.5338962,-2.2773056,108.843956,-67.033,-1.5854363
7991146880000.0,1.8519714679361023,11.174960122470711,2.8443117,0.49418998,-0.5891795,-2.179567,109.15886,-67.30164,-1.9766597
7991151710000.0,2.1666543271388967,11.234361025332186,2.822860169907275,0.49235737,-0.6426302,-2.087021,109.46376,-67.55573,-2.3400092
7991156719000.0,2.317980042959564,11.170162413822773,2.786175050673932,0.50762904,-0.7076874,-2.0265455,109.772385,-67.805466,-2.6730642
7991161711000.0,2.3793785572810315,11.036181298764106,2.731697825765717,0.49938235,-0.7883216,-1.9755383,110.073685,-68.08694,-2.8160324
7991166790000.0,2.3488855440085974,10.827087156367543,2.657643631380978,0.49632803,-0.8756753,-1.9391917,110.38227,-68.36538,-2.940297
7991171955000.0,2.2826614034043327,10.609363134352812,2.5738745442836337,0.4868596,-0.9486737,-1.9489655,110.719635,-68.63116,-3.049423
7991176758000.0,2.1444933546331697,10.395830305843802,2.4775756184234483,0.46609017,-1.0247264,-1.9883664,111.07408,-68.884026,-3.1491926
7991181838000.0,1.993558729639369,10.17015468482344,2.3750409964688206,0.44959682,-1.0913107,-2.0436497,111.452225,-69.12071,-3.2678754
7991186765000.0,1.7985796916510144,9.953019185105184,2.268688777103681,0.44868052,-1.1184943,-2.10046,111.83804,-69.345985,-3.39432
7991192532000.0,1.5678891946510274,9.705624974544548,2.1407282850511606,0.42943826,-1.1236867,-2.1670444,112.24455,-69.5445,-3.5752022
7991196794000.0,1.377745671799351,9.576599226603443,2.018493125230846,0.43401974,-1.1090258,-2.225382,112.65133,-69.73864,-3.7668357
7991201709000.0,1.1584694130438398,9.427804869228847,1.8775297722236088,0.45662177,-1.0567969,-2.276084,113.0497,-69.9148,-4.0220437
7991206710000.0,0.8752004236488027,9.31559172890536,1.7377536263683009,0.48197266,-0.99265605,-2.3240368,113.43958,-70.0802,-4.2910805
7991211725000.0,0.5374914673204104,9.238009335803875,1.6008445552451538,0.4981606,-0.9370673,-2.3710735,113.815704,-70.236244,-4.573704
7991216719000.0,0.1395202460956976,9.203996232408524,1.520659753518295,0.52442783,-0.90010995,-2.4120014,114.16958,-70.388596,-4.929783
7991221698000.0,-0.3398014372295938,9.2279622995577,1.51586654008846,0.5748242,-0.8750645,-2.4553728,114.509125,-70.535324,-5.2975345
7991226693000.0,-0.8533492925849576,9.294344861720583,1.567971151199102,0.6261369,-0.8753699,-2.4981334,114.829865,-70.67161,-5.741129
7991231685000.0,-1.4095331636248596,9.416315433411574,1.6948201178283495,0.6591236,-0.88117313,-2.518292,115.13927,-70.797485,-6.1848297
7991236707000.0,-2.05082558884106,9.71055406705298,1.895702696432119,0.7489208,-0.9086621,-2.5558603,115.43288,-70.89222,-6.7269416
7991241831000.0,-2.7982731399668874,10.206144123344371,2.184119973683775,0.8222246,-0.9624182,-2.5894578,115.72819,-70.96709,-7.261019
7991246897000.0,-3.486870661864407,10.676942290254235,2.460285682838983,0.90316427,-1.0082331,-2.5977044,116.058815,-70.980125,-7.9009337
7991251763000.0,-3.689032932324456,10.95432736349879,2.643642031688862,0.9914343,-1.0641272,-2.5824327,116.4005,-70.98394,-8.526796
7991256825000.0,-3.8776342095451306,11.224652260710288,2.812176938485804,1.0439687,-1.1453724,-2.550057,116.79828,-70.8707,-9.288283
7991261728000.0,-3.8680778748753433,11.324994373460871,2.7787298170347,1.0833695,-1.241889,-2.4956899,117.20815,-70.74624,-10.018512
7991266922000.0,-3.8405697021505376,11.4027618853598,2.7302691468320925,1.0955868,-1.3445144,-2.418721,117.641365,-70.56211,-10.747645
7991271822000.0,-3.720245723655914,11.32125166203474,2.613826584383788,1.1044444,-1.4428637,-2.3301454,118.09104,-70.36931,-11.43523
7991276762000.0,-3.5989395086021503,11.239076049131514,2.496433470405293,1.108415,-1.5271631,-2.2327125,118.54787,-70.17267,-12.080129
7991281695000.0,-3.4096022784481224,11.126188228510411,2.3200363734650296,1.0830641,-1.5848899,-2.1484132,119.01448,-69.96468,-12.684346
7991286722000.0,-3.186838722352732,10.99767094714362,2.114408589081687,1.0671816,-1.6420058,-2.0775528,119.49372,-69.75839,-13.245901
7991291747000.0,-2.942913360573831,10.889563257646962,1.8834662938576965,1.0451905,-1.6893479,-2.0152445,119.95456,-69.55821,-13.763227
7991296748000.0,-2.6744028302250804,10.80664124330118,1.6228530471597,1.0348058,-1.717753,-1.9511036,120.41522,-69.360176,-14.24645
7991302002000.0,-2.376899638280208,10.713779332246109,1.3555689883409934,1.0412198,-1.7198911,-1.8796324,120.86459,-69.20186,-14.678542
7991306712000.0,-1.938872501289844,10.56665590081542,1.188383072744255,1.0601566,-1.715615,-1.8081611,121.30976,-69.0482,-15.082755
7991311775000.0,-1.4680165788732396,10.408506021126762,1.0086670874647887,1.078788,-1.7333301,-1.7244726,121.76354,-68.972946,-15.419767
7991316695000.0,-1.0856582381387,10.26007807249196,0.8883575742739583,1.0882565,-1.7739527,-1.6417004,122.212746,-68.90496,-15.730825
7991321727000.0,-0.8549264883668737,10.119475703074736,0.8811471892122391,1.0852021,-1.8026633,-1.5451837,122.65194,-68.85051,-16.009937
7991326701000.0,-0.6268542062990947,9.98049394920326,0.874019912722376,1.0638218,-1.8442022,-1.4947872,123.12456,-68.88432,-16.189837
7991331733000.0,-0.4658493761040511,9.795100392579958,0.8901627445543709,1.065349,-1.8915442,-1.3933836,123.59315,-68.94678,-16.325195
7991336718000.0,-0.3436991341808102,9.587445062515991,0.9186644661108744,1.0552697,-1.9462167,-1.2962561,124.06953,-69.00691,-16.443363
7991341713000.0,-0.2429446694930257,9.388029991148068,0.9424343295466738,1.0482447,-1.9834795,-1.2147056,124.570145,-69.10567,-16.499084
7991346755000.0,-0.1911353829998211,9.206696967721744,0.9553866658217096,1.0574077,-2.0302107,-1.128879,125.07992,-69.223595,-16.52266
7991351783000.0,-0.1393197740935362,9.028174563354993,0.962591917997606,1.0629056,-2.082745,-1.039998,125.61542,-69.34958,-16.512335
7991356596000.0,-0.0880876252291381,8.882360333447332,0.9074188315663476,1.0800097,-2.1209242,-0.95172805,126.15245,-69.49515,-16.476929
7991361618000.0,-0.0346307684668262,8.730214257694938,0.8498499057284542,1.0961977,-2.149024,-0.86132,126.70877,-69.647224,-16.419046
7991366606000.0,-0.019153614,8.686164,0.8331822,1.105666,-2.1734586,-0.7632761,127.26701,-69.82045,-16.333366
7991371572000.0,-0.019153614,8.686164,0.8331822,1.1111639,-2.1905627,-0.66798115,127.82385,-70.01317,-16.223473
7991376604000.0,0.0163297569915407,8.686164,0.7577800434743203,1.1255192,-2.1896465,-0.5757405,128.38066,-70.22972,-16.09059
7991381567000.0,0.0546215530843907,8.686164,0.6764099841490434,1.14018,-2.1716259,-0.48716503,128.93028,-70.465614,-15.934216
7991386632000.0,0.0702060971533811,8.609692687759729,0.5769112705241783,1.1633929,-2.1517727,-0.3924809,129.47893,-70.72069,-15.757032
7991391585000.0,0.0836460074537212,8.529053469210428,0.4783519174064979,1.1749994,-2.1426098,-0.31429017,130.01996,-70.98967,-15.563
7991396603000.0,0.0665346693329308,8.431223883489285,0.4832746266495623,1.1948525,-2.1267273,-0.2489276,130.54614,-71.291695,-15.3475275
7991401571000.0,0.0425998795206761,8.330697235738002,0.5119963596287352,1.2064588,-2.1135938,-0.21868975,131.06726,-71.59996,-15.124252
7991406582000.0,0.0055687241755725,8.266834196481911,0.5040521514503816,1.2345587,-2.1053472,-0.16218472,131.57544,-71.93738,-14.88505
7991411680000.0,-0.0349411999503816,8.210120426983073,0.4878481973664122,1.2385293,-2.105958,-0.09315695,132.07977,-72.277916,-14.638317
7991416729000.0,-0.1200547465233428,8.102586123511434,0.4363659147644641,1.2589933,-2.1093178,-0.022296581,132.58894,-72.61689,-14.392322
7991421729000.0,-0.2613502465760354,7.931013038887132,0.3404868284539993,1.2999213,-2.0934353,0.070249505,133.08781,-72.976326,-14.12613
7991426680000.0,-0.3916602768925882,7.774231008204518,0.2613162580003964,1.3713925,-2.0546453,0.111177474,133.58249,-73.33017,-13.875242
7991431699000.0,-0.5154925938010305,7.626584680142687,0.1946373112405865,1.4052955,-2.0387628,0.18845193,134.07294,-73.70981,-13.592542
7991436677000.0,-0.6389094258692093,7.522759103380526,0.1389905262467494,1.4840971,-1.997224,0.25809056,134.53685,-74.084724,-13.345009
7991441702000.0,-0.764049880939998,7.457871413406529,0.0926422115255706,1.5589281,-1.9596558,0.3173445,134.99472,-74.47348,-13.0841465
7991446681000.0,-0.8371022465254552,7.378904549619101,0.1062381398141954,1.6533068,-1.9318613,0.3652974,135.43985,-74.85975,-12.846907
7991451683000.0,-0.8460028696395392,7.280997834773318,0.1952444267186919,1.7461584,-1.9373591,0.40958515,135.88234,-75.26169,-12.599646
7991456664000.0,-0.8181799559055283,7.1287924265754,0.2770748519082454,1.8408424,-1.998751,0.42943826,136.33176,-75.64896,-12.382187
7991461773000.0,-0.6954639168910022,6.83222872479883,0.3435460385954645,1.9263636,-2.1090124,0.44593164,136.79677,-76.0467,-12.157302
7991466779000.0,-0.5964604508618785,6.58125592596685,0.3605112076685083,2.0066924,-2.2583687,0.4654793,137.30272,-76.43199,-11.9355755
7991471780000.0,-0.5303090648508287,6.391621782044199,0.3031799969419889,2.0894647,-2.400395,0.50823987,137.83836,-76.82655,-11.705658
7991476689000.0,-0.4742607566938073,6.225759618805292,0.2440717279043294,2.2064452,-2.5292876,0.5842926,138.42676,-77.23743,-11.451962
7991481753000.0,-0.4514797542354968,6.134635569325922,0.1719319035698739,2.334727,-2.638938,0.7104363,139.04892,-77.67075,-11.175081
7991487888000.0,-0.423880731707508,6.024239431182964,0.0845350192310342,2.488054,-2.7269025,0.86406887,139.7001,-78.14162,-10.868353
7991491846000.0,-0.4275728796407185,5.970880874850299,0.0301640730658682,2.6285532,-2.8008173,1.0348058,140.37694,-78.645905,-10.526775
7991496751000.0,-0.4365024878528657,5.908373663986313,-0.0368080370111206,2.7278187,-2.862209,1.2211196,141.07378,-79.18714,-10.144735
7991501740000.0,-0.4430294087779448,5.882655648825851,-0.0246005039968063,2.7491992,-2.9654453,1.3982705,141.80037,-79.76075,-9.725369
7991506706000.0,-0.4474966770270524,5.887122809787714,0.0513428715173774,2.6933048,-3.0720413,1.5598444,142.5459,-80.356575,-9.267983
7991511761000.0,-0.7066653152378057,6.359044638504787,1.17204924903267,2.5763242,-3.1661146,1.715615,143.31525,-80.96661,-8.778591
7991517036000.0,-1.3361209697166083,7.510487925999088,3.8126926216128254,2.2702806,-3.2473598,1.8154916,144.11382,-81.56226,-8.270247
7991521709000.0,-1.8937411163288247,8.53052479471205,6.1519772623838325,1.7082846,-3.2803464,1.8161024,144.9375,-82.12497,-7.7594028
7991526755000.0,-2.400499298302191,9.316190641752822,6.970360382936546,1.3164146,-3.2543845,1.6920967,145.76929,-82.6568,-7.266797
7991531716000.0,-2.873666942872048,10.005663297638243,7.326362693445889,0.3652974,-3.022256,1.4547756,146.5505,-83.10073,-6.814015
7991536724000.0,-3.150955806967437,10.450680763507368,6.654476577587775,-0.5549711,-2.5723536,1.1841623,147.39632,-83.0957,-6.5855145
7991541995000.0,-3.3438003329725303,10.795046211115151,5.437719397853375,-1.1835514,-1.926669,0.91690874,148.10092,-82.83141,-6.4122353
7991547888000.0,-3.3997684447914485,11.434672750995595,3.808054278138755,-1.4199562,-0.9459248,0.5564982,148.58154,-82.14012,-6.43727
7991551757000.0,-3.3687036023370363,11.96277584311465,2.623704802766716,-1.1954633,-0.96761054,0.4746423,149.14476,-81.329636,-6.4273314
7991556689000.0,-3.394085519080083,12.546501506040732,1.89564822589748,-0.87872964,-0.8576548,0.28955013,149.35886,-80.56122,-6.583531
7991561722000.0,-3.468956084829133,13.07475629099068,1.7417473989471868,-0.18936823,-0.9266826,0.018020526,149.62546,-79.889656,-6.7666397
7991566675000.0,-3.5218974365092075,13.5360117811249,1.4718110057846276,0.3817908,-1.6743816,-0.30787608,150.00737,-79.519585,-6.953085
7991571739000.0,-3.5121902877502,13.827225737089671,0.8311387619735787,1.1468995,-2.4251351,-0.6771441,150.4161,-79.28934,-7.2149763
7991576671000.0,-3.410422626733167,14.02945285436409,0.4002723183441397,1.8826867,-2.805704,-0.9932669,150.92961,-79.16446,-7.5290484
7991581704000.0,-3.025783733067332,13.98824178254364,0.5479462186234414,2.2409592,-2.9116893,-1.2287555,151.5843,-79.05441,-7.8935647
7991588104000.0,-2.536674072931956,13.935837479016744,0.7357294417085857,2.1740694,-2.8032606,-1.4080443,152.26955,-79.02717,-8.307367
7991591827000.0,-1.5164290802456502,14.081983681678608,0.8358680411463664,1.8655825,-2.5143213,-1.5234979,152.9315,-78.945625,-8.762731
7991596780000.0,0.4061742428659158,14.412127747082907,0.9620995299590585,1.5457945,-2.076331,-1.5485435,153.51407,-78.79413,-9.240642
7991601750000.0,1.8150020057740923,14.473686031145718,0.7034744937263626,1.2669345,-1.6563611,-1.5176947,154.02303,-78.62363,-9.635515
7991606718000.0,2.7146892226008696,14.271617190211346,0.0684011831145717,0.97249746,-1.3420709,-1.4636332,154.4302,-78.38918,-10.031438
7991611719000.0,3.5774474934615026,14.397391595430484,-0.3754958637503482,0.6731735,-1.0714576,-1.3582588,154.72208,-78.42798,-10.066477
7991616750000.0,4.405298239741804,14.8314537715241,-0.6395131275174143,0.3830125,-0.95386606,-1.2470814,154.96626,-78.436035,-10.09314
7991621728000.0,5.159622846072508,15.41586681570997,-0.7832149779154078,0.049480084,-0.6872234,-1.1682798,155.05086,-78.589264,-9.972943
7991626762000.0,5.810186132900302,16.275193428398794,-0.7249555986163142,-0.10293079,-0.28588495,-0.9392053,155.06046,-78.78379,-9.79451
7991631684000.0,6.102933940701288,16.718614366444744,-0.7860386359254328,-0.38606682,0.1328632,-0.6462954,154.96768,-79.09639,-9.442641
7991636754000.0,5.822770646426986,16.5031035861518,-1.048960869747004,-0.62125,0.42485678,-0.2864958,154.80028,-79.447014,-9.032272
7991641916000.0,5.442252219019536,16.201234780316994,-1.2276809720973094,-0.806953,0.56779927,0.084910266,154.56343,-79.90252,-8.453821
7991646771000.0,4.615343805178769,15.511430635919648,-0.957757467305566,-0.95478237,0.64599,0.36193767,154.27292,-80.34833,-7.836237
7991652142000.0,3.732551653105363,14.757365363583224,-0.6254272241414585,-1.0439687,0.6062838,0.5476407,153.97011,-80.77749,-7.2194004
7991656726000.0,3.6780214126844952,14.311500188659943,0.3946098082127723,-1.1081096,0.41599923,0.6728681,153.69981,-81.185394,-6.564222
7991661719000.0,3.618625799590823,13.825853413269034,1.5056579981221687,-1.176221,0.21044308,0.77824235,153.47632,-81.4191,-6.0240693
7991666738000.0,3.495670201770782,13.423836246827348,2.431621541859321,-1.2617421,-0.16707164,0.86651236,153.36267,-81.61192,-5.457037
7991671779000.0,3.14897090152484,13.324100818101329,2.688083966601082,-1.217149,-0.79717916,0.85918194,153.38853,-81.77176,-4.886837
7991676681000.0,2.71316810984369,13.232375971025544,2.7245230794891344,-0.9630291,-1.4266758,0.8136725,153.63216,-81.69011,-4.314351
7991681718000.0,1.8083537449927565,13.16249167670606,1.7755714058787646,-0.66645396,-1.8845193,0.82253003,154.0033,-81.578835,-3.7207186
7991688787000.0,0.5385239365489896,13.064415028593212,0.4437986481357221,-0.46670106,-2.2779164,0.97433007,154.54016,-81.3983,-3.139065
7991691748000.0,-0.7116852237972383,12.555901509992731,-0.5033356820130814,-0.35827246,-2.348166,1.0543534,155.11212,-81.22168,-2.575872
7991696788000.0,-2.890896036442587,11.657032069585757,-2.1432246747456394,-0.3173445,-2.4269676,1.16492,155.69197,-81.210434,-2.1306407
7991701741000.0,-4.351584708814455,10.99045987968268,-3.227544321639489,-0.204029,-2.439185,1.2366967,156.2699,-81.23252,-1.6793388
7991706707000.0,-4.64802014087389,10.694024416357111,-3.410196415488258,-0.10048734,-2.3793201,1.2632693,156.84578,-81.247086,-1.2154617
7991711774000.0,-4.950484565812504,10.391559959516464,-3.5965633424982686,0.03848451,-2.26631,1.3060299,157.26855,-81.46969,-1.1140064
7991716770000.0,-5.292435370139781,9.987477553582904,-3.6060454543380462,0.16340645,-2.2088888,1.3692545,157.69215,-81.71299,-1.0031021
7991721953000.0,-5.834737348489718,9.114211587724936,-2.8683551600257067,0.22571471,-2.1090124,1.3784174,158.07668,-81.97065,-0.9057679
7991726670000.0,-6.328281325313304,8.319460370099614,-2.1969900976542416,0.34208453,-2.0616703,1.3741413,158.44354,-82.27261,-0.8824022
7991731703000.0,-6.683234764311815,7.898508970767356,-1.552165916686967,0.45540005,-2.0983222,1.3771957,158.8089,-82.58411,-0.85859203
7991736754000.0,-6.960995599921699,7.671250444840786,-0.93772552136767,0.6411031,-2.302351,1.3332134,159.21407,-82.93892,-0.8490439
7991741728000.0,-7.226083037358606,7.569946198410272,-0.3960248158177927,0.8713993,-2.5622742,1.2660183,159.61792,-83.03886,-0.9871853
7991746718000.0,-7.479317477489046,7.6527345342912465,0.0520053928645674,1.1417072,-2.8634307,1.1765264,160.08589,-83.18918,-1.1362805
7991751708000.0,-7.616652837776149,7.788387715317768,0.2221466239660768,1.3912456,-3.1401527,1.0509937,160.5816,-83.10327,-1.4019219
7991756708000.0,-7.601612109056643,7.993941322269919,0.0266197314940843,1.5757269,-3.2381966,0.8258898,161.10117,-83.04808,-1.7097363
7991761720000.0,-7.150414256929323,8.205712553377007,-0.2011606578667651,1.6190983,-3.1975741,0.5311473,161.63202,-82.8395,-2.1175568
7991767143000.0,-6.230362327440488,8.440517995663408,-0.4790930505536077,1.5696182,-3.066849,0.16768251,162.1548,-82.60868,-2.5937042
7991771704000.0,-5.296342591153846,8.579088276923077,-0.6019022967692308,1.4208726,-2.8808405,-0.24373524,162.67052,-82.36734,-3.1446023
7991776714000.0,-3.991075870609756,8.628597980487804,-0.5433903469756097,1.2342533,-2.6758952,-0.6759224,163.13821,-82.02142,-3.7939553
7991781661000.0,-2.684669439822104,8.670123675493302,-0.4668578236325529,1.0412198,-2.4801128,-0.9990701,163.68811,-81.88295,-4.332433
7991786722000.0,-1.282307113444433,8.684990007258971,-0.3181975070800532,0.8671232,-2.320677,-1.1557571,164.18805,-81.620735,-4.943879
7991791733000.0,-0.0489455865739631,8.727794454807,-0.1993159052489411,0.7247916,-2.1529946,-1.1957687,164.74059,-81.467766,-5.376919
7991796716000.0,0.7595655769359866,8.846019743706545,-0.1573648553640214,0.63255095,-2.0027218,-1.1322387,165.24738,-81.25498,-5.8240104
7991802805000.0,1.7475295493646608,8.990485684727883,-0.1061025750611364,0.5757405,-1.8985692,-1.0122037,165.79758,-81.17049,-6.041536
7991806708000.0,2.159337262191806,9.22763410750544,-0.2046460869071791,0.58368176,-1.8487836,-0.82894415,166.31224,-81.100784,-6.2215877
7991811716000.0,2.6810267323876,9.536300680384336,-0.3350684431073242,0.63713247,-1.840537,-0.5739079,166.7992,-81.064964,-6.344888
7991816743000.0,3.128795156682113,9.852530188137164,-0.4126440997442075,0.7131852,-1.8167132,-0.43585235,167.31142,-81.1659,-6.2785807
7991821777000.0,3.517510512696941,10.17422564874884,-0.4483880377386469,0.7443393,-1.7828102,-0.1731803,167.80414,-81.34614,-6.1034875
7991826705000.0,3.775779381106957,10.341272964256405,-0.3807276157060272,0.7846564,-1.767844,-0.0015271631,168.31868,-81.64273,-5.8161187
7991831716000.0,3.8545437841889294,10.288763240357437,-0.1575619132829397,0.7883216,-1.824349,0.08674286,168.8371,-81.969795,-5.4793615
7991836789000.0,3.860264872825279,10.25347739219331,0.0341026887382899,0.7296785,-1.8820758,0.10720685,169.36551,-82.36128,-5.044433
7991841783000.0,3.604241577702602,10.281924627137546,0.1016643894107063,0.6429357,-1.9150625,0.1386664,169.89938,-82.754295,-4.58661
7991846741000.0,3.3500638650037176,10.31016679591078,0.1687390614038661,0.55833083,-1.9058995,0.22510384,170.45326,-83.09889,-4.0996866
7991851762000.0,2.9182914823150137,10.357283147067854,0.1856583204605465,0.46303585,-1.8649716,0.33964106,171.00507,-83.40999,-3.6011004
7991856719000.0,2.335273554436598,10.420443677515095,0.1565074266032136,0.39187005,-1.7928895,0.4541783,171.54242,-83.693756,-3.0845382
7991861732000.0,1.7833630950392718,10.424132760799717,0.1847313369189575,0.31612277,-1.7650951,0.54519725,172.0747,-83.895325,-2.6059444
7991866976000.0,1.2365107152677617,10.379308823634418,0.2609320862656194,0.24953845,-1.7815884,0.58368176,172.59673,-84.05687,-2.1156707
7991872497000.0,0.7024284461020093,10.328964201236476,0.3418046761236476,0.19211712,-1.8374827,0.59650993,173.1107,-84.15645,-1.7107657
7991876750000.0,0.333108088602782,10.286995570942812,0.4047570124276146,0.13988814,-1.9419407,0.59528816,173.64139,-84.216484,-1.3012857
7991881694000.0,-0.0637491628006282,10.178994954353588,0.4253664743408265,0.08399397,-2.0668626,0.5833763,174.17857,-84.20152,-0.99386626
7991886703000.0,-0.4122125379699617,9.971800744969078,0.3594409587042309,0.03268129,-2.1700988,0.5534439,174.73727,-84.158966,-0.69181263
7991891709000.0,-0.7317150875516225,9.82090549006883,0.3144262449360865,0.004886922,-2.270586,0.4868596,175.3272,-84.07074,-0.4765224
7991896751000.0,-0.9975981902654868,9.778173920353982,0.3096783368141593,-0.0018325958,-2.3893993,0.42271876,175.94844,-83.969475,-0.26582143
7991901665000.0,-1.2077572422515983,9.754328643365184,0.2375865495322939,-0.005497787,-2.4929411,0.3866777,176.59097,-83.86704,-0.12767534
7991906701000.0,-1.308241090430347,9.77165343853725,0.0054341277951002,-0.021685716,-2.5607471,0.37384954,177.2533,-83.75911,0.0025797836
7991911756000.0,-1.409104047647101,9.789043597313023,-0.2275941668596882,-0.04642576,-2.5830436,0.35979962,177.92992,-83.64817,0.076356515
7991916757000.0,-1.4931069547337568,9.774613654909624,-0.4250258965725452,-0.077579886,-2.595261,0.35460728,178.61702,-83.53264,0.15298237
7991921789000.0,-1.5637329798632145,9.73223816765999,-0.59452836671617,-0.09193522,-2.5592198,0.34116822,179.2913,-83.417,0.22463018
7991926745000.0,-1.6256874339468514,9.682125013132044,-0.7446568958018819,-0.14080444,-2.5170703,0.31215215,179.96922,-83.35643,0.26416355
7991931717000.0,-1.6798467600558369,9.623042476476064,-0.8775933744493848,-0.20250183,-2.4736989,0.26542094,180.63234,-83.28947,0.29529017
7991936748000.0,-1.7211584163717606,9.593605691331549,-0.9715007196336016,-0.23182335,-2.4425447,0.20586158,181.29594,-83.25549,0.29935667
7991941768000.0,-1.75123247821269,9.589309307059876,-1.0316489106076854,-0.2489276,-2.4123068,0.1469131,181.94391,-83.208626,0.29092473
7991946738000.0,-1.7639776178110695,9.591022884727424,-1.0880655805243449,-0.24220806,-2.4058928,0.09162979,182.59898,-83.18813,0.2564055
7991951748000.0,-1.739019353141906,9.605997635039534,-1.1379821619850188,-0.204029,-2.4019222,0.045814894,183.24283,-83.17199,0.20920072
7991956685000.0,-1.7142076259712613,9.61190824241618,-1.2020320258382118,-0.13683382,-2.3866506,-0.00061086525,183.89203,-83.18037,0.13959765
7991961717000.0,-1.6885607618946248,9.603359555525987,-1.29179609474011,-0.076358154,-2.382069,-0.051923547,184.53983,-83.19638,0.058372077
7991966800000.0,-1.6475196815208577,9.60287067042076,-1.3889562685467158,-0.025045475,-2.3704627,-0.10323623,185.19345,-83.23767,-0.03177169
7991971773000.0,-1.518790581250563,9.650070932786738,-1.521976289539598,0.04184427,-2.2947154,-0.15118915,185.82416,-83.29748,-0.13537171
7991976705000.0,-1.3911227906748356,9.696882051626272,-1.6538996242544373,0.111177474,-2.196366,-0.18051068,186.45709,-83.38895,-0.24346879
7991981727000.0,-1.1946178193414418,9.785436587956095,-1.7504959879560962,0.16982053,-2.1135938,-0.17928895,187.06877,-83.49156,-0.3560361
7991986709000.0,-0.992929618673984,9.8774347379116,-1.8424941379115989,0.21319197,-2.0363193,-0.15485434,187.64972,-83.60421,-0.4709282
7991991672000.0,-0.7861829625836936,9.960093500552931,-1.9271112006635167,0.25809056,-1.9410243,-0.13164146,188.22133,-83.759796,-0.5613776
7991996768000.0,-0.5506784258349251,10.009156909419929,-1.9859872913039107,0.28069258,-1.8594738,-0.12217305,188.77087,-83.91634,-0.6490641
7992001662000.0,-0.3203991404894898,10.067108170334553,-2.057332059705911,0.30115658,-1.7739527,-0.10751228,189.31891,-84.11211,-0.6794695
7992006719000.0,-0.0670896237303859,10.16747612069476,-2.186376488887793,0.29565877,-1.700038,-0.09560041,189.84402,-84.302765,-0.7092876
7992011712000.0,0.174996096472046,10.26696142816532,-2.3209113300750785,0.29993483,-1.6670512,-0.0852157,190.38536,-84.51307,-0.69330835
7992016878000.0,0.391369519782783,10.371542144544062,-2.490403877636854,0.3100141,-1.6245961,-0.07269296,190.90031,-84.7203,-0.6755935
7992021777000.0,0.5965598799839639,10.470717701946205,-2.6511363574094324,0.33292156,-1.5925257,-0.089491755,191.43509,-84.9569,-0.6156432
7992026737000.0,0.7553017142190832,10.528795811700428,-2.7234273720682305,0.37995818,-1.5858061,-0.103847094,191.96284,-85.1997,-0.55282146
7992031705000.0,0.8567464337286781,10.537249488672709,-2.689612487633262,0.4392121,-1.5855007,-0.12522738,192.48213,-85.447556,-0.49833348
7992036757000.0,0.9500912358411504,10.531729405466708,-2.5860286967937878,0.5204572,-1.564426,-0.15118915,193.02603,-85.75366,-0.39584973
7992041920000.0,1.0071169201753036,10.4709021914501,-2.209659295309857,0.5891795,-1.5870279,-0.18325958,193.58139,-86.06602,-0.30241865
7992046691000.0,1.059812937986314,10.414693274527142,-1.86186568413809,0.66737026,-1.6667458,-0.22235495,194.16765,-86.38698,-0.19801058
7992051737000.0,1.1695216411764704,10.337900927545514,-1.3040034429201357,0.72082096,-1.767844,-0.24129178,194.76488,-86.71296,-0.09876543
7992056707000.0,1.3132131117647057,10.250814760680631,-0.6290887005543866,0.7293731,-1.8942931,-0.24129178,195.39041,-87.04033,-0.0060549625
7992061724000.0,1.329672196086498,10.19790016533052,0.0093525279901547,0.72112644,-1.9770653,-0.2180789,196.05379,-87.271904,0.1024597
7992066774000.0,1.1630209708755277,10.194499050703234,0.5909313601279886,0.65148777,-2.0066924,-0.17928895,196.73474,-87.47992,0.2149935
7992071797000.0,0.9972607522151898,10.191116120253165,1.169400760886076,0.5369505,-1.928807,-0.13958271,197.4511,-87.4912,0.3719124
7992076739000.0,0.6546248120181342,10.16755441910135,1.2803261864799516,0.39645153,-1.7537941,-0.115453534,198.14227,-87.46647,0.5343787
7992081711000.0,0.1797132250940962,10.129177952448115,1.0596602509570825,0.24495697,-1.5008959,-0.111177474,198.78328,-87.398506,0.7003142
7992086768000.0,-0.2032676602228087,10.076803766587783,0.798702383180122,0.09896017,-1.2110404,-0.110872045,199.38403,-87.1134,0.83746743
7992091891000.0,-0.5203151421722034,10.014287266496767,0.5084476391571857,-0.037873644,-0.9147707,-0.13072516,199.90167,-86.798775,0.9674406
7992096702000.0,-0.7367237805127729,9.96877341212262,0.228494688219229,-0.13805555,-0.68661255,-0.1563815,200.32164,-86.56259,0.98982716
7992101708000.0,-0.8346999011407339,9.942052811751044,-0.0743405776572224,-0.19242255,-0.49174652,-0.19028452,200.66092,-86.30887,1.0016289
7992106658000.0,-0.885268727905953,9.903442627513757,-0.4024366907193596,-0.23304509,-0.41722095,-0.23701571,200.95107,-86.13418,0.9272855
7992111813000.0,-0.7716645141190596,9.819474150275138,-0.8469749463871936,-0.24923302,-0.3286455,-0.26297748,201.17804,-85.95177,0.8477983
7992116749000.0,-0.6175490748165113,9.758766,-1.2615224025507406,-0.2660318,-0.24923302,-0.30634892,201.38531,-85.83521,0.72585154
7992121763000.0,-0.3190272714500823,9.758766,-1.647844684924118,-0.24220806,-0.19272798,-0.344528,201.57178,-85.72365,0.5994958
7992126917000.0,0.0113981134259809,9.7737080800029,-2.0388790144483937,-0.20799962,-0.16646078,-0.34574974,201.76318,-85.68906,0.49186498
7992131752000.0,0.5588362021722637,9.938275179807064,-2.344504039181838,-0.1704314,-0.17104226,-0.3555236,201.9466,-85.66116,0.37321863
7992136731000.0,1.122578548370349,10.107743554145207,-2.6592314431420903,-0.11484267,-0.20463985,-0.33536503,202.18356,-85.71279,0.32975823
7992141717000.0,1.6047507086283186,10.240847638274335,-2.85441825011062,-0.053450707,-0.27183503,-0.30634892,202.43037,-85.775856,0.28900614
7992146763000.0,1.8898514762168144,10.285395054756638,-2.756414817643805,0.019547688,-0.37415496,-0.2751948,202.69528,-85.85658,0.25803176
7992151783000.0,2.1660447398119125,10.32183559002982,-2.643474734299258,0.099571034,-0.51343226,-0.2434298,203.09695,-86.00328,0.39951125
7992156718000.0,2.390084457680251,10.307381122562887,-2.4338892197721536,0.18478674,-0.67347896,-0.2144137,203.53261,-86.163025,0.550479
7992161827000.0,2.622023448275862,10.292417014297728,-2.216914064003364,0.2556471,-0.84879726,-0.17531833,204.07587,-86.28126,0.77972937
7992167061000.0,2.88460669047836,10.265462157995444,-1.9437332039908883,0.3155119,-1.0216721,-0.12095132,204.66154,-86.39829,1.0217035
7992171744000.0,3.137963177585421,10.232771191070617,-1.66177188614123,0.37140608,-1.1685852,-0.058337633,205.28697,-86.50617,1.2766293
7992176731000.0,3.3687546932913386,10.188433329553806,-1.3377366029396325,0.40958515,-1.2605205,0.015577064,206.01976,-86.49085,1.6161327
7992181716000.0,3.5141059887244097,10.12327558519685,-0.9618280892913386,0.4092797,-1.3176364,0.08246681,206.77884,-86.43779,1.9683444
7992186700000.0,3.492627807217767,10.066582323257249,-0.6944100470265268,0.3912592,-1.3176364,0.12461651,207.63205,-86.22527,2.4029162
7992191753000.0,3.2202197901218383,10.021803189003702,-0.5861931746784392,0.36102137,-1.2431108,0.16187929,208.4697,-85.97116,2.847973
7992197915000.0,2.8702280637205044,9.96995274684703,-0.4559610090836045,0.32406402,-1.1252137,0.16798794,209.37904,-85.582466,3.33471
7992201764000.0,2.3940926314076485,9.977450702196908,-0.3997245392514239,0.2657264,-0.9850202,0.16462818,210.24426,-85.17461,3.8196588
7992206660000.0,1.7884394548413345,9.986988241659889,-0.3281906976566314,0.20738874,-0.91538155,0.15668693,211.03754,-84.82674,4.214423
7992211779000.0,1.2325289055572428,9.959518239902824,-0.3118787599331916,0.18112154,-0.7724391,0.13775012,211.757,-84.48213,4.595488
7992216700000.0,0.7125477220366435,9.926125277356007,-0.3071082940155886,0.13041973,-0.6536258,0.10476339,212.45142,-84.135414,4.9633102
7992221722000.0,0.4164541442153877,9.81921212773902,-0.3678737903851822,0.0729984,-0.5699373,0.04795292,213.00021,-83.93387,5.171132
7992226666000.0,0.1605707760243687,9.70290157649602,-0.4376601745691264,0.040317107,-0.50335294,-0.014049901,213.5134,-83.742165,5.363422
7992231751000.0,0.2625998902174496,9.613715876778524,-0.817504548085906,0.01160644,-0.46822822,-0.07849618,213.9358,-83.66881,5.4222417
7992236731000.0,0.437579068633557,9.532628107651009,-1.2528186565959731,-0.008246681,-0.4166101,-0.1328632,214.33064,-83.60612,5.4646783
