timestamp,acc_x,acc_y,acc_z,gyro_x,gyro_y,gyro_z,ori_azimuth,ori_pitch,ori_roll
4894665981000.0,-6.164430446396768,-2.4642727219278258,7.029376,8.723766,6.375906,-5.6349263,75.82662,9.3671465,-37.626987
4894670971000.0,-6.164192705592645,-2.4645104602495347,7.029376,8.723766,1.4181237,-0.94989544,73.80681,8.5212965,-36.550022
4894676028000.0,-6.163951772677525,-2.4647513906489102,7.029376,0.36163223,0.7611381,0.034513887,75.96633,9.418357,-37.82275
4894680979000.0,-6.163715889967862,-2.46498727089556,7.029376,-1.185384,0.75747293,0.03481932,76.472015,8.178121,-38.12266
4894685967000.0,-6.163478244450634,-2.465224913931368,7.029376,-1.1902709,0.75228053,0.040317107,76.58543,8.293526,-38.28476
4894690966000.0,-6.163240074855482,-2.465463081039629,7.029376,-1.1841623,0.73884153,0.03573562,76.70606,8.741102,-38.437016
4894696120000.0,-6.162994520525933,-2.465708632805178,7.029376,-1.1621711,0.7351763,0.035124753,76.82675,9.170888,-38.58546
4894700969000.0,-6.162763497447938,-2.4659396534709024,7.029376,-1.1542299,0.74036866,0.03268129,76.95217,9.59046,-38.727093
4894705970000.0,-6.162525232565891,-2.4661779158650643,7.029376,-1.1600331,0.7623598,0.029932396,77.081406,9.995846,-38.86739
4894710982000.0,-6.162286443605917,-2.4664167023316783,7.029376,-1.1869112,0.795652,0.044593163,77.2089,10.3893795,-39.00845
4894715970000.0,-6.16204879808869,-2.4666543453674867,7.029376,-1.2357804,0.786489,0.05375614,77.339584,10.77891,-39.13849
4894720969000.0,-6.161810628493537,-2.466892512475748,7.029376,-1.5500705,0.7770206,0.056505036,77.47226,11.219636,-39.273262
4894726003000.0,-6.161570791377715,-2.467132347087268,7.029376,-1.2476922,0.7651087,0.057726767,77.60248,11.523239,-39.400658
4894730977000.0,-6.1613338128687545,-2.4673693231217726,7.029376,-1.2437216,0.7504479,0.061391957,77.73206,11.946945,-39.520424
4894735966000.0,-6.16109611970808,-2.4676070138005315,7.029376,-1.2455542,0.74189585,0.07941248,77.85658,12.292406,-39.63567
4894740966000.0,-6.16085790246948,-2.4678452285517425,7.029376,-1.2406673,0.7305948,0.089491755,77.98191,12.626218,-39.741943
4894746035000.0,-6.160616397832986,-2.4680867306665206,7.029376,-1.2479976,0.7134906,0.098043874,78.10078,12.950249,-39.841923
4894750972000.0,-6.160381182131593,-2.468321943911867,7.029376,-1.2538009,0.68630713,0.09865474,78.21729,13.263141,-39.93278
4894755965000.0,-6.160143298397126,-2.4685598251624263,7.029376,-1.2247849,0.6478226,0.099265605,78.328156,13.559443,-40.01345
4894760986000.0,-6.159904080646124,-2.468799040415593,7.029376,-1.1838568,0.5766568,0.10170906,78.43162,13.845206,-40.075253
4894765969000.0,-6.159666673346135,-2.4690364452366502,7.029376,-1.0751228,0.50701815,0.099571034,78.53218,14.102652,-40.1244
4894770968000.0,-6.159428503750982,-2.469274612344911,7.029376,-0.95264435,0.4392121,0.087659165,78.626915,14.342043,-40.15254
4894776004000.0,-6.159188571348264,-2.4695145422423312,7.029376,-0.8081747,0.37323865,0.0870483,78.70969,14.544889,-40.162365
4894780975000.0,-6.158951735769647,-2.4697513753479856,7.029376,-0.6789767,0.29901853,0.076052725,78.79028,14.723198,-40.1495
4894785967000.0,-6.158713899678629,-2.469989208955595,7.029376,-0.5390886,0.03268129,0.017104227,78.854836,14.872865,-40.062874
4894790969000.0,-6.158475587153133,-2.470227518992707,7.029376,-0.03573562,-0.022296581,0.004581489,78.92281,14.90645,-40.018
4894796107000.0,-6.158230795118747,-2.470472308471052,7.029376,0.057726767,0.005497787,0.0143553335,78.97944,15.001136,-39.923965
4894800970000.0,-6.157999105032485,-2.47070399613808,7.029376,0.0036651916,0.020463986,0.0076358155,79.03646,15.024894,-39.813164
4894805968000.0,-6.15776098308078,-2.470942115603391,7.029376,-0.009773844,0.0009162979,0.004886922,79.08662,15.017611,-39.705765
4894810989000.0,-6.157521765329777,-2.4711813308565573,7.029376,0.0021380284,0.0036651916,0.008246681,79.140495,15.016556,-39.611988
4894815974000.0,-6.157284262742893,-2.471418830963515,7.029376,-0.004886922,0.0009162979,0.0106901415,79.19431,15.026807,-39.51127
4894826032000.0,-6.156805064945725,-2.471898023757052,7.029376,-0.0015271631,0.0015271631,0.0076358155,79.24849,15.032456,-39.41556
4894830975000.0,-6.156569563383645,-2.472133522860099,7.029376,0.0067195175,-0.004276057,0.012217305,79.296875,15.036429,-39.3218
4894835965000.0,-6.156331822579522,-2.472371261181808,7.029376,0.0009162979,-0.004886922,0.013439035,79.34711,15.043721,-39.23234
4894841234000.0,-6.156080789253485,-2.4726222918866347,7.029376,0.0030543262,-0.012217305,0.01038471,79.39463,15.047332,-39.14279
4894845995000.0,-6.15585395879889,-2.472849119972738,7.029376,0.00580322,-0.014660766,0.010079277,79.440285,15.051173,-39.057938
4894850970000.0,-6.155616932646482,-2.4730861436501934,7.029376,0.0033597588,-0.0076358155,0.008857546,79.48662,15.056282,-38.976402
4894855964000.0,-6.155379001268568,-2.473324072543704,7.029376,0.0106901415,-0.019547688,0.01038471,79.5285,15.058099,-38.892376
4894860982000.0,-6.155139926447909,-2.473563144868019,7.029376,0.005192355,-0.0125227375,0.01038471,79.57359,15.063653,-38.81799
4894865970000.0,-6.154902280930681,-2.473800787903828,7.029376,0.007330383,-0.0106901415,0.013133603,79.61421,15.065078,-38.742264
4894870969000.0,-6.154664111335529,-2.4740389550120887,7.029376,0.0021380284,-0.014660766,0.004886922,79.65792,15.071266,-38.668552
4894876009000.0,-6.15442398835902,-2.4742790754813098,7.029376,0.0027488936,-0.01038471,0.008552114,79.69694,15.072958,-38.60156
4894880974000.0,-6.15418743864109,-2.4745156227292626,7.029376,0.004581489,-0.0106901415,0.008552114,79.73815,15.077622,-38.53371
4894885968000.0,-6.153949507263175,-2.474753551622773,7.029376,0.004581489,-0.0106901415,0.008857546,79.77777,15.081754,-38.469913
4894890971000.0,-6.153711147094232,-2.4749919093028345,7.029376,0.004886922,-0.011301007,0.004886922,79.81795,15.086156,-38.40782
4894896057000.0,-6.1534688325191285,-2.4752342213477667,7.029376,-0.0015271631,-0.011911872,0.00061086525,79.85733,15.091982,-38.34801
4894900968000.0,-6.153234855547375,-2.4754681958764064,7.029376,-0.009162978,-0.0076358155,0.0015271631,79.89606,15.097744,-38.2917
4894905967000.0,-6.152996685952222,-2.475706362984668,7.029376,-0.0018325958,-0.009468411,0.011911872,79.931404,15.1005745,-38.23622
4894911327000.0,-6.152741317072443,-2.4759617291979663,7.029376,0.011911872,-0.0027488936,0.01160644,79.970924,15.105335,-38.185337
4894915975000.0,-6.15251987032744,-2.4761831736306923,7.029376,0.004581489,-0.004886922,0.0027488936,80.00783,15.112732,-38.133698
4894920966000.0,-6.15228208187987,-2.4764209595953512,7.029376,-0.00061086525,-0.0009162979,-0.00061086525,80.04383,15.115743,-38.08785
4894926007000.0,-6.1520419112599125,-2.476661127707523,7.029376,-0.0070249503,-0.00580322,0.01038471,80.07592,15.119616,-38.04137
4894930971000.0,-6.15180540918543,-2.476897627312525,7.029376,0.0061086523,-0.002443461,0.010079277,80.11384,15.122951,-37.99853
4894935973000.0,-6.151567096659934,-2.477135937349637,7.029376,-0.0067195175,-0.0070249503,0.005497787,80.14728,15.132128,-37.95454
4894940966000.0,-6.151329212925468,-2.477373818600197,7.029376,0.0009162979,-0.00030543262,0.0036651916,80.181015,15.1334715,-37.916336
4894950967000.0,-6.15085273080482,-2.47785029574557,7.029376,0.0018325958,-0.006414085,0.007941248,80.21153,15.138773,-37.875156
4894960988000.0,-6.150375295815217,-2.4783277257499474,7.029376,0.006414085,-0.0030543262,0.00030543262,80.24809,15.144063,-37.838535
4894965972000.0,-6.15013784087178,-2.4785651782139557,7.029376,0.0076358155,-0.0027488936,0.005497787,80.2771,15.146766,-37.802536
4894970965000.0,-6.149899957137314,-2.4788030594645147,7.029376,-0.00061086525,0.0030543262,0.011301007,80.30901,15.151842,-37.769672
4894976015000.0,-6.149659357726327,-2.4790436563632383,7.029376,-0.002443461,0.00580322,0.00580322,80.34209,15.15637,-37.736847
4894980990000.0,-6.149422331573921,-2.4792806800406937,7.029376,0.0036651916,0.005497787,0.005192355,80.37131,15.159019,-37.706997
4894985969000.0,-6.149185114847723,-2.4795178942899496,7.029376,0.003970624,0.010079277,0.013439035,80.399765,15.162738,-37.680714
4894990965000.0,-6.148947088182913,-2.47975591846936,7.029376,0.0021380284,0.004276057,0.010995574,80.430275,15.167642,-37.651604
4894996015000.0,-6.148706488771927,-2.479996515368084,7.029376,-0.004886922,0.007330383,0.01038471,80.45844,15.171853,-37.62812
4895001058000.0,-6.148466222865075,-2.4802367787661552,7.029376,0.0009162979,0.00061086525,0.0143553335,80.48356,15.173258,-37.60168
4895006067000.0,-6.149961865403789,-2.4770893209371883,6.946784402891326,0.00580322,0.0125227375,0.013744468,80.51256,15.177341,-37.58161
4895011084000.0,-6.154752275074776,-2.467508651655035,6.707268771276172,0.008552114,0.005497787,0.012217305,80.537,15.180075,-37.555893
4895016079000.0,-6.1476589124974,-2.4629439664171344,6.601675745913911,0.0067195175,0.0036651916,0.014966198,80.56762,15.180975,-37.531265
4895021052000.0,-6.117948469068413,-2.467895663901019,6.750226825545852,0.00580322,0.0076358155,0.01282817,80.59975,15.182357,-37.506767
4895026130000.0,-6.107611534411893,-2.47440897031045,6.956404757761259,0.006414085,0.011911872,0.007941248,80.649536,15.197086,-37.49507
4895031131000.0,-6.124365081215566,-2.482785634376913,7.232834759422825,0.0036651916,0.014660766,0.008246681,80.69797,15.212126,-37.484684
4895036067000.0,-6.136113966275628,-2.4919342496512367,7.4044239774360605,0.0021380284,0.01863139,0.009162978,80.7412,15.219019,-37.458813
4895041045000.0,-6.115960116074826,-2.5070494400126826,6.900584035668992,-0.007330383,0.01740966,0.011301007,80.783035,15.228065,-37.433277
4895046089000.0,-6.1004257,-2.5187001,6.571030949354334,-0.008246681,0.014049901,0.012217305,80.805115,15.223734,-37.374672
4895051678000.0,-6.1004257,-2.5187001,6.843315033398552,-0.0067195175,0.009162978,0.009162978,80.827126,15.221426,-37.317142
4895056097000.0,-6.105652325528991,-2.5247978040120915,7.042453013355317,0.0027488936,0.0106901415,0.005192355,80.88807,15.242898,-37.304142
4895061132000.0,-6.1321538960611885,-2.5557161722909227,7.205878127397637,-0.003970624,0.009162978,0.008552114,80.94601,15.266581,-37.28969
4895066346000.0,-6.157887,-2.5854487348977697,7.339687842843866,0.00030543262,0.00580322,0.01160644,80.99155,15.271115,-37.24898
4895071088000.0,-6.157887,-2.58122813454461,6.976719738122677,-0.0030543262,0.00580322,0.009468411,81.037506,15.279195,-37.209625
4895076161000.0,-6.157887,-2.576712928810409,6.588415816728625,0.004886922,0.012217305,0.011911872,81.07514,15.280259,-37.15678
4895081199000.0,-6.162067947233202,-2.563618432924901,6.645480628992095,0.004276057,0.004276057,0.015271631,81.1112,15.284241,-37.10134
4895086224000.0,-6.166823325197628,-2.549352497648221,6.764362744357707,-0.007330383,0.0070249503,0.009162978,81.15137,15.290268,-37.051193
4895091152000.0,-6.163844205654841,-2.5365713437449986,6.881731387249934,-0.004886922,0.0009162979,0.009162978,81.21499,15.310814,-37.036766
4895101158000.0,-6.160935516285956,-2.50955474213198,7.0912080958756345,-0.0018325958,0.005192355,0.014966198,81.27967,15.333524,-37.026005
4895106147000.0,-6.16598835607022,-2.494396539340101,7.161946639371827,-0.003970624,0.0033597588,0.011301007,81.3346,15.351178,-36.996956
4895111171000.0,-6.170583895168508,-2.505569501625719,7.210684910347977,-0.008246681,0.007330383,0.008857546,81.37732,15.357839,-36.956223
4895116170000.0,-6.174956296611563,-2.5274319654123665,7.250037299506804,-0.008857546,0.0009162979,0.010995574,81.41816,15.363914,-36.913094
4895121150000.0,-6.1770406,-2.5378537,7.275802350065728,0.00030543262,0.01740966,0.019547688,81.45633,15.359116,-36.873425
4895126170000.0,-6.1770406,-2.5378537,7.2893448488450705,0.0009162979,0.004581489,0.0070249503,81.49665,15.359849,-36.82318
4895131248000.0,-6.17500376723869,-2.52766932350494,7.273084475143006,0.005192355,0.0061086523,0.01740966,81.53006,15.357219,-36.778103
4895136152000.0,-6.1701193526365055,-2.503246740457618,7.214470224825793,0.004886922,0.008857546,0.013744468,81.57105,15.360239,-36.72828
4895141088000.0,-6.163128182289589,-2.4856339728360592,7.176101731890705,-0.0012217305,-0.00030543262,0.009773844,81.606064,15.361727,-36.67567
4895146122000.0,-6.153512981252494,-2.476018972596729,7.1616792817311525,-0.0061086523,0.0030543262,0.0070249503,81.64376,15.363507,-36.627777
4895151104000.0,-6.15246064606526,-2.4749666593857964,7.145573859558541,-0.0061086523,0.0033597588,0.008552114,81.677345,15.365868,-36.582256
4895156085000.0,-6.161616699232246,-2.4841225213435703,7.127262087840691,0.00030543262,0.00030543262,0.006414085,81.713165,15.368973,-36.536808
4895161158000.0,-6.167464,-2.4850321110455083,7.102400744563539,-0.005192355,0.010079277,0.0030543262,81.74906,15.373833,-36.496788
4895167068000.0,-6.167464,-2.4696086698610227,7.061271407021528,-0.004581489,-0.0012217305,0.0033597588,81.7817,15.375577,-36.451027
4895171139000.0,-6.166581195348341,-2.457708155137096,7.035421836701163,-0.008857546,-0.0018325958,0.009773844,81.82054,15.380991,-36.413147
4895176152000.0,-6.161459089192361,-2.4372201583804545,7.014933732977703,0.004886922,-0.0070249503,0.010079277,81.85947,15.38313,-36.371155
4895181133000.0,-6.152758354624955,-2.431907112261089,6.985259864695276,-0.0036651916,-0.010079277,0.009773844,81.89131,15.392877,-36.33607
4895186142000.0,-6.135459105679769,-2.462180402776776,6.9333627952398125,0.007330383,0.0009162979,0.013133603,81.92285,15.394307,-36.30438
4895191230000.0,-6.120012314948786,-2.490402719470333,6.885290985051213,0.0018325958,-0.0018325958,0.0067195175,81.95357,15.3999815,-36.270454
4895196189000.0,-6.124394602971302,-2.494785053252745,6.880908697028698,-0.0012217305,-0.008246681,0.013133603,81.97971,15.399772,-36.240585
4895201124000.0,-6.128755682098367,-2.499146177918244,6.876547617901633,0.009773844,0.00061086525,0.0061086523,82.02423,15.411111,-36.21283
4895206154000.0,-6.116448367307692,-2.5037823923076923,6.884619128846154,-0.0067195175,0.01160644,0.0070249503,82.06321,15.426644,-36.1858
4895211105000.0,-6.102702356938539,-2.5083644117124084,6.89378321550058,-0.009162978,0.021991149,0.012217305,82.10382,15.436843,-36.16124
4895216168000.0,-6.083580695377759,-2.4964895905067883,6.903723458337652,0.00061086525,0.005497787,0.010079277,82.1452,15.449004,-36.136066
4895221108000.0,-6.063968552357758,-2.4817805344388018,6.913529478650637,0.0030543262,0.008857546,0.010995574,82.18707,15.461736,-36.12014
4895226135000.0,-6.053506600009858,-2.480393,6.910148527523659,0.007330383,0.0106901415,0.006414085,82.2282,15.475211,-36.09464
4895231107000.0,-6.044118666058754,-2.480393,6.90545453604101,0.0070249503,0.0067195175,0.007330383,82.266624,15.487857,-36.069584
4895237307000.0,-6.0522865701410655,-2.4897145701410657,6.918860079545455,0.0021380284,0.004581489,0.0076358155,82.302666,15.500165,-36.040264
4895241066000.0,-6.058555989028213,-2.4959839890282134,6.928264224242425,0.006414085,0.0106901415,0.009773844,82.338005,15.50982,-36.012966
4895251168000.0,-6.0621185,-2.5072680373279352,6.987658761295547,-0.0012217305,0.009162978,0.008857546,82.375084,15.523097,-35.981224
4895256155000.0,-6.0562659887640455,-2.503270758208213,7.012350744695238,-0.002443461,0.007941248,0.008552114,82.41168,15.533337,-35.9521
4895261134000.0,-6.0467835112359545,-2.493788231172318,7.03131589778264,0.0033597588,0.0106901415,0.003970624,82.45172,15.545654,-35.92113
4895266102000.0,-6.037446484529366,-2.4844512133411123,7.05550840235317,-0.006414085,0.014660766,0.0061086523,82.48723,15.559797,-35.889347
4895271098000.0,-6.028141555980164,-2.475146333372229,7.083422945099184,0.0009162979,0.01282817,0.0012217305,82.525925,15.570563,-35.856445
4895276755000.0,-6.035581826595353,-2.4825866265953525,7.114069574253043,-0.0061086523,0.018325957,0.011911872,82.55382,15.582625,-35.82746
4895281165000.0,-6.0511604647362605,-2.49816526473626,7.137437775470306,0.0061086523,0.014966198,0.005192355,82.58763,15.592321,-35.794266
4895286104000.0,-6.067233135962788,-2.510828172720225,7.148760364037213,-0.002443461,0.020158553,0.0036651916,82.61216,15.604011,-35.76254
4895291093000.0,-6.081123674241691,-2.5154583360306235,7.13486982575831,-0.0076358155,0.02076942,0.008552114,82.635704,15.61207,-35.72946
4895296122000.0,-6.093949081770285,-2.5156000020442573,7.132894744889358,0.0021380284,0.016187929,0.013133603,82.66332,15.619653,-35.694893
4895301103000.0,-6.104002146417281,-2.5055468849104323,7.15802753772392,0.004581489,0.013133603,0.005192355,82.6935,15.631204,-35.661022
4895306760000.0,-6.11260967427731,-2.4995465,7.180850050055787,0.004581489,0.015577064,0.005192355,82.71967,15.640585,-35.634113
4895311165000.0,-6.116888587351658,-2.4995465,7.19368683395882,-0.0030543262,0.013744468,0.009468411,82.74596,15.651598,-35.605637
4895316144000.0,-6.117471373415704,-2.5058703017636508,7.189111396472699,0.004581489,0.007330383,0.004581489,82.77249,15.655855,-35.577717
4895326141000.0,-6.114025643451748,-2.532300143451747,7.142286438776498,0.00030543262,0.008246681,0.0033597588,82.796844,15.663098,-35.552723
4895331141000.0,-6.123295559239184,-2.541570059239183,7.137651505081792,-0.0067195175,0.004276057,0.008552114,82.81794,15.668733,-35.523823
4895336078000.0,-6.137283979508745,-2.5441793659084397,7.13147014893434,-0.014049901,0.008552114,0.004276057,82.84825,15.679712,-35.50212
4895341097000.0,-6.160253759438019,-2.5349916170314444,7.122282352088311,-0.0106901415,0.0030543262,0.010079277,82.87165,15.687043,-35.4788
4895346109000.0,-6.182223320515401,-2.52957265983491,7.10520227249849,-0.0076358155,0.0061086523,0.005497787,82.905624,15.697615,-35.461895
4895351100000.0,-6.201469569096034,-2.5343841466176764,7.06670982557882,-0.0033597588,0.004276057,0.0030543262,82.93551,15.705638,-35.443474
4895356086000.0,-6.216525757066855,-2.5343203550097533,7.031886285422948,-0.010079277,0.00061086525,0.014660766,82.96135,15.711493,-35.43165
4895361142000.0,-6.220819008494414,-2.521440331743217,7.006126149228587,0.00061086525,0.010079277,0.0036651916,82.99654,15.716659,-35.420895
4895366308000.0,-6.2249246,-2.508643299878861,6.981011999878861,-0.006414085,0.00580322,0.008857546,83.02152,15.726109,-35.41516
4895371090000.0,-6.2249246,-2.5017086757722597,6.97407737577226,0.00580322,0.007330383,0.017104227,83.05061,15.729968,-35.41297
4895376815000.0,-6.2249246,-2.49340655887341,6.9657752588734105,-0.0009162979,-0.009773844,0.002443461,83.08246,15.740344,-35.408356
4895381093000.0,-6.221227577359636,-2.484424166039454,6.943853306100152,-0.0036651916,-0.009773844,0.0125227375,83.10533,15.741337,-35.411938
4895386108000.0,-6.211510298249873,-2.4698482473748102,6.895266961284775,-0.0030543262,-0.018020526,0.008857546,83.13439,15.747925,-35.40616
4895391089000.0,-6.203940289623178,-2.464900663406552,6.862909174824844,0.004886922,-0.006414085,0.0027488936,83.163025,15.750401,-35.40682
4895396129000.0,-6.199370314239728,-2.4740404710187462,6.85376946264912,-0.005497787,-0.00580322,0.01038471,83.185844,15.755157,-35.403465
4895401125000.0,-6.191956729428036,-2.4789805420626294,6.844592098873852,-0.004886922,-0.0061086523,0.01282817,83.21283,15.7579565,-35.406063
4895406091000.0,-6.177862767163885,-2.474282440175837,6.835195944156871,-0.007941248,-0.014966198,0.007330383,83.23877,15.764004,-35.40646
4895411098000.0,-6.1662301251918645,-2.472049961924405,6.8307310109650805,-0.013744468,-0.009468411,0.008552114,83.262596,15.772854,-35.41239
4895416202000.0,-6.1615408496738295,-2.476739188478511,6.840109415109363,-0.009162978,-0.011301007,-0.004886922,83.29097,15.78338,-35.41202
4895421086000.0,-6.152977674538432,-2.4779383500847776,6.847417,-0.0076358155,-0.019242255,-0.0021380284,83.31291,15.79269,-35.412224
4895426167000.0,-6.125475709080633,-2.464187439148455,6.847417,-0.0143553335,-0.011301007,0.004581489,83.33937,15.804311,-35.41534
4895431204000.0,-6.0995812607092805,-2.4516625,6.847417,-0.016798794,-0.015882496,0.004276057,83.366,15.814153,-35.412876
4895436093000.0,-6.0894872174517625,-2.4516625,6.847417,-0.022602014,-0.020158553,0.004276057,83.391014,15.824966,-35.413307
4895441098000.0,-6.078211258468967,-2.452427689377774,6.859660014064326,-0.028405234,-0.032986723,0.0009162979,83.416794,15.83306,-35.403824
4895446304000.0,-6.062680829218908,-2.456310316961296,6.921781974316643,-0.025045475,-0.04550946,-0.0070249503,83.44335,15.841107,-35.393036
4895451068000.0,-6.048468965033876,-2.459863301557511,6.978629653656258,-0.025045475,-0.05100725,-0.003970624,83.46588,15.849999,-35.38143
4895456088000.0,-6.034240885855011,-2.4583312720734507,7.021001734755164,-0.016798794,-0.052534413,-0.0125227375,83.49357,15.859468,-35.36606
4895461147000.0,-6.020340006025249,-2.4536976615914305,7.0534369113618975,-0.013133603,-0.05467244,-0.003970624,83.51361,15.866382,-35.35142
4895466100000.0,-6.016761723963668,-2.461771395854672,7.085373752468837,-0.021685716,-0.06627888,-0.005192355,83.53775,15.872735,-35.321518
4895471099000.0,-6.021387719054982,-2.4802753762199248,7.117756056237317,-0.01985312,-0.076052725,-0.012217305,83.56067,15.875434,-35.292618
4895476181000.0,-6.019035020076947,-2.494745979923054,7.160990814640073,-0.013133603,-0.07880162,-0.017715093,83.58152,15.876618,-35.2553
4895481189000.0,-6.009323444821302,-2.504457555178698,7.214404427842462,-0.01740966,-0.07238753,-0.011911872,83.60061,15.879164,-35.219444
4895486092000.0,-6.00921044052356,-2.50684692973822,7.242342417801047,-0.020463986,-0.06963864,-0.0061086523,83.623856,15.881867,-35.17781
4895491934000.0,-6.019862066530224,-2.5015211167348883,7.247668342027605,-0.013744468,-0.06994407,-0.008552114,83.64799,15.883719,-35.138187
4895496115000.0,-6.029834789335137,-2.503562159556758,7.241611659920924,-0.02107485,-0.06566802,-0.0070249503,83.67194,15.886294,-35.091316
4895501100000.0,-6.044736573124545,-2.51349668208303,7.221742563000729,-0.015882496,-0.05100725,-0.010079277,83.69899,15.885748,-35.048077
4895506092000.0,-6.061572361514852,-2.5141847810297038,7.197789766663367,-0.01985312,-0.03726278,-0.021380283,83.727455,15.890061,-35.003685
4895511095000.0,-6.080547749821783,-2.5046971116435643,7.169326808039604,-0.016493361,-0.030543262,-0.023518313,83.75438,15.89053,-34.963333
4895516087000.0,-6.078403126760564,-2.4974721950133234,7.155949283326989,-0.014966198,-0.010079277,-0.021380283,83.78948,15.897077,-34.931
4895521098000.0,-6.051001426056338,-2.492905260791778,7.160516169861059,-0.02687807,-0.009162978,-0.022907447,83.824486,15.906877,-34.895866
4895526103000.0,-6.015235313203903,-2.478417968289385,7.18490489880228,-0.036957346,-0.007941248,-0.026572637,83.858315,15.916926,-34.87364
4895531131000.0,-5.964074041224766,-2.445860733400947,7.245368286458031,-0.024129177,-0.02076942,-0.032070424,83.89127,15.924873,-34.848316
4895536082000.0,-5.855840426042183,-2.402875712139816,7.312017648678087,-0.040317107,-0.026267206,-0.04184427,83.93157,15.939595,-34.8194
4895541095000.0,-5.599135810119814,-2.331568852322012,7.397585820893158,-0.059864793,-0.03390302,-0.037873644,83.966896,15.950693,-34.788254
4895546081000.0,-5.380765436305414,-2.280535426498549,7.450288883138197,-0.07147124,-0.036651913,-0.040927973,83.99757,15.959813,-34.740005
4895551110000.0,-5.2650962723206245,-2.285354922575803,7.411732511918343,-0.070554934,-0.0571159,-0.044593163,84.02369,15.969796,-34.686886
4895556083000.0,-5.171392553809388,-2.2876491990631878,7.375265405181149,-0.07147124,-0.08124508,-0.03726278,84.02901,15.970512,-34.58886
4895562020000.0,-5.127910910190231,-2.2822140716470702,7.337219115992735,-0.07574729,-0.113926366,-0.026267206,84.03041,15.971587,-34.486607
4895566123000.0,-5.122381315846995,-2.285261117178341,7.303863767491307,-0.07696902,-0.118507855,-0.023823744,84.03916,15.976668,-34.37195
4895571124000.0,-5.222308401092897,-2.3185702118430203,7.23248739869846,-0.09010262,-0.12370021,-0.020158553,84.03951,15.983035,-34.25395
4895576152000.0,-5.318330977022733,-2.351026217762568,7.157557956400228,-0.09590584,-0.11301007,-0.013133603,84.03959,15.989262,-34.1395
4895581385000.0,-5.395915222683941,-2.379609918634401,7.0636399115538175,-0.09712757,-0.08582657,0.0009162979,84.03709,15.99515,-34.033382
4895586142000.0,-5.466442311659741,-2.405593611553817,6.97826476549336,-0.080634214,-0.063224554,0.012217305,84.040825,16.005356,-33.955647
4895591131000.0,-5.529706438846256,-2.4555517444297434,6.832200500105849,-0.057726767,-0.049480084,0.01985312,84.04303,16.012125,-33.886307
4895596151000.0,-5.58907474686425,-2.514919919608362,6.662576838819794,-0.040317107,-0.053145275,0.022907447,84.04344,16.014894,-33.821144
4895601093000.0,-5.687674729727603,-2.588736320296981,6.485012478375455,-0.024129177,-0.065973446,0.03268129,84.05031,16.020216,-33.783867
4895605998000.0,-5.835494229186744,-2.6811234833415285,6.295619040131773,0.003970624,-0.039095376,0.023823744,84.06619,16.021124,-33.755844
4895611046000.0,-6.013319604214478,-2.726784415399464,6.193283674402145,0.008552114,0.028710667,-0.0021380284,84.10684,16.046812,-33.76397
4895616012000.0,-6.227523767152816,-2.6961838967721183,6.2340844369115285,0.002443461,0.09987647,-0.02687807,84.153145,16.069479,-33.779583
4895621005000.0,-6.402972415332429,-2.6427309545454545,6.367556648575305,-0.013133603,0.14294247,-0.053145275,84.24162,16.121872,-33.839485
4895626041000.0,-6.543199488796279,-2.5679430844155844,6.58724592556697,-0.03756821,0.23487769,-0.08002335,84.35142,16.181385,-33.92784
4895631026000.0,-6.622058006668016,-2.483430869877568,6.851757276231913,-0.05467244,0.28160888,-0.10934488,84.460335,16.236488,-34.0355
4895636012000.0,-6.631721251027017,-2.3868004442982897,7.170637781544066,-0.054061573,0.26419923,-0.13713925,84.579735,16.296665,-34.14559
4895640985000.0,-6.620762690593862,-2.350424869270625,7.338114692506975,-0.06688975,0.22937989,-0.14844026,84.67777,16.336023,-34.26142
4895646095000.0,-6.586629153328019,-2.37968201235552,7.342990984854524,-0.059864793,0.20097467,-0.15302174,84.780365,16.373692,-34.369545
4895651000000.0,-6.578261920139807,-2.430635413215568,7.276829949367089,-0.058337633,0.17898351,-0.1685988,84.84579,16.387505,-34.437943
4895656014000.0,-6.59640591228037,-2.507747332448517,7.131677822784811,-0.031154128,0.12370021,-0.18173242,84.90404,16.394243,-34.487778
4895661012000.0,-6.634929468195112,-2.6180552425005224,6.992269313453102,-0.008552114,0.124311075,-0.18997909,84.97043,16.410519,-34.542164
4895666044000.0,-6.71043180577606,-2.7891935414769167,6.861398945372885,-0.007330383,0.16340645,-0.19761491,85.03833,16.427544,-34.58979
4895670986000.0,-6.741697723726567,-2.8985410212554443,6.722287258994509,-0.01282817,0.16768251,-0.20433442,85.12851,16.463823,-34.64206
4895676160000.0,-6.718240820109828,-2.9360720180552926,6.562780167439879,-0.0106901415,0.1328632,-0.2049453,85.21817,16.49796,-34.692665
4895681048000.0,-6.734610135013501,-2.975467599429943,6.514670896039604,-0.026572637,0.183565,-0.20372356,85.35529,16.57278,-34.782696
4895686100000.0,-6.82654501530153,-3.023854431713171,6.664670278217821,-0.018936822,0.22235495,-0.21410827,85.48936,16.64265,-34.857265
4895691033000.0,-6.866758454987237,-3.0265529742293342,6.792834969193009,0.0015271631,0.18997909,-0.22540927,85.6374,16.727861,-34.933445
4895696149000.0,-6.80903821210485,-2.939972584792853,6.889035457706656,0.02321288,0.23273966,-0.2406809,85.80247,16.812206,-35.03648
4895701067000.0,-6.737513971810494,-2.875961308265891,6.967408607911248,0.03726278,0.26145032,-0.24740042,85.959045,16.892061,-35.12323
4895706153000.0,-6.626784439847231,-2.853815448122215,7.016129453978357,0.063224554,0.24312437,-0.25992316,86.1202,16.966696,-35.20436
4895711147000.0,-6.508457625313409,-2.8253301110219637,7.057518595206098,0.087659165,0.2761111,-0.27152961,86.26916,17.019703,-35.29047
4895716189000.0,-6.319593741049042,-2.7478473492127167,7.0526759289138505,0.09560041,0.29138273,-0.26725355,86.41102,17.069422,-35.36534
4895721136000.0,-6.138055229526671,-2.6690403128287006,7.041730143951916,0.090713486,0.24801129,-0.2751948,86.54811,17.117414,-35.404984
4895727152000.0,-5.948677561006762,-2.5500028937453045,6.976800735086401,0.09407325,0.20372356,-0.26083946,86.67677,17.15685,-35.44963
4895731490000.0,-5.820725869784551,-2.4671524611140305,6.934171640147136,0.076052725,0.21166481,-0.25259277,86.79934,17.194199,-35.46943
4895736094000.0,-5.793694768856192,-2.41695188542652,6.941894852163252,0.07391469,0.19364429,-0.23915374,86.905205,17.223595,-35.47231
4895741113000.0,-5.764227111262918,-2.36222627956735,6.950314226861097,0.06566802,0.17837265,-0.23579398,86.99806,17.245363,-35.46566
4895746145000.0,-5.791559682403434,-2.3561083311587985,6.975606170472103,0.056199603,0.14721853,-0.23732115,87.082634,17.266426,-35.451004
4895751116000.0,-5.841504364806867,-2.369729582317597,7.007388947610872,0.04428773,0.21074851,-0.24037547,87.17573,17.289581,-35.45797
4895756118000.0,-5.905949698591414,-2.3834751599846684,7.070360935894978,0.03023783,0.25809056,-0.23273966,87.24717,17.30151,-35.45392
4895761110000.0,-5.979245661795707,-2.397218179992334,7.152819342947489,0.02687807,0.28191432,-0.22724187,87.32446,17.314726,-35.460014
4895766103000.0,-6.029246781081081,-2.421292901801802,7.194684099099099,0.02321288,0.27977628,-0.22479841,87.40325,17.329247,-35.475857
4895771235000.0,-6.058765182042042,-2.4557309848848847,7.199603935335335,0.01282817,0.27550024,-0.23151793,87.48505,17.34686,-35.496452
4895776132000.0,-6.141900004912038,-2.530991546392568,7.294529346768136,0.0030543262,0.33414328,-0.23854288,87.57107,17.361181,-35.531204
4895781130000.0,-6.274358712028069,-2.644527552836529,7.4695637722672465,-0.008552114,0.36926803,-0.22968534,87.649574,17.37677,-35.55911
4895786117000.0,-6.317563779436738,-2.7431984077763767,7.452791599798235,-0.02107485,0.36651915,-0.22449298,87.74054,17.400755,-35.593025
4895791090000.0,-6.2735218546111815,-2.827278689323245,7.248596582547289,-0.023823744,0.40194935,-0.23518312,87.84223,17.426432,-35.64448
4895796111000.0,-6.226180728026516,-2.916493636437731,7.045281300858509,-0.02443461,0.46517387,-0.22266038,87.94373,17.45869,-35.702793
4895801116000.0,-6.158465340665073,-3.0362973565529234,6.862971537926538,-0.025350908,0.4813618,-0.20433442,88.04418,17.492254,-35.756065
4895806080000.0,-6.103728733598786,-3.1370960393629126,6.708654935267349,-0.020463986,0.46944994,-0.19456059,88.185196,17.553019,-35.832726
4895811133000.0,-6.080789991467577,-3.192149020477816,6.621487523549488,-0.0290161,0.5018258,-0.18448131,88.326675,17.613167,-35.924862
4895817145000.0,-6.058538177478098,-3.258442703366473,6.500410922994389,-0.01985312,0.48197266,-0.16310102,88.48382,17.693422,-36.005844
4895821094000.0,-6.051092841175312,-3.3031150710306134,6.396175670548282,-0.0143553335,0.47036624,-0.15974127,88.647514,17.776814,-36.09385
4895826153000.0,-6.045592327709517,-3.353853006070053,6.281728471501925,-0.0030543262,0.4896085,-0.14782938,88.82067,17.864723,-36.19009
4895831152000.0,-6.063151166238768,-3.3670222037227213,6.27733878478819,0.0070249503,0.4810564,-0.13744467,88.98647,17.950249,-36.273327
4895836562000.0,-6.083143386239782,-3.3801450571039315,6.270469385519657,0.01160644,0.47219884,-0.13958271,89.17676,18.049702,-36.367786
4895841103000.0,-6.116999820163488,-3.371681014908525,6.228149174542624,0.03390302,0.47861293,-0.14630222,89.364555,18.140839,-36.461617
4895846119000.0,-6.154397722070844,-3.362331612650837,6.181402163254185,0.041233405,0.462425,-0.15149458,89.55074,18.234562,-36.54828
4895851163000.0,-6.223615582341766,-3.3658411597340265,6.181422505489451,0.076358154,0.41874814,-0.15057829,89.7325,18.316263,-36.62642
4895856058000.0,-6.293926205279472,-3.370528485651435,6.186109880351965,0.10873401,0.37873647,-0.15943582,89.91573,18.39872,-36.696896
4895861169000.0,-6.440598948929018,-3.408961452617424,6.237184670156565,0.13500121,0.3359759,-0.17501289,90.09789,18.47178,-36.76387
4895866141000.0,-6.59152801814427,-3.450123939064451,6.292067985419268,0.16065755,0.29260445,-0.19364429,90.27644,18.53937,-36.81668
4895871097000.0,-6.75662999803604,-3.504903808260781,6.257835435513262,0.19272798,0.25411993,-0.22052236,90.45503,18.60252,-36.864037
4895876123000.0,-6.927176353411622,-3.563376876371735,6.204235114598097,0.2180789,0.26419923,-0.2507602,90.639725,18.66495,-36.90874
4895881340000.0,-7.078415407447662,-3.625456582859688,6.116232546191537,0.23884831,0.29443705,-0.2950479,90.83979,18.72469,-36.9614
4895886156000.0,-7.214007667153675,-3.6829805172204897,6.02994655884187,0.28221974,0.36102137,-0.3231477,91.04908,18.776024,-37.0231
4895891100000.0,-7.316197700262212,-3.812180076760221,5.939314764397397,0.33750305,0.44104472,-0.36468655,91.296616,18.837616,-37.114834
4895896142000.0,-7.395916631523745,-3.9903753838399534,5.845527786442653,0.3726278,0.52015173,-0.40653083,91.56066,18.899042,-37.21781
4895901266000.0,-7.416563832840398,-4.109242091642019,5.806552696242743,0.4279111,0.600786,-0.44318274,91.8676,18.961632,-37.36668
4895906146000.0,-7.390966952568737,-4.175794247628437,5.811672179209114,0.47983465,0.65484756,-0.45662177,92.185776,19.02066,-37.52292
4895911127000.0,-7.308311896353692,-4.144370689261622,5.863392713892434,0.5296202,0.71868294,-0.4728097,92.57088,19.110502,-37.70546
4895916331000.0,-7.199277897082954,-4.071681103409298,5.936082015113947,0.56382865,0.77671516,-0.4792238,92.961395,19.19292,-37.89493
4895921130000.0,-7.00173492017134,-4.038958531464174,5.998250890965732,0.602924,0.838718,-0.46822822,93.37197,19.273823,-38.09082
4895926187000.0,-6.709420184725468,-4.034243784813084,6.059542597429907,0.6273586,0.89949906,-0.4578435,93.79049,19.352018,-38.29485
4895931112000.0,-6.555989947201544,-4.0359581312747,6.08672640415403,0.66339964,0.9560041,-0.43218717,94.185265,19.401226,-38.48944
4895936117000.0,-6.547179794871795,-4.044768237606838,6.07791615982906,0.68477994,0.9877691,-0.39584067,94.57573,19.445465,-38.69015
4895941140000.0,-6.552363447935619,-4.056691246296111,6.061716395031491,0.72112644,1.0238101,-0.38453966,94.96587,19.487217,-38.852142
4895946122000.0,-6.590521244856543,-4.075770219464161,6.0283282791462565,0.7476991,1.0586295,-0.37201694,95.34522,19.521137,-39.021305
4895951101000.0,-6.638642996985959,-4.080620576674716,5.998460758465254,0.7672467,1.071763,-0.36835176,95.72726,19.551323,-39.191345
4895956440000.0,-6.716383917654951,-4.048609735739201,5.9755958857257845,0.8045095,1.0665708,-0.3717115,96.10693,19.573208,-39.360634
4895961294000.0,-6.790715421360045,-4.025566354345373,5.94974522003386,0.8546005,1.0760391,-0.36682457,96.49565,19.587868,-39.54652
4895966104000.0,-6.899030767202784,-4.060227217964635,5.876090602088036,0.8912524,1.0592403,-0.3848451,96.88485,19.604946,-39.71525
4895971080000.0,-7.011084231010158,-4.096084277708804,5.79989405761851,0.9245446,1.0299188,-0.4166101,97.27453,19.604204,-39.8958
4895976614000.0,-7.225656132575084,-4.2171314306024525,5.649430050275457,0.97341377,1.039998,-0.4550946,97.67308,19.600166,-40.073456
4895981113000.0,-7.405596144126533,-4.320501292518215,5.523089223422783,1.0054842,1.0781772,-0.50823987,98.08382,19.604507,-40.23975
4895986222000.0,-7.57946930574936,-4.283419757193323,5.338762234231211,1.0387764,1.1184943,-0.5748242,98.5334,19.6127,-40.423084
4895991098000.0,-7.732058866113221,-4.180318690090965,5.144932298701757,1.0671816,1.1734722,-0.61086524,98.996,19.622492,-40.611477
4895996192000.0,-7.87075507332416,-3.946163792785532,5.064217981206999,1.0916162,1.2321151,-0.62949663,99.52672,19.6582,-40.846855
4896001165000.0,-7.978420230047178,-3.548270758531551,5.148477875221151,1.106277,1.2302825,-0.6236934,100.057,19.694675,-41.072258
4896006149000.0,-8.084442269970186,-3.1214846141873136,5.295265477475069,1.133155,1.1704178,-0.61911196,100.59714,19.708427,-41.347397
4896011173000.0,-8.188316969260821,-2.64662793105788,5.542586713950858,1.1453724,1.0742066,-0.6041457,101.12261,19.721775,-41.6072
4896016107000.0,-8.272078757001081,-2.142520067682028,5.833668179070453,1.1426234,0.9560041,-0.5870415,101.54383,19.646645,-41.87004
4896021162000.0,-8.333918935835708,-1.5764514123317284,6.195190881291147,1.1475104,0.79779,-0.5564982,101.92951,19.565832,-42.0958
4896026134000.0,-8.422129874640898,-1.094017003100897,6.5058515225820495,1.1585059,0.65118235,-0.54367006,102.18081,19.38559,-42.305275
4896031179000.0,-8.55251723426482,-0.7154717546635326,6.754008910716462,1.1340714,0.50793445,-0.54641896,102.399254,19.214098,-42.472916
4896036197000.0,-8.65060611142467,-0.4035771737114246,7.0113871769868,1.070236,0.43768495,-0.57879484,102.46247,18.928944,-42.618458
4896041116000.0,-8.513376982339553,-0.5751140283823396,7.341595773582157,0.9627236,0.355829,-0.5907067,102.49503,18.661678,-42.723877
4896046131000.0,-8.373469667364587,-0.7499986240673646,7.6782487745835235,0.8915578,0.301462,-0.6224717,102.43169,18.316565,-42.822025
4896051155000.0,-8.360553,-0.7661445,7.7093296,0.7425067,0.25534168,-0.6374379,102.35941,18.016813,-42.89956
4896056426000.0,-8.303724386407767,-0.7923273038834951,7.68999002407767,0.6017023,0.24037547,-0.63224554,102.2924,17.740532,-42.967995
4896061162000.0,-7.502711547202958,-1.1613801586222838,7.417394096791494,0.5018258,0.26389378,-0.59040123,102.215675,17.517296,-42.960876
4896066076000.0,-6.671593073416551,-1.5443036654184006,7.134552798927416,0.43066,0.30268374,-0.5439755,102.14686,17.314932,-42.958485
4896071149000.0,-6.451036395004043,-1.6235117987510108,6.900581000251595,0.37140608,0.38637227,-0.4859433,102.073746,17.1253,-42.980843
4896076179000.0,-6.355810571929194,-1.6408255929822986,6.679829897816515,0.29871312,0.4392121,-0.4266894,101.98826,16.948523,-43.01093
4896081221000.0,-6.347843963319166,-1.671345365562914,6.378191069684689,0.23732115,0.44104472,-0.35643986,101.973,16.90226,-42.933956
4896086300000.0,-6.391114211890876,-1.709807858940397,6.027221125106257,0.18936823,0.44257188,-0.30818152,101.95317,16.861124,-42.878105
4896091149000.0,-6.430809766425926,-1.691923787351852,5.808925631777778,0.16584991,0.42852196,-0.27366763,101.94958,16.824833,-42.851456
4896096179000.0,-6.470952566333334,-1.6384000696666667,5.657275044,0.1957823,0.4071417,-0.25137106,101.9322,16.780655,-42.828426
4896101154000.0,-6.548155931222975,-1.605460946291915,5.530669478648935,0.23823744,0.36193767,-0.22479841,101.95114,16.739794,-42.85936
4896106149000.0,-6.673044379456638,-1.5976554284653668,5.433100505817084,0.26145032,0.31123585,-0.24709499,101.97483,16.703001,-42.879276
4896111119000.0,-6.797307760381823,-1.5898889772946072,5.33601986618259,0.27916542,0.22174409,-0.28038713,101.99286,16.644037,-42.91298
4896116108000.0,-6.789290379679144,-1.615356317112299,5.262583485561497,0.3213151,0.12492194,-0.30818152,102.007515,16.580172,-42.92848
4896121123000.0,-6.759133202830276,-1.657552110897022,5.233403304296118,0.36987892,0.022296581,-0.30024028,102.006325,16.512117,-42.918762
4896126137000.0,-6.6174737198395865,-1.7903578415322208,5.454746096238591,0.42577308,-0.1142318,-0.28069258,102.009514,16.42885,-42.91082
4896131701000.0,-6.465236372346977,-1.9360549192940293,5.697806058820879,0.45723262,-0.23335053,-0.25473082,102.0098,16.34394,-42.89072
4896136299000.0,-6.3825587380848665,-2.041882404416072,5.876389892482163,0.45234573,-0.35246924,-0.21899518,101.97964,16.250818,-42.83854
4896141062000.0,-6.296914203071724,-2.1515075265640258,6.061382236920767,0.43982297,-0.39645153,-0.20861048,101.95176,16.176495,-42.71901
4896146168000.0,-6.203163261903333,-2.2564664908435907,6.208729261783248,0.4269948,-0.4202753,-0.1695151,101.88782,16.091757,-42.5839
4896151153000.0,-6.10761548305814,-2.332904654057841,6.246948393275293,0.39614612,-0.40042216,-0.10567969,101.81317,16.007717,-42.45628
4896156105000.0,-5.98749772003668,-2.380464954002752,6.329662605401192,0.38637227,-0.35705075,-0.06658431,101.745155,15.942398,-42.281326
4896161159000.0,-5.80996027042641,-2.3671496452819807,6.511638630288859,0.37507126,-0.3005457,-0.026572637,101.66119,15.872,-42.127876
4896166189000.0,-5.658614293922847,-2.359091365192884,6.673769282825436,0.3203988,-0.2669481,0.017104227,101.58992,15.81223,-41.96816
4896171157000.0,-5.650233539580765,-2.3800432510480887,6.728244142293465,0.2501493,-0.22449298,0.05222898,101.51887,15.753396,-41.834488
4896177126000.0,-5.644609081603634,-2.397651597393108,6.7883436326651525,0.17501289,-0.21930063,0.080634214,101.41808,15.694205,-41.654606
4896181110000.0,-5.689819672538758,-2.3260680830650737,6.769505886442184,0.101098195,-0.14782938,0.1001819,101.32608,15.645454,-41.513683
4896186104000.0,-5.74649178376617,-2.236337141660907,6.745892506764096,0.05467244,-0.07269296,0.12339478,101.23861,15.594697,-41.382664
4896191128000.0,-5.832065179771028,-2.145414940448481,6.734431621913142,0.018325957,0.016798794,0.12461651,101.16618,15.558704,-41.27976
4896196153000.0,-5.923130408269468,-2.05434961686063,6.725325146608005,-0.014049901,0.10567969,0.13041973,101.096054,15.526894,-41.203987
4896201104000.0,-6.032792037418591,-2.0200116126702192,6.750308901963686,-0.045814894,0.20372356,0.129198,101.03098,15.480995,-41.164948
4896206094000.0,-6.150683077087034,-2.005864711545293,6.788034020870338,-0.06719518,0.2883284,0.11728613,100.979004,15.44175,-41.147816
4896212220000.0,-6.214252181845851,-2.052874420159341,6.854802481246084,-0.09315695,0.33108896,0.098043874,100.923676,15.387925,-41.16387
4896216093000.0,-6.237494203580701,-2.096038244150032,6.901286455375526,-0.12522738,0.34483343,0.084910266,100.87815,15.342293,-41.193718
4896221150000.0,-6.249070237910085,-2.178776011907655,6.890052808019441,-0.15974127,0.355829,0.08155051,100.837585,15.295698,-41.246967
4896226166000.0,-6.239342164034022,-2.2906489630619684,6.797636207776428,-0.18936823,0.35308012,0.07727446,100.80198,15.258576,-41.297356
4896231307000.0,-6.218934072744034,-2.418965354286592,6.6530557648263855,-0.20311269,0.37048978,0.08155051,100.78654,15.225913,-41.353027
4896236287000.0,-6.189623944299908,-2.555746004701424,6.467424645293455,-0.21044308,0.3640757,0.0852157,100.76918,15.199864,-41.399715
4896241090000.0,-6.14666898194169,-2.690397067651725,6.321925166699723,-0.20769419,0.36651915,0.08674286,100.78364,15.2009115,-41.454586
4896246124000.0,-6.089299103778263,-2.833821238893296,6.197624404660848,-0.20861048,0.36743546,0.09132435,100.794334,15.202952,-41.506405
4896251123000.0,-6.079212333100035,-2.957327139638102,6.102409152475247,-0.1994475,0.3484986,0.113926366,100.840775,15.230583,-41.562878
4896256090000.0,-6.1116932317258446,-3.062889456043018,6.033387523762376,-0.1740966,0.312763,0.12034045,100.888504,15.25675,-41.611954
4896261160000.0,-6.163505545564367,-3.1582011376337147,5.951155245813353,-0.16126843,0.26419923,0.1423316,100.962585,15.307819,-41.656216
4896266119000.0,-6.294890647012172,-3.197616636056806,5.81977009863519,-0.15027285,0.22296582,0.15057829,101.034546,15.354644,-41.690468
4896271258000.0,-6.437906264222311,-3.234789451731308,5.681096742894842,-0.12736541,0.1966986,0.15332718,101.12857,15.41872,-41.72502
4896276150000.0,-6.745117761447421,-3.1785923229988007,5.486279776977209,-0.09896017,0.18203785,0.15668693,101.214386,15.476521,-41.751297
4896282366000.0,-7.135474806981208,-3.107185668828469,5.238736387740904,-0.07544186,0.15790866,0.15943582,101.308426,15.541683,-41.798004
4896286255000.0,-7.323548773662852,-3.037202149219563,5.201316451425599,-0.07086037,0.1469131,0.15882497,101.40109,15.603751,-41.842793
4896291095000.0,-7.526126646295525,-2.935913187721124,5.220609567762748,-0.062002823,0.12797627,0.1423316,101.492935,15.661682,-41.87632
4896296105000.0,-7.713719450725759,-2.8813678181343136,5.239764610131605,-0.04337143,0.12370021,0.13683382,101.573654,15.700189,-41.99009
4896301110000.0,-7.885335350377395,-2.862814737429843,5.258317739268434,-0.033292156,0.12980886,0.12034045,101.661896,15.743088,-42.09667
4896306099000.0,-8.02624719037676,-2.813496377212892,5.3143680690512936,-0.020463986,0.13041973,0.10873401,101.72194,15.752534,-42.223866
4896311189000.0,-8.141307992010894,-2.7338389169314574,5.407301626382206,-0.015577064,0.13683382,0.09040806,101.79121,15.765695,-42.349472
4896316154000.0,-8.218489791807476,-2.66242883031234,5.48584394467998,-0.015577064,0.13897185,0.07941248,101.85174,15.76744,-42.49037
4896321115000.0,-8.223355280491552,-2.60404398218126,5.539363202519201,-0.02687807,0.13622294,0.0711658,101.917305,15.7732935,-42.627457
4896326395000.0,-8.211339347110552,-2.5632201064070355,5.598930839045226,-0.022296581,0.13775012,0.06627888,101.957,15.752072,-42.77146
4896331145000.0,-8.17705043379397,-2.55560041419598,5.6560790676884425,-0.03390302,0.1282817,0.061086524,101.997345,15.738264,-42.908184
4896336446000.0,-8.13546091763224,-2.5482024395465994,5.71986277581864,-0.04428773,0.119729586,0.06841691,102.019165,15.707588,-43.042744
4896341101000.0,-8.027487692046115,-2.5654782981495834,5.776008696182911,-0.06627888,0.12583824,0.06780604,102.046265,15.6846485,-43.17458
4896346133000.0,-7.910769910918427,-2.584153297180779,5.836701772718466,-0.06536258,0.105068825,0.06963864,102.05963,15.652494,-43.284138
4896351127000.0,-7.7881407402061855,-2.538769161286512,5.879427051353093,-0.07666359,0.08735373,0.07941248,102.07138,15.626154,-43.394337
4896356248000.0,-7.666129888628762,-2.4899697,5.9184666,-0.08399397,0.07544186,0.0842994,102.08189,15.599878,-43.49781
4896361018000.0,-7.604062656605351,-2.4899697,5.9184666,-0.07971791,0.07452556,0.087964594,102.09059,15.57644,-43.57707
4896366008000.0,-7.5465236,-2.4871007058368497,5.917510266947961,-0.08827003,0.050396383,0.09437868,102.07976,15.548799,-43.630196
4896371003000.0,-7.5465236,-2.4618707307577354,5.909100260618847,-0.07727446,0.04642576,0.103847094,102.06934,15.515598,-43.687668
4896376024000.0,-7.5465236,-2.4365094284810125,5.900646478481013,-0.094989546,0.028405234,0.09896017,102.054504,15.496539,-43.724056
4896380999000.0,-7.511809684077123,-2.419491315511265,5.899313,-0.11484267,0.00580322,0.09590584,102.03449,15.473915,-43.758327
4896386301000.0,-7.468124654791494,-2.4033325113688666,5.898197778422167,-0.11575896,-0.009773844,0.09621128,102.013695,15.451771,-43.788624
4896391000000.0,-7.43498379259873,-2.3950472525637485,5.877484631409372,-0.12034045,-0.020158553,0.10354166,101.985374,15.427442,-43.81964
4896396004000.0,-7.399691842308755,-2.386224218926632,5.85542704731658,-0.1386664,-0.03726278,0.1020145,101.9535,15.407872,-43.839417
4896400981000.0,-7.357414975657154,-2.424491601206914,5.715882389383247,-0.14477506,-0.04642576,0.09162979,101.92227,15.387504,-43.85784
4896405975000.0,-7.313389216058095,-2.473408998363506,5.5495630347345815,-0.16126843,-0.029932396,0.08735373,101.89107,15.372201,-43.87863
4896411005000.0,-7.233749791315919,-2.480393,5.582870565618531,-0.13500121,-0.04550946,0.10842858,101.847374,15.348504,-43.888004
4896416004000.0,-7.148807542158699,-2.480393,5.648936994834894,-0.13775012,-0.08827003,0.11301007,101.81016,15.338203,-43.892097
4896421011000.0,-7.069197373037279,-2.464975612522878,5.702290785377132,-0.14660765,-0.12186762,0.108123146,101.78981,15.339959,-43.908073
4896426038000.0,-6.990358507349966,-2.446425299730276,5.753304109238031,-0.160963,-0.14294247,0.122478485,101.75647,15.33829,-43.91821
4896430993000.0,-7.027921623043478,-2.4607544612675016,5.706564638909359,-0.16554448,-0.16035213,0.11789699,101.72263,15.342842,-43.899307
4896435972000.0,-7.101712567826087,-2.4853513817096538,5.62925988504053,-0.15271631,-0.15760323,0.10140363,101.68828,15.346013,-43.88093
4896441158000.0,-7.1730285,-2.5091233,5.554548,-0.13164146,-0.1386664,0.09865474,101.64321,15.343983,-43.84748
4896446008000.0,-7.1730285,-2.5091233,5.554548,-0.1160644,-0.11759156,0.086437434,101.60906,15.345594,-43.813694
4896450995000.0,-7.191558634574665,-2.5115939992291976,5.599020379736255,-0.09987647,-0.09254608,0.08246681,101.58988,15.349209,-43.812885
4896455999000.0,-7.258315145310179,-2.520494919994428,5.759236209973997,-0.058643065,-0.06780604,0.0842994,101.57629,15.345804,-43.81705
4896461000000.0,-7.315413624680401,-2.528277,5.896779436133122,-0.036651913,-0.050701816,0.06169739,101.57245,15.351445,-43.82117
4896465994000.0,-7.30530775256207,-2.528277,5.87656758637084,-0.032375857,-0.038789943,0.047647487,101.56776,15.350259,-43.831387
4896470966000.0,-7.304869905024783,-2.534570959276898,5.866250947808338,-0.047647487,-0.033292156,0.049785517,101.55407,15.343842,-43.831398
4896476011000.0,-7.337740318378851,-2.562745781417048,5.889729884536885,-0.036957346,0.020158553,0.040011674,101.55885,15.336888,-43.84467
4896480971000.0,-7.362987303281891,-2.5888922181383083,5.909678540125025,-0.04886922,0.074830994,0.026572637,101.566315,15.339538,-43.862553
4896485966000.0,-7.353642584293808,-2.6075818024809534,5.914350850830241,-0.042455133,0.096516706,0.022296581,101.576904,15.33661,-43.885365
4896490971000.0,-7.333561237144527,-2.6246093797526298,5.928623529489677,-0.042760566,0.12614368,0.01740966,101.602104,15.346675,-43.922565
4896496008000.0,-7.23490461647838,-2.629307358453448,6.013186263108688,-0.04520403,0.10934488,0.00061086525,101.6293,15.359085,-43.950493
4896500991000.0,-7.143942162999584,-2.6332661555682764,6.087290592839301,-0.035124753,0.10415252,0.013744468,101.65328,15.370303,-43.985523
4896505973000.0,-7.138976392870524,-2.628300281733972,6.037632373022482,-0.04550946,0.062002823,0.027488936,101.67487,15.389034,-44.00371
4896510996000.0,-7.128307113087248,-2.6211943742400314,5.993655633399132,-0.04734206,0.03023783,0.019547688,101.694275,15.408078,-43.998497
4896515979000.0,-7.085917334060403,-2.602354630921832,5.984235737149625,-0.04428773,-0.0070249503,0.017715093,101.6992,15.423714,-43.982937
4896520980000.0,-7.054512665829429,-2.587913642230553,5.971032180843486,-0.045814894,-0.019547688,0.02443461,101.705124,15.441263,-43.970383
4896526019000.0,-7.104262944236177,-2.606004502296157,5.930327544985942,-0.051618114,-0.04642576,0.027794369,101.705315,15.459657,-43.944244
4896531270000.0,-7.155725863901657,-2.625664608027793,5.887191063645109,-0.054061573,-0.096516706,0.03023783,101.6961,15.47374,-43.90862
4896536327000.0,-7.19714099111705,-2.6619028916408336,5.830245297509353,-0.043066,-0.11209377,0.03268129,101.686905,15.485197,-43.876312
4896540977000.0,-7.233293917851714,-2.6971593777064684,5.788598334098969,-0.04184427,-0.1142318,0.03634648,101.679955,15.499754,-43.847534
4896546132000.0,-7.25830742135619,-2.7513553527529133,5.82611865465293,-0.033292156,-0.09865474,0.030848695,101.67598,15.511681,-43.81963
4896551033000.0,-7.282088445735518,-2.802880953859145,5.861790253301807,-0.0290161,-0.06566802,0.032070424,101.68115,15.528861,-43.80633
4896556055000.0,-7.276751456760348,-2.811848191231477,5.822055501338784,-0.026572637,-0.06536258,0.04062254,101.68308,15.543896,-43.789276
4896561062000.0,-7.262050065569749,-2.806947778671436,5.758349370505876,-0.019547688,-0.016798794,0.03848451,101.70035,15.558736,-43.793167
4896566065000.0,-7.294341378107345,-2.8840525961864407,5.757791313700565,0.01160644,0.008552114,0.051618114,101.713196,15.57394,-43.78954
4896571030000.0,-7.337515339063762,-2.9799946092009684,5.772182700807103,0.023518313,0.018325957,0.05467244,101.73507,15.593594,-43.79335
4896576061000.0,-7.353294544793851,-2.9857150181691123,5.755105532215234,0.0143553335,0.010995574,0.05681047,101.76097,15.607597,-43.808464
4896581092000.0,-7.362914266806429,-2.971285234251772,5.731055976060697,0.01740966,-0.0061086523,0.052839845,101.78768,15.617298,-43.822807
4896586124000.0,-7.373414545662775,-2.980610142877198,5.735780684054973,0.033292156,0.005497787,0.041233405,101.839005,15.642796,-43.839905
4896591145000.0,-7.384073356258312,-2.994821828505985,5.7464394204521945,0.023518313,0.009162978,0.03970624,101.88374,15.671039,-43.85069
4896596112000.0,-7.393295,-3.001040465703704,5.754556121037037,0.026572637,0.0067195175,0.03268129,101.932076,15.695771,-43.866566
4896601090000.0,-7.393295,-2.9524843162222223,5.745727730222222,0.03023783,0.017104227,0.017715093,101.985725,15.723819,-43.88528
4896606440000.0,-7.393861205657791,-2.899932320526625,5.737356709964761,0.03634648,0.01038471,0.012217305,102.0378,15.752317,-43.89778
4896611111000.0,-7.411376083985904,-2.8430086230422864,5.763629073179327,0.03573562,-0.005497787,0.004886922,102.09547,15.784358,-43.908314
4896616041000.0,-7.429862136256852,-2.782928591229444,5.791358199843383,0.043982297,-0.021685716,-0.007330383,102.14402,15.805939,-43.92077
4896621055000.0,-7.439757425790754,-2.7446522542579075,5.761346467153285,0.048258353,-0.015882496,-0.008552114,102.19153,15.827314,-43.93489
4896626096000.0,-7.448792920606401,-2.708510227821449,5.725204676586188,0.06047566,-0.007330383,-0.013133603,102.242134,15.848335,-43.943565
4896631180000.0,-7.427818510697488,-2.712128124487141,5.656187976123286,0.059253927,0.0033597588,-0.018020526,102.27892,15.856692,-43.954678
4896636036000.0,-7.399896097648354,-2.72608942819974,5.581727657260083,0.056199603,0.013133603,-0.02443461,102.318695,15.864283,-43.966846
4896641052000.0,-7.357887752437392,-2.6727383669279297,5.592450545937679,0.062308256,0.011911872,-0.014660766,102.34853,15.86167,-43.986553
4896646049000.0,-7.312145762760466,-2.5995511356815144,5.629044328732556,0.06963864,0.018936822,-0.024129177,102.390114,15.864834,-44.007717
4896651293000.0,-7.264622187783942,-2.506695427739977,5.776014582162672,0.07941248,0.01863139,-0.02076942,102.42951,15.8698,-44.033104
4896656082000.0,-7.221413757374647,-2.415477685910185,5.953649034418508,0.0870483,0.0143553335,-0.010995574,102.46996,15.87437,-44.058388
4896661143000.0,-7.215012415584542,-2.401555231169084,5.991404207631656,0.09101892,0.00580322,-0.009468411,102.493675,15.863238,-44.074497
4896666111000.0,-7.219643734809695,-2.4108178696193905,5.986772791686946,0.084910266,0.0018325958,-0.009773844,102.51429,15.851385,-44.0911
4896671089000.0,-7.226858617028581,-2.440113035284525,5.961719531885675,0.08399397,-0.0076358155,-0.0061086523,102.49812,15.814163,-44.083927
4896676396000.0,-7.235582986138529,-2.479372855703373,5.926822055445885,0.08093964,-0.035124753,0.0061086523,102.4759,15.777758,-44.072044
4896681125000.0,-7.23085629993275,-2.5032303800269,5.932835143241426,0.07666359,-0.05100725,0.006414085,102.45777,15.747765,-44.060772
4896686113000.0,-7.207910254010952,-2.512408798395619,5.992494670957825,0.061391957,-0.054367006,0.01038471,102.43199,15.7180195,-44.0477
4896691060000.0,-7.181921096292401,-2.521265329275134,6.038518471943204,0.06047566,-0.059864793,0.020158553,102.41244,15.696385,-44.036175
4896696107000.0,-7.148029223902182,-2.52973830843194,6.055464474493821,0.054061573,-0.08002335,0.021685716,102.39209,15.680124,-44.01986
4896701240000.0,-7.116450936654329,-2.538442526485708,6.071400886757146,0.04550946,-0.08246681,0.030543262,102.36397,15.661965,-43.993004
4896706082000.0,-7.130754053310714,-2.547977970779354,6.066633164610323,0.01863139,-0.06352998,0.036651913,102.33703,15.649288,-43.9674
4896711175000.0,-7.146708809910803,-2.5545964900891973,6.064529309910803,0.015271631,-0.049480084,0.043676864,102.30788,15.633703,-43.934677
4896716187000.0,-7.170494202180376,-2.5308110978196234,6.0883147021803765,0.014660766,-0.040317107,0.034208454,102.28519,15.625201,-43.905674
4896721156000.0,-7.18861119235801,-2.5130908539196346,6.105241449382204,-0.008857546,-0.036957346,0.024129177,102.2619,15.624183,-43.884308
4896726201000.0,-7.143461506759422,-2.5632570432042363,6.045042200342643,-0.014660766,-0.03176499,0.032986723,102.23713,15.617836,-43.867596
4896731125000.0,-7.106689327626497,-2.6013970297158133,5.9908876385780765,-0.008552114,-0.019242255,0.04795292,102.20746,15.608946,-43.8553
4896736162000.0,-7.111466123358748,-2.5775141982077434,5.962228260718883,0.0012217305,-0.013133603,0.03604105,102.18466,15.604162,-43.84135
4896741105000.0,-7.113359907535204,-2.553695654527651,5.933204495756784,0.0012217305,-0.008246681,0.05222898,102.16384,15.603549,-43.83239
4896746655000.0,-7.0935326451086445,-2.523955149072088,5.893550695514315,0.012217305,-0.006414085,0.046120327,102.15625,15.605691,-43.82106
4896751450000.0,-7.075386978099216,-2.498844116787206,5.859367096057858,0.018325957,-0.012217305,0.036957346,102.14178,15.601553,-43.81605
4896756089000.0,-7.039183025608638,-2.485267634603239,5.827688448609554,0.026267206,-0.021685716,0.025961773,102.130165,15.596565,-43.809845
4896761459000.0,-7.00147969967742,-2.469981991612903,5.797721496451612,0.005192355,-0.03145956,0.03176499,102.1142,15.589381,-43.803986
4896766141000.0,-7.01051964108871,-2.460941955806452,5.838401751975806,0.016493361,-0.03176499,0.024129177,102.1074,15.579396,-43.79575
4896771343000.0,-7.021888682799155,-2.45479701328864,5.881900796271466,0.023823744,-0.043066,0.03726278,102.08967,15.567428,-43.78344
4896776819000.0,-7.05078540756727,-2.4981419495729638,5.905981316429425,0.02076942,-0.04550946,0.032986723,102.08259,15.56062,-43.771065
4896781124000.0,-7.073502792542933,-2.532217908430526,5.924912404683625,0.020463986,-0.03726278,0.03359759,102.06417,15.543973,-43.756836
4896786095000.0,-7.112823887841504,-2.5576114246366983,5.888528198294904,0.009468411,-0.051618114,0.03481932,102.04373,15.531139,-43.736103
4896791101000.0,-7.154625442792095,-2.580834521497772,5.842082295562876,-0.003970624,-0.040927973,0.03604105,102.02827,15.519041,-43.724754
4896796130000.0,-7.179711220795042,-2.585738,5.893248443812781,-0.008857546,-0.038789943,0.03634648,102.01556,15.514781,-43.705307
4896801104000.0,-7.200072463603334,-2.585738,5.96960290502244,-0.00061086525,-0.031154128,0.034513887,102.00577,15.510796,-43.69062
4896806098000.0,-7.1889669340200175,-2.5900019626275386,5.984455414303761,-0.0070249503,-0.011301007,0.04886922,102.00252,15.510883,-43.693344
4896811137000.0,-7.174899011612088,-2.594691204810028,5.99383399659897,-0.016798794,-0.0076358155,0.05497787,102.00173,15.51206,-43.69283
4896816194000.0,-7.13989186775918,-2.5842690790290077,6.006126467189554,-0.026267206,0.006414085,0.06047566,101.99879,15.505043,-43.69578
4896821091000.0,-7.102903017044957,-2.5719393762948037,6.018455998264832,-0.03176499,0.014049901,0.06505715,101.99362,15.498273,-43.698673
4896826189000.0,-7.041019463322914,-2.534242257412144,6.120836724760823,-0.03756821,0.0106901415,0.06261369,101.99279,15.492801,-43.698692
4896831291000.0,-6.962338523529412,-2.4787028529411765,6.287455276470588,-0.037873644,0.019242255,0.064751714,101.99152,15.485625,-43.704895
4896836097000.0,-6.9240313,-2.4516625,6.3685765,-0.038179077,0.018936822,0.0729984,101.98389,15.476834,-43.701477
4896841088000.0,-6.9240313,-2.4516625,6.3685765,-0.036957346,0.015882496,0.07513642,101.97865,15.46881,-43.69936
4896846118000.0,-6.941693408094262,-2.449454733606557,6.269226897028688,-0.04153884,0.03481932,0.050701816,101.96115,15.449362,-43.671818
4896851116000.0,-6.980926837540984,-2.44455054852459,6.048538312295082,-0.052534413,0.04917465,0.07147124,101.92565,15.421912,-43.64848
4896856087000.0,-7.009615973926293,-2.4420857,5.971258726597467,-0.031154128,0.061086524,0.07666359,101.90972,15.396076,-43.625988
4896861210000.0,-7.028304556937435,-2.4420857,6.041340546995524,-0.012217305,0.0711658,0.06719518,101.89369,15.372294,-43.60837
4896866144000.0,-7.050039088567599,-2.4476287635771734,6.057252096418996,-0.003970624,0.07360926,0.06719518,101.885216,15.352076,-43.625225
4896876133000.0,-7.099291141987673,-2.4708161,5.927999161325116,-0.010995574,0.0729984,0.07147124,101.87965,15.332713,-43.64291
4896881296000.0,-7.108814699219954,-2.4708161,5.8327661744799695,-0.015882496,0.06627888,0.08460484,101.86381,15.306964,-43.65115
4896886098000.0,-7.118856680866861,-2.4806830769439148,5.760852654018261,-0.014966198,0.04795292,0.09712757,101.85579,15.282695,-43.664906
4896891149000.0,-7.133416402478178,-2.524362393809572,5.741439522945721,-0.04153884,0.04337143,0.071776666,101.85792,15.270547,-43.67751
4896896892000.0,-7.156817914971352,-2.558572270987296,5.7206706506850455,-0.046731193,0.025350908,0.08032878,101.845924,15.247995,-43.698807
4896901157000.0,-7.183950759154696,-2.561963836668604,5.707104246300756,-0.04642576,0.022296581,0.100792766,101.84032,15.232681,-43.7209
4896906065000.0,-7.21517420563813,-2.565866721630823,5.691492543436021,-0.03145956,0.007941248,0.09987647,101.8467,15.226289,-43.73557
4896911203000.0,-7.271679782719783,-2.5454309913025344,5.692853922223381,-0.019242255,-0.0021380284,0.089186326,101.849266,15.218351,-43.751163
4896916139000.0,-7.330836370893732,-2.520782442924184,5.697783539242883,-0.009468411,-0.02565634,0.094989546,101.842064,15.204939,-43.760574
4896921134000.0,-7.348461474193549,-2.4976543096774195,5.588761802419355,-0.00030543262,-0.03848451,0.08155051,101.84719,15.196852,-43.77733
4896926125000.0,-7.362228124193548,-2.4747098930107527,5.469450739919354,-0.01038471,-0.036651913,0.07880162,101.84501,15.187527,-43.793056
4896931333000.0,-7.380379764877402,-2.5222161184227967,5.536187671968191,-0.029932396,-0.03481932,0.082161374,101.836525,15.173799,-43.81186
4896936191000.0,-7.397997522862823,-2.5794739238568587,5.633085524850895,-0.022296581,-0.040927973,0.079107046,101.83064,15.158816,-43.82775
4896941101000.0,-7.409750542934837,-2.591875228532581,5.714925189948636,-0.008857546,-0.038789943,0.07941248,101.82665,15.145788,-43.864838
4896951133000.0,-7.404881518735363,-2.575451803834895,5.87140976469555,-0.0030543262,-0.05467244,0.08582657,101.81802,15.132306,-43.895008
4896956107000.0,-7.381640396955503,-2.56150698515808,5.9504294816744725,-0.0061086523,-0.051618114,0.08032878,101.822075,15.128098,-43.914757
4896961146000.0,-7.362391603965702,-2.5423204782779565,5.972990035655592,-0.023823744,-0.042760566,0.08735373,101.81189,15.117085,-43.927635
4896967002000.0,-7.342355359592712,-2.5172750420507324,5.967980948410147,-0.03940081,-0.04886922,0.084910266,101.8056,15.109577,-43.935547
4896971096000.0,-7.3379140551915825,-2.5091233,5.960110521302362,-0.0571159,-0.04642576,0.09193522,101.78628,15.098137,-43.935997
4896976339000.0,-7.342898392197737,-2.5091233,5.945157718463371,-0.06169739,-0.03940081,0.09773844,101.76832,15.088118,-43.935772
4896981134000.0,-7.339267493322735,-2.511171121303657,5.923285293640699,-0.06505715,-0.032070424,0.089491755,101.74569,15.081732,-43.934895
4896986246000.0,-7.324673810174881,-2.5160356484896664,5.889233704928458,-0.06291912,-0.026267206,0.08735373,101.719795,15.072785,-43.93676
4896991094000.0,-7.304977961813843,-2.4660391077963406,5.905689914558472,-0.05497787,-0.011301007,0.07788532,101.704056,15.066507,-43.945
4896996143000.0,-7.2761275661097855,-2.336212276919252,5.992241101670644,-0.057726767,-0.03604105,0.06627888,101.685265,15.062863,-43.943634
4897001130000.0,-7.264047278448919,-2.2907017136465324,6.023654286204325,-0.07696902,-0.039095376,0.0842994,101.66865,15.0588455,-43.95341
4897006089000.0,-7.2758522377330355,-2.3654664968680086,5.97643444906786,-0.064446285,-0.03390302,0.07269296,101.66511,15.05751,-43.95463
4897011410000.0,-7.288426447793506,-2.4428003716902578,5.929472738405496,-0.04520403,-0.046731193,0.06780604,101.61374,15.027715,-43.94689
4897016215000.0,-7.298005241298918,-2.457168561948376,5.958209018900916,-0.03634648,-0.060170226,0.060170226,101.56906,15.000927,-43.93918
4897021175000.0,-7.3071036,-2.471183407738499,5.9869732194479415,-0.03359759,-0.069027774,0.06047566,101.54737,14.99015,-43.935566
4897026155000.0,-7.3071036,-2.4758025808135598,6.005449767050847,-0.022296581,-0.0729984,0.054061573,101.53012,14.97902,-43.92851
4897031282000.0,-7.308172023942338,-2.48057106879766,6.022208662227097,-0.022907447,-0.0888809,0.056199603,101.50821,14.969508,-43.918385
4897036705000.0,-7.34072293989345,-2.4859961648072706,5.97338223165152,-0.019242255,-0.09590584,0.05222898,101.49191,14.9596615,-43.90857
4897041156000.0,-7.366578134503951,-2.49117794070237,5.933592530992098,-0.0061086523,-0.09743301,0.04795292,101.47589,14.946271,-43.895756
4897046120000.0,-7.387446982265144,-2.5036992493590877,5.891854835469711,-0.002443461,-0.08246681,0.04795292,101.461426,14.934221,-43.886
4897051110000.0,-7.408425135030728,-2.5162861410184374,5.849898529938542,0.008246681,-0.06261369,0.04062254,101.45493,14.923029,-43.884594
4897056095000.0,-7.419719222806521,-2.522335549363868,5.834581253114693,0.007330383,-0.050701816,0.03634648,101.4485,14.913035,-43.88552
4897061151000.0,-7.428845657789086,-2.526898814503817,5.82545491342946,0.021991149,-0.037873644,0.024129177,101.4508,14.901228,-43.89044
4897066110000.0,-7.393601139493207,-2.474442447615377,5.990535833105309,0.028099801,-0.022602014,0.016187929,101.45719,14.898343,-43.90388
4897071180000.0,-7.337463504653628,-2.394914131592639,6.238477200192697,0.03940081,-0.017715093,-0.0070249503,101.47407,14.897272,-43.91489
4897076146000.0,-7.301613304553326,-2.407659235784863,6.251920246348172,0.024740042,-0.03481932,0.004276057,101.48096,14.896487,-43.93106
4897081344000.0,-7.276259221635938,-2.478650615004584,6.120078750432922,0.008246681,-0.031154128,-0.0036651916,101.50694,14.90263,-43.94928
4897091093000.0,-7.24920662419114,-2.51260635053924,6.042092516567115,0.014049901,-0.03176499,-0.004886922,101.48475,14.882701,-43.92868
4897096101000.0,-7.238898158322071,-2.5151965383823685,6.017972042831896,0.02107485,-0.03604105,-0.008552114,101.46679,14.868269,-43.90773
4897101099000.0,-7.23392213725959,-2.5002683193159374,5.99309172968084,0.026267206,-0.045814894,-0.0030543262,101.466934,14.871685,-43.894924
4897106353000.0,-7.224186759797759,-2.4883940855151683,5.968049245312927,0.023518313,-0.040011674,0.00030543262,101.47418,14.880632,-43.887623
4897111144000.0,-7.207467230390817,-2.4842142577206885,5.947149888111506,0.023823744,-0.043676864,0.0012217305,101.47755,14.887139,-43.87592
4897116139000.0,-7.18950655164895,-2.480393,5.92750831032979,0.03390302,-0.037873644,-0.005192355,101.485825,14.889534,-43.87533
4897121142000.0,-7.167741888071228,-2.480393,5.923155377614246,0.04337143,-0.043066,-0.0036651916,101.48871,14.890114,-43.87191
4897126846000.0,-7.1433019707800245,-2.480393,5.918715604704912,0.03756821,-0.032070424,-0.0061086523,101.49944,14.894456,-43.87399
4897131239000.0,-7.129411315658275,-2.480393,5.922188232224515,0.044898596,-0.029321533,-0.002443461,101.50539,14.892748,-43.87343
4897136190000.0,-7.1137562659182825,-2.480393,5.926101953792819,0.048563786,-0.020463986,0.004886922,101.51335,14.894039,-43.8754
4897141104000.0,-7.142961681226903,-2.4782182013858094,5.925868624094605,0.04428773,-0.023518313,-0.0012217305,101.52358,14.897485,-43.873985
4897146168000.0,-7.219130341980783,-2.473737656152993,5.921388125646711,0.040011674,-0.016798794,-0.002443461,101.53184,14.897755,-43.87878
4897151105000.0,-7.262136651002552,-2.4765244832482685,5.927029150036457,0.035124753,-0.018020526,0.004581489,101.53752,14.899089,-43.87812
4897156179000.0,-7.241469026285089,-2.4942396738303563,5.95360185883461,0.040927973,-0.004276057,-0.0036651916,101.55229,14.902516,-43.881607
4897161400000.0,-7.220202635144003,-2.5124680951999028,5.980944411580994,0.03634648,-0.015577064,0.018020526,101.547485,14.89816,-43.892204
4897166232000.0,-7.201759,-2.5271462040705357,6.003526906432067,0.026572637,-0.0009162979,0.017104227,101.55964,14.900069,-43.90999
4897171117000.0,-7.201759,-2.508975355006603,5.985356095315777,0.029321533,-0.010995574,0.025961773,101.55499,14.894019,-43.921104
4897176397000.0,-7.201759,-2.489335215179057,5.965715996504311,0.015271631,-0.0036651916,0.033292156,101.55799,14.899865,-43.9304
4897181255000.0,-7.185262379573572,-2.470082625690971,5.946463468754935,0.009162978,0.009468411,0.026267206,101.56242,14.90464,-43.93797
4897188043000.0,-7.139631141002019,-2.4415631388084584,5.917944100991489,0.0030543262,0.006414085,0.016187929,101.56403,14.911214,-43.943493
4897191083000.0,-7.170147011061947,-2.428342103244838,5.882221825958703,-0.008246681,0.015577064,0.030848695,101.56119,14.910764,-43.95949
4897196115000.0,-7.426025695427729,-2.4046496462143563,5.730589903048181,-0.021380283,0.010079277,0.0421497,101.56076,14.914572,-43.969193
4897201153000.0,-7.615244578782288,-2.388092614391144,5.607980197509225,-0.024740042,0.01985312,0.021685716,101.564705,14.92111,-43.97807
4897206094000.0,-7.44500087402214,-2.4099187070110704,5.642902036863469,-0.043676864,-0.021380283,0.04184427,101.54139,14.92255,-43.976963
4897211651000.0,-7.263928589204131,-2.431623942651507,5.683914415416711,-0.036957346,-0.016493361,0.04734206,101.54371,14.917491,-44.035095
4897216112000.0,-7.214909844372588,-2.4227114351309065,5.732933206780015,-0.033292156,-0.015271631,0.043982297,101.535385,14.914431,-44.081394
4897221137000.0,-7.163716732011653,-2.4133554,5.786246624081566,-0.02687807,-0.01863139,0.047647487,101.52455,14.918494,-44.10096
4897226155000.0,-7.167605418077359,-2.4133554,5.813467426541512,-0.03176499,-0.029932396,0.04550946,101.51614,14.9257345,-44.11731
4897231099000.0,-7.171436758035281,-2.4133554,5.840286806246966,-0.03390302,-0.03726278,0.0571159,101.49456,14.926504,-44.1234
4897236140000.0,-7.181605154357386,-2.421931994653208,5.902888717179692,-0.021991149,-0.036957346,0.050396383,101.48026,14.929456,-44.126347
4897241084000.0,-7.195800996052369,-2.4361277375274835,5.988063421477114,-0.025961773,-0.048258353,0.056199603,101.45449,14.93081,-44.12668
4897246120000.0,-7.209852465731139,-2.444783531300542,6.037300456502711,-0.037873644,-0.04520403,0.046731193,101.4374,14.933815,-44.125557
4897251102000.0,-7.223470042993055,-2.449322739520502,6.059996497602512,-0.032986723,-0.035124753,0.047036625,101.41419,14.930946,-44.125057
4897256202000.0,-7.25594959151617,-2.472030823603528,6.058965114363713,-0.04062254,-0.03573562,0.050396383,101.391754,14.931116,-44.113537
4897261161000.0,-7.305814356772364,-2.5119228128412434,6.034032653632927,-0.049480084,-0.023823744,0.053450707,101.37284,14.930472,-44.108456
4897266146000.0,-7.329024355520752,-2.528277,6.009974840250587,-0.043066,-0.008246681,0.045814894,101.35738,14.928461,-44.10108
4897271087000.0,-7.333656301194205,-2.528277,5.986815643901723,-0.04795292,0.0067195175,0.04795292,101.339035,14.927714,-44.09833
4897276139000.0,-7.330710477710253,-2.523153450960596,5.963118594275632,-0.04795292,0.01282817,0.044898596,101.34054,14.930525,-44.101513
4897281224000.0,-7.321163716683003,-2.5136066400901784,5.939251691707509,-0.047036625,0.016798794,0.057421334,101.33725,14.930385,-44.109795
4897286113000.0,-7.305489120306514,-2.502408555555556,5.921328632183908,-0.047036625,0.019242255,0.053145275,101.34272,14.9356575,-44.117687
4897291943000.0,-7.27940149111298,-2.4867560325203253,5.905676054667788,-0.058643065,0.015882496,0.04795292,101.34358,14.940586,-44.126034
4897296109000.0,-7.256529546164034,-2.480393,5.897560550483953,-0.053450707,0.019547688,0.05497787,101.344185,14.938674,-44.140713
4897301107000.0,-7.222392722404483,-2.480393,5.89268374498217,-0.05681047,0.022907447,0.05467244,101.34888,14.943234,-44.15292
4897306094000.0,-7.205225425573046,-2.483859425573046,5.8776034833471416,-0.044593163,-0.00061086525,0.055588737,101.34872,14.937783,-44.158253
4897311178000.0,-7.214189468102734,-2.492823468102734,5.846229264291632,-0.05497787,0.0036651916,0.054367006,101.35389,14.938043,-44.17143
4897316121000.0,-7.220034963185209,-2.4951588159260463,5.835861652221862,-0.046120327,0.0009162979,0.05222898,101.35641,14.932844,-44.17408
4897321084000.0,-7.216180790431398,-2.47588795215699,5.893674243529031,-0.033292156,-0.0030543262,0.04795292,101.36061,14.929661,-44.17719
4897327289000.0,-7.2113621037625695,-2.4517945188128443,5.965954543561466,-0.03390302,-0.020463986,0.048563786,101.36511,14.930042,-44.177933
4897331140000.0,-7.217916786614457,-2.4582435866144565,5.9860938254838425,-0.02076942,-0.021991149,0.04734206,101.373535,14.926483,-44.181236
4897336117000.0,-7.226497889071924,-2.4668246890719234,6.0118370880547305,-0.022296581,-0.020158553,0.044593163,101.36752,14.920671,-44.1713
4897341094000.0,-7.233109089887987,-2.4786755517315795,6.015951875624293,-0.02687807,-0.02076942,0.049785517,101.358604,14.9116955,-44.161465
4897346109000.0,-7.238044569335114,-2.4934821446819444,6.001145334210256,-0.03390302,-0.023823744,0.042760566,101.35534,14.906794,-44.15038
4897351095000.0,-7.242884121637896,-2.50236456278603,5.983808748855881,-0.026267206,-0.015577064,0.04734206,101.345146,14.898592,-44.138866
4897356083000.0,-7.247678388598956,-2.507158729626656,5.964632081493376,-0.036651913,-0.019547688,0.043676864,101.338646,14.8985615,-44.12233
4897361112000.0,-7.257944195140838,-2.50635621569064,5.9567738,-0.04153884,-0.007941248,0.04062254,101.335785,14.899913,-44.11661
4897366107000.0,-7.271835139773497,-2.501725868580002,5.9567738,-0.034513887,-0.004886922,0.040011674,101.3317,14.901111,-44.107845
4897371090000.0,-7.271062179367688,-2.458117120129556,5.915344343788069,-0.03268129,-0.00061086525,0.03604105,101.33264,14.908378,-44.106236
4897376177000.0,-7.256931798685101,-2.378044454703664,5.83527153081311,-0.04184427,-0.010079277,0.04337143,101.32809,14.914057,-44.103035
4897381241000.0,-7.2587557113190995,-2.361801063176367,5.807637185921809,-0.02321288,-0.012217305,0.04428773,101.33037,14.912559,-44.105484
4897386093000.0,-7.276876561860194,-2.4116336150336357,5.834818698254851,-0.024740042,-0.004581489,0.040011674,101.33193,14.91635,-44.10833
4897391088000.0,-7.291920772875817,-2.4420857,5.855399772875817,-0.012217305,0.016493361,0.029932396,101.32435,14.902947,-44.12255
4897396125000.0,-7.301773375326797,-2.4420857,5.865252375326797,-0.015577064,0.0018325958,0.030848695,101.31036,14.891833,-44.1297
4897401088000.0,-7.30333518181978,-2.4477383272703297,5.86681418181978,-0.0067195175,0.008246681,0.022602014,101.31908,14.888362,-44.14241
4897406085000.0,-7.294921068483516,-2.4603594972747254,5.858400068483516,-0.01038471,0.0076358155,0.01863139,101.32273,14.887034,-44.149765
4897411136000.0,-7.290364074377422,-2.471620799861649,5.851429,-0.0106901415,0.008552114,0.018325957,101.33134,14.881399,-44.159855
4897416267000.0,-7.30396079845047,-2.476153088544549,5.851429,-0.020158553,-0.0012217305,0.008857546,101.34314,14.881174,-44.16544
4897421407000.0,-7.315813182670454,-2.480393,5.852585283735796,-0.011301007,0.007330383,0.013744468,101.35474,14.879207,-44.175446
4897426177000.0,-7.303646633664773,-2.480393,5.868807264382102,-0.016798794,0.0015271631,0.020463986,101.36558,14.8834915,-44.178226
4897431186000.0,-7.290870481889205,-2.480393,5.885842044477983,-0.02321288,-0.004886922,0.009162978,101.38185,14.890488,-44.18452
4897436366000.0,-7.275598334265623,-2.480393,5.898999862154387,-0.016187929,-0.003970624,0.017715093,101.38832,14.890374,-44.19383
4897441117000.0,-7.261054898353843,-2.480393,5.909907571967397,-0.014660766,-0.014049901,0.021991149,101.397934,14.895722,-44.19685
4897446093000.0,-7.245063297882939,-2.4792480655043585,5.926481033872976,-0.0143553335,-0.026572637,0.027183503,101.40504,14.8959055,-44.19909
4897451133000.0,-7.2265683470255775,-2.474624291579653,5.958847016821535,-0.022296581,-0.032986723,0.03481932,101.409,14.896067,-44.201004
4897456086000.0,-7.2136134481811,-2.469297595927244,5.985504,-0.017715093,-0.03390302,0.03604105,101.41005,14.89515,-44.195568
4897461167000.0,-7.228043920136417,-2.4596772478054567,5.985504,-0.020463986,-0.03023783,0.052839845,101.4023,14.892448,-44.192352
4897466164000.0,-7.236183451596356,-2.43548518007429,6.004269723817104,-0.0290161,-0.040011674,0.051618114,101.392075,14.894426,-44.174973
4897471114000.0,-7.2110281968868835,-2.3306713925975058,6.125853929176616,-0.028099801,-0.03573562,0.053450707,101.37725,14.890954,-44.16489
4897476264000.0,-7.1848565682497565,-2.221622704616609,6.252350627681967,-0.032986723,-0.04337143,0.06352998,101.3512,14.889084,-44.15151
4897481357000.0,-7.187379276736706,-2.2743048453259007,6.172524995754717,-0.04550946,-0.03176499,0.06505715,101.33135,14.8898325,-44.14421
4897486405000.0,-7.192870580353673,-2.339839591818889,6.079206273319083,-0.043066,-0.032070424,0.060170226,101.30773,14.887731,-44.132572
4897491153000.0,-7.201706741216479,-2.3796020619704628,6.05269797526234,-0.032375857,-0.021685716,0.054061573,101.24848,14.861141,-44.111446
4897496515000.0,-7.2111590670558225,-2.4222255626900817,6.021868319170019,-0.040317107,-0.025045475,0.0580322,101.206696,14.852189,-44.097904
4897501203000.0,-7.206754517894634,-2.4046072280682824,5.973417818473463,-0.04062254,-0.03481932,0.05375614,101.17138,14.842608,-44.084473
4897506060000.0,-7.202191186991072,-2.3863537615029924,5.923220702030806,-0.04642576,-0.03573562,0.052534413,101.15006,14.840502,-44.077904
4897511307000.0,-7.260113247136003,-2.4474681904141784,5.900511389346911,-0.050701816,-0.022296581,0.051618114,101.13123,14.838901,-44.072575
4897516100000.0,-7.31854063517086,-2.510390148144522,5.882533673729561,-0.056505036,-0.041233405,0.06414085,101.10342,14.836139,-44.06001
4897521093000.0,-7.290033596512536,-2.5042107310401667,5.86204764151991,-0.064751714,-0.032375857,0.049480084,101.09615,14.835818,-44.06639
4897526184000.0,-7.247736957256875,-2.487292066504728,5.840899255643272,-0.050701816,-0.04550946,0.048258353,101.0737,14.826891,-44.06455
4897531112000.0,-7.205042344761905,-2.4690832257142854,5.727660142857143,-0.037873644,-0.042760566,0.0571159,101.073,14.831382,-44.073727
4897536121000.0,-7.160349568188406,-2.4492197406521736,5.5439231782608696,-0.028710667,-0.044898596,0.05100725,101.07576,14.836951,-44.076466
4897541090000.0,-7.187725441215914,-2.4610851807331247,5.556645647831918,-0.03268129,-0.06994407,0.06291912,101.06508,14.834704,-44.072952
4897547056000.0,-7.26945670755476,-2.4968425630844884,5.704783588073313,-0.033292156,-0.07819075,0.051923547,101.06731,14.835954,-44.070465
4897551093000.0,-7.307829315151515,-2.5029419324242426,5.776265630303031,-0.02443461,-0.08307768,0.043982297,101.06794,14.838996,-44.077778
4897556085000.0,-7.333699112554113,-2.4874201080086578,5.8280052251082255,-0.0106901415,-0.08246681,0.03940081,101.07096,14.8426,-44.083447
4897561226000.0,-7.34738992587864,-2.48237194654282,5.865281770449004,-0.008246681,-0.08246681,0.042760566,101.07098,14.844334,-44.08255
4897566115000.0,-7.350748123942046,-2.4857301796729305,5.888789647826711,-0.0030543262,-0.06994407,0.03604105,101.07832,14.845778,-44.08384
4897571104000.0,-7.354175010859274,-2.489157102374121,5.912778357222781,-0.0036651916,-0.06536258,0.033292156,101.0756,14.840592,-44.083656
4897576195000.0,-7.336935248852016,-2.482748759540806,5.9184666,-0.004886922,-0.06383542,0.036651913,101.07443,14.834768,-44.085957
4897581138000.0,-7.314101888635925,-2.47361541545437,5.9184666,-0.0009162979,-0.056505036,0.032375857,101.078636,14.830303,-44.08996
4897586148000.0,-7.288653917225539,-2.4769660156637574,5.9061667686724855,0.00061086525,-0.040011674,0.027488936,101.08095,14.826407,-44.09389
4897591100000.0,-7.262512907468994,-2.485679715911805,5.88873936817639,-0.0027488936,-0.0290161,0.0290161,101.082756,14.822377,-44.098564
4897596132000.0,-7.240010474195424,-2.4803371993408296,5.8873838257851885,0.008246681,-0.018020526,0.02321288,101.08848,14.817779,-44.105614
4897601106000.0,-7.221540087398217,-2.4618668607599843,5.901236676153548,0.006414085,-0.013744468,0.016493361,101.09453,14.816375,-44.113747
4897606087000.0,-7.203335327983539,-2.447662334876543,5.914890195473252,0.010079277,-0.01985312,0.0143553335,101.10701,14.814024,-44.11992
4897611157000.0,-7.185170578264123,-2.438580007435465,5.928513568088291,0.0067195175,-0.014966198,0.014966198,101.12291,14.814356,-44.129627
4897616940000.0,-7.1730285,-2.4301358400165616,5.93762,0.008552114,-0.007330383,0.017104227,101.129234,14.812439,-44.13068
4897621115000.0,-7.1730285,-2.4259971838215506,5.93762,0.012217305,-0.016798794,0.016187929,101.134674,14.811383,-44.128334
4897626119000.0,-7.1730285,-2.4248042023208263,5.93762,0.01160644,-0.014966198,0.009468411,101.14055,14.810396,-44.12717
4897631226000.0,-7.1730285,-2.429804634618137,5.93762,0.0067195175,-0.02565634,0.009468411,101.141136,14.808441,-44.120968
4897636075000.0,-7.166030939702407,-2.4307595916586435,5.9568633273522975,0.015577064,-0.018936822,0.008857546,101.14745,14.80364,-44.121284
4897641100000.0,-7.149182477557987,-2.426547432140044,6.003196686214442,0.0143553335,-0.01863139,0.005497787,101.15235,14.802479,-44.117016
4897646145000.0,-7.134054739421888,-2.4222655463820484,6.043631553617952,0.01160644,-0.029932396,-0.0015271631,101.160034,14.8012705,-44.11259
4897651144000.0,-7.129502640610441,-2.4177134951031665,6.048183604896834,0.0106901415,-0.03481932,0.006414085,101.16427,14.797674,-44.111294
4897656397000.0,-7.123140192255983,-2.4129545426369097,6.054946844178542,0.0027488936,-0.0290161,-0.0015271631,101.17439,14.797095,-44.1017
4897661171000.0,-7.10265075934391,-2.408856698843775,6.079533906937349,0.011911872,-0.030543262,0.0061086523,101.174034,14.788649,-44.091713
4897666134000.0,-7.081350161199247,-2.4045966236981267,6.10509435781124,0.00580322,-0.02443461,-0.004886922,101.18217,14.790964,-44.082264
4897671134000.0,-7.087426296126607,-2.4071673653755354,6.106613734624465,0.0027488936,-0.03145956,0.0015271631,101.17893,14.785834,-44.071877
4897681118000.0,-7.098761119022213,-2.418174920651857,6.083557352556019,0.00061086525,-0.019547688,0.0061086523,101.184006,14.784457,-44.06729
4897686649000.0,-7.083346642118537,-2.428451238587642,6.047590186128626,0.0061086523,-0.008246681,0.004581489,101.18005,14.784415,-44.050358
4897691090000.0,-7.081592064856198,-2.436841042238701,6.035554077663093,-0.0012217305,-0.0070249503,0.009773844,101.17039,14.787698,-44.034344
4897696128000.0,-7.091261955306143,-2.4465108822026256,6.040389123860106,0.00061086525,-0.006414085,0.013439035,101.16355,14.788591,-44.02147
4897701115000.0,-7.091816336758728,-2.4470652607608128,6.049860870859822,0.003970624,-0.0030543262,0.009773844,101.16216,14.795241,-44.013268
4897706093000.0,-7.081879221511204,-2.4371281973944763,6.064766491849921,0.0106901415,0.0125227375,0.018325957,101.15679,14.797389,-44.0105
4897711181000.0,-7.06985311063197,-2.4275710737546468,6.069226336877324,0.0106901415,-0.0012217305,0.015271631,101.15003,14.808142,-43.996723
4897716134000.0,-7.056628048252788,-2.418754365501859,6.06481798275093,0.0067195175,-0.0012217305,0.015271631,101.1432,14.8157,-43.992256
4897721079000.0,-7.052139032367435,-2.4133554,6.072946910171496,-0.00030543262,-0.0012217305,0.01038471,101.13674,14.82123,-43.97821
4897726322000.0,-7.06203665470136,-2.4133554,6.102640087226494,0.009468411,0.0106901415,0.021685716,101.12612,14.820709,-43.96955
4897731211000.0,-7.065977578082191,-2.416766315068493,6.116168384931506,-0.0027488936,-0.0030543262,0.017104227,101.115326,14.8306055,-43.947113
4897736103000.0,-7.06158193844999,-2.42555777793207,6.10737692206793,0.004276057,0.00061086525,0.016493361,101.10322,14.831432,-43.934624
4897741063000.0,-7.05918262179685,-2.4346614773078112,6.095044478635381,-0.008246681,-0.0061086523,0.018020526,101.08594,14.837535,-43.907883
4897746113000.0,-7.064159654831738,-2.4446156992899044,6.070158793753216,0.0012217305,-0.01160644,0.023518313,101.06838,14.836994,-43.88364
4897751079000.0,-7.075300241896748,-2.4494861792599245,6.055806186791374,0.004276057,-0.005192355,0.01863139,101.05759,14.844626,-43.862164
4897756516000.0,-7.105073745989217,-2.440979597042966,6.06856608232315,-0.007941248,-0.013133603,0.01740966,101.04089,14.851318,-43.837154
4897761135000.0,-7.130367808046071,-2.433752835361869,6.079406243710178,-0.009162978,-0.01985312,0.013133603,101.03007,14.860701,-43.814583
4897766190000.0,-7.130477783461618,-2.432509,6.081272,-0.016798794,-0.010995574,0.015577064,101.018486,14.872321,-43.79538
4897771102000.0,-7.125584789744123,-2.432509,6.081272,-0.0106901415,0.0012217305,0.0106901415,101.010925,14.883457,-43.774914
4897776150000.0,-7.129342724117255,-2.4409054043970686,6.072875595602932,-0.007330383,0.008552114,0.015882496,100.99322,14.892089,-43.759064
4897781190000.0,-7.1339365255829446,-2.4500929593604264,6.063688040639574,-0.0030543262,0.014966198,0.01282817,100.98215,14.901654,-43.745476
4897786131000.0,-7.150983226542503,-2.4597934632712515,6.0621185,-0.0018325958,0.02107485,0.015882496,100.97005,14.907503,-43.73775
4897791064000.0,-7.170645011746957,-2.4696243558734783,6.0621185,-0.007330383,0.027488936,0.01038471,100.96335,14.915979,-43.73101
4897796197000.0,-7.16568729627282,-2.4561336542173766,6.040094773833672,-0.009162978,0.039095376,0.012217305,100.95838,14.922205,-43.72739
4897801138000.0,-7.157688864604463,-2.440136749121028,6.016099353549696,-0.00580322,0.03726278,0.012217305,100.95517,14.929754,-43.7214
4897806157000.0,-7.156582873444468,-2.446048508600552,6.010073503440221,-0.00061086525,0.035430185,0.019242255,100.94975,14.938082,-43.71839
4897811152000.0,-7.16166204274793,-2.47144462030155,6.02023194812062,0.0033597588,0.03726278,0.01863139,100.94745,14.947258,-43.715305
4897816273000.0,-7.1634517,-2.470773234060569,6.020604722514445,0.0012217305,0.038789943,0.008857546,100.944275,14.954029,-43.713463
4897821123000.0,-7.1634517,-2.456891691422594,6.015977557740586,-0.005497787,0.034208454,0.008246681,100.93741,14.959036,-43.711483
4897826621000.0,-7.160140400602807,-2.445039866628991,6.017545833973816,-0.006414085,0.027488936,0.0076358155,100.938736,14.968987,-43.7045
4897831318000.0,-7.155903633163794,-2.436566287510596,6.0217826456531975,-0.005497787,0.025961773,0.0125227375,100.9383,14.978644,-43.69844
4897836364000.0,-7.143051127073442,-2.4270970776644107,6.0238113,-0.01160644,0.0106901415,0.014966198,100.93352,14.987421,-43.68779
4897841091000.0,-7.124758510940499,-2.417950793474088,6.0238113,-0.0036651916,0.007330383,0.003970624,100.93345,14.994755,-43.67934
4897846119000.0,-7.118109187486246,-2.4158968609482843,6.0238113,-0.009162978,0.004886922,0.008246681,100.92167,15.001138,-43.672417
4897851116000.0,-7.12289615053516,-2.420683774012204,6.0238113,-0.0067195175,-0.010079277,0.009162978,100.91305,15.007061,-43.660164
4897856081000.0,-7.122851043871204,-2.41834521169045,6.0238113,-0.0070249503,-0.007941248,0.020463986,100.9001,15.009501,-43.650135
4897861186000.0,-7.118378892023418,-2.4094009546926456,6.0238113,-0.00030543262,-0.005192355,0.007941248,100.89378,15.014559,-43.634537
4897866108000.0,-7.127496172919913,-2.41400298756622,6.025515349766283,-0.0036651916,0.0015271631,0.008246681,100.880516,15.017387,-43.622334
4897872079000.0,-7.169075222426509,-2.4496421108341124,6.031455151958035,-0.009162978,0.005497787,0.013133603,100.87035,15.020773,-43.6099
4897876176000.0,-7.18069029561827,-2.451664298087634,6.021898013702192,-0.0106901415,0.0021380284,0.0106901415,100.86148,15.023551,-43.602844
4897881137000.0,-7.176279740029707,-2.429611566199406,5.995434772279985,-0.017715093,0.009162978,0.014049901,100.85084,15.026204,-43.601006
4897886079000.0,-7.1697723090933145,-2.415526186382078,5.9759274,-0.0143553335,0.019547688,0.011911872,100.84609,15.034987,-43.602524
4897891091000.0,-7.1570718975568886,-2.423993097936144,5.9759274,-0.006414085,0.020158553,0.013439035,100.838455,15.042479,-43.604122
4897896440000.0,-7.146214196188827,-2.432509,5.975608035080121,-0.005497787,0.032070424,0.013133603,100.8318,15.048459,-43.61806
4897901095000.0,-7.175174888588133,-2.432509,5.970781269813772,-0.014049901,0.034513887,0.015882496,100.822296,15.053601,-43.62991
4897906115000.0,-7.201759,-2.433184906547619,5.967702413095238,-0.0036651916,0.029321533,0.014049901,100.81928,15.056824,-43.64307
4897911162000.0,-7.201759,-2.4377515736772484,5.976835747354497,-0.011301007,0.028710667,0.0027488936,100.81976,15.0665045,-43.657063
4897921099000.0,-7.196802955459481,-2.4371298107078223,5.985504,-0.021991149,0.026572637,0.0012217305,100.814705,15.073408,-43.673763
4897926176000.0,-7.1908273900478274,-2.432509,5.984420317696143,-0.007941248,0.03390302,-0.0021380284,100.81572,15.079304,-43.691124
4897931209000.0,-7.1663031026763,-2.432509,5.964800990230996,-0.008857546,0.03268129,-0.002443461,100.818665,15.087693,-43.70737
4897936161000.0,-7.143903345822307,-2.4321143375803405,5.947591658298677,-0.005192355,0.032070424,-0.0076358155,100.826225,15.092175,-43.727318
4897941768000.0,-7.138828056890359,-2.4270389426559547,5.952667000226843,-0.007941248,0.016493361,-0.003970624,100.82817,15.096249,-43.743313
4897946484000.0,-7.13488718245597,-2.4237615209405847,5.956110263247532,-0.004276057,0.021991149,0.0018325958,100.83319,15.102173,-43.761692
4897951100000.0,-7.139164911041223,-2.445150387207277,5.938999170234179,-0.0012217305,0.010995574,0.0018325958,100.834366,15.108983,-43.771008
4897956060000.0,-7.1437614304915815,-2.468133224443584,5.920612900445133,0.004276057,0.008246681,0.003970624,100.83031,15.114171,-43.78726
4897961175000.0,-7.156827713296798,-2.4666395434381307,5.922643156561869,0.0012217305,-0.0012217305,0.00030543262,100.8259,15.12141,-43.797867
4897966164000.0,-7.170608740553793,-2.4620458836746466,5.927236816325354,0.005497787,-0.0027488936,0.008552114,100.81706,15.12299,-43.811028
4897971093000.0,-7.195685239215877,-2.449910969821967,5.958252346191264,0.009468411,-0.0009162979,0.012217305,100.8204,15.129596,-43.824474
4897976160000.0,-7.224010355822551,-2.4357484608133086,5.9960191190388175,0.004276057,-0.002443461,0.004581489,100.82412,15.137625,-43.83601
4897981124000.0,-7.233491387946944,-2.43851320724172,6.010661938589553,0.0036651916,0.00580322,0.008246681,100.82637,15.136226,-43.85474
4897986090000.0,-7.237409487485582,-2.446349447231834,6.018498219492503,0.009773844,0.004581489,0.017104227,100.82788,15.134988,-43.869934
4897991097000.0,-7.2481269484705395,-2.453274689694108,6.018974747752002,0.013133603,0.009468411,0.014660766,100.82726,15.1311035,-43.88772
4897996115000.0,-7.272791484705399,-2.45820759694108,6.004176077520016,0.0018325958,0.010995574,0.013744468,100.822174,15.126909,-43.904957
4898001101000.0,-7.28248547792,-2.4612393,5.98779497056,0.0106901415,0.009162978,0.0125227375,100.82154,15.119019,-43.92634
4898006085000.0,-7.26816624656,-2.4612393,5.96870266208,0.008246681,0.007330383,0.0061086523,100.82333,15.11697,-43.946857
4898011621000.0,-7.254526628912493,-2.4495068967830043,5.94973434336874,0.003970624,0.01740966,0.0076358155,100.827126,15.111657,-43.96876
4898016226000.0,-7.245603783388973,-2.4271998295599397,5.93635007508346,-0.0009162979,0.015271631,0.0061086523,100.83232,15.10903,-43.985443
4898021094000.0,-7.240066,-2.4133554,5.931856288580766,-0.0015271631,0.02107485,0.00580322,100.84112,15.106884,-44.008698
4898026245000.0,-7.240066,-2.4133554,5.941627526928791,0.0033597588,0.013133603,-0.003970624,100.851524,15.106933,-44.026028
4898031347000.0,-7.2316670768296385,-2.4175548835104768,5.966094631946554,-0.004276057,0.01160644,0.005497787,100.84846,15.104792,-44.048103
4898036094000.0,-7.213260018524142,-2.4267584607146477,6.007510633262476,-0.006414085,0.009162978,0.0070249503,100.850624,15.104259,-44.06553
4898041087000.0,-7.20358206263148,-2.43433206263148,6.027918774032683,0.0067195175,0.008552114,0.008246681,100.85204,15.097345,-44.080727
4898046125000.0,-7.208113187218257,-2.438863187218257,6.0143253056442525,0.008552114,0.003970624,0.0036651916,100.85409,15.094082,-44.09344
4898056082000.0,-7.194864430922828,-2.436595334304731,6.010148123025724,0.011301007,0.0036651916,0.013133603,100.854546,15.082582,-44.10121
4898061257000.0,-7.1826053,-2.432890192990395,6.014615696970816,0.003970624,-0.004886922,0.011301007,100.85899,15.076284,-44.10387
4898066129000.0,-7.1826053,-2.4371991773273,6.01892472630218,0.003970624,-0.0018325958,0.004581489,100.865944,15.068307,-44.11163
4898071067000.0,-7.1826053,-2.4415665346047284,6.023292129183599,0.01160644,-0.0021380284,0.014966198,100.86162,15.058719,-44.117657
4898076147000.0,-7.178894341621389,-2.4495076167572227,6.0238113,0.014966198,-0.0021380284,0.014049901,100.86447,15.053842,-44.12266
4898081679000.0,-7.174325229279862,-2.458645841440276,6.0238113,0.014049901,-0.010079277,0.016798794,100.86094,15.045609,-44.126865
4898086086000.0,-7.175750610169322,-2.4557950796613564,6.012922830898708,0.0076358155,-0.005192355,0.0067195175,100.86565,15.041291,-44.13405
4898091096000.0,-7.18055772047891,-2.44618085904218,5.993694339464983,-0.0009162979,-0.017715093,0.0125227375,100.85981,15.03394,-44.136345
4898096114000.0,-7.194464248561614,-2.4539446795191067,5.994398242378703,-0.0009162979,-0.01985312,0.010995574,100.86217,15.033536,-44.13475
4898101102000.0,-7.214974801760412,-2.474455286260197,6.009781210820094,-0.002443461,-0.022602014,0.018020526,100.85735,15.032161,-44.131367
4898106085000.0,-7.214196534826117,-2.473676964698305,6.010876499881106,-0.00061086525,-0.01282817,0.01740966,100.85663,15.030595,-44.12966
4898111247000.0,-7.204400600317052,-2.463880927900525,6.005978507054394,0.00030543262,-0.0125227375,0.0076358155,100.85502,15.029984,-44.124744
4898116128000.0,-7.198438833763911,-2.454599106200318,6.017938122267488,0.0009162979,-0.0076358155,0.0067195175,100.85387,15.030798,-44.11952
4898121091000.0,-7.1937159948330685,-2.445153625596184,6.036829132790142,-0.004886922,-0.0015271631,0.009468411,100.85521,15.033893,-44.114433
4898126438000.0,-7.181571135716404,-2.4420857,6.011132296351231,-0.01038471,-0.007941248,0.00580322,100.85903,15.035209,-44.108295
4898131190000.0,-7.168071048145951,-2.4420857,5.970631892672797,-0.008552114,-0.00580322,0.008246681,100.86164,15.034399,-44.10718
4898136098000.0,-7.149125784958979,-2.436355333983592,5.965369289188696,-0.015882496,-0.004886922,0.011911872,100.85829,15.036033,-44.098606
4898141095000.0,-7.1273139027347305,-2.4276305810938923,5.978456327420237,-0.005192355,-0.007330383,0.01160644,100.855415,15.03401,-44.089935
4898146126000.0,-7.111153617470947,-2.4251391066968684,5.992124974000394,-0.0009162979,-0.0009162979,0.012217305,100.8556,15.036146,-44.09099
4898151285000.0,-7.101421885946425,-2.4300048962477843,6.006722241038014,-0.009162978,-0.0070249503,0.01160644,100.85425,15.038918,-44.088062
4898156092000.0,-7.102957725402201,-2.432509,6.018597151566469,-0.002443461,-0.0106901415,0.023823744,100.84401,15.035372,-44.088745
4898161154000.0,-7.11835101665961,-2.432509,6.02885911356901,0.0070249503,-0.0018325958,0.016493361,100.8423,15.036965,-44.089245
4898166123000.0,-7.120379061675612,-2.437274289047576,6.021474715182389,0.00580322,-0.009468411,0.014049901,100.830505,15.036969,-44.0782
4898171096000.0,-7.111714153161103,-2.445938926134813,5.999813009369599,-0.006414085,-0.017104227,0.010995574,100.8231,15.038895,-44.06907
4898176260000.0,-7.113372204984104,-2.446126204071377,5.998422043103271,0.0015271631,-0.0106901415,0.008552114,100.814735,15.03807,-44.06607
4898181149000.0,-7.132579040836837,-2.4317212275971696,6.03203370501487,-0.005192355,-0.002443461,0.013744468,100.804016,15.041468,-44.06235
4898186100000.0,-7.144298,-2.4135861201130617,6.046934100357037,-0.0030543262,0.003970624,0.004886922,100.80421,15.04794,-44.059383
4898191098000.0,-7.144298,-2.3898507504611723,6.032692848824754,-0.015577064,0.0009162979,0.005192355,100.79896,15.055507,-44.057728
4898196080000.0,-7.126240365180467,-2.373242444060257,6.014782539156809,-0.02321288,0.0018325958,0.008552114,100.79494,15.05559,-44.060925
4898201112000.0,-7.077518639490446,-2.368370291841068,5.990421828935395,-0.02687807,0.008552114,0.01160644,100.791374,15.057292,-44.064915
4898206089000.0,-7.017237218028496,-2.308408744227973,6.073486041058447,-0.048258353,-0.0030543262,0.0076358155,100.78208,15.060768,-44.06485
4898211192000.0,-6.936710225995929,-2.161565207967433,6.324540879848793,-0.06169739,0.005497787,-0.008246681,100.78009,15.065176,-44.071003
4898216130000.0,-6.87070327136294,-2.0685902,6.421745902603369,-0.0983493,-0.004581489,-0.01863139,100.77342,15.080444,-44.066616
4898221283000.0,-6.825359501786626,-2.0685902,6.235331984686065,-0.14660765,-0.02687807,-0.006414085,100.76373,15.098944,-44.06199
4898226271000.0,-6.7883724103122045,-2.046269098315989,6.112415212582781,-0.18448131,-0.050396383,-0.0033597588,100.70665,15.091724,-44.020992
4898231336000.0,-6.760837881929991,-1.991200233226112,6.0711136596026485,-0.20463985,-0.08368854,-0.01740966,100.64794,15.091321,-43.97275
4898236104000.0,-6.721788055686695,-1.9491610646638056,6.01817355565093,-0.2501493,-0.12461651,-0.01863139,100.59442,15.107599,-43.935265
4898241097000.0,-6.644829291282189,-1.932059146781116,5.924113007296137,-0.2950479,-0.16554448,-0.027488936,100.54501,15.131479,-43.887993
4898246280000.0,-6.572499700550498,-1.9159859298327333,5.828840485919966,-0.32345316,-0.17531833,-0.040011674,100.48705,15.152996,-43.841236
4898251169000.0,-6.61711024695109,-1.9258993270802456,5.774316801058649,-0.3454443,-0.11911872,-0.050701816,100.43643,15.182453,-43.80236
4898256139000.0,-6.641531938808555,-1.9446789087193697,5.741279629976622,-0.39461896,-0.08277224,-0.0711658,100.39845,15.227623,-43.76268
4898261157000.0,-6.541665657173781,-2.015417457892458,5.841145694363148,-0.42302418,-0.065973446,-0.09407325,100.37117,15.274289,-43.732555
4898267189000.0,-6.417533090770732,-2.094831761990244,5.964448327004877,-0.42913285,-0.094989546,-0.0983493,100.34684,15.328854,-43.70977
4898271099000.0,-6.267751748039024,-2.0509932997463416,6.099616798126829,-0.4474588,-0.18417588,-0.08979719,100.31996,15.391653,-43.674786
4898276252000.0,-6.070354495073171,-1.9932184670243904,6.277755706487805,-0.4636467,-0.32650748,-0.058337633,100.29005,15.46214,-43.59488
4898281137000.0,-6.00268382697201,-1.866405117048346,6.372524152926209,-0.47433686,-0.3817908,-0.03604105,100.26059,15.533001,-43.51677
4898286111000.0,-5.963723991094148,-1.7192230829153037,6.450443960287168,-0.5207626,-0.4633413,-0.029932396,100.20212,15.608815,-43.398975
4898291100000.0,-5.944528638149618,-1.702148832004258,6.334072801219394,-0.54702985,-0.5018258,-0.010079277,100.106,15.663145,-43.25531
4898296127000.0,-5.939869431820381,-1.7813537341527146,6.073162598277364,-0.54825157,-0.56596667,-0.011911872,100.00235,15.722562,-43.08723
4898301266000.0,-6.047788888653234,-1.772771554676564,5.831519702863202,-0.56046885,-0.5821546,-0.050396383,99.86076,15.761096,-42.91638
4898306088000.0,-6.243671772534464,-1.6895213865535523,5.625842738706257,-0.5696318,-0.57543504,-0.08277224,99.715164,15.796406,-42.741627
4898311127000.0,-6.441339331127187,-1.7156396835174503,5.447865143621078,-0.56230146,-0.54733527,-0.1151481,99.620224,15.866737,-42.580166
4898316157000.0,-6.634420323990615,-1.8098254869195425,5.292458698318506,-0.5369505,-0.49693888,-0.14660765,99.54299,15.938726,-42.429054
4898321132000.0,-6.785303704753149,-1.8997251779718671,5.290618468198952,-0.49754974,-0.4541783,-0.16432275,99.46424,15.996534,-42.319847
4898326250000.0,-6.911477579479636,-1.98984945486807,5.398767591063712,-0.44623706,-0.44348818,-0.17440203,99.39778,16.049215,-42.216396
4898331092000.0,-7.007659537721785,-2.080117592377953,5.575527497007874,-0.38912117,-0.46273044,-0.16890424,99.35927,16.111893,-42.144413
4898336077000.0,-7.072816968062992,-2.180359897574803,5.866229930866141,-0.3399465,-0.49510628,-0.15118915,99.31987,16.163258,-42.07419
4898341089000.0,-7.145099249791242,-2.2613027420526266,6.156866521361297,-0.34116822,-0.5717699,-0.13164146,99.28082,16.218288,-41.988853
4898346126000.0,-7.2247238562578895,-2.3221920952131274,6.447261627099718,-0.3368922,-0.6600399,-0.10415252,99.22677,16.25557,-41.896954
4898351094000.0,-7.327664571836125,-2.3922543351136176,6.625310758583512,-0.34208453,-0.72326446,-0.09132435,99.16617,16.29692,-41.769653
4898356092000.0,-7.462629307082435,-2.475614865433737,6.665006476198374,-0.35827246,-0.75228053,-0.096516706,99.09585,16.33643,-41.63314
4898361454000.0,-7.595841611142177,-2.560353289396293,6.701375014704359,-0.36957347,-0.75900006,-0.10629055,99.00744,16.371653,-41.467525
4898366111000.0,-7.609696776887232,-2.5926816558247903,6.678283393289841,-0.36957347,-0.79259765,-0.12156218,98.91704,16.408558,-41.291595
4898371402000.0,-7.639822974404704,-2.631299248623224,6.642823473395394,-0.35308012,-0.84513205,-0.14294247,98.83905,16.46154,-41.119427
4898376226000.0,-7.743945079098481,-2.6765696405487507,6.561336399216071,-0.31245756,-0.8924741,-0.13958271,98.755394,16.505697,-40.9461
4898381276000.0,-7.8553703602186,-2.739356442513898,6.475919946857627,-0.2678644,-0.97066486,-0.1600467,98.67549,16.566038,-40.74836
4898386142000.0,-7.987097606426081,-2.954511173899934,6.392492782625083,-0.21594086,-1.035722,-0.1777618,98.59032,16.613111,-40.548042
4898391060000.0,-8.120232542071044,-3.171965133817017,6.308174082728729,-0.14935656,-1.0567969,-0.19028452,98.51737,16.660233,-40.35262
4898396117000.0,-8.157147881006672,-3.328826361261718,6.267545927624356,-0.12889257,-1.0421361,-0.21471913,98.45213,16.710093,-40.152393
4898401101000.0,-8.185364451228782,-3.4779724665568788,6.231267239675703,-0.105374254,-0.97066486,-0.24953845,98.40154,16.748243,-39.965385
4898406592000.0,-8.125965109862806,-3.58785432680134,6.177748180187966,-0.09896017,-0.8793405,-0.29077184,98.41466,16.834236,-39.79473
4898411196000.0,-8.025941133412552,-3.6497741231068384,6.125354242411149,-0.09682214,-0.81306165,-0.30970868,98.43807,16.916288,-39.640144
4898416092000.0,-7.913065372027335,-3.68339258523918,6.1100025,-0.080634214,-0.7501425,-0.3359759,98.5245,17.035223,-39.500114
4898421100000.0,-7.795075751252847,-3.7052425234624153,6.1100025,-0.06627888,-0.73731434,-0.35643986,98.61542,17.153606,-39.36688
4898426171000.0,-7.670655624731951,-3.746910740814868,6.159259585111815,-0.01282817,-0.72326446,-0.38087448,98.7371,17.282343,-39.234158
4898431142000.0,-7.544262886347391,-3.805245905503932,6.251623587409374,0.0290161,-0.7318166,-0.42241332,98.86738,17.414454,-39.09835
4898436165000.0,-7.410402222222222,-3.845947456410257,6.370622777777777,0.090713486,-0.72051555,-0.46028697,99.00725,17.544203,-38.956413
4898441095000.0,-7.27442829710145,-3.872264972575251,6.50659670289855,0.124311075,-0.6942484,-0.4718934,99.150375,17.670923,-38.818485
4898446111000.0,-7.185105120980927,-3.9094143109536783,6.617150700817438,0.15790866,-0.6704246,-0.48380527,99.3086,17.800966,-38.66107
4898451160000.0,-7.167538177929155,-3.962115323542234,6.687418931607629,0.1685988,-0.6386596,-0.4831944,99.46846,17.925781,-38.51707
4898456086000.0,-7.150929113773992,-4.008014793287488,6.723414754746998,0.1740966,-0.6123924,-0.5213735,99.6401,18.056866,-38.348526
4898461218000.0,-7.135795692240583,-4.033237074720312,6.627569927281125,0.18051068,-0.5867361,-0.53969944,99.80653,18.178984,-38.1952
4898466073000.0,-7.108948567744637,-4.0460056822605965,6.546408304667713,0.2098322,-0.56779927,-0.57635134,99.99401,18.312332,-38.027752
4898471121000.0,-7.043174580596546,-4.025767719309262,6.490753615981161,0.2321288,-0.56077427,-0.600786,100.18223,18.444105,-37.867878
4898476280000.0,-6.992432608824861,-3.996255960476693,6.494464019354352,0.26145032,-0.54153204,-0.61086524,100.38706,18.579866,-37.71006
4898481262000.0,-6.9708404599939655,-3.953071512505657,6.598826585593604,0.30268374,-0.5674938,-0.63316184,100.594826,18.712198,-37.5424
4898486159000.0,-6.949616703907075,-3.9106238525871175,6.7014085781415,0.32803464,-0.56138515,-0.63713247,100.79544,18.844194,-37.382065
4898491088000.0,-6.943185,-3.851851469178014,6.834150603796839,0.33964106,-0.56107974,-0.6365216,100.99379,18.970951,-37.21598
4898496140000.0,-6.943185,-3.7845272548056856,6.983225377318358,0.34513888,-0.5479461,-0.6569856,101.19977,19.095829,-37.056343
4898501091000.0,-6.918497214679859,-3.671105861440396,7.017032187898392,0.3371976,-0.5488624,-0.66798115,101.37309,19.205147,-36.88403
4898506092000.0,-6.882045010845781,-3.534410180325373,6.9988062049281705,0.3417791,-0.5494733,-0.691194,101.55617,19.314453,-36.71615
4898511247000.0,-6.788793082539683,-3.4014841134126983,6.872962583571429,0.31887165,-0.55771995,-0.7101309,101.71004,19.415932,-36.52829
4898516160000.0,-6.662763909722222,-3.280122826736111,6.681585003125,0.3203988,-0.5552765,-0.72021013,101.8675,19.511635,-36.346825
4898521092000.0,-6.582894532424327,-3.2424450543341767,6.538174977818386,0.3231477,-0.5662721,-0.7281514,102.00174,19.59177,-36.15762
4898526306000.0,-6.53610094681848,-3.2705211568362853,6.425870372364352,0.32895094,-0.54733527,-0.7357872,102.141846,19.671072,-35.981056
4898531175000.0,-6.470090961507818,-3.3059134352454933,6.402286530793745,0.32345316,-0.53969944,-0.7370089,102.27206,19.74344,-35.79994
4898536166000.0,-6.374885685539288,-3.353516222348372,6.478450751568569,0.31887165,-0.5158757,-0.7330383,102.406334,19.81353,-35.63268
4898541084000.0,-6.339983561584715,-3.415336790708952,6.589324096120648,0.32253686,-0.48380527,-0.7333437,102.5551,19.894564,-35.46542
4898546130000.0,-6.38685053161672,-3.4996972878285324,6.7533586869847735,0.3408628,-0.46273044,-0.72082096,102.698326,19.969036,-35.308002
4898551091000.0,-6.470740234612031,-3.576022971403661,6.87673174315606,0.32834008,-0.44257188,-0.7125743,102.84978,20.056314,-35.1365
4898556196000.0,-6.627027908156544,-3.642326847893055,6.933563503061126,0.32895094,-0.4382958,-0.6988298,102.99415,20.132072,-34.97318
4898561111000.0,-6.684218962507145,-3.668296467974853,6.963869169422747,0.3231477,-0.45448375,-0.7104363,103.144196,20.217869,-34.796043
4898566111000.0,-6.520013732939608,-3.6044388760525816,6.93650171847971,0.32345316,-0.42088616,-0.7156286,103.293655,20.297295,-34.639904
4898571149000.0,-6.3475148881767005,-3.5538330319618883,6.918643563577306,0.3036,-0.2959642,-0.70005155,103.45959,20.379143,-34.513794
4898576255000.0,-6.144209580285838,-3.5580686458207014,6.939821146375054,0.24831672,-0.18875736,-0.68019843,103.6258,20.467918,-34.39551
4898581273000.0,-5.944408163326115,-3.562231260459073,6.960633741455175,0.16707164,-0.12767084,-0.6597345,103.78652,20.560493,-34.277134
4898586098000.0,-5.828755010138971,-3.612216351732237,6.9623384,0.12950343,-0.10415252,-0.636827,103.948105,20.650768,-34.182
4898592297000.0,-5.706510756232687,-3.675325778603496,6.956195680255994,0.124311075,-0.14049901,-0.6246097,104.1044,20.749136,-34.09021
4898596117000.0,-5.786883132963989,-3.6543590906676857,6.896790137415226,0.1704314,-0.17867808,-0.6224717,104.25405,20.85055,-33.969624
4898601122000.0,-5.892187778393352,-3.626888338542363,6.81895643534244,0.17134771,-0.21624629,-0.61178154,104.40519,20.9683,-33.819393
4898606098000.0,-5.974631368381196,-3.707790581176239,6.778471124803305,0.19639318,-0.18845193,-0.5842926,104.55237,21.064924,-33.682224
4898611215000.0,-6.05174301845004,-3.828277713690008,6.749554136506688,0.23579398,-0.17959438,-0.59498274,104.69771,21.160913,-33.530895
4898616138000.0,-6.101511133169934,-3.879330306805074,6.765261992531719,0.2874121,-0.1414153,-0.6020077,104.84683,21.232384,-33.414894
4898621093000.0,-6.142560717320261,-3.9066965374855824,6.7971893092848905,0.34513888,-0.12339478,-0.6053675,104.99443,21.293476,-33.297997
4898626458000.0,-6.0996887807383295,-4.033310295535442,6.85019069501678,0.39064834,-0.10476339,-0.6065892,105.170555,21.361568,-33.194317
4898631315000.0,-6.019270928404352,-4.194145802623817,6.906956098372826,0.40439278,-0.09865474,-0.59803706,105.34318,21.421856,-33.095
4898636114000.0,-5.879902962082869,-4.272691217963455,6.921288968491036,0.40622538,-0.08032878,-0.59620446,105.52308,21.47588,-33.0043
4898641089000.0,-5.708240068542507,-4.317650459835292,6.917201760804667,0.41508293,-0.045814894,-0.5852089,105.69859,21.521708,-32.92347
4898646111000.0,-5.546093420028096,-4.360770055488661,6.927354272325908,0.43585235,-0.027488936,-0.5726862,105.89044,21.591599,-32.821545
4898651139000.0,-5.405975884808348,-4.399423196488059,6.966007463776841,0.42271876,-0.023518313,-0.5839872,106.08648,21.668653,-32.725018
4898656090000.0,-5.325300306804857,-4.431266279177136,6.9995459518425465,0.43493605,-0.0033597588,-0.57451874,106.28621,21.743532,-32.606503
4898661168000.0,-5.355847305004188,-4.4516310686871865,7.025001872278057,0.47036624,0.0036651916,-0.5525276,106.48125,21.814823,-32.488174
4898666107000.0,-5.532106532283921,-4.50067742771608,6.969163977498793,0.51893,-0.035430185,-0.5564982,106.67975,21.889786,-32.33229
4898671086000.0,-5.9004923323032346,-4.588168867696766,6.807995358281024,0.5513059,-0.07788532,-0.5751296,106.87369,21.958136,-32.18114
4898676203000.0,-6.1760121586097805,-4.703775824127908,6.626100820896032,0.57848936,-0.0983493,-0.60139686,107.07466,22.014114,-32.028976
4898681230000.0,-6.274799886354309,-4.860190052325581,6.420292793296853,0.63591075,-0.10903945,-0.6133087,107.26927,22.055422,-31.871244
4898686183000.0,-6.3629949409982,-5.012281600530353,6.224596273302396,0.67011917,-0.12522738,-0.6270532,107.49789,22.105867,-31.774542
4898691136000.0,-6.2102575833412255,-5.111111752059855,6.215611731129842,0.7107417,-0.11484267,-0.6218608,107.72392,22.1398,-31.684664
4898696134000.0,-6.056132545269438,-5.210839815323421,6.206545560772801,0.71959925,-0.16340645,-0.61361414,107.986946,22.211704,-31.60368
4898701219000.0,-5.818431455135031,-5.236631707095151,6.339627383757623,0.7360926,-0.23060162,-0.6065892,108.24422,22.271008,-31.522354
4898706082000.0,-5.584016120511084,-5.254663547284871,6.479374827770787,0.75808376,-0.2837469,-0.5879578,108.48716,22.323128,-31.436195
4898711144000.0,-5.525323912477082,-5.351972938048828,6.710910950834701,0.8045095,-0.34208453,-0.56046885,108.731255,22.385042,-31.308384
4898716153000.0,-5.502178977998649,-5.463068526874458,6.956247401312361,0.8445212,-0.398895,-0.5412266,108.96117,22.44067,-31.171106
4898721092000.0,-5.655320854492072,-5.48751,7.14687885607751,0.8885035,-0.43493605,-0.5122105,109.16553,22.480482,-30.980228
4898726236000.0,-5.867454017772559,-5.48751,7.330084696594246,0.93309665,-0.49510628,-0.49449542,109.35262,22.508577,-30.773676
4898731742000.0,-6.071981316432806,-5.527908576284585,7.426659233537549,0.9575313,-0.559858,-0.5112942,109.530914,22.535921,-30.528301
4898736132000.0,-6.229847234713438,-5.569452204743083,7.48066603729249,0.9776898,-0.6249151,-0.50823987,109.686615,22.546879,-30.27767
4898741105000.0,-6.299423659473151,-5.579870399270517,7.444116920851064,0.9682214,-0.68508536,-0.5131268,109.830376,22.540878,-30.02957
4898746175000.0,-6.324020607801419,-5.574951112340425,7.365406788936171,0.97219205,-0.70554936,-0.5183192,109.96782,22.525925,-29.78122
4898751322000.0,-6.252057446256173,-5.56625274832208,7.289545529073869,0.9804387,-0.7104363,-0.54244834,110.10961,22.511097,-29.544125
4898756158000.0,-6.154044353562431,-5.556918288743323,7.219536351204272,0.9850202,-0.7144069,-0.56230146,110.247116,22.495817,-29.30754
4898761213000.0,-5.987043714754424,-5.547260034400477,7.267349168423146,1.0204504,-0.7031059,-0.5702427,110.39586,22.47266,-29.085009
4898766132000.0,-5.80438096818453,-5.537892513422151,7.351654900974348,1.0601566,-0.691194,-0.5821546,110.54927,22.4505,-28.86385
4898771095000.0,-5.688491144079637,-5.416320454331121,7.395513313831645,1.1001683,-0.72204274,-0.60139686,110.70558,22.426413,-28.627274
4898776281000.0,-5.593080880370241,-5.24718448943416,7.425871248515543,1.1154399,-0.7516697,-0.6252206,110.866844,22.401041,-28.397146
4898781119000.0,-5.486852597637547,-5.0814272869592605,7.490356222805544,1.1349876,-0.7629707,-0.65668017,111.02713,22.36705,-28.130371
4898786109000.0,-5.356393385856783,-4.900791277929442,7.600745040529189,1.1527027,-0.75747293,-0.6621779,111.18339,22.329361,-27.866888
4898791086000.0,-5.356825450627922,-4.812453115940967,7.703358406948391,1.1658363,-0.73364913,-0.66920286,111.32938,22.26059,-27.594707
4898796132000.0,-5.47199983399945,-4.803593498175818,7.800813601045009,1.2018774,-0.73884153,-0.70952,111.48253,22.188017,-27.318377
4898801085000.0,-5.548661335922756,-4.796135132038621,7.879164892385341,1.176221,-0.7174612,-0.7538077,111.6268,22.09435,-27.037727
4898806156000.0,-5.559318336756639,-4.790806631621681,7.927121340498135,1.1560625,-0.68294734,-0.7996226,111.78386,21.997883,-26.761408
4898811180000.0,-5.509652043226126,-4.671676341118259,7.987658507817912,1.1218541,-0.65057147,-0.83169305,111.95422,21.899786,-26.502756
4898816182000.0,-5.410100808668976,-4.458351807422068,8.05876660321623,1.1044444,-0.61666846,-0.8576548,112.139984,21.809645,-26.255236
4898821081000.0,-5.279857314711483,-4.200377170215197,8.10626052175776,1.0876455,-0.59559363,-0.883922,112.34307,21.72559,-26.014956
4898826598000.0,-5.098742273757379,-3.858271267758522,8.13644616054085,1.0824533,-0.573297,-0.91904676,112.55935,21.649202,-25.785568
4898831100000.0,-4.938155071239163,-3.562059293319735,8.175891877613463,1.0952814,-0.57696223,-0.9669997,112.76377,21.538534,-25.540981
4898836169000.0,-4.740113868220296,-3.2055851899235086,8.240255511575727,1.1285735,-0.5739079,-1.003957,112.97765,21.429224,-25.307178
4898841104000.0,-4.6171690767323055,-2.926667988110719,8.352383710756085,1.2012665,-0.5751296,-1.0247264,113.16784,21.25742,-25.050413
4898846129000.0,-4.576939531636634,-2.7255204960059447,8.526711910644622,1.2809844,-0.5919284,-1.0436633,113.36568,21.08289,-24.793242
4898851087000.0,-4.584371273562772,-2.6143207647309743,8.650579084149298,1.3350459,-0.58246,-1.0729848,113.535866,20.84462,-24.513968
4898856085000.0,-4.705019698710616,-2.7117673255259334,8.659859422879302,1.3371841,-0.55680364,-1.1102476,113.71307,20.60742,-24.24015
4898861164000.0,-4.779525488199294,-2.797923589007454,8.606109197175362,1.3063353,-0.54275376,-1.1212431,113.86222,20.319693,-23.951897
4898866115000.0,-4.705120135409964,-2.842566808450373,8.360571839858768,1.2599095,-0.5500842,-1.1407908,114.02462,20.04718,-23.668919
4898871062000.0,-4.630774896014123,-2.8871739598509216,8.115232856492742,1.251052,-0.5467244,-1.1530081,114.203896,19.791182,-23.418428
4898876275000.0,-4.548117053496254,-2.929401038423118,7.869169513021762,1.239751,-0.55771995,-1.1224649,114.372894,19.550232,-23.172297
4898881524000.0,-4.462931148599714,-2.969752234356047,7.627061962896896,1.2363913,-0.61544675,-1.1090258,114.54441,19.31814,-22.918911
4898886100000.0,-4.400335662550536,-3.0734142670328706,7.579094568377571,1.2712106,-0.63804877,-1.1047498,114.74599,19.095621,-22.673426
4898891085000.0,-4.345789694410265,-3.266423363842503,7.717557784672175,1.3100005,-0.63591075,-1.106277,114.9406,18.875988,-22.426947
4898896135000.0,-4.25766008719073,-3.3300233673661133,7.830372811775759,1.4046847,-0.6478226,-1.1325442,115.15978,18.655754,-22.17451
4898901176000.0,-4.0107076070153465,-2.7554810364547446,7.810213548073912,1.5241088,-0.5531385,-1.1230757,115.379364,18.418741,-21.961294
4898906077000.0,-3.826981997787505,-2.2759532228253083,7.792715393458018,1.5048665,-0.49480084,-1.0516045,115.59623,18.22148,-21.715666
4898911198000.0,-3.8113694076243534,-2.0222497127099084,7.78100593045762,1.4535538,-0.46211955,-0.98563105,115.81722,18.00566,-21.495565
4898916986000.0,-3.793723308842021,-1.7355018282053325,7.767771333338639,1.3765849,-0.49266282,-0.96761054,115.98032,17.709068,-21.248465
4898921098000.0,-3.57040332543836,-1.5715263047567665,7.8302223503372,1.3182472,-0.51343226,-0.9798279,116.135826,17.423588,-21.023283
4898926334000.0,-3.254776058969517,-1.3686229947666575,7.92040146843809,1.2986995,-0.50518554,-0.9718866,116.27861,17.150017,-20.808147
4898931117000.0,-2.972218814505173,-1.16188606481346,8.074566162336712,1.2611313,-0.44868052,-0.9691377,116.41167,16.840956,-20.604511
4898936127000.0,-2.681401639251751,-0.9262240209217264,8.300200300386665,1.2308935,-0.43951756,-0.98715824,116.54339,16.54287,-20.39604
4898941098000.0,-2.497971968211413,-0.5642228405170433,8.345370955764075,1.201572,-0.5839872,-1.0607675,116.653465,16.222439,-20.09346
4898946129000.0,-2.3826404841057065,-0.1121230952585216,8.271558227882037,1.2330315,-0.4709771,-1.0308352,116.76133,15.893015,-19.880777
4898951286000.0,-2.7673693717261902,-0.2234160600148809,8.63725303794643,1.1988231,-0.441961,-0.9859365,116.86214,15.547967,-19.567947
4898956092000.0,-3.5403423408588437,-0.80069961051233,9.341735092155613,1.1997393,-0.50243664,-1.0607675,116.9907,15.201439,-19.263952
4898961169000.0,-3.665766933170391,-0.6192655997905028,9.411045176326816,1.1753048,-0.59131753,-1.1307116,117.07825,14.78535,-18.966063
4898966109000.0,-3.3973387344972066,0.0043135842178771,9.097190883379888,1.1068878,-0.51923543,-1.1230757,117.173035,14.388427,-18.705366
4898971107000.0,-2.999741331628047,0.4604360472564952,8.802654486608485,0.9621128,-0.49174652,-1.1362094,117.30669,14.087222,-18.463005
4898976440000.0,-2.3132335338549503,0.5833926980940918,8.53624842762564,0.8582657,-0.49449542,-1.1563679,117.44247,13.802375,-18.241041
4898981310000.0,-1.6646812604364964,0.6796264421670993,7.833638441976733,0.79779,-0.4981606,-1.1255192,117.51139,13.433676,-18.0109
4898987017000.0,-0.865956596697433,0.7637026948370349,6.188895966541679,0.7538077,-0.5112942,-1.0888673,117.58233,13.099336,-17.78621
4898991112000.0,-0.4404811669198312,0.8134022345388788,5.502983679264617,0.7498371,-0.59589905,-1.0732902,117.67875,12.763161,-17.473696
4898996126000.0,-0.295761118790436,0.8471702400602772,5.922672001185453,0.7696902,-0.6044512,-1.1087204,117.78408,12.439245,-17.186335
4899001070000.0,-0.1510130898518649,0.9165150040825324,6.323980851406401,0.75228053,-0.4978552,-0.9795224,117.89056,12.15777,-16.888111
4899006086000.0,0.0014727086350409,1.0859436838109513,6.696723654898157,0.7770206,-0.45723262,-0.9288206,118.02466,11.870469,-16.567163
4899011515000.0,0.1375224236583077,1.2766935657454794,7.0705387450528825,0.81489426,-0.40469822,-0.89552844,118.138626,11.552484,-16.254091
4899016165000.0,-0.0296060923345274,1.5121928236779256,7.100925963578983,0.82344633,-0.4034765,-0.8051204,118.22052,11.228949,-15.9493265
4899021070000.0,-0.2058997204947117,1.760606557045377,7.132979577959741,0.8017606,-0.40042216,-0.77274454,118.30313,10.854086,-15.621394
4899026280000.0,-0.0213533620309679,2.332426014505557,7.245548074361166,0.76174897,-0.42455134,-0.8026769,118.37714,10.482812,-15.293113
4899031211000.0,0.3285480699487033,3.018771187831291,7.389097274095183,0.7684685,-0.46120325,-0.7959574,118.43164,10.102606,-14.971201
4899036108000.0,0.2884534288,2.991794568,7.445392592,0.75869465,-0.4251622,-0.5867361,118.40858,9.664171,-14.710925
4899041092000.0,-0.0529961628735515,2.414696630508816,7.435774300574307,0.7284568,-0.4175264,-0.52412236,118.42395,9.24506,-14.430765
4899046123000.0,-0.0935858543303003,2.185863801976323,7.686978929165443,0.70829827,-0.39003745,-0.49510628,118.34303,8.6693125,-14.125691
4899051097000.0,0.0928344050357108,2.223147827570688,8.129727219743664,0.7110472,-0.3915646,-0.43279803,118.236534,8.095378,-13.824135
4899056762000.0,0.1102681076138716,1.9411731520289857,8.373985896066252,0.7309003,-0.40408736,-0.29993483,118.151276,7.6294026,-13.58096
4899061155000.0,0.014454435590062,1.5404978086956522,8.417537534161491,0.6945538,-0.4083634,-0.21899518,118.06492,7.1840262,-13.345003
4899066109000.0,-0.5551591573780489,1.074983816391006,8.19023376257622,0.6404922,-0.42332962,-0.13836098,117.94633,6.7160125,-13.062023
4899071200000.0,-1.45631877472561,0.5872427634813261,7.767524579077744,0.61422503,-0.50518554,-0.22510384,117.853745,6.2636495,-12.761785
4899076179000.0,-1.8463249416245628,0.1836342526544889,7.7648361764477265,0.58276546,-0.36957347,-0.16126843,117.74542,5.9015546,-12.53718
4899081119000.0,-1.76818073661096,-0.1473294758725223,8.150961110376992,0.5375614,-0.3295618,-0.07269296,117.65168,5.5612803,-12.266429
4899086259000.0,-1.805844863575109,-0.4415921442092747,8.418898282203726,0.54367006,-0.35460728,-0.003970624,117.543274,5.334872,-12.194025
4899091093000.0,-1.9755721982164087,-0.6617789905053508,8.519816893579073,0.54733527,-0.37690386,0.0061086523,117.42822,5.124172,-12.137902
4899096119000.0,-2.1506041650089878,-0.8854214168064709,8.621061834431796,0.52626044,-0.4025602,0.04886922,117.32406,4.9761863,-12.043637
4899101120000.0,-2.3227801451467944,-1.100641369505692,8.716715073497104,0.54519725,-0.419359,0.10598512,117.21413,4.817953,-11.950103
4899106077000.0,-2.4117351909990488,-1.2575559501998097,8.703307391246431,0.5497787,-0.42485678,0.17348573,117.096176,4.7162824,-11.878748
4899111212000.0,-2.383660909885823,-1.3370999339771643,8.530182649571836,0.55863625,-0.43371433,0.22693644,116.96846,4.6072764,-11.806101
4899116076000.0,-2.4447481088865874,-1.4252262441325738,8.605533890108752,0.5335908,-0.40011674,0.30665436,116.8552,4.5263333,-11.761405
4899121101000.0,-2.703931883873641,-1.5448495048783015,9.218603146970482,0.51343226,-0.4896085,0.38545597,116.725685,4.4398866,-11.682257
4899126604000.0,-2.926736357740084,-1.5730042007967104,9.68889021185642,0.50793445,-0.5180137,0.46120325,116.59407,4.365262,-11.627027
