timestamp,acc_x,acc_y,acc_z,gyro_x,gyro_y,gyro_z,ori_azimuth,ori_pitch,ori_roll
362923123000.0,-1.4838332529463156,-1.5797845963641322,9.631944527715918,-7.2137074,9.512699,4.837442,106.21983,10.4686165,-12.256302
362928089000.0,-1.4992035780343087,-1.5982770161887014,9.630023248678212,-7.2137074,-0.016493361,-0.84207773,107.39919,10.780279,-9.299898
362933074000.0,-1.5146327102460777,-1.6168401883243195,9.628094618794409,8.065865,0.73548174,0.034208454,106.32019,8.264581,-12.550021
362938084000.0,-1.530139220252289,-1.6354964556060536,9.626156316744687,-1.1820242,0.745561,0.035430185,106.618164,12.928292,-12.569846
362943046000.0,-1.5454971648931717,-1.6539739802072444,9.624236585253527,-1.1725558,0.74067414,0.03023783,106.69736,10.727554,-12.846302
362949140000.0,-1.5643587760663953,-1.6766668530245874,9.621878898089657,-1.1707232,0.7632761,0.04062254,106.778694,11.103696,-13.127538
362953117000.0,-1.576668035606256,-1.6914764288687905,9.620340249935616,-1.1954633,0.745561,0.029321533,106.86506,11.478049,-13.388801
362958066000.0,-1.5919857437940284,-1.7099055439940007,9.618425547970732,-1.1655309,0.7556403,0.031154128,106.94749,11.82694,-13.65964
362963056000.0,-1.607430351564686,-1.728487335158842,9.616494983653745,-1.1792754,0.7724391,0.03481932,107.03204,12.187329,-13.921044
362968037000.0,-1.6228471033293443,-1.7470356120710813,9.614567901316487,-1.1933253,0.79229224,0.047036625,107.11442,12.530886,-14.180943
362973040000.0,-1.6383319475531115,-1.765665812711903,9.612632307473223,-1.2241739,0.7284568,0.05009095,107.193985,12.875517,-14.4159155
362978175000.0,-1.6542253465315335,-1.7847875557242194,9.61064564459392,-1.2067643,0.7284568,0.07452556,107.269424,13.200457,-14.670469
362983131000.0,-1.66956472050175,-1.803242737490342,9.60872823442258,-1.2657127,0.68844515,0.08735373,107.34033,13.54791,-14.890006
362988083000.0,-1.6848917140248554,-1.8216830240330864,9.606812371797789,-1.2666291,0.634689,0.099571034,107.40335,13.8651905,-15.101903
362993040000.0,-1.7002341831068493,-1.8401419296050536,9.60489457473981,-1.2803736,0.57451874,0.11362094,107.45884,14.193454,-15.2968025
362998048000.0,-1.7157345028895052,-1.8587907492750988,9.60295704646336,-1.2858714,0.49602258,0.10995574,107.51057,14.512592,-15.466587
363003236000.0,-1.7317919427921449,-1.878109853997182,9.600949878592314,-1.3002267,0.4156938,0.10751228,107.55317,14.829346,-15.616039
363008147000.0,-1.746992036732365,-1.8963974645002957,9.599049878319624,-1.3081679,0.3643811,0.09896017,107.59477,15.139357,-15.747374
363013239000.0,-1.7627523459043466,-1.915359083861292,9.597079851565695,-1.3048081,0.25503623,0.054367006,107.63633,15.446197,-15.834397
363018776000.0,-1.7798899798173988,-1.9359777968231604,9.59493766025845,-1.239751,0.08582657,0.01282817,107.67008,15.731756,-15.8876
363023070000.0,-1.7931803897907863,-1.95196781912012,9.593276369040586,-1.0690142,0.027794369,0.004581489,107.70699,15.981494,-15.938499
363028199000.0,-1.8090552180985424,-1.9710672192973688,9.5912920274811,-1.0067059,-0.071776666,0.022296581,107.73041,16.23822,-15.929566
363033295000.0,-1.8248279077176344,-1.9900437338817436,9.589320453180628,-0.88147855,-0.16065755,0.102319926,107.73411,16.421335,-15.911973
363038080000.0,-1.8396380175738665,-2.00786214484843,9.587469200624158,-0.75594574,-0.26511553,0.19242255,107.71992,16.580492,-15.865686
363043114000.0,-1.855218810262742,-2.026607783470436,9.585521613295157,-0.6261369,-0.5815437,0.17806722,107.686516,16.702574,-15.73593
363048065000.0,-1.8705427086740696,-2.045044346207336,9.583606137557,-0.14813483,-0.7110472,0.14202617,107.64188,16.686192,-15.635896
363053186000.0,-1.8863927760876045,-2.0641139559378265,9.581624891090607,-0.025045475,-0.7498371,0.118507855,107.579025,16.729946,-15.477554
363058086000.0,-1.90155882379827,-2.0823606045766487,9.579729146570925,-0.0720821,-0.75502944,0.09162979,107.520905,16.693306,-15.293823
363063129000.0,-1.917167472493145,-2.1011397574512567,9.577778077262192,-0.08093964,-0.7119634,0.07880162,107.46837,16.61472,-15.116324
363068113000.0,-1.9325935095931364,-2.1196992057810298,9.575849834265023,-0.083383106,-0.57787853,0.11575896,107.41859,16.546873,-14.968761
363073062000.0,-1.9479112177809088,-2.1381283209062403,9.57393513230014,-0.07880162,-0.48838675,0.17287487,107.368126,16.480284,-14.825553
363078105000.0,-1.963519866475784,-2.156907473780848,9.57198406299141,-0.08246681,-0.50426924,0.37690386,107.26953,16.403936,-14.708709
363083139000.0,-1.97910065916466,-2.175653112402854,9.57003647566241,-0.051923547,-0.58123827,0.57971114,107.15902,16.31413,-14.6065235
363088387000.0,-1.9953438057739603,-2.195195645475617,9.568006094593162,-0.018936822,-0.6575964,0.63255095,107.03392,16.222069,-14.506601
363093060000.0,-2.009807263111091,-2.2125969901877016,9.56619817334,-0.027183503,-0.6924158,0.552833,106.88864,16.129395,-14.404869
363098039000.0,-2.025217824652194,-2.2311378194882514,9.564271864776016,-0.04062254,-0.70707655,0.4111123,106.7442,16.03164,-14.289386
363103232000.0,-2.041290740113722,-2.2504755432395585,9.562262762471784,-0.046120327,-0.7104363,0.2510656,106.698006,15.840216,-13.925012
363108098000.0,-2.0563515540239465,-2.2685955824796618,9.560380172097744,-0.029626964,-0.6826419,0.1740966,106.66961,15.658578,-13.577205
363113077000.0,-2.071762115565049,-2.287136411780212,9.55845386353376,-0.018936822,-0.61727935,0.03023783,106.70718,15.503366,-13.236906
363118113000.0,-2.0873490984774805,-2.305889498013907,9.556505502431486,0.023823744,-0.44959682,-0.07788532,106.76527,15.344238,-12.944387
363123058000.0,-2.102654426218142,-2.324303717915739,9.55459234801315,0.0842994,-0.20311269,-0.13622294,106.85864,15.190105,-12.698194
363128162000.0,-2.118451876731456,-2.343310022946871,9.552617678619582,0.14385876,0.032375857,-0.14569137,106.97707,15.034852,-12.502327
363133072000.0,-2.1336488755598984,-2.36159390964414,9.550718065233529,0.1872302,0.18570304,-0.12370021,107.11068,14.875814,-12.358434
363138163000.0,-2.1494060896201024,-2.380551805199291,9.548748425366238,0.24831672,0.24129178,-0.08979719,107.2482,14.702029,-12.2586355
363143086000.0,-2.164643324901655,-2.39888410137254,9.546843782453909,0.27305678,0.21502456,-0.04550946,107.37577,14.531208,-12.184952
363148107000.0,-2.180183881137421,-2.4175813305185656,9.544901224651184,0.2855795,0.13347405,0.008857546,107.48487,14.350998,-12.117685
363153164000.0,-2.195835861397183,-2.436412616674999,9.54294473892954,0.29077184,0.023823744,0.07238753,107.56937,14.169385,-12.042278
363158109000.0,-2.211141189137845,-2.4548268365768307,9.541031584511202,0.2770274,-0.09193522,0.13103059,107.62887,13.992996,-11.949622
363163130000.0,-2.2266817453736105,-2.473524065722856,9.53908902670848,0.24373524,-0.18112154,0.15424347,107.670845,13.82505,-11.840147
363168105000.0,-2.242079926467603,-2.4920499998000274,9.53716426569104,0.19272798,-0.2687807,0.14294247,107.695274,13.670137,-11.70566
363173103000.0,-2.257549295132482,-2.5106615814116258,9.535230606280962,0.13622294,-0.35216382,0.10903945,107.71177,13.531235,-11.553149
363178086000.0,-2.272972237120696,-2.5292173059355543,9.533302750170431,0.090713486,-0.46914452,0.058337633,107.72656,13.409801,-11.37106
363183078000.0,-2.2884230351149086,-2.547806544712085,9.531371412080173,0.059253927,-0.5891795,-0.016187929,107.7509,13.307623,-11.1676
363188094000.0,-2.303948115791786,-2.566485154828887,9.52943078871063,0.03604105,-0.70921457,-0.10354166,107.78468,13.223014,-10.934778
363193061000.0,-2.319321535991557,-2.584981298459301,9.527509122786286,0.026572637,-0.7987063,-0.19303341,107.83365,13.150791,-10.680315
363198037000.0,-2.3347228121973265,-2.603510956342317,9.525583974882212,0.044898596,-0.80756384,-0.25350907,107.895935,13.083317,-10.420304
363204090000.0,-2.3534575237876654,-2.626051153120029,9.523242150070445,0.06566802,-0.75686204,-0.2919936,107.97454,13.024131,-10.157393
363208183000.0,-2.3661258162937377,-2.6412926904422127,9.521658623066552,0.08307768,-0.61208695,-0.29535335,108.06488,12.964826,-9.926261
363213112000.0,-2.3813816222459563,-2.6596473294505296,9.519751658834402,0.115453534,-0.4129449,-0.3032946,108.17282,12.90049,-9.730513
363218105000.0,-2.396835515351947,-2.6782402920329047,9.517819933857504,0.15241088,-0.18997909,-0.2648101,108.27767,12.830717,-9.591771
363223060000.0,-2.4121717942103853,-2.6966917499931826,9.5159029105728,0.20219639,-0.026267206,-0.22143865,108.389946,12.751465,-9.496884
363228102000.0,-2.4277773477934828,-2.715467179061946,9.513952228150709,0.24404067,0.055588737,-0.1685988,108.49484,12.664963,-9.447146
363233191000.0,-2.4435283716301317,-2.734417627005408,9.51198336205669,0.30298916,0.083383106,-0.11453723,108.590996,12.560884,-9.431874
363238064000.0,-2.4586108513228,-2.7525637328864248,9.510098063476192,0.3659083,0.096516706,-0.05955936,108.67305,12.444844,-9.43893
363243045000.0,-2.4740276030874577,-2.771112009798664,9.508170981138935,0.42760566,0.13713925,-0.010995574,108.74206,12.313975,-9.464286
363248032000.0,-2.489462925522782,-2.789682629545971,9.506241577481855,0.47678033,0.17928895,0.04337143,108.79188,12.1699505,-9.497231
363253110000.0,-2.5051799031298763,-2.8085921156251423,9.504276967140845,0.528093,0.21624629,0.08460484,108.831024,12.010415,-9.541564
363258248000.0,-2.521082587443632,-2.8277250300549923,9.50228914360163,0.5729916,0.26908615,0.11881329,108.85763,11.840859,-9.603903
363263112000.0,-2.5361372111303004,-2.845837621683407,9.500407327000865,0.57940567,0.33933565,0.12461651,108.88126,11.671567,-9.680804
363268111000.0,-2.551609674906957,-2.86445292710085,9.498473280704143,0.5693264,0.43982297,0.11301007,108.90243,11.498061,-9.78011
363274034000.0,-2.5699420219661966,-2.8865090291187565,9.496181751155143,0.54733527,0.5180137,0.013133603,108.94726,11.334719,-9.8856325
363278116000.0,-2.5825762682427142,-2.9017096045766486,9.494602479904255,0.50243664,0.54550266,-0.09254608,108.99719,11.18591,-10.000887
363283116000.0,-2.598051827131149,-2.920328633799937,9.4926680467209,0.45906523,0.49663344,-0.15851954,109.061195,11.050067,-10.109408
363288606000.0,-2.613204376813991,-2.9370356033761897,9.49072280977389,0.4373795,0.4083634,-0.20158553,109.1447,10.928836,-10.206021
363293064000.0,-2.582910992065459,-2.8640754810700315,9.493282798870704,0.43860126,0.31978795,-0.2556471,109.244064,10.820856,-10.281265
363298049000.0,-2.5490364916232355,-2.782490418329744,9.496145415660212,0.45234573,0.2669481,-0.3210097,109.37524,10.786258,-10.376224
363303232000.0,-2.513816524563648,-2.6976648656350783,9.499121733176764,0.46303585,0.19914207,-0.37934732,109.51201,10.756211,-10.437179
363308114000.0,-2.480641938573892,-2.617765512315503,9.501925202618365,0.49663344,0.16707164,-0.39920044,109.65323,10.718888,-10.490053
363313160000.0,-2.446352925688944,-2.5351821168114927,9.504822848419735,0.5039638,0.1301143,-0.4034765,109.80019,10.689832,-10.518927
363318103000.0,-2.4127638272564647,-2.454284430728195,9.507661346873205,0.4999932,0.06627888,-0.3753767,109.93781,10.655611,-10.530996
363323047000.0,-2.3791679335380387,-2.373370378534016,9.510500419572766,0.4981606,-0.024740042,-0.33169982,110.066185,10.619872,-10.525024
363328217000.0,-2.3440363051957527,-2.2887575852807998,9.513469271890068,0.5018258,-0.1255328,-0.2773328,110.17715,10.583267,-10.500299
363333145000.0,-2.310549136052467,-2.208105390860712,9.516299156652092,0.5030475,-0.226631,-0.2003638,110.262184,10.5458555,-10.453964
363338140000.0,-2.276606682750781,-2.126356667011618,9.51916751590256,0.5198463,-0.32589662,-0.13164146,110.32698,10.50203,-10.383508
363343866000.0,-2.237696875422361,-2.032644316108732,9.522455649049345,0.5531385,-0.3933972,-0.09987647,110.37539,10.452466,-10.29763
363348067000.0,-2.209149879162024,-1.9638902842989128,9.524868056899438,0.5849035,-0.43585235,-0.0983493,110.40798,10.397971,-10.195566
363353257000.0,-2.173882345100812,-1.8789501688280823,9.527848394138664,0.61300325,-0.44684792,-0.13133603,110.43884,10.336809,-10.08633
363358236000.0,-2.140048616374266,-1.7974633027530793,9.530707565451593,0.6365216,-0.43493605,-0.18997909,110.47503,10.270916,-9.973728
363363129000.0,-2.1067992822391006,-1.7173839222138163,9.53351735160025,0.6310238,-0.41996986,-0.26297748,110.52367,10.209522,-9.859874
363368114000.0,-2.072924781796877,-1.635798859473529,9.536379968389756,0.6059783,-0.39614612,-0.2938262,110.57722,10.149841,-9.754337
363373065000.0,-2.039281321076827,-1.5547702445031857,9.539223060811992,0.5458081,-0.3933972,-0.29901853,110.64275,10.1059475,-9.64778
363378160000.0,-2.0046593391805123,-1.4713849095660212,9.54214884467208,0.4877759,-0.40225476,-0.27275133,110.70741,10.070285,-9.547568
363383192000.0,-1.9704654602988128,-1.389030639614341,9.545038451028107,0.42119157,-0.40500367,-0.23915374,110.77063,10.055286,-9.452681
363388194000.0,-1.9364754399955029,-1.307167352989082,9.547910830001248,0.35705075,-0.37934732,-0.16676621,110.81511,10.053808,-9.369279
363393054000.0,-1.9034503502965645,-1.227628054108882,9.550701666028733,0.29077184,-0.35460728,-0.07666359,110.84382,10.069787,-9.290001
363398098000.0,-1.86917492798351,-1.1450773908266334,9.553598163337911,0.24495697,-0.28252518,-0.03940081,110.87016,10.097186,-9.234491
363403156000.0,-1.834804371667208,-1.062297601992055,9.556502700092445,0.226631,-0.18417588,0.03634648,110.86228,10.129005,-9.2017765
363408166000.0,-1.8007599890763273,-0.98030338647975,9.559379673034352,0.20647246,-0.07269296,0.0720821,110.85962,10.173586,-9.194129
363413637000.0,-1.7635829796642095,-0.8907643938514429,9.562521373426607,0.1881465,0.16035213,0.07269296,110.85712,10.219907,-9.250836
363418115000.0,-1.733153689196752,-0.8174769493276703,9.565092847445346,0.14874569,0.24251351,0.060170226,110.84649,10.275635,-9.29696
363423055000.0,-1.6995849766221112,-0.7366283615770142,9.567929623160524,0.13591751,0.42241332,-0.043982297,110.879395,10.331987,-9.428996
363428093000.0,-1.6653503260247344,-0.65417589496005,9.57082267499313,0.07544186,0.54519725,-0.15943582,110.92064,10.412587,-9.5636015
363433090000.0,-1.6313942821511556,-0.5723944388891944,9.57369218273579,0.032070424,0.54092115,-0.18845193,110.969284,10.491318,-9.7076235
363438073000.0,-1.5975333722808245,-0.4908421083706682,9.576553651033104,0.023518313,0.4896085,-0.21197024,111.05247,10.580875,-9.861741
363443050000.0,-1.5637132341261712,-0.4093879745174265,9.57941167385384,0.04886922,0.43035457,-0.23732115,111.14286,10.67269,-10.005469
363448034000.0,-1.5298455289698938,-0.32781927788802,9.582273716397252,0.106595986,0.3894266,-0.2275473,111.22716,10.755254,-10.135822
363453112000.0,-1.4953390669346658,-0.2447121668358276,9.585189738073703,0.13652839,0.33414328,-0.1908954,111.30587,10.836661,-10.241506
363458071000.0,-1.4616412439270456,-0.1635526229784383,9.588037424464709,0.14996742,0.2144137,-0.15790866,111.37579,10.904784,-10.314366
363463072000.0,-1.4276580189096817,-0.0817057024640601,9.590909229191755,0.15577064,0.027488936,-0.1386664,111.431274,10.964278,-10.351082
363468103000.0,-1.3934709353139287,0.0006322013767396,9.593798261301686,0.15271631,-0.17440203,-0.11881329,111.46876,11.01965,-10.349906
363473100000.0,-1.35951489144035,0.0824136574475953,9.596667769044346,0.14263703,-0.37568212,-0.09560041,111.488716,11.073151,-10.297317
363478104000.0,-1.3255112805651468,0.1643096762946156,9.59954129650968,0.10720685,-0.55863625,-0.08032878,111.49462,11.133016,-10.195173
363483103000.0,-1.2915416461196751,0.2461238645872328,9.602411952744534,0.04886922,-0.70066243,-0.056199603,111.48236,11.199462,-10.052735
363488083000.0,-1.257701122107183,0.3276270967731167,9.60527169830356,-0.01740966,-0.80970186,-0.05467244,111.464066,11.277287,-9.872107
363493048000.0,-1.268761569324832,0.2824766003843563,9.588540179500995,-0.0842994,-0.84482664,-0.071776666,111.44102,11.369852,-9.677999
363498092000.0,-1.2846674411601535,0.223432072242827,9.569501324827003,-0.11178834,-0.86651236,-0.0870483,111.412415,11.467843,-9.4633
363503133000.0,-1.3005638527227734,0.1644226617825872,9.55047379381757,-0.16646078,-0.8155051,-0.09896017,111.244865,11.329616,-9.186037
363508063000.0,-1.316110234195441,0.1067126055300615,9.53186523839672,-0.21288654,-0.6737844,-0.09712757,111.08707,11.200578,-8.940469
363513126000.0,-1.3320760210912048,0.0474456654070315,9.51275466718054,-0.2434298,-0.49113566,-0.059253927,110.93232,11.084511,-8.733319
363518109000.0,-1.347789534048264,-0.0108848032149431,9.493946060352526,-0.24953845,-0.27580565,-0.02076942,110.79048,10.977032,-8.584557
363523058000.0,-1.3633958305813738,-0.0688172714489695,9.475265788389486,-0.23457226,-0.08582657,0.024740042,110.64766,10.872097,-8.489404
363528098000.0,-1.3792890887197602,-0.1278149760154461,9.456242031934902,-0.20861048,0.035124753,0.06352998,110.50597,10.765692,-8.441174
363533055000.0,-1.3949206126467404,-0.1858410913995779,9.437531563533046,-0.17012598,0.12370021,0.11148291,110.358734,10.65017,-8.442146
363538254000.0,-1.411315265238302,-0.2467000330744017,9.41790765285698,-0.13927728,0.18173242,0.14844026,110.20944,10.529207,-8.470616
363543045000.0,-1.4264233207424704,-0.302782970093844,9.399823760560569,-0.1301143,0.2302962,0.18570304,110.05134,10.402395,-8.523514
363548042000.0,-1.442180981638803,-0.3612773212285034,9.380962309964628,-0.13041973,0.26083946,0.21074851,109.88884,10.269499,-8.587943
363553096000.0,-1.4581183877164623,-0.4204389083076647,9.361885709742117,-0.13439035,0.2574797,0.23762658,109.71655,10.134305,-8.656977
363558077000.0,-1.473825593825054,-0.4787459651421131,9.343084652023808,-0.13927728,0.2657264,0.24740042,109.544785,9.999962,-8.736443
363563063000.0,-1.4895485670548148,-0.5371115514453775,9.32426472153124,-0.15393804,0.25686884,0.25992316,109.36435,9.869005,-8.809812
363568100000.0,-1.5054323649204997,-0.5960741383305644,9.305252288741212,-0.14294247,0.267559,0.267559,109.18481,9.732691,-8.889369
363573102000.0,-1.5212057929380012,-0.6546270189340399,9.28637196537101,-0.14660765,0.24617869,0.28893927,108.996826,9.604155,-8.956865
363578109000.0,-1.5369949880766718,-0.713238429006331,9.267472769226549,-0.14538592,0.23182335,0.3115413,108.808266,9.471431,-9.027892
363583063000.0,-1.5526170517309503,-0.7712294267091734,9.248773624489246,-0.13652839,0.23396139,0.31581733,108.61989,9.338155,-9.096018
363588126000.0,-1.5685828386267144,-0.8304963668322033,9.229663053273066,-0.11881329,0.23426682,0.3136793,108.427574,9.202015,-9.158813
363593067000.0,-1.5841639077659535,-0.8883351879161242,9.211012977748842,-0.10934488,0.23304509,0.31398472,108.23484,9.06619,-9.220559
363599005000.0,-1.6028889408662983,-0.9578447850819451,9.188599671037071,-0.10903945,0.23548855,0.29901853,108.04868,8.929705,-9.281128
363603075000.0,-1.615723377497892,-1.0054877726981275,9.173237232789027,-0.1160644,0.24037547,0.2941316,107.86099,8.793168,-9.341043
363608071000.0,-1.631477884969991,-1.063970417939024,9.15437955674794,-0.112704635,0.23396139,0.2828306,107.680405,8.655693,-9.396041
363613120000.0,-1.6473995239264814,-1.1230734755493694,9.135321829299688,-0.11026118,0.20891592,0.26236662,107.50457,8.522176,-9.445069
363618109000.0,-1.6631319574289436,-1.181474179533923,9.116490575142562,-0.10751228,0.17592919,0.23793201,107.33386,8.389463,-9.488011
363623121000.0,-1.6789369196887831,-1.2401441190750302,9.09757250622384,-0.12064589,0.13988814,0.21135938,107.16976,8.262841,-9.5209675
363628187000.0,-1.6949121668572484,-1.29944617687935,9.078450611343102,-0.1142318,0.0852157,0.18967366,107.01044,8.132182,-9.537761
363633065000.0,-1.7102945702697578,-1.3565475266561895,9.06003833277456,-0.12675454,0.05009095,0.16768251,106.85949,8.013183,-9.548463
363638112000.0,-1.7262099023777808,-1.4156271724790086,9.040988154436011,-0.13561209,0.004886922,0.13958271,106.715355,7.8941293,-9.539925
363643099000.0,-1.7419360290317754,-1.4740044646760362,9.022164449388592,-0.13988814,-0.029321533,0.121256754,106.575195,7.779324,-9.524636
363648043000.0,-1.757526558443716,-1.5318784034412465,9.00350305019981,-0.12644911,-0.047647487,0.08552113,106.448425,7.6656327,-9.500252
363653193000.0,-1.773766693247821,-1.592163756321674,8.984064092711499,-0.11484267,-0.048258353,0.076052725,106.32017,7.5547333,-9.472801
363658139000.0,-1.7893635295082295,-1.6500611068744109,8.965395144413014,-0.10445796,-0.043066,0.06047566,106.20472,7.4439635,-9.441642
363663103000.0,-1.8050171274048463,-1.708169163514885,8.946658254127192,-0.093767814,-0.044593163,0.046120327,106.092545,7.3318667,-9.409505
363668923000.0,-1.823370056445602,-1.7762974652166497,8.92469034488797,-0.06169739,-0.03726278,0.04062254,105.983864,7.212818,-9.382421
363673057000.0,-1.8364063122281595,-1.824689630033676,8.909086335129391,-0.06352998,-0.018936822,0.025350908,105.88338,7.1032286,-9.358433
363678147000.0,-1.852457241578236,-1.8842726292883123,8.889873850932204,-0.046731193,-0.0018325958,0.02076942,105.78241,6.981023,-9.337546
363683145000.0,-1.8682180558988024,-1.9427786863167351,8.87100862578141,-0.043982297,-0.004276057,0.008857546,105.68859,6.866264,-9.316465
363688046000.0,-1.883672988068689,-2.000149271650128,8.85250953245127,-0.03848451,-0.009468411,0.0018325958,105.595726,6.7479362,-9.300241
363693055000.0,-1.8772601104885231,-1.985164497012078,8.85931594153347,-0.030543262,-0.030848695,-0.005497787,105.50629,6.6306777,-9.279052
363698037000.0,-1.8657923449895848,-1.9533892214812925,8.87197830034451,-0.03481932,-0.032070424,-0.008857546,105.41874,6.5174394,-9.262794
363703069000.0,-1.8542094875045068,-1.9212950451523256,8.88476774023555,-0.041233405,-0.05375614,-0.0070249503,105.44506,6.621725,-9.253309
363708098000.0,-1.8426335355385968,-1.8892200028712496,8.897549555261788,-0.043066,-0.0711658,-0.0009162979,105.47142,6.723861,-9.244536
363718104000.0,-1.8196013272723632,-1.8254015751392063,8.922981020991067,-0.05009095,-0.11942416,-0.010995574,105.500305,6.8279023,-9.22034
363723092000.0,-1.808119750735088,-1.793588031512639,8.935658629531707,-0.034513887,-0.12583824,-0.016798794,105.52726,6.9235563,-9.20361
363728122000.0,-1.7965414969294558,-1.7615066112155993,8.948442986179545,-0.03359759,-0.12492194,-0.021685716,105.55563,7.0237274,-9.175527
363733505000.0,-1.784150693701679,-1.7271737512833996,8.962124535252174,-0.02565634,-0.11301007,-0.040317107,105.58992,7.1165195,-9.148733
363738804000.0,-1.7719532450106157,-1.6933766446921446,8.975592588110404,-0.008246681,-0.0983493,-0.04062254,105.62057,7.2039084,-9.124123
363743067000.0,-1.762140502272363,-1.6661871626392062,8.986427520991066,0.004581489,-0.08368854,-0.040927973,105.65702,7.289469,-9.102774
363748066000.0,-1.7506336054981373,-1.634303460837039,8.999133087369307,0.016798794,-0.07360926,-0.033292156,105.69157,7.368341,-9.084989
363753133000.0,-1.7389701836227618,-1.6019860539493451,9.012011484016345,0.02107485,-0.06536258,-0.03359759,105.72886,7.444738,-9.070826
363758130000.0,-1.7274678905279814,-1.5701151081791052,9.024711967151385,0.01740966,-0.05100725,-0.023518313,105.76152,7.51773,-9.06213
363763143000.0,-1.7159287679976365,-1.5381421141534473,9.037453116232024,0.01985312,-0.0421497,-0.01863139,105.79574,7.586715,-9.054127
363768038000.0,-1.704661262554581,-1.506921726011497,9.049894353963866,0.017104227,-0.021685716,-0.0143553335,105.828186,7.6564374,-9.053836
363773116000.0,-1.6929725204422543,-1.4745341609482034,9.062800708448504,0.010079277,-0.01038471,-0.01038471,105.85922,7.7251678,-9.05354
363778108000.0,-1.6814817365460883,-1.4426951052577817,9.075488483475544,0.0067195175,-0.002443461,-0.01038471,105.89081,7.79232,-9.057826
363783073000.0,-1.6700531023224372,-1.4110282559983778,9.088107634719384,-0.004886922,0.0076358155,-0.021991149,105.92508,7.862801,-9.065232
363788090000.0,-1.6585047724332012,-1.3790297499088653,9.100858950286424,-0.00580322,0.0061086523,-0.019547688,105.95513,7.9292355,-9.071708
363793051000.0,-1.647085345568441,-1.347388412713316,9.113467935043865,-0.0067195175,0.004276057,-0.020463986,105.98975,7.9982605,-9.079832
363798037000.0,-1.6356083727106117,-1.3155876251186758,9.126140460341306,-0.01038471,0.003970624,-0.021991149,106.02379,8.066878,-9.087529
363803167000.0,-1.6237999349327004,-1.2828684032252735,9.139178979149142,-0.00580322,-0.00030543262,-0.022602014,106.05744,8.132084,-9.093118
363808093000.0,-1.6124610724582382,-1.251450296588451,9.151699007150585,-0.011301007,-0.002443461,-0.03023783,106.09354,8.200234,-9.098424
363813128000.0,-1.600871309453992,-1.2193369862115933,9.164496071906422,-0.003970624,-0.005192355,-0.033292156,106.12815,8.262006,-9.102121
363818109000.0,-1.5894058457947762,-1.1875680886967714,9.177155889095864,-0.004581489,-0.02076942,-0.032375857,106.16301,8.326467,-9.101072
363823054000.0,-1.578023248365581,-1.15602879975664,9.189724207907704,0.0061086523,-0.03573562,-0.034513887,106.199326,8.384743,-9.098856
363828120000.0,-1.5663621283299285,-1.1237177708849098,9.202600062933142,0.0061086523,-0.046731193,-0.038179077,106.23513,8.445066,-9.093172
363833064000.0,-1.554981832740456,-1.092184859960742,9.215165840123383,0.01863139,-0.058643065,-0.04886922,106.272675,8.498172,-9.0826025
363838127000.0,-1.5433276182239717,-1.059892965136903,9.22803407028402,0.022602014,-0.059864793,-0.045814894,106.30709,8.552188,-9.072488
363843106000.0,-1.5318667582442014,-1.028136823654008,9.240688804230262,0.0106901415,-0.08032878,-0.046731193,106.34404,8.606901,-9.053159
363848063000.0,-1.5204565387383329,-0.9965209985223132,9.253287622501302,0.009468411,-0.095294975,-0.05589417,106.38239,8.656824,-9.035055
363854131000.0,-1.506488975300445,-0.9578191976550297,9.268710182369908,0.0106901415,-0.10140363,-0.046731193,106.41497,8.707686,-9.014849
363858176000.0,-1.4971780336217602,-0.9320201230821616,9.278991041741778,0.004276057,-0.09621128,-0.04886922,106.45299,8.761064,-8.9932575
363863123000.0,-1.4857908325131195,-0.9004680781101031,9.29156444379682,-0.010079277,-0.09407325,-0.044898596,106.48599,8.814743,-8.970342
363868099000.0,-1.4743368780525177,-0.8687310706750992,9.30421155287826,-0.023518313,-0.096516706,-0.040011674,106.51913,8.869102,-8.948069
363873055000.0,-1.4629289603863718,-0.8371216235593679,9.3168078295277,-0.033292156,-0.082161374,-0.01740966,106.54674,8.924492,-8.932605
363878079000.0,-1.451364517619076,-0.8050784713581101,9.32957693644594,-0.035430185,-0.07941248,-0.004276057,106.5749,8.980633,-8.913441
363883140000.0,-1.4397149067820374,-0.7727993325661981,9.342440083363378,-0.039095376,-0.06994407,0.0076358155,106.597855,9.037834,-8.901522
363888023000.0,-1.4284750234156551,-0.7416554806158115,9.35485082163602,-0.035430185,-0.077579886,0.015577064,106.61756,9.091973,-8.886234
363893053000.0,-1.4169325101717918,-0.7125932089942469,9.407434238098563,-0.035124753,-0.081855945,0.01863139,106.63593,9.146587,-8.875071
363898037000.0,-1.405500949918919,-0.6842524711310917,9.465544638713284,-0.020158553,-0.07544186,0.04734206,106.644936,9.193357,-8.866564
363903241000.0,-1.3935647862840976,-0.6546607376158708,9.526220105165727,-0.029932396,-0.081855945,0.086437434,106.58175,9.127035,-8.834012
363908116000.0,-1.382383234070463,-0.6269398112348753,9.583059632251755,-0.039095376,-0.07574729,0.08979719,106.52204,9.058087,-8.807892
363913119000.0,-1.3709080944346037,-0.5984910328381324,9.641391561279733,-0.03359759,-0.024740042,0.063224554,106.46231,8.98863,-8.79446
363918110000.0,-1.359460478619578,-0.570110490567866,9.699583577625653,-0.04917465,0.014660766,0.08827003,106.38737,8.926473,-8.783201
363924121000.0,-1.3456733380336996,-0.5359298775471142,9.769668171946492,-0.044898596,0.056505036,0.03481932,106.34549,8.862982,-8.783043
363928177000.0,-1.3363702865919558,-0.5128660667981259,9.816958658482063,-0.053145275,0.11209377,0.02076942,106.288155,8.805563,-8.801056
363933124000.0,-1.3250235914533195,-0.4847357236582725,9.874637661660438,-0.050396383,0.15363261,0.043676864,106.23701,8.745589,-8.826037
363938128000.0,-1.3135461581657244,-0.4562812589176567,9.932981250078589,-0.06688975,0.19425514,0.06872234,106.19176,8.694855,-8.865262
363943117000.0,-1.302103129654171,-0.4279120893351362,9.991149947644162,-0.06841691,0.23854288,0.06078109,106.15145,8.640427,-8.915752
363948074000.0,-1.2907334979981735,-0.3997248827565526,10.04894554472425,-0.06688975,0.29779682,0.04642576,106.10844,8.589634,-8.981314
363953208000.0,-1.2789578899848817,-0.3705311933124435,10.108804853864692,-0.07880162,0.33078352,0.050701816,106.06317,8.543214,-9.050573
363958156000.0,-1.2676089011945093,-0.3423951638287171,10.166495516433235,-0.07513642,0.32559118,0.06719518,106.01933,8.492657,-9.123325
363963109000.0,-1.2562484441454569,-0.3142307026256256,10.22424447595264,-0.07238753,0.31520647,0.06872234,105.979614,8.446694,-9.200863
363968106000.0,-1.2447870664200142,-0.2858160422921209,10.282506448639587,-0.076358154,0.30909783,0.07238753,105.93452,8.40123,-9.276438
363973053000.0,-1.2334403712813784,-0.2576856991522675,10.34018545181796,-0.101098195,0.30634892,0.08155051,105.88714,8.361036,-9.348004
363978150000.0,-1.2217496283823228,-0.2287024044314604,10.399613363522056,-0.13500121,0.30024028,0.09712757,105.836555,8.32455,-9.415127
363983098000.0,-1.2104006395919509,-0.200566374947734,10.4573040260906,-0.17592919,0.28710666,0.11148291,105.78354,8.296938,-9.477706
363988124000.0,-1.1988727459661606,-0.1719868106419116,10.515904121092522,-0.20219639,0.25503623,0.112704635,105.72922,8.274665,-9.531286
363994012000.0,-1.185367724543826,-0.1385056179175419,10.58455461042227,-0.24129178,0.17134771,0.10445796,105.67145,8.267068,-9.564877
363998039000.0,-1.17613118900243,-0.1156067111408712,10.63150697464287,-0.31031954,0.14996742,0.09407325,105.616035,8.274959,-9.605519
364003168000.0,-1.1643670492478182,-0.0864414534161274,10.691307986832454,-0.34788775,0.1133155,0.09712757,105.556,8.284154,-9.617689
364008115000.0,-1.1530203541091824,-0.058311110276274,10.748986990010827,-0.41416663,0.080634214,0.10323623,105.49856,8.320255,-9.624189
364013117000.0,-1.1415475081250592,-0.0298680182234042,10.807307259648631,-0.49266282,0.053145275,0.09132435,105.44542,8.369887,-9.621056
364018052000.0,-1.1302283368072568,-0.0018059112100271,10.864846350144948,-0.5766568,0.070554934,0.056199603,105.399315,8.43894,-9.620844
364023037000.0,-1.118794482902648,0.0265405129970012,10.92296841014984,-0.6310238,0.19517145,-0.016798794,105.37271,8.522048,-9.641486
364028201000.0,-1.1069500653372717,0.0559047927573009,10.983177500995424,-0.6805039,0.33964106,-0.1337795,105.37225,8.628683,-9.669408
364033163000.0,-1.095568965422594,0.0841204310552498,11.041031395026373,-0.68783426,0.45631635,-0.20066923,105.38385,8.736975,-9.722645
364038128000.0,-1.0841809845527075,0.1123531283848175,11.09892026722783,-0.6637051,0.5910121,-0.20097467,105.41771,8.84973,-9.817256
364043112000.0,-1.0727494242998348,0.1406938662479728,11.157030667842548,-0.64934975,0.8249735,-0.18051068,105.47465,8.966573,-9.967474
364048062000.0,-1.0613958482059904,0.1688412684194453,11.214744649191436,-0.7318166,1.0503827,-0.15851954,105.53697,9.101073,-10.148756
364053127000.0,-1.0497785021624912,0.1976426001363157,11.273799460410046,-0.8707884,1.1337659,-0.14935656,105.60084,9.244325,-10.349613
364058162000.0,-1.0382299656710758,0.2262733415369953,11.33250448992351,-0.9935723,1.0635164,-0.15424347,105.665215,9.40246,-10.562322
364063833000.0,-1.0252226666754816,0.2585205976409186,11.398624891586044,-1.0757337,0.88606006,-0.18081611,105.73182,9.584643,-10.758249
364068112000.0,-1.0154081308965806,0.2828524630735914,11.44851542212986,-1.1670581,0.65301496,-0.23945917,105.803116,9.800945,-10.908266
364073060000.0,-1.0040591421062086,0.310988492557318,11.506206084698404,-1.2492194,0.3747658,-0.26358834,105.86147,10.032013,-10.989218
364078138000.0,-0.9924119785901396,0.3398637467445374,11.565412467989244,-1.3429873,0.118202426,-0.26175576,105.919044,10.288144,-11.004833
364083171000.0,-0.9808680294021964,0.3684831154574711,11.624094178722364,-1.4373659,0.01038471,-0.24251351,105.97293,10.561972,-10.982294
364088024000.0,-0.9697369375267568,0.3960789422732601,11.680677199224618,-1.4926492,-0.15607607,-0.2415972,106.0163,10.845764,-10.871259
364093074000.0,-0.9665001063411924,0.3196700220028594,11.613376025839008,-1.5839735,-0.2415972,-0.21777347,106.04786,11.157105,-10.757024
364098036000.0,-0.9655532211471882,0.2164595993820955,11.513479708936302,-1.6496416,-0.24373524,-0.2134974,106.082344,11.470895,-10.622011
364103171000.0,-0.9645733228257024,0.1096507480806802,11.410100509561978,-1.6862935,-0.15943582,-0.1826487,106.0169,11.660776,-10.471653
364108126000.0,-0.9636277734229836,0.0065859266204051,11.310345118539626,-1.6942347,0.009773844,-0.15943582,105.96178,11.85787,-10.349994
364113113000.0,-0.9626761175458172,-0.0971445001449614,11.209945494921367,-1.6740762,0.26175576,-0.13255776,105.91129,12.051884,-10.281761
364118103000.0,-0.9617238891866716,-0.2009373274076804,11.109485474497244,-1.6358972,0.5674938,-0.101098195,105.87067,12.237808,-10.280392
364123058000.0,-0.9607783397839526,-0.3040021488679554,11.009730083474892,-1.5592335,0.91324353,-0.058643065,105.84092,12.401444,-10.363317
364128145000.0,-0.959807601174138,-0.4098125922117333,10.907317232994426,-1.4654657,1.2501358,-0.023823744,105.82593,12.544566,-10.528109
364133374000.0,-0.9588097650839632,-0.518576659096855,10.802045600369627,-1.3628404,1.5271631,-0.019242255,105.82758,12.659624,-10.767778
364138088000.0,-0.9579102050669264,-0.6166286406031591,10.707142086085192,-1.2672399,1.7171422,-0.052839845,105.84723,12.747673,-11.068307
364143107000.0,-0.9569524427153128,-0.7210246726736174,10.60609822987103,-1.2024882,1.8072448,-0.108123146,105.883156,12.814429,-11.406294
364148057000.0,-0.956007847449226,-0.823985493304972,10.506443500191788,-1.1462886,1.7886134,-0.19150625,105.940895,12.85895,-11.750845
364153207000.0,-0.9550250867178433,-0.9311063470931488,10.402762316788133,-1.1038336,1.6545285,-0.29443705,106.01665,12.892912,-12.071049
364158134000.0,-0.954084880480266,-1.0335887639114687,10.3035706292872,-1.1081096,1.423316,-0.40225476,106.10789,12.929488,-12.341541
364163126000.0,-0.9531322704664672,-1.137423191505756,10.20307034432583,-1.135293,1.1270463,-0.5137377,106.21412,12.967604,-12.539681
364168108000.0,-0.9521815687259332,-1.241049617442202,10.10277138205068,-1.1869112,0.81153446,-0.61361414,106.329155,13.020293,-12.654369
364173059000.0,-0.9512367826325202,-1.344031238239341,10.00309652010282,-1.2409728,0.5186246,-0.6960809,106.45119,13.087593,-12.682324
364178143000.0,-0.9502666165046852,-1.449779281085766,9.90074406642822,-1.2925909,0.3848451,-0.7959574,106.59521,13.176122,-12.65775
364183142000.0,-0.949312670699601,-1.5537593098405422,9.800102855586497,-1.3261884,0.14385876,-0.83016586,106.71639,13.275208,-12.522061
364188295000.0,-0.9483293374862386,-1.6609425641260716,9.696361275376974,-1.3338243,-0.055588737,-0.9092729,106.87186,13.389782,-12.35382
364193071000.0,-0.94741794617496,-1.7602841559109903,9.600209560437971,-1.3292428,-0.21533,-0.9798279,107.020546,13.510576,-12.132603
364198033000.0,-0.9464710609809556,-1.8634945785317545,9.500313243535269,-1.3179418,-0.3304781,-1.0503827,107.18085,13.63502,-11.8695
364203083000.0,-0.945507382982221,-1.96853541574152,9.398645286993816,-1.3081679,-0.41325033,-1.1221595,107.35242,13.761334,-11.57395
364208349000.0,-0.9445024862809662,-2.078069088760654,9.292628760430002,-1.2861768,-0.46273044,-1.1991285,107.539314,13.883879,-11.2592125
364213128000.0,-0.943590522487708,-2.1774730810429253,9.196416648685137,-1.2712106,-0.49693888,-1.2705997,107.73955,14.007745,-10.930441
364218100000.0,-0.9426417290204392,-2.2808915053215304,9.096319009096208,-1.2360858,-0.5491679,-1.3515394,107.958405,14.122932,-10.5865135
364223060000.0,-0.9416952254810876,-2.384060327610726,8.996462956730745,-1.2241739,-0.6203337,-1.4327844,108.19224,14.242645,-10.232472
364228123000.0,-0.9407290667271088,-2.489371566975685,8.89453328069721,-1.2357804,-0.6795876,-1.5143349,108.44427,14.361846,-9.871518
364233138000.0,-0.9397720676848008,-2.5936843983830067,8.793569953557533,-1.2321151,-0.7180721,-1.5760323,108.707825,14.474937,-9.502689
364238116000.0,-0.938822129253573,-2.6972276236563166,8.693351520356874,-1.219287,-0.72418076,-1.6417004,108.99109,14.591202,-9.13099
364243094000.0,-0.937872190822345,-2.800770848929626,8.593133087156215,-1.1911873,-0.64996064,-1.6933185,109.2882,14.702663,-8.778252
364248893000.0,-0.9367655831560752,-2.921391010311692,8.476386061416836,-1.1551461,-0.54428095,-1.7333301,109.59942,14.809121,-8.439223
364253167000.0,-0.9359499871626906,-3.0102909188729865,8.390340745326114,-1.1209377,-0.4266894,-1.7580702,109.92379,14.908534,-8.13112
364258068000.0,-0.9350147424356016,-3.11223253138092,8.291672496809353,-1.071763,-0.33169982,-1.7785342,110.26044,14.99424,-7.852017
364263136000.0,-0.9340476295449904,-3.217647771574799,8.189642159432708,-1.0280862,-0.2761111,-1.7968601,110.60488,15.072369,-7.6002502
364268042000.0,-0.9331114306812692,-3.319693384911653,8.090873249572837,-0.9896017,-0.26145032,-1.8008307,110.95033,15.138385,-7.369439
364273056000.0,-0.9321546224662878,-3.42398541615319,7.989930054701782,-0.95722586,-0.27580565,-1.8011361,111.29685,15.194776,-7.150748
364278108000.0,-0.9311905628129,-3.5290678536945244,7.888221833623089,-0.93737274,-0.30115658,-1.7931949,111.6374,15.244359,-6.9390087
364283065000.0,-0.9302446317555282,-3.632174275486368,7.788426178063494,-0.9285152,-0.28863382,-1.7794504,111.973175,15.288615,-6.739815
364288023000.0,-0.9292985098708298,-3.735301497443996,7.688610390235275,-0.91751957,-0.24953845,-1.7757853,112.30477,15.327677,-6.546486
364293051000.0,-0.9155580226224188,-3.811437346791053,7.638322834035559,-0.9068295,-0.17531833,-1.7614299,112.62841,15.364568,-6.3735304
364298109000.0,-0.8944097597202001,-3.871722053525099,7.616931479852562,-0.9111055,-0.070554934,-1.7354681,112.94827,15.403335,-6.225802
364303168000.0,-0.8732573156667554,-3.9320186789437503,7.595535896457587,-0.9266826,0.059864793,-1.7165314,113.47312,15.859947,-6.048187
364308070000.0,-0.852761312355827,-3.9904440708793554,7.574804299343105,-0.93492925,0.2134974,-1.7110336,113.99776,16.309412,-5.905097
364313317000.0,-0.8308228118718529,-4.052981409003819,7.552613624096331,-0.95630956,0.36743546,-1.6951511,114.51849,16.760487,-5.797399
364319151000.0,-0.8064299756180879,-4.122515014991645,7.527940401418671,-0.98715824,0.50701815,-1.6716328,115.04109,17.210861,-5.7248583
364323103000.0,-0.7899060659720682,-4.169617656552132,7.511226555682964,-1.0607675,0.6093381,-1.6771306,115.571396,17.674673,-5.6775503
364328220000.0,-0.7685111151475026,-4.230605565677896,7.489585677993285,-1.1307116,0.677755,-1.6756034,116.09694,18.14014,-5.654951
364333062000.0,-0.7482659809101475,-4.288315836537178,7.469107833597462,-1.1691961,0.7281514,-1.6841555,116.62885,18.612532,-5.6461616
364338261000.0,-0.7265281756850319,-4.350281077800584,7.447120160525616,-1.1478158,0.7693848,-1.6835446,117.158066,19.08152,-5.6460433
364343062000.0,-0.7064544686479518,-4.407502682591044,7.426815713820877,-1.0852021,0.8005389,-1.6948457,117.69138,19.544088,-5.6462436
364348047000.0,-0.6856114297852473,-4.466917325348897,7.405733092112249,-0.9831876,0.8197812,-1.704314,118.22143,19.98314,-5.645971
364353091000.0,-0.6645217030001958,-4.527035170498468,7.384400946896939,-0.91599244,0.82619524,-1.7140878,118.750595,20.40885,-5.641158
364358111000.0,-0.6435323238445735,-4.586866967217508,7.363170302769093,-0.8881981,0.80756384,-1.7336355,119.2781,20.812084,-5.62511
364363051000.0,-0.6228774367870489,-4.645745269168118,7.34227799559946,-0.92271197,0.763887,-1.7559321,119.80047,21.209429,-5.5954757
364368116000.0,-0.6016999058262467,-4.706113406694401,7.320857036932619,-0.9642508,0.6914995,-1.7800614,120.316734,21.596638,-5.5442886
364373097000.0,-0.5808735915684471,-4.765480374713832,7.299791332071901,-0.9963212,0.6389651,-1.808772,120.83077,21.98654,-5.4776945
364378108000.0,-0.5599218427738608,-4.825204903271425,7.278598750851854,-1.0100657,0.5390886,-1.8197676,121.32673,22.377394,-5.3731894
364383079000.0,-0.5391373400283233,-4.884452684444802,7.257575338110914,-1.0158689,0.46120325,-1.8051068,121.81314,22.769121,-5.255596
364388972000.0,-0.5144978158522113,-4.954689492824345,7.232652591926572,-1.0149527,0.48624873,-1.7760907,122.29239,23.156374,-5.1355805
364393040000.0,-0.4974888926639501,-5.0031747017990575,7.215448157601457,-1.0387764,0.5225952,-1.7605137,122.75746,23.545626,-4.9953346
364398028000.0,-0.4766333103475669,-5.062625100610727,7.194352848256896,-1.0467176,0.6301075,-1.7455474,123.21991,23.9229,-4.8807483
364403151000.0,-0.4552132726156441,-5.1236845218441225,7.172686595295351,-1.0897835,0.7742717,-1.7189748,123.67787,24.309792,-4.7851934
364408113000.0,-0.4344664002311426,-5.182825034856051,7.15170124546221,-1.135293,0.93645644,-1.6804903,124.137825,24.692743,-4.72161
364413075000.0,-0.4137195278466411,-5.241965547867979,7.130715895629067,-1.1502593,1.1044444,-1.6401732,124.6026,25.072369,-4.695199
364418042000.0,-0.3929517497060084,-5.301165654302935,7.109709399736038,-1.1264355,1.2599095,-1.5916094,125.067795,25.446535,-4.706599
364423027000.0,-0.3721087108433039,-5.360580297060787,7.088626778027409,-1.0861185,1.4010195,-1.5354098,125.533875,25.81303,-4.755668
364428087000.0,-0.3509520856386329,-5.420888841164043,7.067226965420457,-1.0225884,1.4874569,-1.4987578,125.99927,26.159672,-4.8254194
364433072000.0,-0.3301090467759283,-5.480303483921896,7.046144343711829,-0.9456194,1.5216653,-1.4636332,126.455826,26.484312,-4.9152193
364438065000.0,-0.309232558703414,-5.539813476156591,7.02502788830738,-0.8741482,1.4746287,-1.430341,126.89786,26.786646,-5.0009966
364443035000.0,-0.2884522371091027,-5.599049338645362,7.004008704778417,-0.820392,1.400714,-1.4074335,127.32803,27.06711,-5.0824285
364448092000.0,-0.2673081553581103,-5.659322126694803,6.982621579807398,-0.8051204,1.3121386,-1.3863586,127.73578,27.333292,-5.1437664
364453082000.0,-0.2464442107392748,-5.718796362875683,6.961517812038881,-0.82527894,1.2654073,-1.366811,128.12776,27.58988,-5.1924424
364458067000.0,-0.2256011718765702,-5.778211005633534,6.940435190330254,-0.86284715,1.2993103,-1.3509285,128.50865,27.842768,-5.2351174
364463130000.0,-0.2044320032182205,-5.838555305790607,6.919022690087368,-0.8686504,1.3888022,-1.3139712,128.87523,28.08716,-5.2797537
364468109000.0,-0.1836140512628732,-5.897898436440827,6.897965443650606,-0.8585711,1.4819591,-1.2669345,129.23528,28.332747,-5.3314743
364473097000.0,-0.16275846894649,-5.957348835252496,6.876870134306045,-0.81581056,1.5155567,-1.2144,129.58348,28.565239,-5.3901205
364478081000.0,-0.1419196112350117,-6.016751559325742,6.855791741809395,-0.806953,1.5601498,-1.1893547,129.93587,28.799978,-5.470613
364483080000.0,-0.12101803625514,-6.07633306366807,6.83464991113308,-0.7635816,1.5586227,-1.1481212,130.264,29.006899,-5.5505934
364488032000.0,-0.1003129753829007,-6.135354389833945,6.813706853419714,-0.72143185,1.5326608,-1.1099422,130.58424,29.207327,-5.631702
364493105000.0,-0.1048334818917381,-6.170784681205813,6.76321601997071,-0.69027776,1.4950926,-1.0830641,130.89,29.39424,-5.707122
364498096000.0,-0.1161845859302892,-6.198925959153181,6.705751053330925,-0.6435465,1.4340062,-1.0461067,131.17175,29.560055,-5.771005
364503131000.0,-0.1276357598100939,-6.22731532690814,6.647779483098243,-0.6160576,1.328021,-1.001819,131.62245,29.975872,-5.7462964
364508261000.0,-0.1393029935744232,-6.256240343111305,6.588714109653623,-0.5821546,1.2131784,-0.95111716,132.04565,30.367464,-5.704603
364513057000.0,-0.1502106062710554,-6.28328213213867,6.533494318027815,-0.54275376,1.1154399,-0.90133166,132.43877,30.740545,-5.642417
364518045000.0,-0.1615548873658848,-6.311406494871884,6.476063892542091,-0.5103779,0.99265605,-0.8384125,132.78935,31.096272,-5.551505
364523047000.0,-0.1729310088647493,-6.33960979527115,6.418472275004081,-0.45142943,0.8921687,-0.7715228,133.1096,31.424065,-5.447446
364528121000.0,-0.1844708810129378,-6.368219060810109,6.360051669768604,-0.3717115,0.7883216,-0.6914995,133.38678,31.727047,-5.3224087
364533079000.0,-0.1957469326705488,-6.396174271401785,6.302966655823491,-0.3231477,0.6805039,-0.5852089,133.6203,32.012363,-5.185427
364538119000.0,-0.2072094781232232,-6.424591831180333,6.244937517000707,-0.28893927,0.6123924,-0.49571714,133.8241,32.270866,-5.0428276
364543102000.0,-0.2185423876451828,-6.452688001889958,6.187564660105085,-0.2669481,0.573297,-0.41416663,133.98804,32.510197,-4.897219
364548105000.0,-0.2299207834586213,-6.480896940693941,6.129961528849056,-0.25778514,0.54519725,-0.32436943,134.11617,32.73509,-4.754344
364553113000.0,-0.2413105508449295,-6.5091340715215145,6.072300829002924,-0.24129178,0.56688297,-0.22602014,134.22142,32.943886,-4.629659
364558203000.0,-0.2528868120263011,-6.537833551535962,6.01369600427912,-0.23732115,0.6603453,-0.16432275,134.31854,33.14718,-4.525341
364563119000.0,-0.2640673424718065,-6.565551949129482,5.9570945664908646,-0.1908954,0.7846564,-0.10567969,134.39926,33.32639,-4.449794
364568106000.0,-0.2754093492520619,-6.593670673457979,5.89967565472316,-0.109650314,0.84513205,-0.050396383,134.46904,33.4885,-4.3910418
364574012000.0,-0.2888414511257712,-6.626971091722286,5.831675636094715,-0.037873644,0.95569867,-0.024129177,134.55779,33.635296,-4.3782153
364583127000.0,-0.3095718284672647,-6.678365150726545,5.726728096338826,0.09162979,1.135904,0.024740042,134.64705,33.73708,-4.4079676
364588308000.0,-0.3213550522748651,-6.707577725570327,5.667075523275167,0.1469131,1.1725558,0.05955936,134.72635,33.836475,-4.4303427
364593067000.0,-0.3321785153322614,-6.734410893623127,5.6122817392161135,0.20830505,1.171945,0.08552113,134.81664,33.894363,-4.4906135
364598059000.0,-0.3435318936853865,-6.762557809975213,5.554805258858307,0.27458394,1.151481,0.13164146,134.8942,33.93226,-4.5609946
364603186000.0,-0.355192304505994,-6.791465910964225,5.495774426567749,0.3463606,1.1059716,0.16920967,134.96114,33.949627,-4.625509
364608121000.0,-0.3664160469284043,-6.819291438247387,5.438954228137106,0.40744713,1.0662653,0.22388211,135.00845,33.948875,-4.694314
364613110000.0,-0.3777626023378075,-6.847421439385319,5.3815122889333615,0.49754974,1.0308352,0.2764165,135.0386,33.918304,-4.757017
364618104000.0,-0.3891205293200805,-6.875579632546841,5.324012781139516,0.58001655,1.0140363,0.33444872,135.04918,33.87108,-4.8225975
364623100000.0,-0.4004830049315014,-6.903749102517799,5.266490245909628,0.655153,0.9801333,0.39920044,135.03546,33.799408,-4.8836775
364628105000.0,-0.4118659493740878,-6.931969318131219,5.208864087217558,0.7461719,0.9456194,0.45265114,135.0062,33.699684,-4.9466147
364633052000.0,-0.4231169835713855,-6.959862506270996,5.15190572417067,0.82894415,0.91721416,0.5021312,134.95657,33.5809,-5.0113034
364638224000.0,-0.4348797385478204,-6.989024335472316,5.092356774569193,0.90041536,0.88697636,0.5540548,134.88652,33.440056,-5.075051
364644015000.0,-0.4480502942455262,-7.021676337194057,5.025680833513094,1.0033462,0.8738427,0.6105598,134.80058,33.267838,-5.143608
364648041000.0,-0.4572066847202221,-7.044376554588588,4.9793266047629885,1.1050552,0.86529064,0.68416905,134.69304,33.076683,-5.215949
364653075000.0,-0.4686555842854528,-7.072760283938829,4.921366548248327,1.207986,0.88361657,0.7641924,134.57156,32.857662,-5.3004436
364658458000.0,-0.4808982196369897,-7.10311181653564,4.859388204144548,1.3371841,0.92179567,0.8604037,134.42928,32.603676,-5.400546
364663078000.0,-0.4914055529686079,-7.129161246332643,4.806194826890328,1.4929546,0.99296147,0.9737192,134.2705,32.31448,-5.526582
364668052000.0,-0.5027179936594022,-7.1572066713998055,4.74892559345689,1.6487253,1.0311406,1.0280862,134.10236,31.992706,-5.657627
364673030000.0,-0.514039531608492,-7.18527465008584,4.69161030515137,1.7327193,1.1071932,1.1307116,133.9104,31.647821,-5.837078
364678147000.0,-0.5256771992833601,-7.214126367027672,4.632694610041016,1.8903224,1.1569787,1.2027937,133.71246,31.243752,-6.019814
364683099000.0,-0.5369396050535274,-7.242047747191039,4.575678678404025,2.0167716,1.1933253,1.2712106,133.49792,30.828344,-6.2287817
364688065000.0,-0.54823385122773,-7.270048065020458,4.51850155471475,2.0906863,1.2012665,1.3072516,133.27463,30.389517,-6.4444604
364693070000.0,-0.6264595743765193,-7.254814428738634,4.608176253938957,2.1206186,1.1673635,1.320996,133.03685,29.934017,-6.6607723
364698035000.0,-0.8191036753488792,-7.164913821463942,4.950654774871703,2.0900755,1.1004738,1.3136657,132.78966,29.482859,-6.8681874
364703172000.0,-0.9936711068916548,-7.07297698621669,5.258650293108346,2.0060816,0.9993755,1.282817,132.72533,29.250832,-7.1580386
364708101000.0,-1.0370463480661598,-6.99016970386768,5.32174145193384,1.8942931,0.8857546,1.2495248,132.65083,29.040585,-7.4216127
364713117000.0,-1.0811871899674212,-6.905900820065157,5.385946210032579,1.7919732,0.7678576,1.2098186,132.54716,28.788458,-7.6860185
364718049000.0,-0.9994460032790142,-6.821817167597376,5.230900570180843,1.7363845,0.6814202,1.1759156,132.43782,28.560366,-7.9212785
364723031000.0,-0.87618457104531,-6.736482447943164,5.00334103725159,1.7373008,0.63041294,1.1636983,132.32043,28.349854,-8.129312
364728315000.0,-0.5994846447610245,-6.60149138454343,4.555748851826281,1.8023579,0.6178902,1.1957687,132.18872,28.108538,-8.338346
364733064000.0,-0.3057368916387527,-6.46643490142539,4.089804154298441,1.9489655,0.67011917,1.2855659,132.04634,27.845549,-8.553362
364738171000.0,-0.0105656939205869,-6.319061908933967,3.621021886232197,2.1337523,0.7867944,1.4092661,131.91154,27.56104,-8.780052
364743050000.0,-0.0256903938752697,-6.1476485515321535,3.6361465756581786,2.3429737,0.95142263,1.5717562,131.75635,27.226574,-9.045274
364748050000.0,-0.0994340074630256,-5.961610674480426,3.692671347510875,2.5674667,1.1328496,1.7391334,131.61433,26.873327,-9.309128
364753188000.0,-0.4371430375910101,-5.723787430265829,3.9352509542967615,2.7198775,1.3264939,1.9028453,131.4537,26.479141,-9.633532
364758119000.0,-0.8067097368194842,-5.489284024375768,4.184609622144904,2.8026497,1.5149459,2.0344868,131.27127,26.003029,-10.023215
364763064000.0,-1.4754887522206304,-5.2130492499693,4.543230414203848,2.833193,1.6157386,2.141999,131.06413,25.498156,-10.450076
364768084000.0,-2.155444307989822,-4.932467305216285,4.916728608880407,2.8096747,1.8380935,2.1801782,130.84851,24.903187,-11.02012
364773035000.0,-2.8310746492620864,-4.654976353180662,5.330954338829517,2.7751608,2.021353,2.2314909,130.60509,24.303022,-11.610803
364778065000.0,-3.517485599898219,-4.37305765216285,5.751789608804072,2.6801713,2.1526892,2.2244658,130.34631,23.622688,-12.35631
364783545000.0,-4.407086855157131,-4.005350974657534,6.176571574133763,2.4923303,2.2003367,2.0824397,130.11778,22.990604,-13.10424
364788026000.0,-5.159200047401289,-3.694131713356165,6.518048147018533,2.2262983,2.1273382,1.9947804,129.87411,22.410185,-13.846632
364793047000.0,-5.799900725663717,-3.346204125663717,6.685797584070796,1.924531,1.9938642,1.7718146,129.64893,21.774137,-14.685233
364798065000.0,-6.394375197164335,-2.998665104691217,6.804692526120468,1.6536123,1.8442022,1.5183055,129.44252,21.219282,-15.471886
364803068000.0,-6.726032394441663,-2.569932530645969,6.989933347861792,1.4731015,1.7269161,1.2760975,129.23186,20.610334,-16.349146
364808078000.0,-6.95668130430646,-2.10863446004006,7.201361669944918,1.421178,1.6297885,1.0748174,129.06299,20.065504,-17.153324
364813133000.0,-6.821849607754734,-1.6359874712954614,7.849533041298467,1.536937,1.5204436,0.9755518,128.8769,19.431904,-18.019236
364818037000.0,-6.558346942290352,-1.174857683899409,8.63533573297265,1.7910569,1.3420709,0.9584476,128.70396,18.794567,-18.811422
364823045000.0,-6.1624264269662925,-0.9327318326645264,9.605654703852329,2.0891593,1.0326678,1.0167851,128.45111,17.99732,-19.564587
364828112000.0,-5.712393325842697,-0.7769511333868379,10.652846903691811,2.3386977,0.6374379,1.1099422,128.165,17.15833,-20.229101
364833079000.0,-5.286019326722882,-0.7209553012544243,11.518424772590048,2.528066,0.183565,1.2272283,127.72483,16.097248,-20.680975
364838061000.0,-4.873770236674995,-0.7656570404944826,12.218752333593589,2.6209173,-0.23426682,1.35551,127.22671,15.013115,-21.02471
364843047000.0,-4.657159621065753,-0.8604234262254596,12.413775516516049,2.6789496,-0.5320636,1.4859297,126.59999,13.771959,-21.070332
364848032000.0,-4.593932142879401,-0.9943166698021192,12.212935474446867,2.6413813,-0.70249504,1.5839735,125.94252,12.567587,-21.034077
364853512000.0,-4.577739146266946,-1.1581078651327097,11.87805090471644,2.5372288,-0.7470882,1.6331482,125.26267,11.348532,-20.814388
364858071000.0,-5.090462332489976,-1.4582384480905095,10.473273228900132,2.3967297,-0.7031059,1.6514742,124.58664,10.195439,-20.580706
364863091000.0,-5.65503140352301,-1.7887178353351154,8.926446307953025,2.286163,-0.66828656,1.6362026,123.97153,9.144962,-20.348633
364868110000.0,-6.2131729064327486,-1.8365813857699804,8.302018310916178,2.2153027,-0.559858,1.5567901,123.398186,8.165244,-20.151632
364873012000.0,-6.757667573099416,-1.8548837146588693,7.7849772331384015,2.096184,-0.44348818,1.41904,122.86781,7.270527,-19.968086
364878224000.0,-7.338043755711775,-1.8084848483806173,7.738579480743159,1.9477439,-0.35063666,1.2287555,122.459076,6.5714245,-20.021687
364883134000.0,-7.885041342120679,-1.7533915583145032,7.781866951326471,1.7666223,-0.2770274,1.0097603,122.11187,5.944631,-20.092798
364888120000.0,-8.39727724992167,-1.6415246821723235,8.183680148971279,1.6062702,-0.2134974,0.78893244,121.83865,5.3973045,-20.303667
364893073000.0,-8.85799315373368,-1.468136989785901,8.981263885702349,1.4902058,-0.15760323,0.57543504,121.63616,4.9179635,-20.522423
364899096000.0,-8.75863736139003,-1.3258898204662533,10.22228695957391,1.4749341,-0.16615535,0.39767328,121.4872,4.460782,-20.834085
364903147000.0,-8.423286858988911,-1.2581422660176371,11.167365133676766,1.5561792,-0.30176744,0.24007004,121.39868,4.037082,-21.11398
364908178000.0,-7.907665237934021,-1.1502423228485943,12.199037203369812,1.6502525,-0.602924,0.08857546,121.339935,3.5895908,-21.353645
364913052000.0,-7.154271321706951,-0.9848631012439966,12.834828456971891,1.704314,-0.9981538,-0.016798794,121.31497,3.1535182,-21.516825
364918011000.0,-6.387738611290449,-0.8165997528777262,13.48170757609637,1.6924021,-1.3787229,-0.070554934,121.301,2.6897404,-21.421387
364923047000.0,-5.5060848171294685,-0.5832860075477265,13.628490680232558,1.6319265,-1.6719382,-0.04795292,121.29729,2.2415297,-21.237759
364928117000.0,-4.574938841600138,-0.3220595897587643,13.56107736627907,1.5332718,-1.8912388,0.04550946,121.290764,1.8178072,-20.969864
364933025000.0,-3.635417862174564,7.533355497282845e-05,12.888309040925266,1.4388931,-1.9874501,0.21502456,121.23814,1.3452995,-20.44138
364938108000.0,-2.605128178816257,0.4377205006143473,11.279051138790036,1.3732251,-1.9413297,0.42332962,121.155205,0.89665854,-19.91122
364943035000.0,-1.932215705427975,0.7389835755741128,10.020838412317328,1.3335189,-1.7281377,0.64476824,121.005196,0.37782827,-19.23001
364948036000.0,-2.138854798121085,0.7089875984551148,9.567565799582464,1.3475688,-1.3875804,0.8151997,120.824844,-0.124447845,-18.63476
364953108000.0,-2.3484275791927627,0.6785657636325678,9.107858002783576,1.3552046,-1.0183123,0.9129381,120.58892,-0.6727898,-18.079159
364958032000.0,-2.728940779317859,0.6109549329284699,8.809130056181903,1.3319917,-0.8518516,0.9236283,120.340256,-1.2032226,-17.583775
364963071000.0,-3.391881788024633,0.4829387345220274,8.731405808526764,1.2962561,-0.5647449,0.90194255,120.07911,-1.719215,-17.244915
364969040000.0,-4.145539470396108,0.3733623630298818,8.899991450312717,1.2605205,-0.3436117,0.7797695,119.856705,-2.2208138,-17.002737
364973102000.0,-4.62673302333565,0.3409223446726893,9.275754960528143,1.0980303,-0.3191771,0.7305948,119.621994,-2.6661792,-16.796047
364978098000.0,-5.218570293273107,0.3010231985100764,9.737920026268242,1.0326678,-0.31031954,0.63407815,119.44161,-3.0893722,-16.747355
364983046000.0,-5.472121243534082,0.2744415631446912,10.05540752546668,0.9077458,-0.32589662,0.5299256,119.27926,-3.4376357,-16.701866
364988111000.0,-5.24267909656221,0.2662471940299011,10.174225605963342,0.8002335,-0.35002577,0.453262,119.13827,-3.7584593,-16.659624
364993190000.0,-5.005051148239721,0.2536734101311475,10.277418836334318,0.72204274,-0.37201694,0.39736784,119.024734,-4.029022,-16.701097
364998068000.0,-4.674446850362806,0.1825306856065573,10.16024283525934,0.70005155,-0.38056904,0.36163223,118.929054,-4.275052,-16.73988
365004207000.0,-4.265101470620625,0.0936211357973727,10.010040446000158,0.72021013,-0.34269542,0.33353242,118.85065,-4.5055375,-16.731813
365008195000.0,-4.135921138173523,0.048558242786439,9.856826649413986,0.77763146,-0.27580565,0.33078352,118.77527,-4.734001,-16.730633
365013223000.0,-3.973052855439314,-0.0082562572283489,9.663657399354992,0.8686504,-0.1826487,0.33108896,118.72521,-4.971303,-16.694546
365018026000.0,-3.8757600258170473,-0.0438073228852028,9.48000245869601,0.9773844,-0.11056661,0.34666604,118.67003,-5.224152,-16.67283
365023037000.0,-3.938810569157497,-0.0280446767630973,9.29085058178683,1.0711522,-0.044898596,0.37965274,118.60666,-5.4928885,-16.676151
365029365000.0,-4.064102684103249,-0.0177573690784156,9.03300779786382,1.1386528,0.016493361,0.40683624,118.54278,-5.775559,-16.673365
365033067000.0,-4.480643980712061,-0.0840252920856252,8.73953557837116,1.1688906,0.06383542,0.41905355,118.47134,-6.0680118,-16.685291
365038037000.0,-5.039857985073431,-0.1729911422600801,8.345543970894525,1.1798862,0.11484267,0.41874814,118.3896,-6.3763113,-16.735632
365043049000.0,-5.389369946541915,-0.2889019821982315,8.134717817999862,1.1896601,0.1908954,0.39706242,118.30761,-6.6848936,-16.80617
365048052000.0,-5.583135906779081,-0.4235529793378573,8.059181845685105,1.1838568,0.27305678,0.3555236,118.22888,-6.9837236,-16.892614
365053730000.0,-5.803044586016863,-0.5763709609006786,7.973454631852766,1.2003502,0.34269542,0.2941316,118.156944,-7.2715044,-17.110418
365058051000.0,-5.932784942654116,-0.761737949601329,7.990592732198229,1.2226468,0.36896262,0.23182335,118.09649,-7.550024,-17.338167
365063223000.0,-6.074485810206718,-1.0085713918604653,8.040873535852713,1.2391402,0.38881573,0.16157386,118.054245,-7.819816,-17.583437
365068042000.0,-6.16155099240063,-1.2200543299422169,8.113454889161268,1.2925909,0.3848451,0.12034045,118.035515,-8.06769,-17.873438
365073705000.0,-6.213780590527053,-1.447965885020137,8.227410493171073,1.3139712,0.33505958,-0.0009162979,118.06343,-8.292335,-18.159197
365078136000.0,-6.224251371890525,-1.6168523356065396,8.321271401499413,1.387275,0.3136793,-0.035124753,118.10127,-8.500461,-18.466673
365083061000.0,-6.139045313043085,-1.7744834310360402,8.440560408815825,1.4175128,0.24923302,-0.1151481,118.1941,-8.682009,-18.752205
365088404000.0,-6.029739714197174,-1.9119844550037184,8.590439932980747,1.4666874,0.17715092,-0.20586158,118.32435,-8.838563,-19.02944
365093054000.0,-5.720616583050988,-1.6065412065118585,8.980523864060823,1.5253305,0.10140363,-0.2947425,118.48211,-8.9932165,-19.28845
365098013000.0,-5.390951721254442,-1.2808007615073134,9.3965295015288,1.5867225,0.050396383,-0.38453966,118.686775,-9.115408,-19.513256
365103082000.0,-5.236503221190023,-0.951929192607939,9.722804096212812,1.6417004,0.058643065,-0.4841107,118.92196,-9.237383,-19.736134
365108050000.0,-5.216789314502361,-0.6325636819491174,9.971199155796802,1.6410894,0.13500121,-0.5635232,119.17705,-9.349234,-19.965351
365113109000.0,-5.226642629277566,-0.3110459462357414,10.210586935361215,1.582141,0.29016098,-0.6337727,119.42159,-9.506301,-20.122755
365118077000.0,-5.3758877245627374,-0.0125554439847908,10.382445497718631,1.4367551,0.50823987,-0.7086037,119.682304,-9.6264105,-20.32157
365123155000.0,-5.534970152885595,0.2894014410930987,10.529296950486335,1.1835514,0.8222246,-0.7837401,119.91153,-9.751202,-20.558805
365128087000.0,-5.762492701732283,0.5475520525984252,10.34990395984252,0.86559606,1.2281445,-0.8741482,120.14833,-9.805468,-20.88357
365133048000.0,-5.991353075785085,0.8072205813246873,10.16945614423344,0.5497787,1.7321084,-0.95264435,120.357765,-9.836162,-21.330206
365138114000.0,-6.283044009169079,0.940705955549706,9.682918825568132,0.29016098,2.2837198,-1.0387764,120.56878,-9.783784,-21.899685
365143353000.0,-6.59120440709836,1.0639700595595332,9.145839731947005,0.17104226,2.7937922,-1.1172725,120.773254,-9.675863,-22.589674
365148097000.0,-6.867997908759954,1.0382936627758816,8.753811626848693,0.17959438,3.1483996,-1.2125676,120.961815,-9.571229,-23.433653
365153113000.0,-7.1594640778157,0.9381021823208192,8.389478737201365,0.31642818,3.2556064,-1.280679,121.14907,-9.461538,-24.333847
365158093000.0,-7.302550024036525,0.8839455908822345,8.499867941721499,0.5531385,3.2238414,-1.3121386,121.334694,-9.4032,-25.380857
365163127000.0,-7.312260432254599,0.8709981793849872,9.046895829058682,0.6963864,2.9700267,-1.3307699,121.541,-9.3445425,-26.376545
365168110000.0,-7.3218724632738015,0.8581819395179267,9.588381717537263,1.0268645,2.4263568,-1.3219124,121.78089,-9.37163,-27.348145
365173100000.0,-7.263186207469252,1.0765873062213842,9.912467307388455,1.3460416,1.5515977,-1.2690725,122.04521,-9.428121,-28.134739
365178133000.0,-7.146353193554178,1.4919932064099113,10.055262811652751,1.593442,0.48655418,-1.1447614,122.32582,-9.553536,-28.694958
365183025000.0,-7.11512139059223,1.8910237734944573,9.796346298012583,1.704925,-0.46914452,-0.94959,122.618034,-9.715502,-28.947933
365188090000.0,-7.274985295016479,2.2931051538999303,8.599790758713672,1.6902641,-0.93492925,-0.71929383,122.89317,-9.924919,-29.026217
365193015000.0,-7.39456701173669,2.646143692124511,7.39417297091342,1.5754215,-0.68233645,-0.4868596,123.05918,-10.244028,-28.981487
365198094000.0,-7.431798181068209,2.9191732031382887,6.049710094744004,1.46852,0.24587326,-0.26725355,123.14122,-10.584508,-28.988937
365203595000.0,-7.4382681772678865,3.2199340561622614,4.667041818569078,1.4413365,1.53205,-0.086437434,123.0708,-11.027995,-29.290699
365208074000.0,-6.968999154032336,3.535548662290638,4.571526677413109,1.5332718,2.8002062,0.064446285,122.87078,-11.49158,-29.830557
365213073000.0,-6.445249243973279,3.887805285652048,4.464922482137671,1.666135,3.7638462,0.19608775,122.48779,-12.067495,-30.770628
365218043000.0,-5.657621513146663,4.219257126745775,5.298984304507427,1.7427986,4.3386703,0.3051272,121.97197,-12.659638,-31.928198
365223041000.0,-4.8322240425986,4.5502333993255935,6.255137886033806,1.767844,4.533231,0.40439278,121.33754,-13.277758,-33.21412
365228090000.0,-4.1096746971580815,4.704164211767318,7.92781001509769,1.7849482,4.3343945,0.5122105,120.53826,-14.004806,-34.419987
365233065000.0,-3.4890817390467737,4.707690268790705,10.156302943605684,1.7675385,3.7681222,0.6374379,119.67886,-14.738417,-35.537018
365238079000.0,-2.8636238311130846,4.7112439672661335,12.40226546492007,1.7534887,2.948952,0.8008443,118.60801,-15.616908,-36.058704
365243053000.0,-3.561102589883626,4.239034363005308,12.528851676704775,1.752267,2.094657,0.9324858,117.56177,-16.499685,-36.38293
365248010000.0,-4.496396646733361,3.6817347826051448,12.272009144344633,1.7550159,1.4065173,1.010982,116.55671,-17.386345,-36.5024
365253109000.0,-5.610359595629751,3.088138019444444,11.18291582048498,1.7693712,1.1682798,1.0122037,115.662704,-18.196148,-36.006165
365258095000.0,-6.720723253773073,2.5048729694444445,10.003424556641331,1.8035797,0.9660834,0.9944886,114.86889,-18.991055,-35.36539
365263072000.0,-7.764524225097556,1.9922156528856028,8.82454273694804,1.8112154,1.0424415,0.91874135,114.2074,-19.632923,-34.949924
365268057000.0,-8.779338254158965,1.5117723282809612,7.643044190942699,1.8142698,1.2562444,0.8014552,113.59279,-20.249199,-34.548866
365273045000.0,-9.571720523840566,1.324311448333023,6.869029256360588,1.8148806,1.45783,0.66523224,113.20856,-20.675135,-34.677284
365278132000.0,-10.293087727323524,1.2471842284410504,6.238400242875768,1.8133535,1.5632042,0.548557,112.83978,-21.075563,-34.842957
365283071000.0,-10.850577354436316,1.375094576420934,5.740733996248358,1.820073,1.5332718,0.45204028,112.56133,-21.377132,-35.33182
365288051000.0,-11.311309560401426,1.6479554182892515,5.320259826299005,1.8600847,1.4101825,0.37384954,112.31229,-21.659605,-35.825584
365293209000.0,-11.651330052391588,2.035381613270054,4.901140476828587,1.9107865,1.3133603,0.3481932,112.07412,-21.9188,-36.48587
365298037000.0,-11.819135176158571,2.5129814268565047,4.526805769514238,1.9449949,1.2956452,0.39706242,111.84263,-22.17263,-37.122673
365303062000.0,-11.927004933085502,3.01203040669145,4.231275472118959,1.9920316,1.3429873,0.49205196,111.547714,-22.485737,-37.827595
365308070000.0,-11.875393921541772,3.514064181530033,4.160896757659949,2.0491474,1.4059063,0.6169739,111.2247,-22.811138,-38.5057
365313103000.0,-11.71869679221128,3.937262794216652,4.178722519158461,2.116648,1.4618006,0.76174897,110.751755,-23.259579,-39.193695
365318050000.0,-11.269108383348254,4.1238844497045655,4.445930937511191,2.1670444,1.5045611,0.8943067,110.22917,-23.72252,-39.858635
365323372000.0,-10.772189985792645,4.316796630069239,4.756913057189101,2.198504,1.5118915,0.9999864,109.57711,-24.294504,-40.458004
365328155000.0,-10.179073900908191,4.403292761622156,5.296483971027785,2.2165246,1.4590516,1.097114,108.88672,-24.880463,-41.01275
365333078000.0,-9.568597111051163,4.492320663699307,5.851848304882655,2.1972823,1.3154984,1.1841623,108.159256,-25.512966,-41.401764
365338057000.0,-9.063850397651663,4.488388778473581,6.672110701526419,2.1526892,1.0464121,1.2498302,107.45123,-26.142492,-41.71889
365343017000.0,-8.589770491585126,4.4605016395303325,7.555201040469667,2.068695,0.64568454,1.2788464,106.79705,-26.75467,-41.948605
365348039000.0,-8.0594833476082,4.205979622551253,8.266867477220956,1.9734001,0.40866885,1.2754866,106.17272,-27.377165,-41.968166
365353104000.0,-7.507016838116932,3.8698961048974954,8.920618795558086,1.8695531,-0.09865474,1.2651019,105.71383,-27.973362,-41.827755
365358084000.0,-7.313466275298268,3.7541082,9.14585,1.8258762,-0.5687156,1.2153164,105.36978,-28.532454,-41.473362
365363187000.0,-7.308396204710032,3.7541082,9.14585,1.750129,-0.93523467,1.1499538,105.14256,-29.048414,-41.041992
365368107000.0,-7.240041159126508,3.6742720529623143,8.705154636413894,1.6884315,-1.1917981,1.0867293,105.075554,-29.49643,-40.400837
365373073000.0,-7.148017925808532,3.564720711102921,8.100431459964987,1.6542231,-1.3451253,1.042747,105.087105,-29.913662,-39.72768
365378176000.0,-7.073640457987131,3.5491946498530464,7.017658617046628,1.6554449,-1.4162911,0.9972375,105.15929,-30.303696,-39.044506
365383135000.0,-7.017053734021765,3.6095539008658353,5.6067620995631104,1.6890424,-1.3942999,0.95325524,105.25572,-30.673784,-38.37403
365388249000.0,-6.959364246597044,3.681976650438092,4.207376449907071,1.7363845,-1.2980887,0.9059132,105.34804,-31.051193,-37.79845
365393077000.0,-6.914351040862023,3.894766594999558,3.675401225303124,1.7953329,-1.131017,0.8790351,105.42507,-31.423584,-37.26054
365398713000.0,-6.861804556288168,4.143168444118949,3.054396178520223,1.8469511,-0.9092729,0.86376345,105.386314,-31.909088,-36.94183
365403132000.0,-6.815298094675996,4.4615710837237605,2.7473665118345,1.9004018,-0.67256266,0.8597928,105.31493,-32.395206,-36.67138
365408033000.0,-6.762940892090051,4.832832047246729,2.4332228490112566,1.9428569,-0.4297437,0.8848383,105.191895,-32.88359,-36.4519
365413120000.0,-6.688346685392107,5.26106384213224,2.349645790363916,1.983174,-0.20708331,0.9211848,104.95841,-33.459034,-36.31056
365418013000.0,-6.611488564951307,5.683782426140441,2.3304312226345463,2.0076087,0.0106901415,0.9841039,104.66098,-34.040386,-36.209984
365423106000.0,-6.486056015374025,6.051552153510785,2.435782345800826,2.0244074,0.19608775,1.0580186,104.24682,-34.71251,-36.124645
365428063000.0,-6.355338628682882,6.395774741624599,2.5621426227627357,2.0409007,0.364992,1.138042,103.77307,-35.39192,-36.06359
365433056000.0,-6.231921839941812,6.710212891729011,2.8490722440565253,2.0277672,0.49754974,1.2168436,103.19733,-36.14614,-35.96061
365438084000.0,-6.11184140315877,7.010413591853699,3.219319765502909,2.0073032,0.6017023,1.3011429,102.574844,-36.906475,-35.86202
365443045000.0,-6.020572447948952,7.083266359161349,3.781319705287147,1.9773707,0.6203337,1.3787229,101.886116,-37.728844,-35.666275
365448035000.0,-5.938287534953915,7.078425963131774,4.415398646439785,1.9364429,0.5882632,1.4523321,101.17869,-38.547047,-35.45843
365453113000.0,-5.924919883936022,6.896566095618915,4.994058257823366,1.9187278,0.42271876,1.4816537,100.48548,-39.388893,-35.122868
365458069000.0,-5.933171296522948,6.665524044506259,5.538657649095967,1.8787161,0.19456059,1.5451837,99.812096,-40.225105,-34.746964
365463069000.0,-6.008255242243109,6.314926500179533,6.032408315915092,1.8591684,-0.08093964,1.5873333,99.233116,-41.01303,-34.242672
365468086000.0,-6.160479043932833,5.8278109281867145,6.463708504551695,1.8402315,-0.37415496,1.6126842,98.72893,-41.785866,-33.695248
365473042000.0,-6.323797111048794,5.345249148289399,6.653909606281548,1.7889189,-0.6579019,1.6197093,98.373505,-42.451603,-33.077168
365478080000.0,-6.49968683939054,4.85365944627033,6.667439636100205,1.750129,-0.91507614,1.6142114,98.0993,-43.101368,-32.4279
365483076000.0,-6.669460195371872,4.418807162164596,6.589038123194669,1.7238617,-1.1071932,1.6001616,97.987785,-43.61652,-31.81221
365488126000.0,-6.834937364019449,4.048660941653161,6.388723684602917,1.6966782,-1.2461652,1.5952746,97.933304,-44.110634,-31.17772
365493023000.0,-6.990056136103574,3.694765270253508,6.120633986068688,1.6707164,-1.3219124,1.5796975,97.99648,-44.494854,-30.637785
365498039000.0,-7.127848172075355,3.3521474660826422,5.554569617109854,1.6481144,-1.382999,1.5604553,98.09257,-44.86247,-30.091158
365503059000.0,-7.265750090053492,3.009256441972246,4.988053841158229,1.6181821,-1.4092661,1.5265522,98.251495,-45.163,-29.648685
365508101000.0,-7.319487000551572,2.8966522958264385,4.64972029047619,1.6148223,-1.4141531,1.484708,98.42322,-45.451458,-29.21473
365513083000.0,-7.323872974186432,2.9185826219893363,4.447961152380953,1.6065756,-1.396438,1.4367551,98.60018,-45.71778,-28.797997
365518113000.0,-7.301791312038141,2.983512150252132,4.279167947923352,1.59558,-1.3726143,1.382999,98.79765,-45.968758,-28.520475
365523060000.0,-7.249667385101311,3.0964476654533786,4.153201280902173,1.5830573,-1.3558154,1.314582,99.003265,-46.1995,-28.265476
365528090000.0,-7.184622399717975,3.234905208831824,4.056608480154371,1.5717562,-1.3573426,1.2379184,99.208084,-46.43845,-28.043955
365533072000.0,-7.089014883909752,3.433202082826184,4.042444425649399,1.5577064,-1.389413,1.1569787,99.42995,-46.654373,-27.842718
365538194000.0,-6.9907206856019,3.637071329835238,4.027882344723171,1.5323554,-1.4407257,1.0790935,99.65442,-46.884018,-27.648838
365543051000.0,-6.865019235164952,3.900060359393232,4.051506257738411,1.4920384,-1.541213,1.0167851,99.91251,-47.08938,-27.462254
365548032000.0,-6.713214713684099,4.218850171528588,4.102107712061101,1.4504995,-1.5995506,0.98990715,100.18037,-47.27585,-27.288994
365553084000.0,-6.519408474943113,4.465189225056887,4.103421786644494,1.4398094,-1.7180585,0.958753,100.47785,-47.49495,-27.064047
365558101000.0,-6.30915626199895,4.67544143800105,4.082396578522667,1.4052955,-1.8545868,0.9104946,100.80244,-47.686867,-26.84245
365563111000.0,-6.110447015416323,4.931793051215993,4.063966751339653,1.3658947,-1.9905044,0.8781188,101.13234,-47.91748,-26.552898
365568105000.0,-5.928090878977741,5.252148218796373,4.049181186809562,1.3408492,-2.1001546,0.8246681,101.50181,-48.12551,-26.268269
365573098000.0,-5.704792676705442,5.588213120031545,3.981025833339905,1.2950343,-2.189341,0.78954333,101.87141,-48.372063,-25.907473
365578047000.0,-5.438472711494479,5.938634324605678,3.854874242626183,1.2739595,-2.2464569,0.80848014,102.25853,-48.613144,-25.541567
365584015000.0,-5.082345057739557,6.301383793179361,3.658632885071253,1.2773192,-2.2757785,0.8552113,102.62535,-48.9054,-25.109055
365588116000.0,-4.816011809582309,6.513678275174447,3.496517150850123,1.2892311,-2.277611,0.9104946,102.99212,-49.193596,-24.674305
365593038000.0,-4.451065350574712,6.765190396663863,3.27909930117746,1.3365731,-2.2623394,0.95356065,103.30447,-49.580067,-24.156183
365598038000.0,-4.012542362068966,7.015775061648444,3.02404000765349,1.391551,-2.2666154,1.0030408,103.61034,-49.97333,-23.63187
365603107000.0,-3.671846988528429,7.216982566053511,2.828210582107024,1.4639386,-2.2537873,1.0421361,103.85013,-50.470627,-23.0292
365608060000.0,-3.616322284832776,7.27250710409699,2.80441423319398,1.5131133,-2.2437081,1.0552697,104.08863,-50.967678,-22.434559
365613053000.0,-3.560349168428093,7.328480053511706,2.780425707023411,1.534188,-2.2156084,1.0476339,104.23949,-51.5729,-21.735094
365618138000.0,-3.516745952559112,7.444581742322667,2.805467901177476,1.5381587,-2.1991148,1.0256428,104.39435,-52.169968,-21.05441
365623049000.0,-3.4765517655683222,7.565164303295034,2.836730093248504,1.5158621,-2.1844542,1.0115929,104.54535,-52.750923,-20.395798
365628147000.0,-3.470127848058985,7.697447028657725,2.834340051701164,1.4789047,-2.1688771,0.999681,104.69474,-53.339325,-19.738312
365633115000.0,-3.4743543331260547,7.828468242267034,2.821660464102336,1.4486669,-2.1685717,0.9868528,104.849396,-53.90678,-19.10197
365638081000.0,-3.4789317175548917,7.988223613813009,2.805377383053293,1.4150693,-2.1789563,0.9825767,105.00795,-54.475407,-18.461126
365643103000.0,-3.483889421874033,8.1766162744047,2.785546669312442,1.3976597,-2.1890357,0.9783007,105.17064,-55.02385,-17.840874
365648095000.0,-3.512437813882863,8.344276867462039,2.76764482445987,1.3912456,-2.207056,0.98746365,105.34562,-55.58387,-17.225456
365653794000.0,-3.5645298880694143,8.51949577483731,2.7487022385422994,1.3924674,-2.2452352,1.0177015,105.52798,-56.129425,-16.618196
365658023000.0,-3.6225428147947407,8.654535332580547,2.7189729922814414,1.3991868,-2.277611,1.0534371,105.71701,-56.696705,-16.011322
365663124000.0,-3.745124611462411,8.8310528187293,2.640520759148851,1.4199562,-2.281887,1.0797043,105.90762,-57.25546,-15.414768
365668034000.0,-3.833501233115719,8.976541445584331,2.5496183308128275,1.4486669,-2.2592852,1.0885619,106.11372,-57.83802,-14.833151
365673034000.0,-3.843806993930698,9.05898746036301,2.415643296735777,1.4639386,-2.20278,1.0836749,106.31269,-58.408672,-14.268836
365678085000.0,-3.8542178735059904,9.142274424492433,2.2803017173111413,1.4853189,-2.087632,1.0626001,106.51495,-59.01009,-13.754205
365683060000.0,-3.8065294478487,9.177541628841608,2.214447554420804,1.5066991,-1.9813415,1.0338894,106.709404,-59.59859,-13.263575
365688460000.0,-3.689162605295508,9.162870990543736,2.219337835271868,1.5430456,-1.8994855,0.9923506,106.88746,-60.177345,-12.807231
365693042000.0,-3.5626292988764043,9.130821990778768,2.228653926369624,1.5683966,-1.8558086,0.91751957,107.06795,-60.790707,-12.390442
365698068000.0,-3.3798692561797754,9.0636858472685,2.247302859449826,1.6001616,-1.8390098,0.8472701,107.24174,-61.395763,-12.0022545
365703032000.0,-3.1993637146067417,8.99737788539326,2.265721742022472,1.6438384,-1.8701639,0.77579886,107.429,-61.995777,-11.62093
365708117000.0,-2.954899533020638,8.867706398123827,2.266098811031895,1.6865989,-1.9474384,0.7309003,107.6313,-62.584496,-11.25845
365713068000.0,-2.701368390619137,8.725373043714821,2.261650945956848,1.7192802,-2.0659463,0.70280045,107.86085,-63.161625,-10.912054
365718103000.0,-2.459312342892398,8.558247540802896,2.2390883227377425,1.7611245,-2.1881194,0.6872234,108.10734,-63.742092,-10.523708
365723934000.0,-2.1882774759378085,8.351525735357026,2.202337864823955,1.7611245,-2.3484714,0.70280045,108.39516,-64.30716,-10.127979
365728120000.0,-1.9921148504424775,8.169201036865593,2.105345960562741,1.7626517,-2.518292,0.73548174,108.69687,-64.87222,-9.671368
365733076000.0,-1.755178577876106,7.853286156720369,1.7822509718629451,1.7376062,-2.6703975,0.7910705,109.03111,-65.42092,-9.202111
365738047000.0,-1.5175251858407075,7.536415117736934,1.4581780927615158,1.7033978,-2.7913487,0.8362745,109.387985,-65.96606,-8.667918
365743068000.0,-1.402143238715636,7.25367402381832,1.1693569779202435,1.6777414,-2.8432722,0.88453287,109.75858,-66.49815,-8.124537
365748074000.0,-1.3760965360534607,6.998416653221776,0.9088902776703248,1.6545285,-2.931237,0.9034697,110.16725,-67.008224,-7.5755706
365753016000.0,-1.3319464696058367,6.83038143325029,0.733276296693656,1.6224581,-2.9852984,0.9275989,110.570724,-67.57309,-6.9716067
365757981000.0,-1.281178052442388,6.690768275006674,0.5852017606228312,1.5903877,-3.0045407,0.9611965,110.98363,-68.11753,-6.370877
365762958000.0,-1.2276530715730578,6.60289588024532,0.4195061652765225,1.5766432,-2.9767463,0.9801333,111.434784,-68.69381,-5.792191
365767938000.0,-1.1712061593716376,6.572106684635249,0.2347708737335915,1.5604553,-2.9394836,0.98563105,111.885,-69.24649,-5.222474
365773009000.0,-1.1032651525643646,6.6030007703821,0.129107843081324,1.5635096,-2.8658743,1.0045679,112.335754,-69.82732,-4.658571
365777979000.0,-1.0303237000715162,6.671079564313445,0.0756174412014712,1.5699236,-2.7754662,1.0125091,112.77141,-70.388565,-4.115957
365782954000.0,-0.9552233107913668,6.829480395203836,0.0322901440815347,1.5989398,-2.658791,0.999681,113.19613,-70.98863,-3.5894635
365787966000.0,-0.8784863756594724,7.035710773780975,-0.0060783254876099,1.6291776,-2.5729644,0.9801333,113.60405,-71.5754,-3.0823698
365792939000.0,-0.7622881375372393,7.326452019066534,0.0056871200923535,1.6523905,-2.4944682,0.94959,113.98918,-72.179115,-2.5833695
365797960000.0,-0.6238105530883813,7.6654835012512414,0.0438878324591857,1.6756034,-2.4645357,0.9080512,114.36634,-72.7737,-2.1101208
365802988000.0,-0.1573841276220887,8.203168159654394,0.054543187374906,1.7131716,-2.4593434,0.8622363,114.73505,-73.39234,-1.6420298
365807974000.0,0.4838859778268218,8.844438091848234,0.0500587804733283,1.7266107,-2.4526238,0.7800749,115.10064,-73.991035,-1.2121501
365812965000.0,1.972613117681293,9.784907951483312,-0.2389357976905645,1.7168368,-2.3124304,0.77579886,115.405655,-74.585945,-0.75750375
365817965000.0,4.261260897862587,11.008151152966626,-0.796300410381129,1.65911,-1.3387111,1.1945469,115.45121,-75.152725,-0.2851274
365822961000.0,5.709159661829155,11.932433217734449,-0.7900678618737234,1.3662001,-0.29229903,1.6606371,115.2797,-75.58581,0.36871153
365828042000.0,6.54500487268338,12.64629012906221,-0.3563318965051067,0.9932669,0.27488935,1.861001,114.965485,-75.939186,1.0074005
365833036000.0,7.1910982791578055,13.266396906210124,0.1431571693279455,0.61453044,0.5027421,1.9263636,114.63243,-76.39558,2.0486822
365837970000.0,7.603121172862611,13.773887977881753,0.7310431539004679,0.21135938,0.5137377,1.894904,114.20897,-76.63627,3.0588164
365842966000.0,7.729967965752881,14.152216716726262,1.1038941871990466,0.0143553335,0.35063666,1.8423696,113.819374,-76.65335,4.1854057
365847958000.0,7.608407509972189,14.41433142471196,1.2862347518712751,-0.3155119,-0.0852157,1.6960673,113.523605,-76.446045,5.2482705
365853163000.0,7.4583436057133055,14.667422235909754,1.4477688200291672,-0.54183745,-0.6435465,1.5546521,113.33408,-76.054924,6.3300166
365858134000.0,6.956020878742386,14.597995613236682,1.1618941324140002,-0.6096435,-1.1606439,1.4480561,113.271255,-75.5881,7.359422
365863038000.0,6.460468544591233,14.529504734622972,0.8798725134108261,-0.5537493,-1.5244142,1.3836098,113.338905,-75.07717,8.311323
365868101000.0,5.800839587797008,14.31079466779114,0.4054537438193018,-0.3747658,-1.7214183,1.4013249,113.51175,-74.56512,9.239856
365873072000.0,5.093285179495453,14.036151656937518,-0.1345219647843941,-0.16615535,-1.7641789,1.4819591,113.747604,-74.058,10.145782
365878128000.0,4.348102364380254,13.69161061424611,-0.5798507432158827,0.067500606,-1.6988163,1.6163495,113.9991,-73.663704,10.961736
365883070000.0,3.6074029442228586,13.323377032149883,-0.9650144894294403,0.3277292,-1.5717562,1.7828102,114.24097,-73.27899,11.78049
365888087000.0,2.8507465455717087,12.852341941024848,-1.2814536043612743,0.5723807,-1.4162911,1.9544634,114.435936,-73.01442,12.50826
365893044000.0,2.09698596374884,12.260101823383854,-1.4968137121868237,0.82527894,-1.2547172,2.0873265,114.58891,-72.748055,13.241639
365898039000.0,1.3691876961481917,11.56196848132902,-1.500097915319024,1.0720685,-1.1392636,2.1429152,114.662544,-72.58503,13.868845
365903138000.0,0.6608512879741255,10.7387670905616,-1.270367200499853,1.2986995,-1.0885619,2.1096232,114.71036,-72.42226,14.483648
365908075000.0,-0.2525152597751945,9.696572338264964,-0.7707227007858584,1.4672983,-1.0708468,1.9905044,114.74365,-72.34711,14.987343
365913065000.0,-1.4507799858776056,8.346802506388702,0.069439912683255,1.5720617,-1.033584,1.8106046,114.7654,-72.28886,15.445685
365918041000.0,-2.3528932161659517,7.368505171405579,0.8011773078379829,1.5943583,-0.9654725,1.5732834,114.853355,-72.30027,15.780102
365923099000.0,-2.747027192989986,7.030676087178112,1.3555634409817596,1.5436565,-0.8179486,1.3035865,114.91923,-72.345474,16.039736
365928089000.0,-3.1032410050813586,6.738414067913218,1.96024632337996,1.430341,-0.657291,1.0146471,115.026054,-72.48836,16.094566
365933128000.0,-3.25018551420687,6.710862020401561,2.9475304633076407,1.2592987,-0.55924714,0.7199047,115.12044,-72.68478,16.06201
365938256000.0,-3.3777195235024235,6.703587498935249,3.9459254762638505,1.0283916,-0.5571091,0.42730024,115.199974,-72.943985,15.889332
365943137000.0,-3.1915836110110805,6.986837734418283,4.807815684349031,0.75228053,-0.6114761,0.29352075,115.27294,-73.21767,15.672819
365948014000.0,-3.005600237681787,7.269855845143699,5.668999569788781,0.59528816,-0.87781334,0.05497787,115.38098,-73.54167,15.323453
365953133000.0,-2.719883607042747,7.682796955010512,6.157816324947442,0.28069258,-1.2910637,-0.13225232,115.55229,-73.83935,14.956442
365958086000.0,-2.4082556938945343,8.127386148703575,6.46944428148213,-0.030848695,-1.7919732,-0.25686884,115.83485,-74.160446,14.5510235
365963044000.0,-2.0456001547465728,8.57404406429165,6.4733216728500205,-0.33108896,-2.2650883,-0.3115413,116.189606,-74.366875,14.152593
365968046000.0,-1.6127399693913589,9.026805590880764,6.070313940943082,-0.58062744,-2.6645942,-0.3304781,116.67528,-74.53959,13.750291
365973034000.0,-1.2253967412909177,9.330956908160442,5.516086232918395,-0.7324274,-2.9874365,-0.3210097,117.257996,-74.59696,13.40733
365978074000.0,-0.8782474898386353,9.491180111479943,4.8039851208852005,-0.8206975,-3.2265902,-0.31245756,117.93525,-74.59929,13.082641
365983068000.0,-0.5495592472937384,9.595961,4.073014995311127,-0.83260936,-3.3622024,-0.32070425,118.68238,-74.555664,12.834934
365988123000.0,-0.2469033200675002,9.595961,3.283272152730292,-0.79168135,-3.4333682,-0.3371976,119.47919,-74.481865,12.606237
365993046000.0,0.0677572025818791,9.61066296791892,2.49113298685133,-0.71685034,-3.454443,-0.36560285,120.31887,-74.43325,12.44733
365998093000.0,0.4397566300313191,9.662227131982016,1.621906614188829,-0.63713247,-3.4633005,-0.38453966,121.17231,-74.381645,12.297184
366003091000.0,0.8081444125540654,9.713290673093043,0.7611193325230512,-0.54183745,-3.4584136,-0.37598756,122.04536,-74.38279,12.213694
366008134000.0,0.932370607486098,9.730036,0.47884035,-0.44806966,-3.4180965,-0.33108896,122.90438,-74.38891,12.137618
366013239000.0,0.937500138909873,9.730036,0.47884035,-0.3494149,-3.3475416,-0.27488935,123.74674,-74.40409,12.068687
366018106000.0,1.4587815260126975,9.581862015827596,0.1726146100062595,-0.26816985,-3.2922583,-0.22540927,124.580246,-74.47552,12.110648
366023064000.0,2.129632421219708,9.390796576678888,-0.2222533272860591,-0.19761491,-3.2333097,-0.19242255,125.38301,-74.55155,12.157401
366028163000.0,2.514219463828829,9.285394591441442,-0.43330663453003,-0.14752395,-3.1581733,-0.16646078,126.162636,-74.627754,12.210977
366033071000.0,2.627139500045045,9.260693202252252,-0.4721228937552552,-0.11575896,-3.098614,-0.17654006,126.92273,-74.711266,12.258289
366038085000.0,2.7424983145495494,9.235458327477478,-0.5117774829474474,-0.106595986,-3.00057,-0.17959438,127.54803,-74.67187,12.486587
366043117000.0,2.7613629396313004,9.199614265090233,-0.5301182542797137,-0.11789699,-2.899472,-0.19456059,128.14908,-74.636734,12.698154
366048909000.0,2.765677520091786,9.15646800995644,-0.5473767833649658,-0.14355333,-2.7635543,-0.22968534,128.70558,-74.604034,12.890135
366053084000.0,2.775127013354531,9.15113302670906,-0.5688288240381558,-0.16615535,-2.7165177,-0.23793201,129.23836,-74.539116,13.1132145
366058073000.0,2.800446915421304,9.201772830842607,-0.6144046477583466,-0.17837265,-2.6184738,-0.2556471,129.71242,-74.48138,13.30891
366063028000.0,2.8222342304137324,9.242020802200704,-0.6366561232147888,-0.19608775,-2.5179865,-0.2733622,130.19565,-74.427895,13.495646
366068047000.0,2.839158996478873,9.26740784084507,-0.6239626657464789,-0.20830505,-2.4251351,-0.27580565,130.64641,-74.37306,13.672056
366073036000.0,2.8592431153661466,9.298426421068427,-0.6087509366746698,-0.21655174,-2.322204,-0.26358834,131.07542,-74.32519,13.83489
366078092000.0,2.902838824369748,9.37108644187675,-0.5748431427731092,-0.21777347,-2.245846,-0.2434298,131.47905,-74.274506,13.991475
366083117000.0,2.942167563283582,9.442898381369016,-0.5333507665218734,-0.20066923,-2.19209,-0.2134974,131.8834,-74.2272,14.141758
366088125000.0,2.956977788955224,9.51201290530108,-0.4444890310283067,-0.18112154,-2.1438315,-0.17470746,132.26056,-74.17201,14.292942
366093110000.0,2.9537879384847723,9.577508296501383,-0.3347543485295746,-0.13744467,-2.1285598,-0.1423316,132.64603,-74.11717,14.444058
366098099000.0,2.877624254643846,9.629620513214196,-0.1383321888487289,-0.1020145,-2.1181753,-0.105374254,133.01222,-74.052,14.601085
366103091000.0,2.8014147718348856,9.681764066196829,0.0582080839768436,-0.05375614,-2.112983,-0.07147124,133.39693,-73.99069,14.752614
366108116000.0,2.697430502981652,9.64896279587156,0.1618612061146789,-0.004886922,-2.1285598,-0.047036625,133.77867,-73.92563,14.907309
366113026000.0,2.5895815304048666,9.597382824790587,0.2415756074369764,0.038179077,-2.1365013,-0.025961773,134.15053,-73.856476,15.06512
366118656000.0,2.4147576255981558,9.552644541462476,0.2880955958489478,0.07849618,-2.1365013,-0.005192355,134.51524,-73.79103,15.201637
366123070000.0,2.2685299108676853,9.520149239262036,0.3165287922917267,0.119729586,-2.1331415,0.01863139,134.87521,-73.723335,15.340867
366128101000.0,2.0845726802618225,9.49569251867262,0.3361688634645829,0.15668693,-2.1197023,0.042455133,135.2614,-73.67567,15.456468
366133092000.0,1.8953991425613963,9.47629022143292,0.3507206724984777,0.19547687,-2.1209242,0.0711658,135.64462,-73.6234,15.576887
366138073000.0,1.7554466266759776,9.403590048683162,0.3293364918096568,0.21105394,-2.117259,0.07880162,136.04697,-73.607475,15.655825
366143115000.0,1.630202924162011,9.31206547565842,0.2956170303451716,0.22449298,-2.096184,0.0870483,136.43813,-73.58538,15.739734
366148092000.0,1.522038622605364,9.1349259919442,0.2346077719225857,0.23304509,-2.0674734,0.096516706,136.8594,-73.60222,15.782526
366153132000.0,1.417718346743295,8.92628563827488,0.1634802953531781,0.23945917,-2.021353,0.098043874,137.26376,-73.617905,15.822387
366158135000.0,1.342080879226482,8.743003628610033,0.1261935539503462,0.24037547,-1.9526308,0.07941248,137.67973,-73.66052,15.834306
366163086000.0,1.27801769024658,8.570834087823004,0.1021698570376625,0.25595254,-1.8741345,0.042760566,138.07413,-73.70701,15.838612
366168105000.0,1.2354081,8.40931591388963,0.0935357772878343,0.27488935,-1.7779233,-0.01038471,138.45898,-73.777725,15.816783
366173094000.0,1.2354081,8.273447794188217,0.1147650917426464,0.2996294,-1.6783522,-0.084910266,138.81555,-73.86348,15.775739
366178117000.0,1.2383689673618066,8.146901163555233,0.1433808754393953,0.32895094,-1.570229,-0.16920967,139.14995,-73.97527,15.705134
366183065000.0,1.268575919333394,8.116694527001185,0.2383169316747108,0.3381139,-1.4489723,-0.26297748,139.44719,-74.10799,15.608564
366188740000.0,1.3037517281818185,8.084914481818181,0.3462450918181818,0.33933565,-1.3295482,-0.35613444,139.71829,-74.257645,15.490618
366193056000.0,1.3481327205654976,8.155923958410881,0.3965435457337151,0.3323107,-1.2064588,-0.44806966,139.94887,-74.43021,15.345421
366198084000.0,1.3998351370866142,8.23864769527559,0.455139612992126,0.3109304,-1.0772609,-0.528093,140.14604,-74.614914,15.180353
366203107000.0,1.4693761161998216,8.343556421052632,0.5299536435361285,0.2950479,-0.9221011,-0.57879484,140.29572,-74.81376,14.997846
366208065000.0,1.6896306885637824,8.635817473684211,0.7417369178340767,0.26725355,-0.8005389,-0.6252206,140.41422,-75.02881,14.795419
366213137000.0,1.9149496056735056,8.93479852631579,0.9583897551150756,0.26389378,-0.6963864,-0.6640105,140.4976,-75.24479,14.5884695
366218109000.0,2.019488955376344,9.07267467434716,1.1014909251152074,0.25473082,-0.63529986,-0.6936375,140.55547,-75.465996,14.373559
366223011000.0,2.105123073924731,9.185351022273425,1.2321955828341014,0.26083946,-0.6215554,-0.72021013,140.59448,-75.693825,14.151561
366228100000.0,2.17800102782516,9.237334865179596,1.3955411821141546,0.25137106,-0.6291912,-0.7425067,140.61957,-75.88629,13.957103
366233082000.0,2.244517101385928,9.268636402657044,1.563787947031327,0.2611449,-0.6469063,-0.7467828,140.64233,-76.078224,13.764145
366238382000.0,2.306285225441913,9.308867163073463,1.714671141953612,0.2669481,-0.75900006,-0.7492262,140.69748,-76.25792,13.579923
366243111000.0,2.3479322677940124,9.355141976703791,1.807219851149484,0.2941316,-0.9108001,-0.75441855,140.76868,-76.43692,13.398308
366248061000.0,2.3887786000085143,9.395950276117496,1.835439646879523,0.31215215,-1.0797043,-0.7458665,140.88933,-76.59179,13.236638
366253082000.0,2.4256253869902085,9.42460909246488,1.7494636680885485,0.32070425,-1.2403619,-0.70952,141.05089,-76.73711,13.086865
366258243000.0,2.462246781649731,9.452309,1.6512521647340108,0.32834008,-1.3548992,-0.6771441,141.25294,-76.87122,12.947582
366263121000.0,2.478202935829562,9.452309,1.4119096854239603,0.33261612,-1.4092661,-0.6062838,141.48196,-76.98092,12.834272
366268143000.0,2.494630120391085,9.452309,1.165501745470071,0.30451632,-1.3848315,-0.5412266,141.72316,-77.07622,12.738315
366273102000.0,2.4823226132389675,9.448864150707744,0.8506214054954204,0.27183503,-1.3274102,-0.49021935,141.9675,-77.15294,12.661285
366278080000.0,2.4575134383846797,9.443902212114905,0.503292698480433,0.24862215,-1.2522738,-0.44715336,142.19644,-77.2105,12.602216
366283130000.0,2.3101402921884264,9.5087757166822,0.1383350843768533,0.1966986,-1.178359,-0.43188173,142.40584,-77.26315,12.553924
366288120000.0,2.127943228984156,9.593801038210623,-0.2260590420316869,0.13347405,-1.1007792,-0.41691554,142.58907,-77.30076,12.5181675
366293049000.0,2.0048116554341786,9.68269822051472,-0.5058773885613775,0.059864793,-1.0360274,-0.39920044,142.7803,-77.35241,12.476669
366298094000.0,1.9645566467320863,9.781099072671728,-0.6713703282160711,-0.0106901415,-0.95905846,-0.38637227,142.94252,-77.39709,12.438023
366303902000.0,1.9270100351898731,9.892058745684697,-0.8444076703521288,-0.058643065,-0.8671232,-0.36896262,143.1023,-77.49553,12.356401
366308172000.0,1.9113241811814343,9.970487851937092,-0.9479341659486,-0.10720685,-0.77518797,-0.34513888,143.23636,-77.58306,12.280902
366313199000.0,1.8928574860759493,10.062821134637517,-1.069814187813579,-0.13041973,-0.68325275,-0.32162055,143.3575,-77.68498,12.194047
366318101000.0,1.900865633843159,10.116729407675194,-1.1934709433259176,-0.14385876,-0.5858198,-0.28985557,143.44724,-77.773895,12.116912
366323103000.0,1.92306773508528,10.152252510011124,-1.3222429543381535,-0.12492194,-0.473726,-0.25320363,143.50319,-77.85305,12.048296
366328210000.0,1.9922958240348168,10.10938848350414,-1.4260245868033132,-0.08032878,-0.34574974,-0.226631,143.54639,-77.94508,11.969819
366333185000.0,2.1060061086761195,9.988989711919135,-1.499601819535308,-0.016798794,-0.27916542,-0.21502456,143.57256,-78.02985,11.898307
366338178000.0,2.2201278074126067,9.868155326688193,-1.5734452613505543,0.02321288,-0.12980886,-0.20677789,143.55312,-78.11249,11.829804
366343113000.0,2.305751874371759,9.78017858915038,-1.4959090385520544,0.14508049,0.027488936,-0.20830505,143.51,-78.19541,11.762432
366348076000.0,2.3768473937774237,9.709083168727563,-1.3347593199441563,0.28130344,0.16646078,-0.20616703,143.42688,-78.27255,11.698804
366353084000.0,2.433194616925549,9.652735899303696,-1.131983335850741,0.42943826,0.267559,-0.19761491,143.3247,-78.31447,11.670538
366358269000.0,2.4819548623727905,9.603975514997323,-0.897047199625067,0.59437186,0.3023783,-0.160963,143.19983,-78.34426,11.651077
366363110000.0,2.511084885897167,9.572883746274922,-0.6504108583294859,0.7483099,0.29718593,-0.12644911,143.06221,-78.35198,11.647814
366368107000.0,2.516106425204617,9.56284045792235,-0.3541398504260231,0.8793405,0.258396,-0.09132435,142.92297,-101.65747,11.655265
366373846000.0,2.503864656852742,9.56952160237418,-0.040890042474247,0.977079,0.17165314,-0.0421497,142.79593,-101.69921,11.688381
366378094000.0,2.483908683930148,9.585486714117533,0.1746346151221426,1.0506883,0.062002823,0.013133603,142.68584,-101.760414,11.732602
366383083000.0,2.430536996552383,9.616100541209054,0.4046486602024639,1.0729848,-0.06688975,0.077579886,142.59972,-101.84137,11.7931185
366388056000.0,2.3395706107917102,9.661583710342851,0.6047747373717887,1.0613784,-0.18997909,0.15027285,142.543,-101.94549,11.870111
366393042000.0,2.23773484836817,9.716952730289696,0.8041831058672534,1.0128145,-0.321926,0.23090707,142.52663,-102.05941,11.958346
366398042000.0,2.114820198569857,9.791579151265124,1.0017245433443345,0.9428705,-0.42119157,0.2764165,142.53566,-102.18377,12.054819
366403070000.0,1.9741958669740023,9.876225129081014,1.181854165734583,0.8594874,-0.52198434,0.31642818,142.57692,-102.29899,12.148381
366408070000.0,1.7462110952085852,10.010120987605804,1.2650866702690446,0.782213,-0.61178154,0.3717115,142.64325,-102.4275,12.256544
366413025000.0,1.5202781863890569,10.14281178340387,1.3475700822626964,0.7147123,-0.6914995,0.42210788,142.73454,-102.52174,12.340028
366418057000.0,1.2239659031778576,10.24161202614044,1.421372868375192,0.6441574,-0.7699956,0.4596761,142.85083,-102.62257,12.433174
366423044000.0,0.8665650203895439,10.305259029010765,1.485019564510507,0.5626069,-0.8744536,0.47128254,142.99686,-102.72465,12.530435
366428096000.0,0.6253764247875775,10.269109210023554,1.5107551938410535,0.48166725,-0.93034774,0.44318274,143.1474,-102.75038,12.558094
366433071000.0,0.4799030326563727,10.156886568699294,1.5065988141847684,0.43768495,-1.0396926,0.42058071,143.34282,-102.7786,12.588695
366438020000.0,0.3760420186318887,10.025142618644068,1.4602671351669545,0.39003745,-1.0977248,0.36926803,143.54402,-102.71227,12.529932
366443666000.0,0.3870174919415406,9.811120940677966,1.2736842264284989,0.3475823,-1.1487321,0.2764165,143.77281,-102.628105,12.453645
366448009000.0,0.4286280905335436,9.66275609176951,1.1265487114150503,0.34055737,-1.1557571,0.24190263,144.01909,-102.517914,12.350644
366453094000.0,0.5551517894015032,9.52719509705855,0.9458005627605084,0.3323107,-1.1475104,0.18845193,144.27303,-102.37735,12.218417
366458075000.0,0.6950398043779372,9.400653135790256,0.7252340787435072,0.32375857,-1.1346822,0.1301143,144.53667,-102.24114,12.085224
366463263000.0,0.9367236975925468,9.30643719086487,0.2336736109357737,0.30879238,-1.1108584,0.07788532,144.79247,-102.0936,11.941506
366468016000.0,1.1581430392365406,9.220121002308517,-0.2166708191895456,0.29016098,-1.0671816,0.04520403,145.05061,-101.97568,11.821509
366473043000.0,1.2293086425988011,9.207643297775068,-0.5699372427349385,0.25961772,-0.98929626,0.016187929,145.28967,-101.84492,11.690482
366478114000.0,1.2342424994310677,9.227378622066444,-0.8758365672589657,0.24831672,-0.895223,-0.0009162979,145.50946,-101.71058,11.5565405
366483127000.0,1.2263121268879666,9.24113716307054,-1.087575548526971,0.23060162,-0.7703011,-0.007941248,145.7294,-101.647255,11.476443
366488103000.0,1.2144480214605808,9.25300151626556,-1.269491976278008,0.22449298,-0.6123924,0.0061086523,145.91066,-101.58667,11.399874
366493051000.0,1.1799368650073476,9.247401629041146,-1.3782377984570169,0.22204952,-0.44043383,0.014966198,146.07098,-101.53242,11.319377
366498039000.0,1.1009651154849376,9.20791589171565,-1.3475265981631153,0.21319197,-0.29840767,0.036651913,146.19267,-101.48722,11.249007
366503117000.0,1.017468304390903,9.157130957442018,-1.2929315110560684,0.20189096,-0.20463985,0.049480084,146.28712,-101.44868,11.176228
366508070000.0,0.9213401398558884,9.05744230601216,-1.1291575157396982,0.20738874,-0.14782938,0.043676864,146.34953,-101.41407,11.106494
366513378000.0,0.818322110913458,8.95060859678751,-0.9536452267957668,0.22082779,-0.16310102,0.045814894,146.41266,-101.369484,11.026546
366518039000.0,0.7073034457775479,8.838012214174858,-0.7026908723828247,0.2443461,-0.23915374,0.053450707,146.47566,-101.32842,10.94747
366523032000.0,0.5687751224066219,8.699484231764098,-0.3415278509746507,0.27122417,-0.29443705,0.0729984,146.53603,-101.29501,10.873502
366528080000.0,0.5540324817821782,8.556971777227723,0.1153957946039604,0.2910773,-0.4456262,0.087964594,146.64755,-101.2332,10.776769
366533123000.0,0.6364767336497098,8.412694026544896,0.6430389660950836,0.34788775,-0.6218608,0.105374254,146.78171,-101.184746,10.686034
366538097000.0,0.76278514644727,8.318555838444277,1.0547882626776364,0.39370266,-0.84329945,0.13591751,146.9659,-101.102264,10.577528
366543106000.0,1.0418440584808444,8.386327820742956,1.1026268976315134,0.419359,-1.0430524,0.14202617,147.19394,-101.02263,10.465597
366548057000.0,1.317671703415607,8.453315060583394,1.1499116014958863,0.43127087,-1.2110404,0.14905111,147.45808,-100.93823,10.385407
366553082000.0,1.613327009699769,8.772443923787527,0.9602352196304852,0.44135013,-1.3833044,0.12186762,147.78044,-100.849174,10.294931
366558029000.0,1.9079043814176584,9.14276936578433,0.720365059022917,0.4184427,-1.5308284,0.10170906,148.14392,-100.762886,10.207332
366563119000.0,2.158318508817936,9.5621024702232,0.3264108632409168,0.38912117,-1.6096299,0.09743301,148.538,-100.73304,10.181122
366568101000.0,2.363663424381944,10.001444959663695,-0.1702372918786908,0.32070425,-1.6728544,0.11759156,148.9698,-100.69937,10.15484
366573098000.0,2.4694703347131983,10.263497527751996,-0.6883496230852051,0.24587326,-1.6652187,0.13744467,149.41107,-100.7303,10.181186
366578099000.0,2.500587379227771,10.3924113692222,-1.221785015394468,0.12889257,-1.6099354,0.16310102,149.85663,-100.75806,10.214526
366583053000.0,2.511545098601207,10.567620318431157,-1.737996013987932,-0.048258353,-1.5329664,0.21594086,150.31448,-100.8399,10.283976
366588121000.0,2.493795932135674,10.816109390290729,-2.2482863453099284,-0.27183503,-1.4288138,0.27000242,150.7484,-100.91278,10.361153
366593017000.0,2.4737854329487696,11.071478596772891,-2.705479326179911,-0.48838675,-1.258077,0.3115413,151.16748,-101.01706,10.449324
366598040000.0,2.442737903202904,11.389715938765631,-3.043121374263816,-0.6844745,-1.0619892,0.33475417,151.54964,-101.11059,10.548058
366603062000.0,2.411696554530052,11.707889924727713,-3.3806962031464303,-0.84696466,-0.86559606,0.32375857,151.90892,-101.20538,10.631549
366608138000.0,2.3652853422330096,12.30870709223301,-3.444349658252427,-0.9718866,-0.70280045,0.28191432,152.22131,-101.28163,10.713927
366613118000.0,2.314772450617829,12.990629964254191,-3.4148838817299203,-1.0824533,-0.5983425,0.21899518,152.49373,-101.33464,10.788072
366618104000.0,2.267284522083805,13.58737402831257,-3.231982499207248,-1.1682798,-0.5656612,0.1160644,152.76215,-101.35444,10.812406
366623107000.0,2.222888962184701,14.09545744569134,-2.8866830933388243,-1.2217305,-0.56107974,-0.022602014,153.00629,-101.33983,10.809727
366628089000.0,2.1707833262074425,14.64572550013196,-2.4834412073898124,-1.2379184,-0.634689,-0.09193522,153.27,-101.26439,10.753351
366633085000.0,2.111854787595672,15.235010446731769,-2.028849950312307,-1.2406673,-0.79168135,-0.24220806,153.55063,-101.12844,10.636362
366638027000.0,2.05741157953782,15.745906291357018,-1.62181268064746,-1.1636983,-1.0650436,-0.36743546,153.87997,-100.94048,10.478939
366643046000.0,2.013372728596152,16.054178043571213,-1.333113342319047,-0.9819659,-1.4159856,-0.42577308,154.27403,-100.744644,10.300562
366648008000.0,1.957648770299072,16.19438618425576,-1.1206345457545548,-0.6969972,-1.765706,-0.37232238,154.73785,-100.5005,10.083688
366653109000.0,1.8694847188294947,15.921497589205911,-1.087048257133035,-0.35033122,-2.02624,-0.2443461,155.27675,-100.29013,9.877505
366658491000.0,1.7765259806751057,15.6129264,-1.0534488,-0.015271631,-2.144137,-0.09712757,155.87825,-100.09579,9.67812
366663221000.0,1.6958257498265354,15.009798844444443,-1.0534488,0.26542094,-2.1361957,0.0143553335,156.51978,-99.95805,9.510759
366668017000.0,1.6139994692451944,14.398255555555556,-1.0534488,0.44898596,-1.9828686,0.04642576,157.16412,-99.85379,9.358088
366673033000.0,1.606332100123207,13.791212079204437,-0.958875814214556,0.548557,-1.7076738,0.019547688,157.77135,-99.78683,9.225811
366678084000.0,1.6148461222652468,13.186715884801549,-0.8439364130590512,0.52931476,-1.3775011,-0.04886922,158.31781,-99.72879,9.096947
366683067000.0,1.6184803,12.607088265703696,-0.6173513866977098,0.43982297,-1.0225884,-0.15302174,158.79529,-99.66343,8.957292
366688127000.0,1.6184803,12.03146049225506,-0.2996048951838829,0.27214047,-0.6963864,-0.26145032,159.18407,-99.57278,8.804772
366693045000.0,1.5631996918001687,11.42524128520236,0.0156430569666947,0.024740042,-0.3933972,-0.39461896,159.49313,-99.43939,8.638674
366698944000.0,1.420298592864671,10.633331000105397,0.4026669779774452,-0.28680122,-0.14630222,-0.5360342,159.72218,-99.25143,8.447403
366703227000.0,1.4364701231328671,10.174860186573426,0.2572236597846154,-0.6719518,0.09682214,-0.6933321,159.87578,-98.97908,8.232749
366708117000.0,1.515066887958042,9.709829051608391,-0.1226608049846153,-1.0503827,0.32528573,-0.8142834,159.96251,-98.65058,7.9958367
366713087000.0,1.5949494894265734,9.237190045314684,-0.5087601485230768,-1.3787229,0.54733527,-0.92149025,159.99919,-98.23315,7.716905
366718108000.0,1.6741737247547606,9.04882480323139,-0.9173398056001154,-1.6255124,0.7254025,-0.9957104,159.9858,-97.78283,7.418927
366723129000.0,1.7527896049047893,8.979457935372187,-1.3335412879976918,-1.8216002,0.79229224,-1.0262536,159.94472,-97.32214,7.1076455
366728148000.0,1.745342983768116,8.97545698357488,-1.6218345257004831,-1.9019289,0.90224797,-1.067487,159.87695,-96.91245,6.803717
366733411000.0,1.6862093105175984,9.010241454520358,-1.8479338047757072,-1.9905044,0.9932669,-1.0980303,159.79955,-96.52776,6.497102
366738101000.0,1.633513713416149,9.041238826501036,-2.049416916853002,-2.0344868,1.0589349,-1.138042,159.72641,-96.188965,6.188049
366743064000.0,1.4865577797817402,9.107586798791775,-2.2185243234239502,-2.0589213,1.0922271,-1.1728612,159.63907,-84.10913,5.8750625
366748072000.0,1.3043045435740035,9.187030669784663,-2.372738566432817,-2.0702224,1.0998629,-1.2177598,159.54298,-84.36495,5.5509987
366753173000.0,1.0924314103961787,9.25024814442259,-2.388685355127845,-2.0610592,1.0748174,-1.2589933,159.45996,-84.60055,5.201374
366758092000.0,0.8762370527582655,9.303193851831038,-2.340151866788424,-2.0690005,1.0134255,-1.3008375,159.3857,-84.78789,4.8429503
366763048000.0,0.6586428030562324,9.357702487866678,-2.257802358366631,-2.0723603,0.91965765,-1.3625349,159.33755,-84.976654,4.4308405
366768782000.0,0.4071146371230874,9.421922617288764,-2.1293626024559007,-2.0912971,0.818254,-1.4129313,159.30743,-85.102585,4.01577
366773037000.0,0.196018023758492,9.451517941919434,-2.054796499913884,-2.10046,0.71929383,-1.4749341,159.31233,-85.202934,3.5372064
366778084000.0,-0.0768472126916084,9.470017169648838,-1.9854239371543392,-2.1053472,0.6401868,-1.5247196,159.33781,-85.22377,3.055044
366783064000.0,-0.3346049284301154,9.496614640501924,-1.9544755844293824,-2.0967948,0.57604593,-1.5748106,159.39087,-85.176834,2.5163698
366788065000.0,-0.5758714904671186,9.53609450778531,-1.9807955570250964,-2.062892,0.54702985,-1.6206255,159.45343,-85.04739,1.9726629
366793026000.0,-0.8468020988303594,9.568893076752326,-2.0273297600187825,-2.0066924,0.5513059,-1.6493362,159.51437,-84.84789,1.3701957
366798093000.0,-1.2486625248612653,9.577179025527192,-2.155759327192009,-1.9190332,0.6261369,-1.6563611,159.55907,-84.58232,0.7675799
366803073000.0,-1.643623038307863,9.585322705199353,-2.281983768581917,-1.7843374,0.75319684,-1.6404786,159.56905,-84.2803,0.11280834
366808084000.0,-1.8421200625936287,9.529835852359897,-2.249425144743254,-1.6190983,0.8894198,-1.6145169,159.54892,-83.944664,-0.53534
366813023000.0,-2.0085936462593628,9.46580758523599,-2.1939340244743253,-1.3967434,1.0228939,-1.5531249,159.48602,-83.611725,-1.1644411
366818053000.0,-2.1399129184417656,9.321793273288831,-2.040592657407592,-1.1591167,1.0751228,-1.5036448,159.34451,-83.2969,-1.8809699
366823040000.0,-2.249354886709176,9.136217448640032,-1.835983654358872,-1.0393872,1.1554517,-1.4877623,159.14932,-82.95963,-2.5856318
366828116000.0,-2.3086134614609573,8.939406375314862,-1.589967017884131,-0.78801614,1.1655309,-1.4691309,158.9499,-82.648895,-3.3062136
366833082000.0,-2.338562203040662,8.742601150593739,-1.3289861608672184,-0.55680364,1.1044444,-1.4905112,158.74329,-82.31308,-4.024147
366838351000.0,-2.337319179996401,8.575040819220732,-1.0582393531224692,-0.344528,0.9984592,-1.5601498,158.56796,-81.93159,-4.7642527
366843120000.0,-2.30033121423558,8.46818698200306,-0.8198730906343922,-0.15393804,0.8579602,-1.6627752,158.41867,-81.54687,-5.506305
366848046000.0,-2.251804821324467,8.399308920295136,-0.5807297720440882,-0.008246681,0.68691796,-1.7907515,158.35982,-81.08099,-6.270505
366853172000.0,-2.15789839707597,8.502159042539626,-0.3616147416633266,0.112704635,0.52839845,-1.9126191,158.34007,-80.59499,-7.0471296
366858380000.0,-2.060125126092727,8.620571327552646,-0.1317840485391966,0.19730948,0.35735616,-2.0039434,158.44989,-80.03581,-7.8291793
366863104000.0,-1.940038011564325,8.912783037338524,0.172436748880729,0.2687807,0.1518,-2.069917,158.61995,-79.451645,-8.62105
366868017000.0,-1.815146395629092,9.216685689789418,0.4888289541567864,0.31337386,-0.12583824,-2.082745,158.9601,-78.82797,-9.385011
366873107000.0,-1.5617153448326864,9.495362070438158,0.7775449854686634,0.3304781,-0.38728857,-2.0641136,159.36009,-78.19441,-10.140158
366878205000.0,-1.2638516647254576,9.761634314475874,1.0528432059900168,0.3472769,-0.57879484,-2.021353,159.82411,-77.565186,-10.872786
366883088000.0,-0.8571911626649596,9.932984923576916,1.2386874088831987,0.34238997,-0.6597345,-1.9795089,160.51366,-76.909966,-11.550949
366888132000.0,-0.3529195725526887,10.051916820366358,1.376648508508962,0.29657507,-0.66675943,-1.9327776,161.24185,-76.27133,-12.197174
366893041000.0,0.1501832724381624,10.125188667844522,1.5962472473498233,0.22052236,-0.7351763,-1.88849,162.298,-75.62163,-12.765378
366898099000.0,0.6787788089794221,10.165462375181876,1.8932675999584287,0.09437868,-0.8567385,-1.8356501,163.37418,-74.98769,-13.298347
366903315000.0,1.1818346992417563,10.271255892964204,1.9417613199083052,-0.058948494,-1.0057896,-1.7779233,164.95592,-74.30833,-13.752115
366908152000.0,1.6270126981837418,10.401950848263091,1.8559931046640803,-0.21777347,-1.1414018,-1.7241671,166.56316,-73.641335,-14.161986
366913024000.0,1.898318755106427,10.547957315186244,1.7169307738334016,-0.3594942,-1.2082914,-1.6679676,167.93361,-73.17898,-14.357502
366918037000.0,1.8491900726156365,10.724819977077363,1.4762003270978306,-0.48380527,-1.351234,-1.6337591,169.3602,-72.710205,-14.519983
366923027000.0,1.7772756481568168,10.892084691047396,1.2097429523893115,-0.5305365,-1.5033394,-1.568702,170.67542,-72.41988,-14.506718
366928073000.0,1.6688823125219423,11.04760571796372,0.8987012430271113,-0.59528816,-1.6420058,-1.4944818,172.01971,-72.11778,-14.4655695
366933083000.0,1.5530551364592462,11.175496507839128,0.575165169470445,-0.61086524,-1.7455474,-1.4156802,173.3641,-71.85765,-14.403951
366938062000.0,1.423040398948291,11.254434191547375,0.2269112889362157,-0.6035349,-1.8127426,-1.346347,174.72713,-71.60729,-14.310334
366943101000.0,1.306221985228895,11.297731791282002,-0.0912435313356809,-0.5717699,-1.8252654,-1.2647965,176.07309,-71.39855,-14.214688
366948104000.0,1.2241405016655564,11.256690716189206,-0.3283676972991339,-0.54641896,-1.7959439,-1.1753048,177.41388,-71.2109,-14.0890255
366953652000.0,1.1311792290649472,11.1825954652234,-0.5682341370428373,-0.50640726,-1.7269161,-1.0876455,178.71674,-71.068054,-13.98205
366958066000.0,1.05329435155228,11.065768209949333,-0.7123211909387379,-0.45540005,-1.6120734,-1.001819,179.9849,-70.95594,-13.850153
366963360000.0,0.954264623704425,10.922853968733095,-0.8814506072703667,-0.41416663,-1.4718798,-0.9282097,181.20128,-70.877686,-13.732846
366968115000.0,0.8064628849832305,10.765199199177756,-0.9947652976306394,-0.37690386,-1.3329079,-0.8527679,182.37244,-70.831566,-13.595173
366973066000.0,0.6549797215114236,10.605282408472853,-1.0956581185829248,-0.3659083,-1.1887437,-0.7861836,183.4796,-70.803276,-13.483311
366978189000.0,0.5097587878031634,10.460061398945518,-1.1183488717047452,-0.3643811,-1.0687088,-0.7309003,184.54341,-70.79765,-13.35914
366983343000.0,0.363972625211577,10.315862293294488,-1.1345611550004775,-0.37384954,-0.9651671,-0.6765333,185.59105,-70.77968,-13.269666
366988102000.0,0.2333698276377877,10.207026477122934,-1.0649063326583246,-0.3857614,-0.8775079,-0.63163465,186.59904,-70.77513,-13.172387
366993044000.0,0.0977449010545419,10.094005547616774,-0.9925730416276626,-0.410196,-0.7993172,-0.5815437,187.59418,-70.748436,-13.108101
366998065000.0,-0.0400480484344254,9.979177929840482,-0.9190834717642564,-0.41080686,-0.74372846,-0.5348125,188.56033,-70.737236,-13.034676
367003092000.0,-0.178005657890916,9.864213095233549,-0.8455060832553252,-0.3915646,-0.6957755,-0.47861293,189.5085,-70.73945,-12.950788
367008082000.0,-0.225089151934413,9.685115670556282,-0.7652495932602355,-0.35460728,-0.659429,-0.42363504,190.43309,-70.758385,-12.856191
367013059000.0,-0.2538571381440498,9.49332919595614,-0.6837402914897898,-0.30909783,-0.65057147,-0.3707952,191.34044,-70.79753,-12.74736
367018052000.0,-0.2468680615948107,9.325318449473274,-0.6040441102692158,-0.27214047,-0.6414085,-0.34483343,192.34601,-70.74894,-12.706673
367024321000.0,-0.2307470082256809,9.122178762645914,-0.5057634439260701,-0.19150625,-0.6585127,-0.26358834,193.3373,-70.745964,-12.633503
367028149000.0,-0.2485777577509727,9.033025089494163,-0.4701019523229572,-0.060170226,-0.67011917,-0.23304509,194.32224,-70.73954,-12.580548
367033083000.0,-0.2715602337587549,8.91811280544747,-0.4241370099066147,-0.01160644,-0.7021896,-0.18325958,195.3337,-70.73197,-12.499565
367038052000.0,-0.3300624229385307,8.814007946026987,-0.4327366891754123,0.07574729,-0.7333437,-0.12858713,196.33408,-70.77249,-12.4086485
367043115000.0,-0.4027571338130934,8.71223532043978,-0.4618145735252373,0.16401732,-0.73914695,-0.071776666,197.32146,-70.83789,-12.303903
367048103000.0,-0.528389710791559,8.632658796011041,-0.5699790426676165,0.23915374,-0.6817256,-0.019547688,198.29607,-70.916466,-12.201499
367053191000.0,-0.6759020252070163,8.558902502893776,-0.7088142036897872,0.30207285,-0.5739079,0.017104227,199.24452,-71.02263,-12.093119
367058064000.0,-0.792700105027225,8.512474864063087,-0.8236072208505445,0.36163223,-0.44043383,0.04337143,200.19762,-71.13137,-12.007619
367063236000.0,-0.8903490139081862,8.489225141194142,-0.9259060500281636,0.41386122,-0.29932398,0.062308256,201.10529,-71.26029,-11.924845
367068014000.0,-0.9591534547948654,8.47961768562799,-1.004366710495847,0.4541783,-0.15454891,0.07819075,202.03401,-71.37483,-11.899236
367073115000.0,-0.9919423053234332,8.491913753335012,-1.0576486006292474,0.50946164,-0.0015271631,0.100792766,202.90704,-71.51075,-11.878718
367078165000.0,-1.0244033316259753,8.504086884470174,-1.1103977763151271,0.559858,0.13683382,0.13103059,203.79945,-71.637566,-11.897764
367083083000.0,-0.91785522873057,8.713284789159028,-0.8832447466321244,0.6243043,0.2574797,0.16829337,204.63866,-71.78579,-11.918682
367088433000.0,-0.8019714951655816,8.941113619303708,-0.6327170449731108,0.6948592,0.36926803,0.22052236,205.42635,-71.95468,-11.936461
367093826000.0,-0.7288782260288706,9.116536984904236,-0.3695812282517219,0.76144356,0.45204028,0.28955013,206.19926,-72.14176,-11.960849
367098009000.0,-0.6721845221907727,9.25260150155675,-0.1654838573365412,0.8368854,0.52748215,0.35430184,206.88202,-72.36982,-11.936846
367103204000.0,-0.6479390568866277,9.425678958269092,0.1627220322170829,0.9236283,0.5671884,0.43279803,207.53851,-72.62741,-11.894223
367108028000.0,-0.633693421437969,9.587129496659472,0.4808739952883133,1.0033462,0.57696223,0.5186246,208.17099,-72.90976,-11.835976
367113110000.0,-0.6749736283036774,9.674184076710162,0.8046070046026097,1.0827587,0.57635134,0.61575216,208.7867,-73.21404,-11.728274
367118010000.0,-0.7213618788967971,9.748405320284697,1.115408279217082,1.1270463,0.55863625,0.6597345,209.39705,-73.52931,-11.614498
367123103000.0,-0.7904205533672997,9.76658906493747,1.4325953590088003,1.1908818,0.50610185,0.7449502,210.01805,-73.858665,-11.450699
367128087000.0,-0.8611656054840204,9.775432375358962,1.7421049908754054,1.2339478,0.41630468,0.8240572,210.64664,-74.19545,-11.278543
367133118000.0,-0.9077412475390962,9.751244778374748,1.9325358787489209,1.2495248,0.32284227,0.8924741,211.31181,-74.501305,-11.095655
367138081000.0,-0.9442218926028976,9.714763895231698,2.073898336707282,1.2342533,0.23060162,0.9465357,211.9905,-74.81811,-10.896842
367143112000.0,-0.9729699436639394,9.64320593793654,2.1260512,1.1841623,0.13316862,0.98715824,212.73198,-75.074554,-10.702212
367148098000.0,-0.9967924964478148,9.552680336858913,2.1260512,1.1026118,0.05100725,1.0085385,213.48145,-75.32522,-10.501918
367153114000.0,-0.9991485567365428,9.448768290108502,1.9913120574739285,1.0094548,-0.012217305,1.0170907,214.24059,-75.54099,-10.306665
367158087000.0,-0.989114757853155,9.33839629284736,1.7806020713789108,0.9111055,-0.044593163,1.0201449,214.99997,-75.73979,-10.112269
367163230000.0,-0.9460944395692864,9.24268311593036,1.5808843721646373,0.8249735,-0.020463986,1.0085385,215.75266,-75.90933,-9.935283
367168060000.0,-0.8948902665794506,9.158894257119854,1.3993423794102848,0.7556403,0.029626964,0.9764681,216.49406,-76.05699,-9.769802
367173034000.0,-0.8570821739910314,9.10543648508481,1.2064256045915382,0.70280045,0.07574729,0.95111716,217.20279,-76.214165,-9.616353
367178122000.0,-0.823831295426009,9.062685480210568,1.0069202786410605,0.6704246,0.1301143,0.9257663,217.88625,-76.35333,-9.480202
367183136000.0,-0.8294402211613849,9.05932918208463,0.8371399147426268,0.64568454,0.21227567,0.9077458,218.49928,-76.51831,-9.344332
367188136000.0,-0.8513691641912439,9.072486811687122,0.6792515606484704,0.6239988,0.31215215,0.88178396,219.08427,-76.66891,-9.225876
367193050000.0,-0.8838760555837564,9.112978304568529,0.5423292306802031,0.6123924,0.43310347,0.84788096,219.62425,-76.840935,-9.117555
367198042000.0,-0.9275579560913704,9.18092778680203,0.4209905973238579,0.6032294,0.58093286,0.8258898,220.1212,-77.00431,-9.022707
367203044000.0,-0.976898547315904,9.2771224324183,0.3395539246570806,0.60048056,0.7495316,0.80848014,220.56725,-77.18087,-8.953425
367208069000.0,-1.031417520191721,9.398741883398692,0.2934225022387799,0.61086524,0.8588765,0.8051204,220.98267,-77.354164,-8.892503
367213064000.0,-1.0962169793213368,9.52485709748072,0.2951763771948586,0.62125,1.0619892,0.8029824,221.34326,-77.525185,-8.862179
367218044000.0,-1.1942992187043702,9.667076167917738,0.4472038866447301,0.64934975,1.2082914,0.8029824,221.68393,-77.69853,-8.8351145
367223032000.0,-1.296957462909523,9.78826884043456,0.6445348579188593,0.69027776,1.3182472,0.82436264,221.98157,-77.877655,-8.82423
367228234000.0,-1.4153515302155832,9.86015110252928,0.9658902402308608,0.743423,1.3561208,0.8371908,222.25563,-78.05853,-8.818315
367233773000.0,-1.5426430059584797,9.929768438482968,1.3115929416913814,0.7968737,1.3161092,0.88147855,222.5588,-78.212555,-8.822334
367238122000.0,-1.6549362027500674,9.914795715197268,1.6185275936011505,0.87995136,1.2208142,0.8762862,222.86407,-78.370346,-8.835001
367243111000.0,-1.7837544963332437,9.8976196019592,1.970630830754022,0.89766645,1.0461067,0.88453287,223.25662,-78.45349,-8.863603
367248035000.0,-1.9312573509545297,9.798808376605344,2.274287119819508,0.9089675,0.8173377,0.8689558,223.68593,-78.54241,-8.8938875
367253216000.0,-2.0948691857948627,9.661030372700452,2.575677318231517,0.89949906,0.5561928,0.8353582,224.16731,-78.62654,-8.918781
367258065000.0,-2.306842485606754,9.45111827260706,2.7150962995117487,0.8222246,0.28985557,0.7690793,224.77435,-78.598526,-8.991758
367263127000.0,-2.612571632590784,9.11580235093073,2.655922956087885,0.72051555,0.059253927,0.6942484,225.43408,-78.55703,-9.067336
367268103000.0,-2.7991402164467005,8.893615120253807,2.453488474720812,0.5476407,-0.14477506,0.5992588,226.27617,-78.35758,-9.230118
367273052000.0,-2.847257559796954,8.80219201715736,2.078172895126904,0.36346483,-0.2843578,0.5030475,227.14453,-78.12899,-9.403587
367278133000.0,-2.8918031087396434,8.778784716768092,1.7184374970965617,0.16279559,-0.33567044,0.39675698,228.29291,-77.7017,-9.75545
367283095000.0,-2.930128601356404,8.831046520639342,1.3944129669990468,-0.030848695,-0.31429017,0.27855456,229.41643,-77.23691,-10.120437
367288033000.0,-2.9682687227875943,8.883055546740964,1.071955665583987,-0.22021692,-0.2837469,0.19028452,230.65367,-76.713615,-10.554091
367293050000.0,-2.988405110215408,9.133951060201298,0.7225980426977707,-0.35277468,-0.2452624,0.118202426,231.82675,-76.16745,-10.995691
367298036000.0,-3.0018798326686107,9.452853387733986,0.3677634315003292,-0.44348818,-0.23457226,0.07941248,232.94518,-75.607445,-11.430962
367303100000.0,-2.9730729991471043,9.873478644870442,0.0790757477410445,-0.4905248,-0.25381452,0.07727446,234.0805,-75.06279,-11.896505
367308046000.0,-2.919207640216067,10.34287658329949,-0.1594708326277313,-0.48349985,-0.2742785,0.086132,235.15578,-74.53182,-12.345078
367313100000.0,-2.827416547117517,10.821481683027615,-0.4071841695746825,-0.45173484,-0.33536503,0.13164146,236.1436,-74.10601,-12.734428
367318130000.0,-2.545826328713969,11.292417334106029,-0.6742093390969564,-0.37232238,-0.37140608,0.20738874,237.081,-73.720764,-13.091058
367323057000.0,-2.233477769565217,11.712435130434782,-0.9222881591304348,-0.24495697,-0.37140608,0.30390546,237.84613,-73.51289,-13.32453
367328100000.0,-1.734462059703325,11.939709081943734,-1.110036670794885,-0.076358154,-0.3481932,0.3933972,238.5827,-73.35409,-13.524252
367333294000.0,-1.2473304925220876,12.119237719646598,-1.263717199043629,0.07727446,-0.34147367,0.47800204,239.14667,-73.3973,-13.568877
367338107000.0,-0.8694831854403862,12.13603083295382,-1.2973036448492576,0.25259277,-0.30543262,0.5546656,239.67856,-73.492,-13.588349
367343244000.0,-0.4728240094621004,12.125493385844749,-1.3284535875159815,0.40225476,-0.28924468,0.63255095,240.07349,-73.77483,-13.447782
367348820000.0,-0.1655895513726027,11.584175815068493,-1.2748094630958904,0.5540548,-0.2828306,0.72173727,240.45355,-74.09886,-13.285921
367352991000.0,0.064230198392694,11.179255515981737,-1.2346821957077627,0.68691796,-0.29565877,0.81061816,240.75784,-74.54569,-13.010455
367357973000.0,0.11492168,11.089942,-1.2258313,0.7828238,-0.2932153,0.8897252,241.05313,-75.0168,-12.719584
367363067000.0,0.1052201776881025,11.053214884802705,-1.225138336040155,0.8741482,-0.24251351,0.95203346,241.3364,-75.511055,-12.41627
367367965000.0,-0.0253236638604512,10.559013208329192,-1.2158137825365272,0.9297369,-0.15363261,0.98624194,241.57074,-76.04476,-12.061792
367373143000.0,-0.1789270810289814,10.00627203700557,-1.1943425755876522,0.95417154,-0.043676864,0.99296147,241.78363,-76.582756,-11.706668
367377986000.0,-0.5073076675549892,9.1305903845464,-1.03671986442934,0.93645644,0.06841691,0.960891,241.97313,-77.10698,-11.362982
367382991000.0,-0.8466726965788729,8.225616882469556,-0.8738246198810535,0.91354895,0.16126843,0.87964594,242.1503,-77.56394,-11.084372
