timestamp,acc_x,acc_y,acc_z,gyro_x,gyro_y,gyro_z,ori_azimuth,ori_pitch,ori_roll
451471086000.0,-0.9051613074726856,-1.290769735416573,9.544928165909807,6.229298,9.9772625,-3.154508,92.19305,7.4971004,-11.727829
451476085000.0,-0.9025304347846068,-1.304402436394247,9.53918806551464,6.229298,7.665748,0.032986723,91.176704,7.3322935,-11.203339
451481093000.0,-0.8998948255783862,-1.3180596811424348,9.533437630871914,-1.1823297,0.7431176,0.03634648,92.287224,8.038935,-11.884646
451486067000.0,-0.897277109885147,-1.3316242049797922,9.527726236719973,-1.1774428,0.7449502,0.0290161,92.61808,6.541665,-13.958887
451491721000.0,-0.8943015239322772,-1.3470431470337565,9.521234032752323,-1.176221,0.7641924,0.035124753,92.70284,7.103121,-14.065631
451496161000.0,-0.8919648416488067,-1.359151407153955,9.516135803955658,-1.1960741,0.74097955,0.03268129,92.79307,7.6578727,-14.156278
451501208000.0,-0.8893087075306366,-1.3729150082410364,9.5103405875735,-1.1652255,0.75502944,0.022296581,92.88825,8.18631,-14.258828
451506050000.0,-0.8867604607701491,-1.386119556777523,9.504780762385783,-1.1743884,0.7651087,0.032375857,92.97927,8.718224,-14.350696
451511040000.0,-0.8841343246002128,-1.399727713984683,9.49905099623818,-1.1930199,0.7797695,0.029321533,93.07998,9.234467,-14.443157
451516109000.0,-0.881466612326584,-1.413551310955243,9.493230518361983,-1.2076806,0.78984874,0.04337143,93.17497,9.738995,-14.534795
451521151000.0,-0.8788131096073817,-1.427301276614261,9.487441043228472,-1.2223413,0.745561,0.051618114,93.27228,10.238274,-14.611217
451526069000.0,-0.8762248655825827,-1.4407130836573097,9.481793951061354,-1.1997393,0.7648033,0.067500606,93.369026,10.718807,-14.705933
451531169000.0,-0.8735408386353531,-1.454621220281862,9.47593787744356,-1.2385293,0.7495316,0.07880162,93.46219,11.209414,-14.77558
451536126000.0,-0.8709320696986046,-1.468139383663804,9.470246003537012,-1.2498302,0.73761976,0.086132,93.5548,11.674922,-14.849125
451541113000.0,-0.8683075123680489,-1.4817393596141262,9.464519682138594,-1.2525792,0.7266242,0.09865474,93.64343,12.137232,-14.916706
451546149000.0,-0.8656571673276081,-1.4954729627594685,9.458737096503455,-1.2498302,0.70829827,0.121256754,93.62222,12.416906,-14.780049
451551139000.0,-0.8630310311576718,-1.5090811199666283,9.45300733035585,-1.2544118,0.689056,0.13836098,93.60411,12.692275,-14.648529
451556104000.0,-0.8604180519825747,-1.5226211000334715,9.447306270451469,-1.2779301,0.6585127,0.16401732,93.58052,12.963514,-14.518305
451561356000.0,-0.8576540305067218,-1.536943753671148,9.44127566287487,-1.2534955,0.6123924,0.17592919,93.55878,13.216371,-14.385777
451566111000.0,-0.8551515700882754,-1.5499110457593337,9.435815735413575,-1.1734722,0.57848936,0.18600847,93.533905,13.452495,-14.2566395
451571176000.0,-0.8524859629338208,-1.5637237343874428,9.429999850536298,-1.1221595,0.5271767,0.19761491,93.50539,13.683099,-14.117576
451576144000.0,-0.8498714049193431,-1.5772718957111242,9.42429534588273,-1.0002918,0.4633413,0.20922135,93.474655,13.866155,-13.973013
451581102000.0,-0.8472621097028011,-1.590792786178679,9.418602323726452,-0.8686504,0.40408736,0.21624629,93.44217,14.027156,-13.822746
451586072000.0,-0.8446464991287362,-1.604346401673586,9.412895522573429,-0.7498371,0.3436117,0.21991149,93.40565,14.153594,-13.661983
451591106000.0,-0.8419972066478825,-1.6180745506477028,9.407115233437748,-0.605062,0.07544186,0.16126843,93.36759,14.237292,-13.430353
451596074000.0,-0.8393826486334047,-1.6316227119713842,9.401410728784178,-0.116675265,-0.0033597588,0.14019357,93.3293,14.187368,-13.244727
451601053000.0,-0.8367623015411977,-1.645200871236805,9.39569359338359,0.013133603,0.018936822,0.13897185,93.29132,14.198409,-13.019724
451606063000.0,-0.8341256397753898,-1.658863570156218,9.389940862241406,-0.0421497,0.008857546,0.1328632,93.25259,14.128723,-12.77206
451611049000.0,-0.8315016087246276,-1.6724608190209274,9.384215689092718,-0.044898596,-0.008246681,0.11484267,93.21836,14.011752,-12.537044
451616106000.0,-0.8288402118085217,-1.6862516909641354,9.37840899021327,-0.03940081,-0.029626964,0.10140363,93.18336,13.910229,-12.30697
451621084000.0,-0.8262203909961082,-1.6998271231439437,9.372693003062412,-0.02076942,-0.035124753,0.081855945,93.15497,13.809471,-12.083664
451626083000.0,-0.8235895183080297,-1.7134598241216177,9.366952902667247,-0.020463986,-0.03940081,0.063224554,93.12848,13.715179,-11.862537
451631100000.0,-0.8209491725836668,-1.727141612640319,9.361192133776958,-0.022907447,-0.04642576,0.053145275,93.1042,13.619296,-11.646717
451636073000.0,-0.8183319831702212,-1.740703409392064,9.355481887874747,-0.012217305,-0.05100725,0.0421497,93.084984,13.522938,-11.437113
451641107000.0,-0.8156826906893675,-1.7544315583661807,9.349701598739069,-0.020463986,-0.04734206,0.035430185,93.06709,13.434967,-11.235271
451646155000.0,-0.8130260302914037,-1.7681978865388748,9.34390523410718,-0.025045475,-0.03573562,0.025350908,93.053055,13.3458605,-11.040936
451651289000.0,-0.8103241098311926,-1.7821987440742575,9.338010119998602,-0.020463986,-0.02321288,0.025045475,93.038025,13.258294,-10.8553
451656098000.0,-0.8077932303038932,-1.7953132987855265,9.332488187051942,-0.020158553,-0.011911872,0.004886922,93.0317,13.176764,-10.67737
451661071000.0,-0.8051760408904476,-1.8088750955372712,9.326777941149729,-0.0076358155,-0.010995574,0.005497787,93.019226,13.091265,-10.507817
451666101000.0,-0.8025288535287682,-1.8225923361689371,9.321002245012965,-0.0012217305,0.011301007,0.0106901415,93.012764,13.010112,-10.352428
451671174000.0,-0.7998590361359651,-1.836426841481948,9.315177174137856,0.0009162979,0.019242255,0.008246681,93.00678,12.928898,-10.198665
451677182000.0,-0.7966971471361699,-1.8528111718427929,9.308278489766147,0.0021380284,0.03023783,0.00030543262,93.00195,12.848039,-10.057334
451681112000.0,-0.7946288675474225,-1.863528618300536,9.30376586833126,0.017715093,0.033292156,-0.0033597588,92.995964,12.764299,-9.921214
451686110000.0,-0.7919985211391374,-1.8771585921925973,9.298026916185824,0.015882496,0.03848451,-0.00580322,92.99213,12.687304,-9.793124
451691105000.0,-0.7893697535702331,-1.8907803848278208,9.292291408789572,0.028099801,0.04337143,-0.006414085,92.98828,12.60394,-9.670276
451696175000.0,-0.7867015150168108,-1.904606708883993,9.28646978266365,0.031154128,0.030848695,-0.013439035,92.985504,12.525952,-9.547817
451701081000.0,-0.7841195863495346,-1.91798579089969,9.28083646949328,0.03023783,0.01985312,-0.020158553,92.982544,12.447521,-9.431287
451706246000.0,-0.7814013512157227,-1.9320711880890649,9.274905759643104,0.03145956,0.0033597588,-0.02107485,92.97813,12.369531,-9.3137665
451711097000.0,-0.7788483679370931,-1.9453002803960653,9.269335600207825,0.033292156,-0.018936822,-0.022296581,92.97401,12.293756,-9.195196
451716096000.0,-0.7762174952490146,-1.9589329813737395,9.26359549981266,0.043982297,-0.020158553,-0.021380283,92.96924,12.216821,-9.08207
451721175000.0,-0.77354452017745,-1.9727838492004257,9.257763539439177,0.04062254,-0.02107485,-0.026572637,92.96464,12.145383,-8.966492
451726066000.0,-0.7709704857070775,-1.986122024931933,9.25214745001474,0.042455133,-0.019242255,-0.02565634,92.957634,12.070866,-8.855779
451731144000.0,-0.7682980369153065,-1.9999701656730065,9.246316637890985,0.0421497,-0.018936822,-0.028099801,92.95236,11.999965,-8.747737
451736125000.0,-0.7686686019695622,-2.0018743819942686,9.24330076568831,0.03756821,-0.0143553335,-0.028405234,92.94612,11.931259,-8.645303
451741108000.0,-0.7828166335942287,-1.949998392430082,9.252732960766874,0.0290161,-0.0070249503,-0.020158553,92.93785,11.865105,-8.547667
451746073000.0,-0.7974638810636295,-1.8980178661332832,9.256888622929216,0.03359759,0.0018325958,-0.017715093,92.95957,11.858211,-8.429917
451751128000.0,-0.8156908245547816,-1.843337030901732,9.229548133942018,0.02321288,-0.002443461,-0.015271631,92.97799,11.857717,-8.315128
451756416000.0,-0.8357755787002323,-1.7840552794732765,9.204607681564678,0.0067195175,-0.0076358155,-0.020158553,92.99716,11.8444395,-8.192884
451761111000.0,-0.8636380798388846,-1.7109161985282726,9.218538848489542,0.0070249503,0.004276057,-0.0106901415,93.01172,11.829044,-8.079658
451766008000.0,-0.8926993509945779,-1.6346303456235476,9.233069396824169,0.006414085,0.006414085,-0.008857546,93.0206,11.8103075,-7.962882
451771112000.0,-0.917629923736846,-1.5928832028773272,9.247884573037016,0.0018325958,0.0027488936,-0.009468411,93.027466,11.792734,-7.8520985
451776063000.0,-0.9350759375745088,-1.5998616025829715,9.261841299580544,0.0015271631,0.003970624,-0.004276057,93.03224,11.7742195,-7.747442
451781024000.0,-0.9525571887659136,-1.6068540972183385,9.27582621583634,0.00030543262,-0.00030543262,-0.01038471,93.03054,11.736338,-7.6448865
451786102000.0,-0.9636047971579756,-1.6000173542630367,9.294735552189128,-0.003970624,0.01282817,-0.0009162979,93.02391,11.6993885,-7.5519238
451791006000.0,-0.9716212906631392,-1.5879926140052916,9.314777204489204,-0.005497787,-0.00030543262,0.002443461,93.01874,11.663252,-7.452783
451796077000.0,-0.9799255507675156,-1.581718725383758,9.341720596175286,0.0021380284,-0.0027488936,0.004581489,93.01418,11.626315,-7.357251
451801051000.0,-0.9880955195866564,-1.5858037097933282,9.378485370551411,-0.002443461,-0.019547688,-0.0067195175,93.01079,11.594338,-7.256371
451806435000.0,-0.9951584979807044,-1.5897499,9.414830419340364,-0.0030543262,-0.020158553,0.004276057,93.002655,11.553199,-7.1565104
451811042000.0,-0.9885590936579164,-1.5897499,9.421429961483808,-0.0076358155,-0.032070424,0.0125227375,92.99681,11.515821,-7.051011
451816055000.0,-0.9813781051903372,-1.5897499,9.428611099917733,-0.0036651916,-0.05131268,0.007330383,92.98965,11.4766445,-6.9370384
451821092000.0,-0.9843522341260654,-1.597267834126065,9.427516627906977,-0.016493361,-0.06536258,0.005192355,92.979065,11.443859,-6.824934
451826123000.0,-1.0046325164790066,-1.6175481164790066,9.412306627906975,-0.020463986,-0.06566802,0.01282817,92.96698,11.408004,-6.7147665
451831113000.0,-1.0110803710027585,-1.6280571,9.394272177506895,-0.02107485,-0.064751714,0.012217305,92.9584,11.374729,-6.593134
451836043000.0,-1.00267862280452,-1.6280571,9.3732678070113,-0.017715093,-0.058337633,0.01863139,92.946144,11.341574,-6.4771557
451841058000.0,-0.9959879,-1.6334451744885303,9.353308094544328,-0.017104227,-0.05009095,0.016187929,92.938255,11.314648,-6.361138
451846096000.0,-0.9959879,-1.6583718221223394,9.338351824860508,-0.02076942,-0.048258353,0.018020526,92.92757,11.288133,-6.248755
451851023000.0,-0.9973196510661952,-1.674609448933805,9.321151105608893,-0.013439035,-0.04153884,0.021991149,92.919334,11.259261,-6.139279
451856054000.0,-1.0021888659019709,-1.6697402340980292,9.29680452299141,-0.018936822,-0.03023783,0.017104227,92.91359,11.23576,-6.0340786
451861010000.0,-1.0029853508760664,-1.671523098247867,9.292821880286212,-0.019242255,-0.024740042,0.021380283,92.90567,11.214504,-5.929427
451866050000.0,-0.9941298198238694,-1.6892341603522611,9.3370999978901,-0.021380283,-0.015271631,0.012217305,92.9039,11.196222,-5.8306346
451871080000.0,-0.9851589609195402,-1.7046716,9.376946165229883,-0.018936822,-0.004886922,0.016187929,92.89668,11.176906,-5.7364774
451876071000.0,-0.9753482448275862,-1.7046716,9.386757086206895,-0.01863139,-0.004886922,0.01740966,92.89286,11.159456,-5.643666
451881113000.0,-0.9638427412880246,-1.7115011174239507,9.395701706391993,-0.022602014,-0.014049901,0.013744468,92.89097,11.144455,-5.547089
451886449000.0,-0.9441654707835964,-1.750855658432807,9.40062112033115,-0.021685716,-0.023518313,0.019547688,92.88611,11.1279545,-5.453298
451891095000.0,-0.92895025,-1.7824632043176805,9.423651028994644,-0.027183503,-0.026267206,0.015271631,92.88104,11.116674,-5.356742
451896071000.0,-0.92895025,-1.7937271871730225,9.607629337220295,-0.038179077,-0.024129177,0.017715093,92.87234,11.106557,-5.2619834
451901084000.0,-0.92895025,-1.8050749255278915,9.792975651355183,-0.026267206,-0.03359759,0.009468411,92.86955,11.0998,-5.1564093
451906047000.0,-0.9131951298698096,-1.8152682021402504,9.63736112949995,-0.022602014,-0.044898596,0.0143553335,92.86248,11.098064,-5.054353
451911105000.0,-0.8845298789279021,-1.824823277473124,9.207382240654898,-0.03176499,-0.053145275,0.012217305,92.8594,11.09701,-4.952275
451916103000.0,-0.8583877203936289,-1.831790433732373,8.951507433600487,-0.035430185,-0.059864793,0.009773844,92.84973,11.088284,-4.844856
451921056000.0,-0.8343266825403266,-1.836602637283149,8.840826952926854,-0.03176499,-0.064751714,0.008857546,92.840065,11.080187,-4.7384768
451926045000.0,-0.8260329471416856,-1.8848708883917995,8.84977079735763,-0.02565634,-0.069027774,0.005192355,92.83957,11.090779,-4.633232
451932247000.0,-0.8314448434223234,-1.987696544756264,8.979655652574031,-0.033292156,-0.07666359,0.0027488936,92.838554,11.103963,-4.5282173
451936120000.0,-0.8206233210695932,-2.03483495313997,8.99780413274105,-0.030543262,-0.082161374,-0.005497787,92.8405,11.118526,-4.420656
451941093000.0,-0.7874377180297883,-2.072168794460413,8.93558120825712,-0.029321533,-0.081855945,-0.0033597588,92.84012,11.135144,-4.31563
451946177000.0,-0.756193931410311,-2.1068976,8.92105716420963,-0.010995574,-0.087659165,-0.008857546,92.84834,11.159844,-4.2100134
451951168000.0,-0.7521208330890499,-2.1068976,9.393536654537709,-0.019547688,-0.098043874,-0.005497787,92.85316,11.191021,-4.1064467
451956081000.0,-0.7481113896804431,-2.1068976,9.858632173668514,-0.004581489,-0.099571034,-0.011911872,92.865326,11.22225,-3.9984922
451961109000.0,-0.7386095757123473,-2.1152789242876526,9.667324902306648,0.0021380284,-0.1020145,-0.013439035,92.87446,11.257338,-3.8907473
451966095000.0,-0.7271761193790406,-2.12671238062096,9.22904240952989,0.0036651916,-0.09682214,-0.017715093,92.88636,11.289158,-3.7870944
451971166000.0,-0.7138066997444718,-2.137854900127764,8.91511325159705,0.0012217305,-0.09621128,-0.017104227,92.88204,11.30105,-3.6760995
451976131000.0,-0.6951142920786241,-2.147201103960688,9.0319407995086,0.013744468,-0.076358154,-0.011911872,92.87903,11.307866,-3.5754154
451981084000.0,-0.6792319043439355,-2.1526174130318068,9.142567734564386,0.014966198,-0.06047566,-0.017715093,92.88563,11.344003,-3.481192
451986110000.0,-0.6753164242495729,-2.140870972748719,9.22870846018059,0.015882496,-0.049785517,-0.021991149,92.89115,11.37584,-3.3939872
451991003000.0,-0.6715045571382088,-2.129435371414626,9.312569695843164,0.005497787,-0.027488936,-0.022296581,92.8973,11.407379,-3.311892
451996161000.0,-0.64019474235474,-2.1109602739041797,9.361532254842,0.0076358155,-0.018936822,-0.021380283,92.90412,11.434505,-3.2312524
452002009000.0,-0.5926198316513762,-2.0871727440366974,9.399591944954128,0.0061086523,-0.01863139,-0.03145956,92.91487,11.465178,-3.1561573
452006103000.0,-0.5764217204955182,-2.072727061234767,9.44301404461678,0.0036651916,-0.01863139,-0.029321533,92.92282,11.486153,-3.0839012
452011106000.0,-0.5812472749843892,-2.058250458233457,9.520222694732604,-0.00030543262,-0.008857546,-0.02565634,92.93364,11.507706,-3.0162919
452016016000.0,-0.5855236082111261,-2.0454214953666217,9.565891603838656,0.0021380284,-0.01863139,-0.028710667,92.94956,11.518026,-2.9338586
452021157000.0,-0.5892148909221773,-2.034347647233468,9.562200244039586,0.0027488936,-0.019242255,-0.032070424,92.96544,11.529758,-2.8594618
452026062000.0,-0.5927367235807467,-2.02378214925776,9.55867833783176,-0.002443461,-0.022296581,-0.025350908,92.97751,11.5356045,-2.7825906
452031091000.0,-0.5871498017064519,-2.0107878632729363,9.541122438788229,0.00061086525,-0.01863139,-0.020158553,92.99109,11.538978,-2.709669
452036069000.0,-0.5780090846208418,-1.997076816278401,9.518270693797335,0.005497787,-0.022907447,-0.021380283,93.00375,11.543249,-2.6361165
452041100000.0,-0.5720519597279369,-1.9868629194558736,9.48420459727937,0.016493361,-0.016187929,-0.02321288,93.009575,11.54466,-2.5671954
452046171000.0,-0.567974039432362,-1.978707078864724,9.443425394323622,-0.0009162979,-0.018325957,-0.026572637,93.01535,11.552783,-2.4967735
452051053000.0,-0.5572595800638686,-1.965050174991705,9.391656396400132,0.00061086525,-0.017104227,-0.0125227375,93.02194,11.547569,-2.427549
452056128000.0,-0.5250085570255474,-1.932799130905773,9.298934513105507,0.017715093,-0.012217305,-0.00580322,93.03144,11.543086,-2.3604033
452061018000.0,-0.4939331870437956,-1.901723740643663,9.2095926393497,0.01863139,-0.014049901,-0.0018325958,93.03977,11.541629,-2.2951584
452066105000.0,-0.4958145315644452,-1.881412929146833,9.164144612779202,0.015882496,-0.013744468,0.002443461,93.04638,11.536446,-2.2343564
452071106000.0,-0.5045830324423288,-1.8638759182350784,9.12907077407543,0.009162978,-0.015271631,0.01038471,93.05048,11.5322485,-2.1749754
452076058000.0,-0.50757074,-1.8459929695568955,9.078420339554023,0.014049901,-0.0015271631,0.016493361,93.05554,11.521728,-2.11501
452081161000.0,-0.50757074,-1.827284802115035,9.01761850234472,0.014049901,0.009773844,0.011301007,93.06148,11.511893,-2.0549057
452086109000.0,-0.5129151568787939,-1.8106859385353435,8.981932337380066,-0.003970624,0.007330383,0.021991149,93.06112,11.505877,-1.9978465
452091103000.0,-0.5222800754376347,-1.7950777409372756,8.963202800143595,-0.005497787,0.010995574,0.01038471,93.069336,11.495708,-1.9457487
452096087000.0,-0.5316262416565498,-1.7795007972390835,8.94451076698649,-0.01038471,0.022296581,0.017715093,93.06831,11.490516,-1.8967388
452101059000.0,-0.5552730506402956,-1.7788236650384577,8.937532281989812,-0.019547688,0.032375857,0.025045475,93.07058,11.487269,-1.8493172
452106064000.0,-0.5935764441274598,-1.793187480091899,8.942319803715913,-0.016798794,0.04917465,0.02321288,93.074356,11.482154,-1.8082577
452111084000.0,-0.624257676736342,-1.806110712446556,8.971201882660333,-0.014049901,0.055283304,0.03176499,93.0721,11.475969,-1.7741011
452116110000.0,-0.6471237323467933,-1.8175437283135392,9.024556275059382,-0.022296581,0.055283304,0.027794369,93.07442,11.4724245,-1.7430809
452121552000.0,-0.6714570934208284,-1.8299805450656208,9.08124432955514,-0.020463986,0.05222898,0.03604105,93.065506,11.470851,-1.7219712
452126117000.0,-0.6863601416567241,-1.841157831242543,9.114776110277823,-0.013439035,0.053450707,0.031154128,93.06176,11.470236,-1.7016829
452131049000.0,-0.7024613100903359,-1.853233707567752,9.151003655190046,-0.007330383,0.049785517,0.03023783,93.0606,11.466141,-1.6857291
452136114000.0,-0.7209220135922331,-1.8603481627184464,9.169899172087378,-0.011301007,0.053450707,0.04184427,93.05776,11.462954,-1.6730307
452141929000.0,-0.7434499634304207,-1.864853752686084,9.1789100697411,-0.015882496,0.03726278,0.036651913,93.05851,11.45848,-1.6531616
452146159000.0,-0.7585060306698641,-1.8655389740527577,9.190618086490808,-0.013133603,0.02565634,0.04153884,93.05439,11.45388,-1.641629
452151088000.0,-0.7698259736458832,-1.8542190586570744,9.228351137809751,-0.0027488936,0.026572637,0.03145956,93.055725,11.448623,-1.6283252
452156054000.0,-0.781230890833733,-1.8428141692565947,9.266367435811352,-0.005192355,0.010079277,0.03390302,93.05878,11.442659,-1.613452
452161042000.0,-0.7699182200216325,-1.8182402982444463,9.29274187702804,-0.006414085,0.013439035,0.046731193,93.06277,11.433633,-1.6047454
452166065000.0,-0.7459040799093103,-1.786221441975206,9.312754053997836,0.005192355,0.010079277,0.05131268,93.06693,11.421909,-1.5896372
452171037000.0,-0.7329874741164804,-1.7631624326721962,9.333990217544176,0.009773844,0.0070249503,0.054061573,93.063934,11.409136,-1.5776935
452176096000.0,-0.7548271479264335,-1.7675303583122972,9.36019786260368,-0.0018325958,0.01160644,0.049785517,93.06187,11.398006,-1.5672532
452181254000.0,-0.7768597680852257,-1.7697170537706757,9.388401521446593,-0.004276057,0.018936822,0.053450707,93.05818,11.372757,-1.5535681
452186033000.0,-0.7939675073282871,-1.7397784788337538,9.435447942809082,-0.017715093,0.022296581,0.06078109,93.05462,11.3545,-1.5405886
452191052000.0,-0.8119343922960471,-1.7083363973086627,9.484857021867114,-0.016493361,0.030848695,0.061391957,93.04567,11.33627,-1.5334307
452196097000.0,-0.817920362095672,-1.7202388083826878,9.513966893849656,-0.023823744,0.03726278,0.06872234,93.032974,11.324478,-1.527763
452201059000.0,-0.8222502100774487,-1.737558200309795,9.539946072164009,-0.029321533,0.047036625,0.06658431,93.02355,11.312137,-1.5252156
452206041000.0,-0.8353555635924501,-1.7723543089811251,9.574514869129615,-0.03634648,0.051923547,0.070249505,93.00426,11.295622,-1.5301505
452211562000.0,-0.8542744536577511,-1.819651534144378,9.61708222855354,-0.042760566,0.04886922,0.06688975,92.98785,11.2808485,-1.5349394
452216099000.0,-0.8725350923567858,-1.8557428886582084,9.636392540176857,-0.04917465,0.038179077,0.06811147,92.96371,11.273903,-1.537286
452221148000.0,-0.8957729450038447,-1.8929234548346792,9.641040201941562,-0.039095376,0.03604105,0.063224554,92.9429,11.264162,-1.5405414
452226055000.0,-0.9145556345658564,-1.9264656778519904,9.642258641464068,-0.039095376,0.019547688,0.0580322,92.93108,11.263124,-1.546114
452231106000.0,-0.92747906495948,-1.9566203592661855,9.63795073986998,-0.04520403,0.0125227375,0.055283304,92.92053,11.260988,-1.5533253
452236065000.0,-0.9401171223925056,-1.9850491160421344,9.623137501554137,-0.03573562,0.007941248,0.05467244,92.90689,11.26446,-1.5602617
452241051000.0,-0.9524854546062856,-2.005662967190468,9.536559240632014,-0.02687807,0.010079277,0.048563786,92.895836,11.269648,-1.5664645
452247264000.0,-0.9674556406896552,-2.0290941558620688,9.424238648275862,-0.028405234,0.018325957,0.040011674,92.88703,11.282218,-1.5773484
452251092000.0,-0.970395495573376,-2.011455026559743,9.291944871531676,-0.022296581,0.014660766,0.030848695,92.879776,11.289822,-1.5848296
452256072000.0,-0.9742200716760224,-1.9885075699438648,9.11983854755413,-0.023823744,0.029321533,0.03023783,92.87724,11.308152,-1.6033908
452261039000.0,-0.98414196724166,-1.9594247973393,8.974185326444264,-0.025045475,0.04795292,0.021380283,92.87975,11.324403,-1.6207049
452266130000.0,-1.0079444841497152,-1.9157868082506104,8.882942510659072,-0.010079277,0.05955936,0.020463986,92.88074,11.336017,-1.6401079
452271965000.0,-1.034124697353362,-1.8647508558744637,8.780398379738912,-0.009773844,0.08460484,0.013439035,92.88692,11.355634,-1.6696793
452276106000.0,-1.0305787809728184,-1.8080161567596569,8.748485206366237,-0.005497787,0.0888809,0.011911872,92.89134,11.369489,-1.6961678
452281094000.0,-1.0263075829756796,-1.7396769442060085,8.710044513590844,0.00030543262,0.09865474,0.00580322,92.899605,11.376359,-1.7398363
452286132000.0,-1.0395052457177516,-1.6575651552608168,8.693276461868177,-0.016187929,0.09712757,0.009468411,92.90509,11.388206,-1.7807995
452291093000.0,-1.0625593116215122,-1.569191309518803,8.689434043995147,-0.02321288,0.09407325,0.015882496,92.91187,11.39565,-1.8226471
452296094000.0,-1.0885543445784276,-1.4826482227876947,8.69183075902013,-0.058643065,0.083383106,0.025961773,92.90908,11.403704,-1.8596437
452301041000.0,-1.1290393769654383,-1.410674915381694,8.727817224838587,-0.069027774,0.092240654,0.030543262,92.90697,11.406554,-1.9002235
452306231000.0,-1.175630721446384,-1.3384602917705737,8.762395895261847,-0.08032878,0.0852157,0.048258353,92.89307,11.396227,-1.9408156
452310937000.0,-1.2646062478179552,-1.310362674771405,8.757713122090607,-0.09254608,0.089491755,0.062308256,92.88009,11.389196,-1.9859004
452315935000.0,-1.3645124163614983,-1.2780668284226442,8.754694417856543,-0.09285152,0.106901415,0.076358154,92.85379,11.366588,-2.0375373
452320964000.0,-1.5182287475726524,-1.2214345269947926,8.770875202124978,-0.10598512,0.11789699,0.09407325,92.82264,11.351087,-2.0882843
452325972000.0,-1.6713031931295146,-1.165038709625399,8.786988418990424,-0.09407325,0.13958271,0.09010262,92.79451,11.322245,-2.1588838
452330965000.0,-1.7142484,-1.1492168,8.849940508555639,-0.096516706,0.17959438,0.10751228,92.75737,11.3009405,-2.2382076
452335921000.0,-1.7142484,-1.1492168,8.930650251142524,-0.10842858,0.22235495,0.122783914,92.72361,11.279171,-2.3222039
452340962000.0,-1.7384766210016156,-1.1128744684975769,8.948775121163166,-0.12064589,0.25167647,0.13805555,92.67411,11.247106,-2.4401293
452345942000.0,-1.7673694707592893,-1.0695351938610662,8.953590696688208,-0.15424347,0.31031954,0.15363261,92.62469,11.224555,-2.5764346
452350983000.0,-1.8818374431646416,-0.9843625456997992,9.099840662776236,-0.17195857,0.3753767,0.19028452,92.571236,11.195119,-2.7231193
452355971000.0,-2.0097945074332726,-0.8929646153831435,9.268926848177555,-0.20280726,0.41172317,0.22602014,92.51578,11.178809,-2.875603
452360968000.0,-2.076936044479205,-0.8714894,9.396290663691572,-0.23060162,0.46792278,0.25167647,92.449005,11.160377,-3.0545635
452365952000.0,-2.1252466333640045,-0.8714894,9.510479203257267,-0.2910773,0.5323691,0.25350907,92.382095,11.159583,-3.242556
452370998000.0,-2.166307267193593,-0.8473722851923279,9.75360448108336,-0.3481932,0.61391956,0.25228736,92.30524,11.137686,-3.4707162
452376007000.0,-2.2016946987880703,-0.8069294903909789,10.08220206017494,-0.40439278,0.68630713,0.23335053,92.236664,11.132736,-3.7083683
452380983000.0,-2.162213341645836,-0.7315048723707629,10.463642950904909,-0.47433686,0.71868294,0.22327125,92.16556,11.143037,-3.9593484
452385967000.0,-2.0906242440755927,-0.6408254102449755,10.869314437356264,-0.5290093,0.71837753,0.20005837,92.10638,11.164796,-4.2133965
452390981000.0,-1.938545203804507,-0.5739021309569798,11.22825500673105,-0.6062838,0.7031059,0.17654006,92.04613,11.191544,-4.467298
452396037000.0,-1.7496062668032388,-0.5172204350599942,11.56834511306214,-0.6951646,0.6591236,0.16523905,91.9882,11.236618,-4.7057905
452400992000.0,-1.511093598474202,-0.4356995250652479,11.85812833647862,-0.79717916,0.591623,0.14844026,91.922874,11.275432,-4.9062963
452405972000.0,-1.242996833166031,-0.3399506867396105,12.126225001806867,-0.9147707,0.4896085,0.12705997,91.858955,11.343866,-5.078036
452411012000.0,-1.035085868480058,-0.2422591700889832,12.12870034893175,-1.0241156,0.355829,0.10445796,91.786125,11.416752,-5.1749578
452416051000.0,-0.8607057096174173,-0.1441703293062017,11.989196365689509,-1.1520919,0.22449298,0.093462385,91.71252,11.527779,-5.240387
452421031000.0,-0.6883673109002213,-0.0472299786218889,11.851325788879352,-1.2626585,0.112704635,0.08827003,91.63461,11.635577,-5.2143497
452426163000.0,-0.5107687843506934,0.0526691940110212,11.709247114142464,-1.3637567,0.033292156,0.09407325,91.554214,11.775883,-5.162733
452431042000.0,-0.3633155760655235,0.12449849,11.519928096652375,-1.423316,0.0070249503,0.12950343,91.467606,11.932674,-5.1023517
452436024000.0,-0.2805335749203919,0.12449849,11.154713124004898,-1.4355333,0.038789943,0.16890424,91.380646,12.101776,-5.0401053
452441021000.0,-0.2051835203004292,0.0943324287109135,10.847602163703248,-1.4175128,0.0888809,0.2171626,91.28268,12.248013,-4.9124756
452446071000.0,-0.1495854911158798,-0.01686363662477,10.695634628448804,-1.38025,0.21685717,0.24129178,91.191216,12.389027,-4.823153
452451208000.0,-0.093029634497854,-0.1299753569474249,10.541049038626609,-1.3671165,0.36987892,0.30787608,91.08945,12.540934,-4.755978
452456041000.0,-0.1037404744324324,-0.3315898374837555,10.463026937470572,-1.3359623,0.5305365,0.35827246,90.997345,12.673554,-4.7314916
452461038000.0,-0.1442996378378378,-0.5839579509087485,10.413454570486865,-1.3264939,0.65179324,0.4071417,90.89752,12.803777,-4.745039
452466998000.0,-0.3116065510752486,-0.9504149908237942,10.456969653593545,-1.3200798,0.7501425,0.47616947,90.80527,12.95487,-4.7906513
452471079000.0,-0.476621820536686,-1.2291074687183334,10.530309718896603,-1.3329079,0.7611381,0.48930305,90.720345,13.104855,-4.8447566
452476118000.0,-0.7267856078820207,-1.5900054334170066,10.616700456855977,-1.3384057,0.73548174,0.49235737,90.64375,13.296387,-4.9255843
452481046000.0,-1.032826757519088,-1.965152616180316,10.69567834452463,-1.3472633,0.6759224,0.47158796,90.572365,13.487613,-4.9970207
452486036000.0,-1.5009517445105875,-2.5048436621821586,10.71524767561017,-1.35551,0.5928447,0.4550946,90.50711,13.740328,-5.093495
452491053000.0,-2.130190036831363,-3.2076293228335744,10.674388287269323,-1.366811,0.5122105,0.40011674,90.45845,13.991583,-5.167089
452496112000.0,-2.696682957468272,-3.841409070224537,10.62648171900423,-1.3927728,0.44012842,0.3210097,90.42411,14.309302,-5.27215
452501150000.0,-2.90864110982753,-4.08476836506671,10.54405373535633,-1.423316,0.33383787,0.2134974,90.40823,14.626248,-5.336343
452506018000.0,-3.113447041880898,-4.319915853612105,10.46440716441588,-1.4624114,0.23487769,0.11942416,90.43966,15.094818,-5.495012
452511033000.0,-3.2998135617647057,-4.552685165546219,10.357638781512604,-1.5079209,0.14966199,0.032986723,90.49243,15.565895,-5.6171994
452516083000.0,-3.476180467980022,-4.782728959743142,10.2387824234977,-1.5415184,0.0720821,-0.08979719,90.5744,16.037771,-5.701369
452521142000.0,-3.631628159555627,-5.002974108951859,10.1092266137498,-1.577254,0.0027488936,-0.22143865,90.68221,16.575554,-5.792572
452526149000.0,-3.693390887103526,-5.1766819011028815,9.935518942521332,-1.6050484,-0.03634648,-0.3753767,90.824326,17.11307,-5.8566775
452531047000.0,-3.753809069554017,-5.346608157535019,9.765592804379327,-1.6120734,-0.03481932,-0.52931476,91.00935,17.70543,-5.932126
452536060000.0,-3.427826559191291,-5.513905337916019,9.462680429237947,-1.6358972,-0.009773844,-0.6606508,91.22543,18.30165,-5.9897723
452541100000.0,-2.921134587807154,-5.679049442426128,9.098612933125972,-1.6878207,-0.004581489,-0.77274454,91.47281,18.899534,-6.0282426
452546096000.0,-2.438784490510424,-5.819538473544212,8.752964018332134,-1.7345519,0.018936822,-0.8173377,91.7487,19.543068,-6.0824776
452551048000.0,-2.1021091,-5.7939683,8.5185695,-1.7626517,0.067500606,-0.90010995,92.06357,20.187815,-6.1279783
452556402000.0,-1.7381026297268152,-5.766322357117182,8.265146993709562,-1.806634,0.13103059,-0.95905846,92.42127,20.909655,-6.0842624
452561069000.0,-1.5052187901736112,-5.650376854184028,8.09958906529514,-1.8216002,0.2519819,-1.0100657,92.80574,21.62018,-6.0589604
452566014000.0,-1.2626770139583334,-5.5229394823958335,7.9269324157291665,-1.8081611,0.41416663,-1.0567969,93.21213,22.323528,-6.0528297
452571052000.0,-1.096161055761095,-5.3500506744919125,7.834423770717544,-1.7889189,0.5897904,-1.112691,93.661026,23.035898,-6.0131326
452576072000.0,-0.9884845584736623,-5.146661720364994,7.80251955736209,-1.758681,0.7489208,-1.1594223,94.13345,23.730387,-6.0035157
452581059000.0,-0.9165397344499367,-4.934819840268997,7.797486811932406,-1.7540996,0.88178396,-1.1982121,94.63615,24.412048,-5.9716315
452586041000.0,-1.0097801180618462,-4.677037564145304,7.918150691573744,-1.7482964,0.94225967,-1.2373075,95.15874,25.076017,-5.9516726
452591043000.0,-1.1033948107207725,-4.418220433440625,8.03929897057133,-1.7290541,0.93187493,-1.2913691,95.686966,25.694326,-5.910361
452596101000.0,-1.1980575687113462,-4.156505709909185,8.16180356776641,-1.6710218,0.89858276,-1.3393221,96.22494,26.292074,-5.8693748
452601057000.0,-1.3086512157195571,-3.966225553284133,8.182408984501846,-1.6230689,0.8671232,-1.378112,96.769615,26.879772,-5.8155594
452606219000.0,-1.4317838208302582,-3.7974882972509225,8.159606659040591,-1.5873333,0.84513205,-1.4159856,97.31899,27.447273,-5.7453113
452611035000.0,-1.5345296051136363,-3.717023706417112,8.070498198195187,-1.5546521,0.86742866,-1.4538593,97.832855,27.90563,-5.706148
452616102000.0,-1.6318404764204546,-3.70080524197861,7.916422955381016,-1.5674802,0.91446525,-1.4871514,98.351,28.36105,-5.659908
452621090000.0,-1.6994385031299524,-3.720921813359747,7.7621423668145795,-1.5668694,0.9798279,-1.5121969,98.85694,28.773409,-5.647265
452626134000.0,-1.5922632953645008,-3.9658938652773377,7.589896401553091,-1.5531249,1.070236,-1.5222762,99.3731,29.18042,-5.646338
452631073000.0,-1.487319133755943,-4.205766380031696,7.421236048177496,-1.5238034,1.1588113,-1.5183055,99.89234,29.591612,-5.6838055
452636059000.0,-1.4460979,-4.429124913657977,7.395642235874734,-1.4923438,1.1936307,-1.5170839,100.41587,29.993341,-5.723419
452641098000.0,-1.4460979,-4.642758850073783,7.46289722936547,-1.4581354,1.2709051,-1.5085317,100.95119,30.380701,-5.7916036
452646074000.0,-1.45865935825134,-4.852173871034317,7.529032227101832,-1.4300356,1.3225232,-1.5219707,101.51352,30.830833,-5.823087
452652119000.0,-1.5466477882969365,-5.09761537787377,7.607758910567155,-1.402852,1.3628404,-1.529912,102.07771,31.265669,-5.866585
452656016000.0,-1.6033708506439484,-5.255842929925605,7.658511248940084,-1.3686435,1.3848315,-1.5506815,102.658264,31.721994,-5.9001865
452661071000.0,-1.664175387970166,-5.427899739273398,7.711557617210683,-1.35551,1.3875804,-1.5824465,103.241905,32.17143,-5.929467
452666100000.0,-1.7182506693640227,-5.582400589349587,7.757907985163205,-1.3674219,1.3778065,-1.6148223,103.82724,32.613396,-5.95137
452671075000.0,-1.768891433820163,-5.705749291971264,7.786734251093392,-1.3591752,1.3426818,-1.6493362,104.4212,33.073063,-5.9700484
452676111000.0,-1.806965812252309,-5.694326990368674,7.737237531301808,-1.3628404,1.289842,-1.677436,105.01178,33.533943,-5.9717355
452681027000.0,-1.844132937822689,-5.683176864340412,7.688920240893661,-1.3692545,1.2278391,-1.706452,105.60626,34.011326,-5.9622936
452686062000.0,-1.807803085823568,-5.648988062565104,7.613410299153646,-1.3610078,1.1716396,-1.7376062,106.19466,34.4793,-5.931247
452691096000.0,-1.7293368807942708,-5.601908200260417,7.523174046614583,-1.3377949,1.1472049,-1.7415768,106.772766,34.937386,-5.8878436
452696090000.0,-1.6489034432382843,-5.547362088510053,7.429802467930586,-1.2956452,1.1542299,-1.7369953,107.348175,35.38369,-5.8418136
452701162000.0,-1.5560711867441326,-5.45824315949851,7.318403845439951,-1.2629639,1.174083,-1.7321084,107.91682,35.818886,-5.7883844
452706065000.0,-1.46633211860714,-5.372093690069566,7.210717046135617,-1.215011,1.2284501,-1.7128662,108.48487,36.235374,-5.726624
452711041000.0,-1.330250934472437,-5.291556489515258,7.113980629907708,-1.171945,1.2880094,-1.6667458,109.044266,36.636135,-5.6725793
452716105000.0,-1.156860281840858,-5.21494213162052,7.02526905096034,-1.1184943,1.3271047,-1.6325374,109.60222,37.01384,-5.6241035
452722094000.0,-0.943603643379552,-5.169869308989791,6.940613770699375,-1.0528263,1.3432927,-1.5949692,110.15599,37.366276,-5.5683227
452726133000.0,-0.7874191012768551,-5.208178697805882,6.91409188613439,-0.9941832,1.3283265,-1.5402967,110.69385,37.69858,-5.5199122
452731202000.0,-0.5914053741368277,-5.25625750243791,6.880806559850678,-0.9618073,1.3139712,-1.4899004,111.228874,38.01191,-5.4340606
452736063000.0,-0.4767487072960861,-5.301863568382133,6.822263831005378,-0.9410379,1.3127494,-1.4480561,111.74742,38.305775,-5.3538146
452741100000.0,-0.4190990308276068,-5.348703868434419,6.739392426725425,-0.9334021,1.2889256,-1.42973,112.24778,38.588913,-5.268015
452746981000.0,-0.3525019113422935,-5.403710931007151,6.640048174679073,-0.9092729,1.244638,-1.3723087,112.73019,38.87083,-5.1277113
452751117000.0,-0.3183762268208839,-5.44807427919359,6.524020849444301,-0.87017757,1.2373075,-1.3539828,113.21383,39.14224,-4.9864354
452756043000.0,-0.277732338534505,-5.500911284311192,6.385831631817007,-0.8668178,1.2162327,-1.3170254,113.683914,39.4272,-4.8294396
452761066000.0,-0.2626113845032389,-5.556099587824866,6.223789882619215,-0.84299403,1.1976013,-1.2724323,114.14174,39.689747,-4.6764054
452766097000.0,-0.2701320207734332,-5.612504507094357,6.043294855576368,-0.8622363,1.1859949,-1.235475,114.585144,39.95812,-4.525892
452771458000.0,-0.275915571554054,-5.679887998310811,5.835413921959459,-0.883922,1.1655309,-1.2009611,115.02791,40.241932,-4.371756
452776055000.0,-0.2461692309611486,-5.850929206292229,5.4152468407010135,-0.88025683,1.1578951,-1.1640037,115.45731,40.518093,-4.2250366
452781060000.0,-0.2137827974898648,-6.037150926097973,4.957788445726351,-0.8393288,1.1808025,-1.1200215,115.90244,40.8187,-4.099648
452786031000.0,-0.2034876357888239,-6.181243423257345,4.688588279861739,-0.7742717,1.2205088,-1.0708468,116.33563,41.105236,-3.9828882
452791307000.0,-0.207645914906592,-6.305991883630977,4.530573708122788,-0.70738196,1.2541064,-1.0192287,116.75755,41.373714,-3.8772497
452796083000.0,-0.206354335788344,-6.428377469522866,4.406959731054977,-0.6386596,1.2797627,-0.95172805,117.2186,41.720448,-3.7967265
452801062000.0,-0.1827372380204721,-6.597633342339441,4.363661666419019,-0.56382865,1.3066407,-0.89919364,117.67433,42.040874,-3.727482
452806048000.0,-0.1590869368614825,-6.767127172800065,4.320302728826151,-0.47647488,1.3203852,-0.84665924,118.13889,42.376305,-3.678295
452811038000.0,-0.1285944008433551,-6.995237058692343,4.367043538514233,-0.3680463,1.2947289,-0.81245077,118.58982,42.679413,-3.6294277
452816016000.0,-0.0959364550159841,-7.24198592462323,4.443245434845487,-0.24556783,1.2522738,-0.7724391,119.02389,42.94854,-3.5878193
452821101000.0,-0.0654921482485562,-7.478878427687683,4.506039493078079,-0.17898351,1.2131784,-0.73914695,119.46365,43.235985,-3.5399618
452826101000.0,-0.0541281647820583,-7.61524627833241,4.471947530416897,-0.118507855,1.2098186,-0.68844515,119.8861,43.485462,-3.4993222
452831023000.0,-0.0429414594576378,-7.74948679050708,4.4383874023732295,-0.10415252,1.2064588,-0.62796944,120.31,43.755543,-3.446758
452836050000.0,-0.0746966558952546,-7.7667929638979984,4.338299208774513,-0.09285152,1.1957687,-0.5891795,120.72153,44.00457,-3.3957603
452841103000.0,-0.1362347362860585,-7.702016080958436,4.192551120701426,-0.089186326,1.176221,-0.54092115,121.112175,44.246265,-3.3541164
452846066000.0,-0.1966767495414631,-7.638392952118332,4.049398981159227,-0.076358154,1.1539245,-0.47739118,121.502754,44.507168,-3.3179705
452851171000.0,-0.1998830925165562,-7.558234983933199,3.90617071638353,-0.05467244,1.1368202,-0.4156938,121.87705,44.759052,-3.2862344
452856104000.0,-0.1681433211258278,-7.472084037892312,3.770143111181495,-0.03023783,1.0910053,-0.3484986,122.22333,45.000687,-3.2561183
452861741000.0,-0.1040064215212543,-7.618647373828881,3.6077792420596206,0.014660766,1.0146471,-0.25686884,122.55329,45.23841,-3.2610254
452866108000.0,-0.0392415504195122,-7.864753775609756,3.4782495248780485,0.06811147,0.9077458,-0.22571471,122.86329,45.46308,-3.2495098
452871527000.0,0.0447631694118781,-8.170245684149634,3.311362886155033,0.12522738,0.79473567,-0.16310102,123.13985,45.674202,-3.2449267
452876121000.0,0.2008610612022368,-8.431539931430775,3.0263145229772466,0.2134974,0.6973027,-0.1142318,123.391556,45.857944,-3.223904
452881104000.0,0.3701766456148092,-8.714959442576166,2.71712950040108,0.30818152,0.6444628,-0.055588737,123.643425,46.104126,-3.1843822
452886054000.0,0.524595905931279,-8.992939872102536,2.410411943796019,0.40011674,0.6386596,0.009468411,123.87096,46.32049,-3.1455705
452891103000.0,0.6564565234524135,-9.269847758658305,2.098341795009545,0.49602258,0.64873886,0.08093964,124.075195,46.503613,-3.1124592
452896085000.0,0.7699139116086169,-9.522809441312663,1.8070838585464064,0.6093381,0.6536258,0.15577064,124.300545,46.773087,-3.0493016
452901256000.0,0.7948392663760822,-9.672361382524665,1.597710984688947,0.7501425,0.655153,0.24587326,124.50681,47.000145,-3.0055375
452906092000.0,0.7762636371987701,-9.753403635385306,1.442290648004612,0.89675015,0.6261369,0.35246924,124.7186,47.286335,-2.9498255
452911050000.0,0.557271254451989,-9.555701995900328,1.4757478583050412,1.0647382,0.5992588,0.46700647,124.908104,47.517822,-2.9159012
452916123000.0,0.3331993791646915,-9.353414699186471,1.5099811031324066,1.2186762,0.5742133,0.5815437,125.08374,47.756508,-2.8971062
452921153000.0,0.1105916018904941,-9.149658484074864,1.5552933358233458,1.3607023,0.54000485,0.6918049,125.22679,47.94262,-2.8952765
452926125000.0,-0.1161134724716795,-8.899501417911672,1.7741809217698243,1.4844025,0.5045747,0.7877107,125.34173,48.083168,-2.9100785
452931366000.0,-0.3550839661828928,-8.635810109834182,2.004910977671975,1.5974126,0.45356745,0.8790351,125.41279,48.12151,-3.01407
452936058000.0,-0.5155893541386299,-8.382822793530604,2.2286257547304418,1.6826283,0.42394048,0.91996306,125.47064,48.13056,-3.1235306
452941101000.0,-0.6565419604864208,-8.100917417300366,2.479208152387516,1.7122552,0.3390302,0.9963212,125.480194,48.119957,-3.238255
452946085000.0,-0.7983784636110877,-7.773672983536945,2.689339849886258,1.7443258,0.21502456,1.0656544,125.44994,47.99043,-3.4061325
452951096000.0,-0.9560653327154772,-7.155055175347544,2.6772100972196475,1.7730364,0.04550946,1.1108584,125.38135,47.854053,-3.5573487
452956017000.0,-1.110920068868481,-6.5475480442160245,2.6652982008172548,1.7974709,-0.11942416,1.1517864,125.25533,47.605377,-3.7361205
452961063000.0,-1.152108037656706,-6.296113531065205,2.5409202278483005,1.8365663,-0.24007004,1.1869112,125.09511,47.34708,-3.8957016
452966012000.0,-1.1558449755420643,-6.165320509973981,2.3839687196010404,1.9165897,-0.30298916,1.2311989,124.90261,47.072662,-4.0420184
452971052000.0,-1.1144944001683352,-6.09293535390272,2.2158272001683352,1.9990565,-0.2968805,1.2476922,124.67832,46.680176,-4.231596
452977247000.0,-0.8727027323646673,-6.261138358243997,1.9740355323646672,2.1001546,-0.19181168,1.2504412,124.456055,46.264187,-4.430799
452981437000.0,-0.7094901832753475,-6.371662350032753,1.8187812325060049,2.2003367,-0.015882496,1.2321151,124.25517,45.838757,-4.650023
452986068000.0,-0.5351754332673411,-6.432995274932673,1.8026409554043237,2.3463335,0.19394971,1.2064588,124.084114,45.377506,-4.8919907
452991011000.0,-0.349116739834049,-6.498460325198341,1.7854132746196958,2.5167649,0.398895,1.1878275,123.966034,44.95164,-5.116058
452996086000.0,-0.1843468412560591,-6.533769602594829,1.8121450983331835,2.6752844,0.5842926,1.2140946,123.88252,44.49319,-5.3783183
453001135000.0,-0.1102855704265249,-6.459708337679071,1.990763515379764,2.8582385,0.7504479,1.2840388,123.830536,43.985123,-5.6788383
453006363000.0,-0.0626097636761782,-6.376851720373439,2.2101860343622945,3.094338,0.87109387,1.402852,123.795425,43.44384,-5.959879
453011037000.0,-0.4164728678022134,-6.218455835717513,2.877470654329167,3.3377676,0.97249746,1.5552629,123.76591,42.852108,-6.2866225
453016008000.0,-0.7928214965164884,-6.049995000752899,3.5871565434723687,3.592804,1.0305296,1.7098118,123.713135,42.145687,-6.624497
453021067000.0,-1.1924638308761752,-5.899219956191239,4.299314706361272,3.8398988,1.03786,1.8695531,123.63258,41.375645,-6.9968157
453026134000.0,-1.6244287230446088,-5.787588847769554,4.99337075635127,4.041179,1.0079277,2.019826,123.52003,40.55043,-7.393529
453031049000.0,-2.068979740070994,-5.673741575070994,5.644756415537525,4.1670175,0.9914343,2.0821342,123.34187,39.473938,-7.8867455
453036074000.0,-2.5716893529006084,-5.546843812900608,6.269482966247464,4.1954226,0.9450085,2.1725423,123.10478,38.37543,-8.387685
453041010000.0,-3.0368846822659323,-5.435299700959874,6.811524053658537,4.170988,0.9092729,2.207667,122.824554,37.13328,-8.95207
453047340000.0,-3.57107602184107,-5.320830242029897,7.350484956097561,4.079358,0.818254,2.1642957,122.51444,35.92214,-9.479333
453051159000.0,-3.893363024343037,-5.251768810173092,7.675649519512195,3.787059,0.7828238,2.111761,122.16704,34.666386,-10.09463
453056109000.0,-4.417439902967992,-5.054409341901067,7.965251999806013,3.66061,0.68386364,1.9624046,121.81843,33.422447,-10.6311245
453061011000.0,-4.954740372958293,-4.840399718234724,8.229348557322988,3.34632,0.54733527,1.740966,121.48309,32.3429,-11.11282
453066105000.0,-5.295893412187933,-4.551873038696256,8.261112604022191,2.9816332,0.34788775,1.4547756,121.14642,31.243347,-11.607998
453071128000.0,-5.566939037968099,-4.247468091955617,8.219413343966714,2.6239717,0.11148291,1.1398746,120.843285,30.269783,-12.005583
453076090000.0,-5.567711608629102,-3.850107957820721,7.887447717784369,2.3200662,-0.06841691,0.85062987,120.56947,29.329489,-12.43749
453081115000.0,-5.268464758442552,-3.339086946149431,7.224501770448676,2.1337523,-0.095294975,0.6765333,120.33454,28.490921,-12.805335
453086084000.0,-4.859221869858914,-2.7976251634245406,6.517700821889696,2.1007655,0.017104227,0.59528816,120.13086,27.65298,-13.204871
453091059000.0,-4.265107185520877,-2.196720493872025,5.726679295952687,2.2250767,0.21319197,0.62125,119.95277,26.84565,-13.597437
453096093000.0,-3.663946718996722,-1.5886895176856208,4.92627681121562,2.5207355,0.47616947,0.70188415,119.79452,25.987427,-14.00512
453101233000.0,-3.329389490131579,-1.3370986947368422,4.705740318421053,2.973692,0.7675522,0.82802784,119.64531,25.060352,-14.47011
453106060000.0,-3.2010861132915296,-1.3466026449013158,4.895819520189145,3.4929276,1.0567969,0.97066486,119.50053,24.041704,-15.003639
453111094000.0,-3.2793363335124983,-1.3581217256054914,5.167108923241808,3.9064832,1.3359623,1.0855075,119.32787,22.881968,-15.515656
453117158000.0,-3.527546864687217,-1.3731647809610152,5.546946267316409,4.1703773,1.6239853,1.1695015,119.15001,21.625525,-16.109894
453121159000.0,-3.691315059810905,-1.3830901214091438,5.797561243180935,4.247346,1.8625281,1.1942415,118.95627,20.300407,-16.708004
453126077000.0,-4.170556777853598,-1.293035290942928,6.293470959987593,4.1410556,1.9498819,1.1600331,118.75531,18.969702,-17.332975
453131104000.0,-4.89727537594086,-1.1138444663978493,6.960459317876344,3.844786,1.9828686,1.1142182,118.55424,17.687563,-17.995188
453136124000.0,-5.5793203940390805,-0.9062885884368044,7.486424254019292,3.6480873,1.8481728,0.97310835,118.35751,16.397902,-18.641335
453141057000.0,-6.221994432212054,-0.6842738781845163,7.914873545016078,3.209486,1.5683966,0.7657196,118.17171,15.285731,-19.232096
453146075000.0,-7.006735589323906,-0.341760392894388,8.34206217817057,2.7748554,1.2345587,0.51251596,117.99434,14.170325,-19.853113
453151051000.0,-8.39656176597437,0.5426743968183828,8.725317084401237,2.435825,0.8756753,0.2302962,117.85589,13.193955,-20.356628
453156056000.0,-9.794487813831196,1.4322636497348653,9.11080559036677,2.2583687,0.5564982,-0.056505036,117.74519,12.233381,-20.88457
453161067000.0,-9.959021246410735,1.8706067462234703,9.51353477059925,2.2272146,0.31429017,-0.32620203,117.69315,11.3758335,-21.302116
453166016000.0,-9.999700860213796,2.2589135268336458,9.912935984316478,2.3359487,0.19333886,-0.54305923,117.699165,10.574672,-21.639406
453171084000.0,-9.795436358125496,2.593639766943785,10.639774913202691,2.5378397,0.12797627,-0.68783426,117.67858,9.535827,-22.215637
453176100000.0,-9.134591513707443,2.807582492834521,11.951956839568489,2.7033842,0.06963864,-0.7583892,117.69998,8.529994,-22.729065
453181033000.0,-8.413869978357061,2.946704989130435,13.325103775682956,2.745534,-0.096516706,-0.8023715,117.68949,7.4227743,-23.131676
453186350000.0,-7.478346743603309,2.936908994565217,14.990432569257406,2.615725,-0.42088616,-0.8216137,117.69543,6.3664217,-23.451082
453191066000.0,-6.679471126933473,2.902883570731341,16.14984311720979,2.2815816,-0.88331115,-0.8042041,117.627754,5.314136,-23.391886
453196102000.0,-5.918992964897131,2.790622516819342,16.435928226385343,1.8860464,-1.382999,-0.72509706,117.558044,4.3548465,-23.230068
453201038000.0,-5.173615640073585,2.680590633954047,16.716332535140413,1.534799,-1.8341229,-0.59803706,117.39778,3.4723668,-22.578035
453206267000.0,-4.353660201719197,2.4133279676217763,16.068057491404012,1.2592987,-2.1930063,-0.42058071,117.22155,2.7065794,-21.850962
453211052000.0,-3.5845951409332786,2.07568961242325,14.891012616762175,1.0922271,-2.4022276,-0.2406809,117.03044,2.0302696,-21.078133
453216104000.0,-3.3353568745911217,1.4835389419304907,12.281020393808411,1.0442741,-2.4700336,-0.087659165,116.758675,1.4217395,-19.998522
453221077000.0,-3.4141763102803737,0.7648915107476635,8.924241327102804,1.0812315,-2.3341162,-0.030543262,116.493034,0.8601151,-18.98387
453226044000.0,-3.698864936844548,0.4825244168538283,7.10786142863109,1.1441506,-2.1786509,-0.047647487,116.21563,0.36798832,-17.889503
453231123000.0,-4.145771638292343,0.5231523018032482,6.412673221141532,1.1933253,-1.6948457,-0.13408493,115.9679,-0.10578347,-16.987755
453236071000.0,-4.513467560632292,0.6389094447214904,6.521244837438841,1.280679,-1.0464121,-0.27091873,115.919174,-0.4754596,-16.514597
453241103000.0,-4.794593866992849,0.8610899050150544,7.709230390543847,1.3646729,-0.36254853,-0.41599923,115.900345,-0.8439532,-16.201488
453246039000.0,-4.983959898325982,1.060981737660385,9.135803413993584,1.4217888,0.06841691,-0.537256,115.9519,-1.2286412,-16.152073
453251039000.0,-4.964760168975541,1.219379241670008,11.2189700138332,1.4181237,0.18753563,-0.6554584,116.04363,-1.6030807,-16.212152
453256021000.0,-4.868009611868461,1.3311762,13.052573007872446,1.294118,0.062002823,-0.7602218,116.13888,-1.9845963,-16.291039
453261072000.0,-4.578787237847534,1.3311762,14.315510753064276,1.106277,-0.27305678,-0.86406887,116.26858,-2.3299496,-16.344004
453266041000.0,-4.2835648134182325,1.2894704592793913,15.110703088290109,0.91965765,-0.74281216,-0.9254609,116.37561,-2.6504526,-16.166832
453271163000.0,-3.952181078319615,1.1409191352383912,14.798364697623857,0.73914695,-1.1976013,-0.95325524,116.5074,-2.9055827,-15.905584
453276100000.0,-3.6327664941372886,0.9977332924444792,14.497307564722783,0.60994893,-1.518611,-0.9492846,116.624855,-3.1176615,-15.40523
453281114000.0,-3.300345780088917,0.7624859707303906,13.577071670371549,0.54305923,-1.6563611,-0.91232723,116.74732,-3.2888515,-14.852662
453286009000.0,-2.972836703715465,0.4994861909960834,12.450638488144383,0.5500842,-1.6496416,-0.8381071,116.86297,-3.440751,-14.275242
453291109000.0,-2.904669186419753,0.2062856099382716,11.517705966049384,0.5946773,-1.5170839,-0.7535023,116.96898,-3.5717719,-13.644911
453296060000.0,-2.89675881991992,-0.0824429738038038,10.663385475475476,0.6747007,-1.3768903,-0.6719518,117.05701,-3.713371,-13.045216
453301023000.0,-2.890237611023774,-0.3645255056749151,9.837689398156234,0.75716746,-1.2461652,-0.61483586,117.153885,-3.8507288,-12.493495
453306083000.0,-2.8855352236390104,-0.641969449915575,9.038275195342068,0.82619524,-1.0742066,-0.56199604,117.2264,-4.0060697,-12.011292
453311005000.0,-2.838627940006437,-0.8195274428580624,8.479274740907629,0.8906415,-0.79717916,-0.50488013,117.3269,-4.1442385,-11.6698265
453316100000.0,-2.7129920371660767,-0.8352319317380109,8.2986728154168,0.95111716,-0.46395215,-0.46578476,117.41172,-4.2984066,-11.402288
453321072000.0,-2.590389150233344,-0.8505572936047634,8.122430857901513,0.9969321,-0.31795537,-0.42241332,117.517685,-4.4380918,-11.210145
453326166000.0,-2.4764964984241087,-0.7287516624089946,8.37705251847756,1.0296134,-0.12675454,-0.3885103,117.60526,-4.5886846,-11.1282835
453331037000.0,-2.369021122228366,-0.5954821618099715,8.673684792000738,1.0528263,-0.0720821,-0.3811799,117.68642,-4.7463784,-11.050797
453336064000.0,-2.280620039820628,-0.455967665838565,8.864816012556055,1.0769554,-0.10415252,-0.3662137,117.75541,-4.917452,-10.98179
453341055000.0,-2.2020286502989537,-0.3166465977690583,9.007709312406575,1.112691,-0.15760323,-0.33750305,117.81624,-5.095143,-10.922641
453346223000.0,-2.1260512,-0.1665404189926774,9.142766220052572,1.1511755,-0.23304509,-0.30085114,117.85676,-5.3061724,-10.799492
453351269000.0,-2.1260512,0.0602928898788959,9.097399591438228,1.217149,-0.31123585,-0.24556783,117.88406,-5.532418,-10.661803
453356070000.0,-2.1260512,0.2761126908880961,9.054235662786333,1.284955,-0.42424592,-0.183565,117.88902,-5.807343,-10.451522
453361066000.0,-2.28269957375195,0.3688546051345553,8.825694092433697,1.3839152,-0.50518554,-0.11911872,117.8784,-6.1059203,-10.231914
453366059000.0,-2.4552062632410294,0.4481144442560452,8.578590249804993,1.493871,-0.5345071,-0.073303826,117.85717,-6.421827,-9.99979
453372072000.0,-2.755280097778498,0.4719951084076536,8.374297098102806,1.572978,-0.49663344,-0.052839845,117.815674,-6.797093,-9.765539
453376114000.0,-2.965555201718826,0.4814104122539322,8.245620975190532,1.6578883,-0.40103304,-0.05100725,117.765656,-7.1973963,-9.545749
453381043000.0,-3.22507922247959,0.4988958183928232,8.200508999050694,1.7046194,-0.2687807,-0.062002823,117.73193,-7.62512,-9.405572
453386058000.0,-3.4940780333776345,0.5262516341086008,8.332729040820201,1.7174476,-0.160963,-0.07880162,117.69608,-8.058137,-9.28982
453391047000.0,-3.75373974632468,0.522265990372224,8.580373605359192,1.7073684,-0.10354166,-0.12797627,117.69054,-8.495721,-9.277511
453396162000.0,-3.998896240538005,0.4354396573412574,9.142191104577208,1.6707164,-0.12339478,-0.20738874,117.69669,-8.919067,-9.27703
453401046000.0,-4.179793849798658,0.3962869705973154,9.664393062751678,1.613906,-0.21777347,-0.31795537,117.73833,-9.326623,-9.323472
453406134000.0,-4.273229920824544,0.4336613160776605,10.18296197396932,1.5448782,-0.37201694,-0.41172317,117.80138,-9.709491,-9.350727
453411016000.0,-4.287171247752972,0.6530221573724267,10.69278400576254,1.4874569,-0.44165558,-0.45570546,117.89597,-10.042005,-9.402609
453416058000.0,-4.094670202174544,1.381026059397651,11.25278680490722,1.466382,-0.31337386,-0.45631635,118.00178,-10.355772,-9.469922
453421163000.0,-3.899763848013917,2.118126400500145,11.819786862351403,1.4752395,-0.13561209,-0.40378192,118.10855,-10.650261,-9.527391
453426123000.0,-3.7986209214285713,2.82975095255102,12.767788836734692,1.3524556,0.5342017,-0.3680463,118.185165,-10.894076,-9.760004
453431088000.0,-3.774361222142857,3.538131770255102,14.063252583673467,1.2147056,1.5323554,-0.31948254,118.21221,-11.132791,-10.129854
453436098000.0,-4.137952293852491,4.091678264848061,14.877265400792728,0.81183994,2.5216517,-0.2846632,118.12035,-11.407667,-10.579153
453441457000.0,-4.84793403819072,4.550374262625321,15.339949890650502,0.39736784,3.0262265,-0.27550024,117.9866,-11.633487,-11.1596365
453446590000.0,-5.485164220954991,4.968925139981027,15.6906673490039,0.22143865,2.8646526,-0.34697145,117.79663,-11.888627,-11.737953
453451053000.0,-5.651858470559713,5.144629879392854,15.159048168124803,0.4016439,2.1768184,-0.40469822,117.59773,-12.124267,-12.287778
453456315000.0,-5.659472266932849,5.34742475738657,14.550231865335752,0.874759,1.1829406,-0.3866777,117.42883,-12.451228,-12.824317
453461045000.0,-4.537291227096189,5.503625839419238,14.110402814519055,1.4343116,0.06566802,-0.21533,117.28279,-12.849582,-13.109893
453466015000.0,-3.358170768747731,5.667752557749546,13.648256856261344,1.7910569,-1.1948525,-0.0290161,117.20054,-13.359199,-13.12399
453471059000.0,-4.073693658827398,5.3869022115381,12.688295612797145,1.9025398,-2.4263568,0.0125227375,117.19206,-13.940279,-12.832657
453476057000.0,-5.054107500037584,5.04510654065583,11.66740609574368,1.8689423,-3.0949488,-0.116980694,117.2396,-14.5615015,-12.356802
453481269000.0,-6.460745479123342,4.537232863409824,9.393429481355325,1.8106046,-2.763249,-0.2843578,117.23218,-15.252318,-11.602682
453486088000.0,-7.871409543510219,4.024264136285407,6.944417655432054,1.8362609,-1.4789047,-0.42210788,117.24001,-15.927018,-10.970087
453491106000.0,-8.290250103500762,3.5849325275494675,4.8155157656012175,1.9303342,0.2761111,-0.42485678,117.28814,-16.570496,-10.829758
453496084000.0,-7.782314640052186,3.232487746249185,3.0740237840834963,1.951409,1.7852536,-0.27488935,117.2443,-17.187565,-10.978493
453501048000.0,-6.252133413541865,2.957269720694259,3.003931755445356,1.8869628,2.7528641,-0.07880162,117.133934,-17.829021,-11.789992
453506085000.0,-4.223416575472058,2.7134557195594127,3.7077722381651728,1.7831156,3.199712,0.08002335,116.896736,-18.459948,-12.852763
453511050000.0,-2.571493743900096,2.433143733237272,5.325480509510086,1.7327193,3.1548135,0.20555615,116.560104,-19.118536,-14.014521
453516107000.0,-1.1370503117435158,2.11911690648415,7.632220858069164,1.7763962,2.688418,0.2864958,116.17688,-19.773571,-15.165589
453521101000.0,0.0515994442157619,1.8544823971014488,9.691729,1.9526308,2.391232,0.31642818,115.72536,-20.401066,-15.986196
453526103000.0,-0.9096685813223566,2.0188017217391305,9.691729,2.080607,1.8118263,0.37232238,115.31328,-21.031916,-16.584885
453531120000.0,-1.873819257876683,2.183613807246377,9.691729,2.375044,1.3903292,0.37110063,114.699585,-21.616991,-16.44852
453536066000.0,-3.104616248192771,2.4202259004381164,9.297968071193868,2.6316075,1.1523973,0.29077184,114.15063,-22.213863,-16.220078
453541055000.0,-4.433032053382761,2.6818835870587243,8.778678281658102,2.7711902,1.0351112,0.18295415,113.65571,-22.842806,-15.928811
453546054000.0,-5.6352536685844825,2.9691464501988323,8.202027880666725,2.8432722,1.033584,0.06536258,113.38159,-23.481823,-15.98181
453551058000.0,-6.628652033251544,3.297576045359168,7.533004342736273,2.826168,1.1285735,-0.032375857,113.130974,-24.114683,-16.036884
453556313000.0,-7.663409785063615,3.6592385638033575,6.838174607189641,2.781575,1.2452488,-0.1160644,112.971054,-24.783072,-16.447987
453561075000.0,-8.49083910223594,4.205135917112098,6.309443720748325,2.7537806,1.3753631,-0.17745635,112.81502,-25.430016,-16.888977
453566100000.0,-9.36396642663555,4.781182578257924,5.751511611473312,2.733622,1.5149459,-0.23518312,112.65554,-26.132744,-17.586374
453571158000.0,-9.947594048088778,5.309498775585697,5.556830919441019,2.7421741,1.642922,-0.2733622,112.4873,-26.812698,-18.309324
453576126000.0,-10.040480639950678,5.744600013563502,5.96259941512536,2.7736337,1.7583756,-0.28680122,112.3056,-27.470798,-19.057764
453581548000.0,-9.986597212251478,6.183426586351424,6.584185860290167,2.8075366,1.8035797,-0.2501493,112.05819,-28.255104,-19.998173
453586063000.0,-9.797402873186458,6.515347086888769,7.267942007522837,2.8008173,1.7137824,-0.20097467,111.806854,-29.00994,-20.916388
453591009000.0,-9.59014812213096,6.878952578728794,8.016969228832425,2.7809641,1.4731015,-0.11056661,111.52381,-29.786156,-21.753963
453596044000.0,-9.128531427239093,7.196752562286111,8.978351567442576,2.724459,1.0564915,-0.0076358155,111.264206,-30.531221,-22.498198
453601127000.0,-8.59949393124711,7.504419531524587,9.998905447202096,2.667954,0.47219884,0.10598512,111.04644,-31.258308,-23.111668
453606057000.0,-7.998331140032949,7.783429454283361,10.989149429159802,2.6022859,-0.22479841,0.23579398,110.87338,-31.968637,-23.44139
453611043000.0,-7.069095166392093,7.994842630971994,11.992134257001648,2.496301,-0.98349303,0.37415496,110.79132,-32.65036,-23.590288
453616105000.0,-6.069474046146831,7.997385745174039,12.502443215230278,2.3857343,-1.3607023,0.49388456,110.7205,-33.298462,-23.427452
453621092000.0,-4.940638738987689,7.456561361947104,11.703910357729136,2.28036,-2.014939,0.54183745,110.832466,-33.914295,-23.021883
453626041000.0,-3.820404944094847,6.919857958580331,10.91146217008664,2.2321017,-2.5185974,0.63041294,110.90091,-34.5178,-22.307755
453631070000.0,-3.168993578227689,6.366537865191237,9.938306802478005,2.157576,-2.8319712,0.69974613,111.05368,-35.07487,-21.508087
453636053000.0,-2.796238469204525,5.813831763961214,8.880024617525589,2.1190915,-2.9923234,0.73456544,111.26214,-35.619118,-20.646828
453641044000.0,-2.5056034002497007,5.242518118298043,7.798542019047144,2.1108449,-3.0182853,0.7476991,111.37758,-36.197544,-19.539322
453646086000.0,-2.3319811834898125,4.63966352213344,6.674820772602877,2.1252003,-2.9168816,0.7147123,111.505775,-36.747704,-18.460407
453651063000.0,-2.2232571549860496,4.115424262230031,5.657563083155937,2.1401663,-2.695443,0.64751714,111.59536,-37.31417,-17.42293
453656069000.0,-2.2034404924666737,3.689365604216183,4.765812804205849,2.160325,-2.3835962,0.5687156,111.663635,-37.859756,-16.463799
453661036000.0,-2.227579814375788,3.3815909255989918,4.101155942496847,2.1783454,-1.9865338,0.49296826,111.735245,-38.428284,-15.666074
453666045000.0,-2.3010345299405515,3.200114611961809,3.677711315952081,2.1911736,-1.5760323,0.3857614,111.77264,-38.974907,-14.976367
453671080000.0,-2.400636030792683,3.078497584162388,3.3366029241816437,2.205529,-1.1826351,0.2910773,111.80843,-39.55179,-14.469852
453676166000.0,-2.5764899079268293,3.133207788992298,3.2389062260269577,2.2311852,-0.81000733,0.1826487,111.79707,-40.114418,-14.078378
453681046000.0,-2.7452211152439023,3.185702047657253,3.145166570699615,2.2412646,-0.47403142,0.10842858,111.782074,-40.69672,-13.845793
453686038000.0,-3.012317507896902,3.4539614801480667,3.334243030052097,2.2385156,-0.20066923,0.07544186,111.72068,-41.269432,-13.69523
453691014000.0,-3.308495658925144,3.7893396504798464,3.612998904798464,2.2333233,0.016493361,0.089186326,111.609085,-41.834824,-13.610714
453696191000.0,-3.627474288317984,4.200671584488608,4.091473669316529,2.2214115,0.17195857,0.12797627,111.48423,-42.412132,-13.627574
453701114000.0,-3.9382808178477946,4.634886723034415,4.676521462064954,2.2067506,0.22357668,0.19272798,111.327095,-42.984028,-13.659845
453706041000.0,-4.18951183498452,5.058822272600619,5.324067196594427,2.1945333,0.18478674,0.2706133,111.151,-43.55464,-13.7283745
453711041000.0,-4.387175612074303,5.478857721517028,6.040598156346749,2.2134702,0.12980886,0.36254853,110.95098,-44.12909,-13.78708
453716038000.0,-4.536073642664544,5.80004380468121,6.690881277689355,2.1978931,-0.023823744,0.40958515,110.77717,-44.661335,-13.825187
453721104000.0,-4.649630729060949,6.049869271435259,7.299546877539556,2.1838431,-0.23976462,0.50640726,110.60062,-45.203476,-13.810315
453726090000.0,-4.743417880310417,6.207703298189235,7.820379865983484,2.1704042,-0.516792,0.5858198,110.45866,-45.690903,-13.732755
453731797000.0,-4.8249840890458655,6.262080713899114,8.304339825390509,2.1471913,-0.83108217,0.6627888,110.354645,-46.17172,-13.587876
453736037000.0,-4.867958265099602,6.13933092440903,8.460016544488711,2.112372,-1.1682798,0.7165449,110.31316,-46.59238,-13.360173
453741044000.0,-4.8976756412749,5.799703964435591,8.40058196945551,2.0809124,-1.500285,0.75991637,110.32776,-47.00531,-13.064651
453746094000.0,-4.914941097625894,5.484719658802267,8.298897913283495,2.0366247,-1.8148806,0.77274454,110.421394,-47.350735,-12.705154
453751220000.0,-4.870580879750267,5.299212948607574,7.992408507418056,1.9660698,-2.0955732,0.73975784,110.58054,-47.6727,-12.298531
453756100000.0,-4.828349536942413,5.12260882341247,7.700627723059229,1.8939877,-2.2925773,0.6814202,110.823074,-47.940594,-11.889317
453761045000.0,-4.786055990055785,5.030503137222087,7.368864049421942,1.8283197,-2.4459045,0.63255095,111.11952,-48.18275,-11.449804
453766097000.0,-4.743028830220712,4.967918337125071,7.016824033220147,1.7525724,-2.5552492,0.58001655,111.45788,-48.39135,-11.004315
453771103000.0,-4.688032560165975,4.932660033044937,6.660543686527765,1.6688838,-2.6279423,0.52870387,111.844025,-48.601624,-10.571509
453776110000.0,-4.599132340248962,4.970760133609959,6.283776241493776,1.6108516,-2.6752844,0.48288897,112.25372,-48.788876,-10.142081
453781430000.0,-4.502744222494487,5.016601785787797,5.8880029720983424,1.5372424,-2.698192,0.45356745,112.68557,-49.000053,-9.728207
453786034000.0,-4.394703087478559,5.124643033619211,5.603494461863923,1.4804319,-2.6841419,0.410196,113.127594,-49.189877,-9.334014
453791006000.0,-4.278026171036511,5.241320071894144,5.2962450455117205,1.4327844,-2.663678,0.37843102,113.577866,-49.431534,-8.944026
453796077000.0,-4.159924552739925,5.405103806465642,5.025427537982024,1.398576,-2.636189,0.35705075,114.027275,-49.653355,-8.573671
453802001000.0,-4.022848448593796,5.640874483454142,4.751275615956316,1.3778065,-2.6013696,0.35888332,114.469536,-49.85992,-8.218347
453806053000.0,-3.9295156094496058,5.977688741084807,4.5782190046948354,1.3881912,-2.574186,0.3680463,114.89716,-50.13824,-7.854327
453811039000.0,-3.815041611607232,6.545288884926581,4.377889483568075,1.4004086,-2.58396,0.3924809,115.32073,-50.406612,-7.494693
453816033000.0,-3.694139036929253,6.898015909182138,4.256263719016558,1.4001031,-2.620001,0.40103304,115.735214,-50.735367,-7.1202984
453821081000.0,-3.564769662920221,7.0071711628365945,4.223921396621509,1.4165965,-2.7085764,0.44012842,116.15345,-51.068886,-6.7319455
453826111000.0,-3.446143789876881,7.113900118878249,4.191628360088919,1.426065,-2.806315,0.47342056,116.56403,-51.49984,-6.309229
453831054000.0,-3.429954281532148,7.198895206737346,4.159249132087893,1.423316,-2.9388726,0.50335294,116.997444,-51.925343,-5.868145
453836009000.0,-3.4137254703146374,7.284096635088919,4.126791297828317,1.4205672,-3.0445523,0.50762904,117.43347,-52.369812,-5.3872886
453841091000.0,-3.403802670107394,7.332036042370393,3.965662099026501,1.396438,-3.1386256,0.5183192,117.89213,-52.79963,-4.8902807
453846133000.0,-3.3963413047979603,7.365612264173684,3.760474514061655,1.3591752,-3.1936035,0.52320606,118.367485,-53.21528,-4.3954477
453851081000.0,-3.3907890025003957,7.396292012501978,3.493599917328692,1.3249667,-3.1816916,0.5314528,118.851906,-53.64028,-3.9003956
453856088000.0,-3.394583197594556,7.41526298797278,2.8751456415572085,1.2974777,-3.174972,0.5317582,119.35162,-54.04684,-3.4093401
453861035000.0,-3.398331926000949,7.434006630004748,2.264102441588859,1.2855659,-3.1383202,0.52290064,119.85979,-54.49849,-2.9437263
453866082000.0,-3.3790103600068715,7.430800925820305,1.8279114475176088,1.2962561,-3.0714304,0.5149594,120.360466,-54.9394,-2.4971697
453871782000.0,-3.34149944435664,7.41204537007387,1.4621797261638894,1.3545936,-2.966056,0.5045747,120.84642,-55.381046,-2.0783203
453876018000.0,-3.2979031774226177,7.388844484483108,1.227183517426664,1.4602734,-2.8527408,0.4718934,121.3637,-55.98777,-1.7109843
453881082000.0,-3.209602046530447,7.339788329111875,1.0309588242282015,1.5748106,-2.7601945,0.42180246,121.86828,-56.603905,-1.3766818
453886026000.0,-3.107690821269698,7.302569007223101,0.9262937850395838,1.6716328,-2.6774223,0.3408628,122.38577,-57.313477,-1.0865706
453891095000.0,-2.968604310133454,7.287928337932595,1.0104776869667496,1.7641789,-2.612976,0.25961772,122.89635,-58.044144,-0.8329863
453896046000.0,-2.8327555595642013,7.273628485169268,1.092701892617055,1.813659,-2.5766296,0.15821409,123.42013,-58.814632,-0.6103846
453901123000.0,-2.6326929961263708,7.245836815575008,1.277924122789013,1.808772,-2.5680776,0.055283304,123.9492,-59.585037,-0.4260882
453906193000.0,-2.4030867803098905,7.211640254753999,1.5124156781768792,1.7595973,-2.617252,-0.0711658,124.502785,-60.345486,-0.2816798
453910939000.0,-2.2156616033874004,7.097574386504167,1.6928050756519402,1.6862935,-2.6688702,-0.1328632,125.04699,-61.063087,-0.11393617
453915946000.0,-2.0308872849359263,6.938582506048929,1.864688130235684,1.6444492,-2.8075366,-0.2770274,125.65364,-61.76446,0.009044878
453921001000.0,-1.878083914516129,6.753708404569893,1.9843298064516128,1.541213,-3.0020971,-0.44073927,126.268906,-62.361973,0.17494358
453925945000.0,-1.7720181693548387,6.541576858870968,2.032059341935484,1.4450017,-3.2247577,-0.61758476,126.94484,-62.940075,0.31196693
453930939000.0,-1.6930970933509022,6.352730872511656,1.950224537036286,1.3603969,-3.4553592,-0.79320854,127.668396,-63.423664,0.4778883
453935930000.0,-1.6301159446077438,6.178321475268599,1.7951940404013784,1.2928963,-3.6774087,-0.9654725,128.46474,-63.877663,0.61701006
453940938000.0,-1.6089035,6.058170420815264,1.6293722500722752,1.2464706,-3.882354,-1.1246029,129.3375,-64.28791,0.75243527
453945979000.0,-1.6089035,5.965124986498988,1.457238009559603,1.210124,-4.07722,-1.2791518,130.28038,-64.6766,0.8621732
453951212000.0,-1.6457662560242765,5.857389845766591,1.3087677006268033,1.1798862,-4.260785,-1.4343116,131.30043,-65.074005,0.957065
453956052000.0,-1.701106125490001,5.751321854919908,1.1888646581434683,1.1523973,-4.4232755,-1.5845845,132.3773,-65.4573,1.0253294
453961011000.0,-1.7479273926666103,5.698136183334745,1.0143086283343212,1.1349876,-4.5668287,-1.7406605,133.5368,-65.875275,1.0549413
453966045000.0,-1.7887519007028538,5.681806482428656,0.8020212377000593,1.1468995,-4.6566257,-1.8710803,134.7322,-66.28858,1.0556809
453971026000.0,-1.8195933,5.727906416038369,0.6210850388431655,1.1435398,-4.7094655,-1.9633209,135.99243,-66.71926,1.005001
453976020000.0,-1.8195933,5.975641103386091,0.5339191305093526,1.149343,-4.757113,-2.0189097,137.27802,-67.14866,0.93038267
453981037000.0,-1.820320097973577,6.207694533644582,0.4560527363375384,1.16492,-4.81148,-2.0732768,138.61378,-67.64087,0.80715024
453985998000.0,-1.8250395282705871,6.344557962978048,0.4324555602125757,1.2162327,-4.872261,-2.1340578,139.96265,-68.13503,0.663286
453991032000.0,-1.821365034105408,6.470198294327216,0.4137539461340661,1.2357804,-4.9602256,-2.1771238,141.33948,-68.66535,0.50689715
453996032000.0,-1.764970049317892,6.512494496113455,0.4278526898773186,1.2412782,-5.0918674,-2.2153027,142.74124,-69.193306,0.33549905
454001024000.0,-1.6921005819753316,6.555851191496917,0.4081972842038871,1.239751,-5.2503867,-2.221106,144.17645,-69.735886,0.15812421
454006046000.0,-1.4674009009250608,6.6097792688656325,0.0801357348542328,1.2363913,-5.3258286,-2.2033908,145.61713,-70.26422,-0.029229786
454011412000.0,-1.2308660378766705,6.672422187614639,-0.2737139754441435,1.2257011,-5.513975,-2.1496348,147.12198,-70.78067,-0.17958303
454016047000.0,-1.1145541155472092,6.850766939514368,-0.6614203413756661,1.2027937,-5.531996,-2.1154263,148.59271,-71.277534,-0.35021842
454021242000.0,-0.9841894043278888,7.05065927740414,-1.0959693318857542,1.205848,-5.4638844,-2.0567832,150.05705,-71.85555,-0.43405405
454026101000.0,-0.8192876388588903,7.272020302944517,-1.3565210297946702,1.2385293,-5.287344,-1.997224,151.48439,-72.4232,-0.52913105
454031078000.0,-0.6318809499231105,7.513566876155527,-1.5605860747487983,1.2965615,-5.0680437,-1.9312505,152.86668,-72.987076,-0.6281364
454036040000.0,-0.4424247003463241,7.78327630558016,-1.74724555704163,1.3271047,-4.846605,-1.840537,154.17572,-73.67807,-0.6901459
454041101000.0,-0.2449456969587245,8.105252911815766,-1.9103803696722763,1.3457361,-4.6218066,-1.7479908,155.40858,-74.36819,-0.7665296
454046085000.0,-0.0735830553543307,8.433765978740158,-2.082276755511811,1.3310753,-4.3698244,-1.629483,156.52692,-75.12063,-0.77617055
454051059000.0,-0.0510783137669291,8.835100805984252,-2.326078148818897,1.3249667,-4.0582833,-1.5448782,157.553,-75.86562,-0.80601096
454057533000.0,-0.0217868587937007,9.357465436377952,-2.6434022783464566,1.3277156,-3.5656204,-1.4379768,158.40793,-76.66111,-0.76895225
454061071000.0,-0.0117305631761209,9.8795000088279,-2.713993101433441,1.4230106,-3.4037411,-1.4208726,159.26018,-77.463554,-0.7478536
454066097000.0,0.0008906321692159,10.687256096232847,-2.785513287903155,1.4532484,-3.0836477,-1.409877,159.916,-78.23204,-0.7541703
454071071000.0,0.1493272212133808,11.939404999479349,-2.8775414143960427,1.500285,-2.7311785,-1.4126259,160.52754,-79.128494,-0.78358877
454076043000.0,0.6079668644271955,14.224339286879555,-3.0180255677802847,1.5888605,-2.3484714,-1.4208726,161.03084,-80.019936,-0.8438594
454081367000.0,1.0913999231035296,16.571554521814324,-3.151703760097477,1.702176,-1.9788979,-1.4315627,161.4436,-80.96666,-0.9345933
454086047000.0,1.3979239932238032,17.100044285197704,-3.010773144265388,1.8112154,-1.6334536,-1.4352279,161.74452,-81.899574,-1.0533392
454091149000.0,1.732087626931845,17.676188467416083,-2.8571346823048502,1.8808541,-1.3329079,-1.4141531,161.90721,-82.925995,-1.0479597
454096066000.0,2.186622245503436,18.107443388706304,-2.6606183567373765,1.9416351,-1.1047498,-1.3674219,161.98338,-83.91979,-1.0705442
454101065000.0,2.8064489076984365,18.39828452166119,-2.4031518840354544,1.9792033,-0.89888823,-1.2837334,161.97017,-84.87067,-1.1052982
454106065000.0,3.5214517600508657,18.5619325267534,-2.047712933189866,1.9578232,-0.8005389,-1.2342533,161.90285,-85.75497,-1.0694494
454111039000.0,4.35085956998924,18.566592215494477,-1.572434217979067,1.9349157,-0.6197228,-1.1297953,161.74283,-86.605515,-1.0235095
454116008000.0,5.276802176175398,18.37481565764729,-0.8601454711859529,1.9193386,-0.44104472,-1.0164797,161.51689,-87.398056,-0.8570329
454121101000.0,6.381275912799846,17.864699565726347,0.2490080394933793,1.9260582,-0.30879238,-0.8857546,161.24554,-88.16258,-0.68450886
454126855000.0,7.424561896851029,17.001411385143317,1.7852181142914816,1.9633209,-0.44226643,-0.6020077,161.01788,-88.89688,-0.32553536
454131253000.0,7.998445544549858,16.027934858901897,3.2688132362737177,1.9847012,-0.6096435,-0.47769663,160.75839,-89.57813,-0.0064801415
454136011000.0,8.372669670704495,15.047563259164807,4.648155350079693,1.9517145,-1.0934488,-0.20738874,160.75468,-90.550285,0.5497063
454141102000.0,8.259989303474656,14.150007544070768,5.654505386252788,1.8487836,-1.7195857,0.06780604,160.83359,-91.200714,1.1101731
454146072000.0,8.149987059292316,13.27378442405164,6.636937065643927,1.6948457,-2.3399193,0.3371976,161.09251,-91.92775,1.8258128
454151061000.0,7.610930994728055,12.22620687435199,6.202701834206133,1.4853189,-2.79929,0.65668017,161.47437,-92.71146,2.6050615
454156127000.0,6.9714954981987525,11.12637787373693,5.456693517520429,1.2843442,-2.993545,0.95203346,161.94794,-93.53289,3.42594
454161046000.0,5.692011995785204,10.557466075566529,4.724022862322546,1.1420126,-2.9666672,1.1658363,162.50887,-94.35426,4.2866445
454166102000.0,3.8305124082356055,10.386685977867913,3.9640530547923465,1.0146471,-2.8328876,1.2895365,163.07979,-95.22631,5.1875567
454171123000.0,2.281133387749894,10.269305643981284,3.219141116418545,0.91354895,-2.665205,1.3530666,163.63223,-96.06308,6.0321393
454176129000.0,1.4654550876648236,10.279501829008932,2.5003245512547854,0.8258898,-2.463314,1.3845261,164.1253,-96.91638,6.8936477
454181045000.0,0.804996886179349,10.330843679249051,1.8948630659876171,0.7275405,-2.2379048,1.3946054,164.67554,-97.451065,7.4264827
454186063000.0,0.344300264240064,10.44601815418414,1.4293675493509088,0.636827,-1.9773707,1.4065173,165.15054,-97.98816,7.964093
454191011000.0,-0.0421762550605577,10.536136705473664,1.0330686821068444,0.5491679,-1.7189748,1.393689,165.59744,-98.39908,8.369346
454196049000.0,-0.3275598928692142,10.590495642287108,0.7295654570312647,0.47708577,-1.4773777,1.38025,165.97011,-98.806046,8.773113
454201040000.0,-0.5771789333060975,10.621313948319886,0.4730801523562455,0.4279111,-1.3732251,1.3567317,166.33234,-99.129326,9.088065
454206052000.0,-0.7340542773567562,10.586997284444898,0.3407165801736288,0.41325033,-1.1746938,1.3521502,166.59521,-99.44808,9.4005575
454211033000.0,-0.8503673042303977,10.52644446202476,0.2528011221151989,0.4196644,-1.0219775,1.3347405,166.86363,-99.70427,9.645287
454216038000.0,-0.8756190036157696,10.404394357537976,0.2654269718078848,0.45112398,-0.92087936,1.3060299,167.08842,-99.95187,9.881121
454221351000.0,-0.90021986,10.273187388293271,0.2900300283313159,0.50243664,-0.8585711,1.2687671,167.29538,-100.165306,10.078558
454226074000.0,-0.90021986,10.140223463600208,0.422994132699291,0.57787853,-0.8530733,1.2027937,167.4887,-100.36097,10.255108
454231217000.0,-0.90021986,9.995435518502507,0.5677822734497666,0.643852,-0.8958339,1.1087204,167.68747,-100.53244,10.4040365
454236065000.0,-0.8614344259286036,9.856451291007682,0.7093523119159513,0.6817256,-0.9828822,0.98654735,167.89642,-100.67672,10.521359
454241009000.0,-0.8079462289832806,9.713816258020788,0.8555533175372798,0.6844745,-1.1157454,0.8567385,168.12976,-100.791756,10.604768
454246148000.0,-0.7323462054500648,9.550324836575877,1.0018010616083008,0.6588182,-1.3011429,0.7257079,168.40794,-100.86718,10.648699
454251056000.0,-0.4275280124985733,9.21705699533074,1.07495746461738,0.6239988,-1.4953982,0.6178902,168.72516,-100.91113,10.657641
454256019000.0,-0.119293967751578,8.88005449001297,1.1489336724686554,0.5644395,-1.7088956,0.5177083,169.10007,-100.92404,10.6409445
454261041000.0,0.064038952587019,8.682559706536857,1.0825317395085767,0.48380527,-1.8832976,0.44532076,169.51752,-100.91002,10.597605
454266406000.0,0.2117224527172925,8.52534804450626,0.9586681165832174,0.3915646,-2.0002782,0.3866777,169.9774,-100.86649,10.526285
454271100000.0,0.3200798462818479,8.448732249556697,0.8257772648091461,0.2919936,-2.0399845,0.3643811,170.44913,-100.87396,10.515688
454276097000.0,0.4228023941362576,8.404070308726086,0.6694603739673356,0.17959438,-2.03693,0.34300083,170.9394,-100.85677,10.486859
454281089000.0,0.4644796617583664,8.398169894119873,0.5370001322026848,0.058337633,-1.992337,0.33383787,171.42723,-100.86341,10.48488
454286045000.0,0.4330712015087918,8.438552532803932,0.4338009290943467,-0.06505715,-1.91323,0.3304781,171.90163,-100.856476,10.478682
454291030000.0,0.3915704349960096,8.504806057212688,0.3327921264744613,-0.18753563,-1.8533652,0.31612277,172.36893,-100.86345,10.487935
454296109000.0,0.3284890523224262,8.626116077214684,0.2357438368635275,-0.29993483,-1.785559,0.29871312,172.80864,-100.86015,10.496599
454301050000.0,0.2590490461771232,8.753979070758524,0.1676733276961872,-0.37323865,-1.7507398,0.29016098,173.24863,-100.845726,10.4945965
454306232000.0,0.1689455341093403,8.909157076709704,0.15265607568489,-0.3930918,-1.6826283,0.2648101,173.65665,-100.81841,10.484713
454311014000.0,0.090229578623687,9.054487301883375,0.155271912001992,-0.39645153,-1.6126842,0.25870144,174.06136,-100.779015,10.461981
454316044000.0,0.0160795667294458,9.211511295001811,0.1901660340139442,-0.35430184,-1.5836681,0.25900686,174.45584,-100.737274,10.434929
454321085000.0,-0.054539288968817,9.358610702359346,0.234131668491998,-0.2452624,-1.5986344,0.2770274,174.8508,-100.681595,10.3886385
454326169000.0,-0.1027377596660616,9.44295804537205,0.3345451477132486,-0.10140363,-1.6630806,0.29993483,175.24973,-100.63348,10.34449
454331059000.0,-0.1490970282950008,9.524086784029038,0.4311269560122092,0.03970624,-1.8020525,0.32925636,175.68488,-100.57371,10.281688
454336047000.0,-0.2113991185202662,9.55379368711553,0.5054216924353249,0.19761491,-1.971873,0.344528,176.14581,-100.527596,10.220746
454341034000.0,-0.2798167578259037,9.561842563074071,0.5698147634869807,0.3475823,-2.1713204,0.36041048,176.654,-100.49932,10.166267
454346244000.0,-0.3457983145951478,9.552548721670592,0.6294321758501382,0.47616947,-2.3658812,0.37598756,177.215,-100.46201,10.095542
454351194000.0,-0.399177069534241,9.513728033780325,0.6731057081461767,0.57818395,-2.5466971,0.37904188,177.82773,-100.435844,10.022728
454356019000.0,-0.4453286822115673,9.47444711597243,0.6541931971471381,0.6560693,-2.6685648,0.37048978,178.48586,-100.39784,9.928759
454361041000.0,-0.4837621771351513,9.431209557087204,0.5340885029367696,0.7012733,-2.7247643,0.34147367,179.17484,-100.36292,9.82711
454366016000.0,-0.5187118061768902,9.369410019258202,0.3498676692938659,0.7302894,-2.7091873,0.30940324,179.88066,-100.319855,9.709276
454371096000.0,-0.5490747976890157,9.273982925820256,0.0505753793865906,0.7360926,-2.6505444,0.25992316,180.587,-100.26924,9.577165
454376073000.0,-0.5752312479889299,9.185014177583025,-0.2204211606688191,0.72387534,-2.5622742,0.19547687,181.2878,-100.21154,9.423101
454381934000.0,-0.5804092792841329,9.112522150369005,-0.3809395739169741,0.69027776,-2.4425447,0.12492194,181.95863,-100.14155,9.254534
454386419000.0,-0.5810603413244793,9.055615009278632,-0.5042437460074594,0.6356053,-2.2934935,0.059864793,182.60602,-100.08113,9.066737
454391042000.0,-0.5125939594432821,8.967011364231784,-0.6411764803320295,0.5766568,-2.1038198,0.0015271631,183.20226,-100.00596,8.864353
454396109000.0,-0.4375519613917948,8.869898089420541,-0.7912604441699262,0.52015173,-1.8839084,-0.06536258,183.74918,-99.92601,8.645699
454401062000.0,-0.3488977395267432,8.78339038532624,-0.9547628560459256,0.4382958,-1.7641789,-0.095294975,184.26616,-99.83586,8.424383
454406111000.0,-0.2541138989078689,8.697633735368244,-1.1262765047213668,0.4034765,-1.5008959,-0.14844026,184.67253,-99.72874,8.188422
454411041000.0,-0.1683758940714285,8.684306933673469,-1.1875241,0.34880406,-1.2363913,-0.20586158,185.04239,-99.63928,7.9674506
454416194000.0,-0.0828650050404312,8.712810643049671,-1.1875241,0.28160888,-0.94225967,-0.25992316,185.32309,-99.53663,7.7426
454421101000.0,-0.0270460326658245,8.813032382664463,-1.1250100900301234,0.23823744,-0.67103547,-0.31673363,185.52934,-99.462204,7.5337024
454426164000.0,0.0106469972123214,8.973227552521621,-1.011930978748421,0.2134974,-0.45478916,-0.38912117,185.66156,-99.369934,7.314449
454431146000.0,0.0660661792604712,9.210092555955498,-0.8723418296465969,0.18142697,-0.28069258,-0.46822822,185.72531,-99.2712,7.101498
454436035000.0,0.1375642313656195,9.516513083987784,-0.7089177257853404,0.16707164,-0.14813483,-0.5488624,185.73396,-99.16099,6.87576
454441040000.0,0.244151150741629,9.799432788928332,-0.5638518671150341,0.16371189,-0.03359759,-0.6230826,185.6982,-99.01834,6.637521
454446102000.0,0.3697292447990022,10.069192757075696,-0.4289716693523937,0.20433442,0.059253927,-0.66920286,185.62692,-98.87719,6.3915887
454451103000.0,0.5081027494619487,10.250607933785748,-0.2705115968776539,0.27275133,0.12034045,-0.7049385,185.52892,-98.710304,6.1388135
454456057000.0,0.6552856812312167,10.370194564129909,-0.0957318579574406,0.40286562,0.16340645,-0.72204274,185.40718,-98.56657,5.8850346
454461037000.0,0.8343675362552595,10.429143,0.0969534130145512,0.55741453,0.17623462,-0.74036866,185.27104,-98.430214,5.645583
454466039000.0,1.044321926227209,10.429143,0.3069077709786115,0.70371675,0.16065755,-0.74464476,185.12965,-98.32748,5.410258
454471117000.0,1.2518548334199695,10.417848749404374,0.5194603424821312,0.84788096,0.13988814,-0.7153232,184.98228,-98.25513,5.2111874
454476100000.0,1.437902482867663,10.371336971951484,0.7261799841585446,0.9599747,0.11575896,-0.6774496,184.83987,-98.21615,5.0168414
454481081000.0,1.5772571186184994,10.302386245732434,0.9224035131798332,1.0641272,0.09437868,-0.6246097,184.6985,-98.20958,4.884829
454486074000.0,1.6436959805577611,10.19798170394998,1.1027375811730846,1.1340714,0.05375614,-0.55680364,184.57106,-98.23377,4.7690954
454491014000.0,1.6710575606292597,10.10494696909719,1.2981969450284754,1.1655309,-0.0076358155,-0.49877146,184.45297,-98.27032,4.7007227
454496065000.0,1.6304122188030996,10.028172806554007,1.528520422957707,1.1386528,-0.05497787,-0.4569272,184.3441,-98.31891,4.6473665
454501063000.0,1.581930012193658,9.953146605181551,1.7862186308592578,1.1071932,-0.18784106,-0.43799037,184.27817,-98.35732,4.6137033
454506073000.0,1.5051393461938585,9.881155355806742,2.1461751283084927,1.029308,-0.39461896,-0.41996986,184.24834,-98.38475,4.5879292
454511050000.0,1.4545894480777652,9.806933871267184,2.495582154733339,0.91996306,-0.68752885,-0.4166101,184.28603,-98.35347,4.546577
454516041000.0,1.4922617293720992,9.723217593484543,2.8178900864436467,0.77824235,-1.0231993,-0.40775254,184.39618,-98.30035,4.5041156
454521900000.0,1.5409703505502568,9.638608670742643,3.198544216132714,0.6441574,-1.5958854,-0.38240165,184.66393,-98.160736,4.4339857
454526088000.0,1.606361530594277,9.671304226624278,3.48626521031222,0.47158796,-1.8048013,-0.3744604,184.92467,-97.979706,4.364699
454531157000.0,1.685508591636097,9.71087771582294,3.834512039227195,0.41722095,-2.1997259,-0.35369098,185.40373,-97.750206,4.2932687
454536066000.0,1.6963360684232505,9.777160149407049,3.9520537937197258,0.3145956,-2.5934284,-0.33536503,185.94447,-97.47603,4.221311
454541068000.0,1.640327662660765,9.873174404125606,3.848038260597962,0.22876903,-2.9205468,-0.30115658,186.58203,-97.20665,4.154383
454546111000.0,1.5719499003741426,9.966161343483684,3.718508206214924,0.160963,-3.2006285,-0.26939157,187.31967,-96.872185,4.1049867
454551040000.0,1.4051510445645397,10.025031440500936,3.3849105458220747,0.07544186,-3.4052682,-0.22479841,188.13312,-96.537445,4.068693
454556088000.0,1.2330496541726377,10.069619011668372,3.060282269723644,-0.010079277,-3.5741725,-0.18203785,189.025,-96.21436,4.025602
454561067000.0,1.0573500362674857,10.040335662743091,2.8195087356192428,-0.11636983,-3.703676,-0.15302174,189.96643,-95.89279,3.9950373
454566013000.0,0.8828149267758445,10.011246399078813,2.580331009232344,-0.23518312,-3.805385,-0.14385876,190.96254,-95.59425,3.9397151
454571095000.0,0.6855944995887692,9.965166846851956,2.317177206182643,-0.3717115,-3.8918226,-0.14996742,191.99194,-95.29308,3.894333
454576174000.0,0.4326891324446965,9.86860342768009,1.999895850141804,-0.4783075,-3.9694023,-0.17745635,193.0479,-94.99623,3.8525043
454581102000.0,0.191653129178274,9.751483499416388,1.663841787730138,-0.56230146,-4.0002513,-0.21838433,194.13329,-94.6974,3.7596674
454586077000.0,-0.0233797538853007,9.480838234456462,1.1410894372126683,-0.64996064,-3.9895608,-0.2724459,195.22752,-94.394684,3.664747
454591023000.0,-0.2371591789370477,9.211770600186757,0.6213842863263559,-0.68386364,-3.9709296,-0.31673363,196.35669,-94.088844,3.5103405
454596080000.0,-0.3404019278957642,9.088389,0.2475164237068124,-0.68111473,-3.8939605,-0.3408628,197.46437,-93.78864,3.357536
454601130000.0,-0.3498422734940464,9.088389,0.002067526869022,-0.66248333,-3.7763689,-0.38331795,198.5532,-93.495155,3.1977637
454606041000.0,-0.3665975578943782,9.153752997955706,-0.2027542192572402,-0.6224717,-3.649309,-0.3912592,199.64183,-93.22642,2.9906597
454611041000.0,-0.3910697980988075,9.284272163202726,-0.3781386826303237,-0.56107974,-3.5100317,-0.3659083,200.6909,-92.97008,2.7896252
454616049000.0,-0.4216141191016741,9.443905148223765,-0.551630352552062,-0.49846604,-3.3567045,-0.30268374,201.7074,-92.74626,2.5989008
454621102000.0,-0.4858332923928134,9.765000705185791,-0.7146482000204165,-0.4541783,-3.2027664,-0.22327125,202.68172,-92.54448,2.4267032
454626042000.0,-0.564302220896889,10.11099857350952,-0.8591733921860368,-0.44898596,-3.0567696,-0.14110987,203.62221,-92.370316,2.2685778
454631101000.0,-0.7104912453730101,10.599975584226408,-0.9448704098012696,-0.49510628,-2.9232957,-0.08582657,204.52032,-92.21434,2.1302888
454636044000.0,-0.8544695752803915,11.085995321791492,-1.0374273194956718,-0.59895337,-2.7757716,-0.032986723,205.38428,-92.07032,2.000587
454641104000.0,-1.0049339409559654,11.605781298456906,-1.1559750067369214,-0.7315111,-2.631913,-0.010079277,206.20921,-91.93274,1.8824457
454646097000.0,-1.1450600472279944,12.096783652730446,-1.260810387432466,-0.8885035,-2.4932466,-0.007941248,207.0106,-91.77151,1.7431271
454651127000.0,-1.2411544950710665,12.473153580417256,-1.300849747668523,-1.0619892,-2.350915,-0.03145956,207.76736,-91.61586,1.6088611
454656023000.0,-1.3346889715401875,12.83949695337046,-1.3398224529798022,-1.2370021,-2.204002,-0.08827003,208.50215,-88.5657,1.4336636
454661019000.0,-1.4013609585507243,13.017985920289854,-1.4013505489855071,-1.3793337,-2.0561724,-0.14508049,209.19249,-88.71043,1.2598455
454666037000.0,-1.45794909,13.12680925,-1.47099748,-1.4731015,-1.8939877,-0.21746802,209.83311,-88.79726,1.073572
454671092000.0,-1.4340926734218946,13.031780226655677,-1.52871478955687,-1.5057828,-1.6951511,-0.29932398,210.43921,-88.81349,0.8499944
454676066000.0,-1.3417141158731698,12.763882361533986,-1.574904116561621,-1.4556919,-1.4761559,-0.37048978,210.98897,-88.72642,0.61839855
454681052000.0,-1.2030393560226933,12.404394595650444,-1.55216613187021,-1.3692545,-1.2519683,-0.42088616,211.5044,-88.56394,0.3627862
454686047000.0,-1.0125898349417737,11.942554469493382,-1.4521801226137154,-1.2748758,-1.0677924,-0.46914452,211.96455,-88.35129,0.096850425
454691034000.0,-0.8505698572326166,11.55031965707903,-1.2940562543479477,-1.1704178,-0.99296147,-0.51893,212.43202,-88.11451,-0.16235894
454696087000.0,-0.7199399862664061,11.235005966210556,-1.064327937944708,-1.1255192,-0.90377516,-0.54611355,212.8395,-87.859604,-0.4216023
454701086000.0,-0.5891412885214008,11.150495470817122,-0.8000919141634242,-1.0662653,-0.8750645,-0.5861252,213.29843,-87.58596,-0.66084397
454707033000.0,-0.4295834960381323,11.624737018910508,-0.3923330869821011,-1.0488557,-0.9245446,-0.600786,213.75246,-87.30611,-0.89314157
454711010000.0,-0.3228807315003891,11.94188156856031,-0.1196482281120622,-1.0656544,-1.0189233,-0.569021,214.26335,-86.98192,-1.0973147
454716104000.0,-0.2638981709785026,12.341870212008896,0.0147379165189028,-1.1349876,-1.162782,-0.5039638,214.80179,-86.65354,-1.2875307
454721074000.0,-0.2330255690048183,12.729982909377316,0.0720727446767976,-1.2232577,-1.3347405,-0.43066,215.37419,-86.32487,-1.4573472
454726100000.0,-0.1987916706828256,13.086340314062058,0.1172429449989625,-1.3487904,-1.493871,-0.34422258,216.03894,-85.91305,-1.5632793
454731119000.0,-0.1625257153352824,13.4172672246534,0.1535089031866452,-1.4758505,-1.6627752,-0.2678644,216.7549,-85.492485,-1.6403077
454736103000.0,-0.1020618738727114,13.69049380592851,0.1268313202315606,-1.6081028,-1.8484782,-0.1957823,217.54123,-85.04648,-1.6772164
454741128000.0,-0.0139544175954664,13.904468995553618,0.0303326782263295,-1.7229455,-2.044566,-0.160963,218.3777,-84.5827,-1.6910877
454746086000.0,0.0738994510877646,14.107358533942136,-0.0821311409122353,-1.7965547,-2.1902573,-0.112704635,219.28171,-84.103714,-1.6631113
454751193000.0,0.1687604531501535,14.27731795862292,-0.2797582428498464,-1.842675,-2.2922719,-0.08827003,220.22781,-83.61004,-1.6197884
454756021000.0,0.2584391134119929,14.43799234717957,-0.466588798588007,-1.8197676,-2.3225098,-0.06047566,221.20746,-83.15268,-1.5354087
454761039000.0,0.3875852453594771,14.42737228235294,-0.8600911566013072,-1.7397442,-2.2809708,-0.040011674,222.19392,-82.7075,-1.4384437
454766057000.0,0.5328538035620916,14.337070420588237,-1.3430110135947713,-1.6303993,-2.191479,-0.014966198,223.17282,-82.28682,-1.3268964
454771095000.0,0.6445809592976856,14.166719679968075,-1.7036932836392658,-1.4874569,-2.0341814,-0.010995574,224.1352,-81.9492,-1.1947939
454777162000.0,0.6584922077813249,13.679827193535516,-1.6990562169513168,-1.3362677,-1.8738291,0.00061086525,225.06937,-81.65171,-1.0539098
454781187000.0,0.6677212790103751,13.35681050359138,-1.6959798705826017,-1.2046263,-1.7434094,0.029626964,225.94687,-81.49742,-0.8838495
454786030000.0,0.6043563168992128,12.92827529246239,-1.6290746168992127,-1.1151345,-1.6957619,0.0571159,226.80235,-81.374275,-0.7140908
454791039000.0,0.5146154492867722,12.472092399095798,-1.5393337492867722,-1.0714576,-1.6053538,0.063224554,227.60889,-81.27512,-0.55010325
454796078000.0,0.3759742667999567,12.004750304441805,-1.4446674284448289,-1.061073,-1.491122,0.073303826,228.41483,-81.17582,-0.3783167
454801081000.0,0.0186868304063547,11.502476247055007,-1.3307497186101804,-1.0403035,-1.3536774,0.084910266,229.18854,-81.09188,-0.21020465
454806025000.0,-0.3872760711049401,11.066648691220893,-1.235176666091786,-1.0366384,-1.16492,0.07788532,229.94554,-80.965645,-0.070094824
454811150000.0,-0.922897970768781,10.74623257263958,-1.173006266354867,-1.0735956,-0.9315695,0.05009095,230.65123,-80.835815,0.059117004
454816050000.0,-1.429020253635149,10.479868415703844,-1.125968427383479,-1.1301007,-0.6588182,-0.014966198,231.35115,-80.65633,0.11392934
454821109000.0,-1.9354828949147211,10.312316626031595,-1.1107364754224631,-1.2455542,-0.35063666,-0.116980694,231.97658,-80.45411,0.13918401
454826043000.0,-2.4294316342057694,10.148904779768923,-1.0958808812387015,-1.3836098,-0.043066,-0.25350907,232.62325,-80.1825,0.040368125
454831102000.0,-3.1180716975728155,9.915218189320388,-1.189275167961165,-1.5641204,0.25411993,-0.40653083,233.18698,-79.86982,-0.10297199
454836065000.0,-3.860016247058824,9.661871352941176,-1.3204726823529411,-1.7330247,0.5305365,-0.55924714,233.67212,-79.52363,-0.2950108
454841105000.0,-4.189265934090133,9.538582921645611,-1.3929218741550018,-1.887879,0.79504114,-0.70005155,234.22296,-79.06716,-0.6357362
454846929000.0,-4.284478342420621,9.486216134346192,-1.4357673460566749,-2.0140228,1.0210613,-0.81397796,234.70264,-78.56683,-1.0178438
454851100000.0,-4.307476074342629,9.43729050996016,-1.4512028947011952,-2.0934353,1.2232577,-0.8915578,235.30316,-77.96186,-1.5527706
454856037000.0,-4.235895553816733,9.354407917928286,-1.436133400462151,-2.1270328,1.3988814,-0.95478237,235.83003,-77.32376,-2.1182199
454861038000.0,-4.163387110804781,9.270450890836653,-1.4208685552749003,-2.1120665,1.5378532,-0.98532563,236.31494,-76.66423,-2.714732
454866044000.0,-3.989788858790992,9.079625018767285,-1.3772128211082575,-2.0503693,1.6487253,-1.0027353,236.74025,-76.00145,-3.3253133
454871097000.0,-3.784253741525089,8.854970156064796,-1.3246340202686684,-1.9275852,1.7186694,-1.0183123,237.12079,-75.35546,-3.9410489
454876059000.0,-3.56550650119345,8.631636970580072,-1.1857671358034971,-1.7776178,1.7476854,-1.0164797,237.52527,-74.71831,-4.5263104
454881133000.0,-3.336231926968267,8.402362490239616,-1.0149350757146822,-1.609019,1.7015651,-1.0054842,237.91507,-74.1208,-5.1038895
454886059000.0,-3.092654508468499,8.15397626967731,-0.8014341689525355,-1.4043792,1.674687,-0.9990701,238.34705,-73.559,-5.634938
454891069000.0,-2.830514662642991,7.883644556342838,-0.5515820431287348,-1.2895365,1.5800029,-0.9941832,238.7963,-73.02289,-6.1469765
454896096000.0,-2.55673379325129,7.634946646843986,-0.2846277167050416,-1.0897835,1.4227052,-0.9932669,239.34961,-72.53079,-6.588007
454901084000.0,-2.253317357125844,7.454793215244145,0.0282704044620881,-0.8762862,1.2293663,-0.9935723,239.92627,-72.078384,-7.0110526
454906111000.0,-1.9197370686847048,7.287030721624817,0.3659143609515198,-0.6786713,1.0332786,-1.0009027,240.68188,-71.61649,-7.3408723
454911045000.0,-1.505620947396536,7.165425141322946,0.7668839341309035,-0.47647488,0.8335256,-1.0351112,241.48013,-71.21545,-7.6572223
454916509000.0,-1.0470213351714546,7.030756942950546,1.210924823440217,-0.31856623,0.6160576,-1.0836749,242.52888,-70.78734,-7.861805
454921077000.0,-0.7428250112631385,7.0129720654988015,1.5456997978609626,-0.18051068,0.41263947,-1.1481212,243.61264,-70.409546,-8.06172
454926066000.0,-0.5445914707228472,7.1539382246358105,1.8496579577540104,-0.06047566,0.21319197,-1.2052372,244.73907,-70.07171,-8.252001
454931096000.0,-0.3486314466620083,7.319500916459628,2.1614189670289856,0.015577064,0.01038471,-1.2434162,246.17365,-69.66427,-8.263379
454936043000.0,-0.1720732046070393,7.57943381068323,2.4900134046376814,0.019242255,-0.2134974,-1.2657127,247.63763,-69.27468,-8.267501
454941089000.0,-0.0103947086658149,7.837967074951607,2.7755417369647697,0.023518313,-0.43554693,-1.2583824,249.27118,-68.85962,-8.182918
454946090000.0,0.0971480526510259,8.075302956949283,2.916459887859079,-0.028099801,-0.6609562,-1.2330315,250.92078,-68.44238,-8.082333
454951041000.0,0.2036156013972125,8.310265954703834,3.0559691390243904,-0.11759156,-0.88056225,-1.2009611,252.68582,-67.98629,-7.9058924
454956047000.0,0.3096918823605377,8.524204455328121,3.077587617060529,-0.21838433,-1.0543534,-1.135904,254.43732,-67.53308,-7.703838
454961038000.0,0.4146682566441184,8.725758775454626,3.0397960176139858,-0.32375857,-1.1655309,-1.0687088,256.17206,-67.0723,-7.4845505
454966093000.0,0.4927475382065218,8.902859355434783,2.940204496630435,-0.4541783,-1.244638,-0.9954049,257.79163,-66.62477,-7.2447224
454971144000.0,0.5278000370244565,9.038687791213768,2.747415833197464,-0.5699373,-1.2724323,-0.93187493,259.3742,-66.170456,-6.991663
454976127000.0,0.5151604860626602,9.17429312374969,2.4578399772505577,-0.6930266,-1.2305881,-0.84971356,260.78314,-65.763504,-6.7357364
454981078000.0,0.3152635438745144,9.31539723766223,1.7758386222079854,-0.77366084,-1.1252137,-0.7825184,262.14227,-65.350716,-6.478893
454986028000.0,0.1154069767504339,9.456472851450773,1.0939750173886087,-0.85918194,-1.040609,-0.7492262,263.3353,-64.99904,-6.2481284
454991108000.0,-0.0888840798522976,9.510953673413566,0.6306652026641137,-0.8906415,-0.82924956,-0.67164636,264.4314,-64.65639,-6.021445
454996094000.0,-0.2891483109299781,9.53707516739606,0.2475510228555798,-0.9477574,-0.58459806,-0.6010914,265.47165,-64.29291,-5.808085
455001110000.0,-0.4966914211986016,9.527156750957216,-0.0858181989678708,-0.979217,-0.31245756,-0.5403103,266.22058,-64.135414,-5.721089
455006054000.0,-0.7055668780456135,9.491687028300316,-0.3774556355718328,-0.9728029,-0.015577064,-0.50946164,266.88623,-63.97956,-5.6584096
455011062000.0,-0.9102663981372244,9.45553716974542,-0.6364577407404532,-0.9486737,0.30787608,-0.48930305,267.37485,-63.91159,-5.692752
455016103000.0,-1.0826296285936046,9.418067131907792,-0.7188923208840422,-0.89827734,0.6056729,-0.47555858,267.78564,-63.85633,-5.7535844
455021098000.0,-1.253420014653834,9.380939014669355,-0.8005746711751008,-0.8145888,0.8558222,-0.46883908,268.05707,-63.877605,-5.9171195
455026118000.0,-1.4014031641454012,9.326215492931889,-0.7028360028235726,-0.6954701,1.0186177,-0.4615087,268.26917,-63.923065,-6.099482
455031113000.0,-1.5331347576372316,9.260349489856802,-0.4876743191169451,-0.5662721,1.0800097,-0.44135013,268.43768,-63.994568,-6.29117
455036041000.0,-1.6054072619470598,9.194495059069109,-0.2293134000426363,-0.42058071,1.0598512,-0.4147775,268.55722,-64.10834,-6.5427732
455041102000.0,-1.5967968187422277,9.125611423521052,0.1021888971078344,-0.25534168,0.9877691,-0.38423425,268.66943,-64.26143,-6.7840443
455046164000.0,-1.5461779896546222,9.062208277259312,0.5252943768700646,-0.11178834,0.8536842,-0.35002577,268.8269,-64.38395,-7.032596
455051118000.0,-1.3115527245991865,9.024365518066524,1.3426985444508257,0.040011674,0.6988298,-0.27672195,268.99927,-64.5559,-7.2471437
455056086000.0,-1.076264408734147,8.986415815266811,2.1624126955491745,0.16035213,0.49877146,-0.20891592,269.26398,-64.6758,-7.423447
455061059000.0,-0.9372859823577236,8.950497748130081,2.659027604308943,0.27397305,0.3023783,-0.13500121,269.55817,-64.83923,-7.5587792
455066128000.0,-0.8465111133739838,8.914977245772358,2.9944999999593493,0.33505958,0.09865474,-0.08032878,269.9004,-65.0223,-7.6559143
455071119000.0,-0.7765564010298194,8.881431939605207,3.281999330449391,0.38606682,-0.07666359,-0.04428773,270.45837,-65.02859,-7.630971
455076166000.0,-0.7806163723183537,8.85301188198236,3.407858919445611,0.3747658,-0.20586158,-0.029321533,271.0467,-65.038055,-7.583226
455081049000.0,-0.7845444166619068,8.825515321377573,3.529628757580848,0.35338554,-0.2602286,-0.008552114,271.7081,-64.98015,-7.491041
455086034000.0,-0.8359786008002614,8.780418609674106,3.448014294668036,0.3378085,-0.36041048,0.0033597588,272.4032,-64.92304,-7.383213
455091013000.0,-0.8983150298898124,8.731439923055374,3.318888818470445,0.3173445,-0.40225476,0.014660766,273.08322,-64.86239,-7.276779
455096056000.0,-0.9580855997409566,8.688093375427883,3.0638400667129244,0.2950479,-0.40622538,0.01863139,273.77737,-64.766754,-7.174453
455101811000.0,-1.024371949565177,8.642202987325376,2.701814894125266,0.28710666,-0.38973203,0.039095376,274.4618,-64.674446,-7.068153
455106077000.0,-1.08212273510297,8.610852829142088,2.4015109506261,0.28771752,-0.35246924,0.055588737,275.07996,-64.61175,-6.995489
455111042000.0,-1.1559334229328366,8.576408173755564,2.027536750998655,0.3100141,-0.31245756,0.07360926,275.68173,-64.55656,-6.9235907
455116042000.0,-1.1281794767219568,8.512642009746042,1.5862354456751944,0.33292156,-0.26542094,0.09010262,276.1865,-64.58035,-6.8808837
455121112000.0,-1.023526523671633,8.426189268672102,1.0902715495267548,0.3662137,-0.22113322,0.11178834,276.6739,-64.6151,-6.839581
455126081000.0,-0.9334708856352674,8.396599451240824,0.744769934975533,0.410196,-0.17195857,0.12583824,277.0713,-64.73813,-6.831161
455131054000.0,-0.8585619096050332,8.434054258650821,0.5699823430688571,0.47311515,-0.10445796,0.13103059,277.44873,-64.87488,-6.828784
455136103000.0,-0.7857893483226667,8.472188027644444,0.4129927711751111,0.5467244,-0.019242255,0.1518,277.7162,-65.144714,-6.817936
455141046000.0,-0.7310874872373333,8.510058437688889,0.3624987387982222,0.63132924,0.076358154,0.16890424,277.9628,-65.43132,-6.8171644
455146105000.0,-0.6751019085946667,8.548817572711112,0.3108197362097777,0.70554936,0.1826487,0.20463985,278.14804,-65.78828,-6.8026023
455151062000.0,-0.6299450467847157,8.596563425442683,0.2741126658713886,0.77518797,0.2733622,0.23304509,278.31146,-66.16293,-6.7954626
455156062000.0,-0.5853187187325256,8.64565219524697,0.238411612749301,0.8350528,0.35521814,0.25534168,278.4463,-66.55223,-6.7921534
455161044000.0,-0.5657908740079526,8.654494416741054,0.2151474741394141,0.88239485,0.45570546,0.2770274,278.5368,-66.97505,-6.7815027
455166057000.0,-0.5541033388947496,8.650598693743406,0.1956682367467337,0.93370754,0.5476407,0.29260445,278.60687,-67.41026,-6.774672
455171924000.0,-0.5407680809109573,8.622307457911946,0.1717395060504904,0.977079,0.6478226,0.30818152,278.63495,-67.868675,-6.7642493
455176109000.0,-0.5316252799756672,8.57659354870352,0.1534539296380503,0.9972375,0.73914695,0.33200526,278.6394,-68.32965,-6.755653
455181215000.0,-0.5204704074366968,8.520819302486503,0.1311442156208653,1.0177015,0.8362745,0.34697145,278.60962,-68.80226,-6.7538815
455186037000.0,-0.51714754,8.504205,0.12449849,1.0235047,0.8848383,0.35460728,278.56802,-69.27022,-6.7509456
455191072000.0,-0.51714754,8.504205,0.12449849,1.026559,0.99112886,0.36865717,278.4839,-69.737206,-6.755965
455196068000.0,-0.5268448236121568,8.506629367734828,0.0978309825964557,1.026559,1.0955868,0.38759398,278.3815,-70.20172,-6.759614
455201066000.0,-0.544424447657699,8.511024358644754,0.0494870573142962,1.0412198,1.1963795,0.4025602,278.2519,-70.664314,-6.768107
455206019000.0,-0.56378066609378,8.560406741626794,0.0341401719255502,1.0751228,1.3078625,0.4202753,278.08752,-71.127106,-6.7803698
455211040000.0,-0.5867879163177034,8.6892470430622,0.0755532194457416,1.1090258,1.4019357,0.4364632,277.90106,-71.58734,-6.793735
455216011000.0,-0.6096993558381391,8.828999678526047,0.1346032374469749,1.1731668,1.4767667,0.45906523,277.68204,-72.06931,-6.8113565
455221104000.0,-0.6335360792845275,9.005390912325286,0.2442521075554686,1.2458596,1.5457945,0.48563787,277.4394,-72.556175,-6.82745
455226104000.0,-0.6606094324503312,9.189072367549668,0.3584643280794701,1.3466524,1.6132951,0.52473325,277.17828,-73.05937,-6.839122
455231079000.0,-0.698855131828216,9.40420492574754,0.4923243757415211,1.4608842,1.6985108,0.5561928,276.89453,-73.57756,-6.8484044
455236053000.0,-0.7414656293987866,9.629011678985108,0.6537266912520684,1.5971072,1.7944167,0.6096435,276.59473,-74.10944,-6.845338
455241580000.0,-0.8040269056339138,9.912622426286344,0.928996315396738,1.7434094,1.9089539,0.6606508,276.26752,-74.66578,-6.837266
455246112000.0,-0.8553255674572532,10.145176055157195,1.1547104345615002,1.9120082,2.0503693,0.72418076,275.9185,-75.23812,-6.818489
455251123000.0,-1.0025919743453546,10.467866997297548,1.6926843468176311,2.0809124,2.1948388,0.79412484,275.53754,-75.84199,-6.786356
455256052000.0,-1.182944915720809,10.810977943900848,2.334916740834964,2.2559254,2.346639,0.88025683,275.1153,-76.486145,-6.735697
455261041000.0,-1.467031920322743,11.054627849386453,3.205970066464952,2.348166,2.4339926,0.95142263,274.70462,-77.08608,-6.6796045
455266044000.0,-1.8334852711800305,11.21570611598588,4.25700638676248,2.327702,2.4016168,0.98563105,274.28876,-77.69261,-6.606815
455271069000.0,-2.288684489361702,11.294205639934534,5.3309582715220944,2.1545217,2.2369885,0.9718866,273.9771,-78.119225,-6.565309
455276071000.0,-3.139338444680851,10.992360727659577,6.483457261914894,1.8533652,2.1203132,0.91690874,273.66714,-78.49828,-6.5248384
455281012000.0,-3.979618571276596,10.694196850900164,7.621901386571195,1.4425583,1.8173242,0.883922,273.69424,-78.46983,-6.593573
455286032000.0,-4.362633472557223,10.43364076724916,7.701603700730167,1.2202033,1.484708,0.8078693,273.7642,-78.40638,-6.681388
455291048000.0,-4.567567257445237,10.189296670768726,7.374497991057511,0.795652,1.1585059,0.73853606,273.914,-78.204216,-6.7614493
455296047000.0,-4.73975226614987,9.947431834625323,6.952749480878553,0.41447207,0.90224797,0.68661255,274.82428,-77.30502,-7.242303
455301111000.0,-4.836148440270324,9.706441399324191,6.292435184873783,0.10934488,0.70005155,0.62888575,275.74976,-76.37122,-7.6994777
455306058000.0,-4.915961988632784,9.510309713385828,5.667022370221904,-0.11789699,0.5198463,0.56779927,276.8051,-75.36385,-8.236028
455311063000.0,-4.960565746113099,9.410808737007876,5.083742106442377,-0.2770274,0.37201694,0.51893,277.83887,-74.35421,-8.73613
455316070000.0,-5.005187327272727,9.311268,4.500228763636364,-0.39858958,0.22449298,0.46792278,278.80762,-73.43075,-9.241502
455321049000.0,-5.002992314369242,9.266979695783132,3.811058557459249,-0.49205196,0.089491755,0.38637227,279.76355,-72.51132,-9.725134
455326164000.0,-4.950917282388377,9.279998295180723,2.9865351484408222,-0.569021,-0.042455133,0.28405234,280.71262,-71.60099,-10.185483
455331089000.0,-4.7768974239376005,9.385625544916625,2.079892955233997,-0.625526,-0.16768251,0.1740966,281.50455,-70.8638,-10.629736
455336067000.0,-4.208441689564282,9.787391293526984,0.8062102358006098,-0.64721173,-0.28344148,0.060170226,282.30667,-70.12904,-11.069269
455341451000.0,-3.619091921658778,10.21527094929006,-0.503137399409511,-0.6392705,-0.40042216,-0.04184427,282.89883,-69.62651,-11.460009
455346081000.0,-3.3859130727368343,10.511741212981743,-0.8962102356652393,-0.6084218,-0.49021935,-0.11636983,283.50806,-69.12424,-11.851897
455351040000.0,-3.136164927638795,10.829278154158215,-1.317214165469161,-0.559858,-0.5525276,-0.15668693,283.84393,-69.01557,-12.083717
455356080000.0,-2.870357021607143,11.138783896428572,-1.7478698167857143,-0.4709771,-0.5140431,-0.16737708,284.17572,-68.91623,-12.322548
455361064000.0,-2.58457388572479,11.419553767016806,-2.1790514673739496,-0.38056904,-0.39492437,-0.16737708,284.50012,-68.8235,-12.564923
455366007000.0,-2.3473917077244453,11.589690892210566,-2.492806967291802,-0.28924468,-0.22204952,-0.14385876,284.72116,-68.89874,-12.737973
455371124000.0,-2.1654048022282053,11.616988526599204,-2.661144865564943,-0.21991149,-0.009468411,-0.12370021,284.89398,-68.98445,-12.919864
455376030000.0,-1.9949544293267245,11.56914225691863,-2.797685519206939,-0.18906279,0.098043874,-0.10934488,285.0036,-69.178986,-13.047007
455381131000.0,-1.8284847376084263,11.32195972242875,-2.8733535130111525,-0.18478674,0.32620203,-0.06383542,285.01196,-69.38434,-13.181614
455386011000.0,-1.6739296972058824,11.032115398788926,-2.904294165735294,-0.16646078,0.5714644,-0.015577064,284.96277,-69.63896,-13.285738
455391159000.0,-1.5203958966176472,10.618427284602076,-2.8531162322058825,-0.1423316,0.8436049,0.030543262,284.83572,-69.89504,-13.391866
455396175000.0,-1.3732100040613802,10.213718103372232,-2.8001542066066345,-0.09621128,1.1346822,0.06047566,284.6209,-70.17227,-13.484737
455401174000.0,-1.267633723927226,9.782614871450887,-2.6945779724065058,-0.004276057,1.427592,0.093462385,284.32343,-70.464714,-13.577587
455406063000.0,-1.1643805865845815,9.36099780786548,-2.591324879987136,0.1282817,1.6814066,0.109650314,283.94995,-70.760086,-13.663312
455411039000.0,-1.180211727045329,9.16382865533444,-2.373285229933665,0.2779437,1.8286251,0.105068825,283.52252,-71.07057,-13.751415
455416044000.0,-1.2166442328841902,9.004850737285793,-2.1348179378524046,0.43951756,1.8790215,0.076358154,283.05127,-71.39653,-13.844386
455421168000.0,-1.2539429661346049,8.842092924682145,-1.8906807940713104,0.5674938,1.8442022,0.039095376,282.5647,-71.7102,-13.932835
455426898000.0,-1.3275185636977058,8.873064929824562,-1.3029756153742345,0.6658431,1.7693712,-0.009773844,282.079,-72.02679,-14.025375
455431157000.0,-1.3756634112835375,8.900007083294382,-0.8816660903767412,0.75136423,1.6850718,-0.05009095,281.62924,-72.28814,-14.131753
455436102000.0,-1.3136832426381229,8.95756037440404,-0.7178612387641395,0.8078693,1.5732834,-0.099571034,281.21454,-72.53496,-14.241947
455441114000.0,-1.2508633022436195,9.015893457324484,-0.5518369887575956,0.8359691,1.4388931,-0.15027285,280.86765,-72.70781,-14.360183
455446096000.0,-1.0888220119996197,8.967927640676999,-0.4253433641722925,0.8524625,1.2932017,-0.20341812,280.5622,-72.86424,-14.481639
455451143000.0,-0.9141811753636968,8.908181852619569,-0.3012564602453171,0.86254174,1.1713341,-0.2678644,280.29465,-72.99749,-14.610383
455455977000.0,-0.7144070549267928,8.952406345302983,-0.2102701192005985,0.8576548,1.0473285,-0.34208453,280.08017,-73.1032,-14.72925
455461012000.0,-0.4979693981190553,9.024552616543764,-0.1226643908474938,0.86162543,0.95081174,-0.42180246,279.89856,-73.1843,-14.859865
455465964000.0,-0.265206937040303,9.209683448787878,-0.0582434294031313,0.8680395,0.87781334,-0.49021935,279.74457,-73.25913,-14.967392
455470938000.0,-0.0294375569512121,9.406959825151514,0.004307628610808,0.86590147,0.838718,-0.5119051,279.61194,-73.317276,-15.078394
455475983000.0,0.1592277406328086,9.698995929609946,0.0317879306997894,0.8713993,0.7858781,-0.54183745,279.4962,-73.38526,-15.161561
455480920000.0,0.3393807997904342,9.992929850596612,0.0554922795337411,0.8784242,0.7247916,-0.54733527,279.3956,-73.447266,-15.239593
455485966000.0,0.4647409006286055,10.304377520389895,0.1325321819096876,0.87689704,0.65179324,-0.5143485,279.3026,-73.5544,-15.255103
455490921000.0,0.5827364239924409,10.611165896906703,0.2127691316858961,0.88361657,0.5510005,-0.45875978,279.2365,-73.66191,-15.261404
455496426000.0,0.6424243198094366,10.927381940494731,0.2998957498405863,0.8933904,0.4334089,-0.36865717,279.18573,-73.82887,-15.195575
455500993000.0,0.6865021920604673,11.187841737150707,0.37202319047366,0.91629785,0.28527406,-0.26725355,279.17297,-74.009575,-15.107541
455505979000.0,0.7100688359253499,11.437715585277346,0.429188893125972,0.94989544,0.13164146,-0.15607607,279.192,-74.244835,-14.951919
455510980000.0,0.7249657493934681,11.676067030378434,0.4788453076485225,0.9691377,-0.018325957,-0.031154128,279.25168,-74.50502,-14.763167
455515979000.0,0.745770504334509,11.800917709578616,0.4453775157740858,0.99112886,-0.14721853,0.06536258,279.34668,-74.80207,-14.529006
455521025000.0,0.7681970096807128,11.899593846018192,0.3915539731956562,1.0192287,-0.24831672,0.1777618,279.47504,-75.13112,-14.258075
455526008000.0,0.7823748943828529,11.899433475979306,0.2770195722542498,1.0577132,-0.3231477,0.27855456,279.63013,-75.48677,-13.955965
455531030000.0,0.792531079425615,11.84865247122796,0.1297545545462992,1.0867293,-0.3662137,0.36346483,279.80402,-75.86038,-13.633094
455536021000.0,0.7005078569866666,11.781011711619048,0.0433418895359999,1.1215485,-0.39920044,0.4370741,279.9875,-76.26231,-13.28457
455541000000.0,0.5778946378600001,11.708351979142858,-0.024776566272,1.1505647,-0.41722095,0.5186246,280.1781,-76.680046,-12.918378
455546007000.0,0.3913141007449483,11.56830625253748,-0.0804321561460098,1.180497,-0.39736784,0.61117065,280.35376,-77.11689,-12.539099
455551096000.0,0.1689393725626222,11.391314348728931,-0.1303530132222739,1.2134838,-0.36193767,0.69974613,280.53015,-77.564445,-12.1469555
455556010000.0,-0.1153748378469807,11.182520134155338,-0.1349876609431974,1.2534955,-0.33353242,0.75869465,280.69867,-77.99408,-11.774135
455561002000.0,-0.4680484007176731,10.935648399726,-0.0997203041300453,1.2999213,-0.29840767,0.7987063,280.85562,-78.430786,-11.391002
455566009000.0,-0.8128335098162524,10.695462708558514,-0.0279983008882774,1.3573426,-0.28771752,0.818254,281.01227,-78.81521,-11.058259
455571070000.0,-1.1557353610258423,10.4573366163899,0.0672522056008646,1.3952162,-0.26847526,0.81489426,281.15808,-79.18936,-10.728787
455576070000.0,-1.462937055773247,10.206209363600198,0.1591997717274987,1.4077389,-0.24678956,0.79412484,281.31192,-79.47267,-10.481458
455581035000.0,-1.7466695480159125,9.94612138150174,0.2490484066156141,1.3973542,-0.2275473,0.74097955,281.463,-79.72995,-10.250329
455586014000.0,-1.9629250394969229,9.676301306395503,0.289751581081081,1.3588698,-0.19975294,0.6478226,281.62445,-79.871635,-10.123277
455591006000.0,-2.1292339803585767,9.399119515654268,0.2940159183783783,1.2754866,-0.1328632,0.5369505,281.77036,-79.97971,-10.020254
455596047000.0,-2.251372564070379,9.096757026713872,0.2795480352387083,1.151481,-0.05100725,0.40439278,281.92288,-100.02986,-10.027327
455601061000.0,-2.282282117744877,8.751599528162213,0.2280319797596824,1.003957,0.0720821,0.26358834,282.04446,-100.079094,-10.069228
455606048000.0,-2.2273370724099557,8.47950458523877,0.1162558822349251,0.80481493,0.21471913,0.116675265,282.14966,-100.2266,-10.208273
455611001000.0,-2.078566220760825,8.287542010117361,-0.0613093932658842,0.6078109,0.40042216,-0.04642576,282.20627,-100.41631,-10.389823
455616006000.0,-1.869794658119985,8.219434144201376,-0.2246908452904088,0.3827071,0.64568454,-0.18692477,282.2055,-100.65863,-10.626641
455621046000.0,-1.5977504028658769,8.283987117071074,-0.3722402733377913,0.13713925,0.89980453,-0.27916542,282.14807,-100.92523,-10.891681
455626107000.0,-1.3268630898987832,8.39331962928126,-0.4637481355699826,-0.09101892,1.0974194,-0.3182608,282.01767,-101.18025,-11.145807
455631020000.0,-1.0670996799049175,8.56168493962785,-0.4733690061414988,-0.27275133,1.2400564,-0.34300083,281.8302,-101.44916,-11.417319
455636022000.0,-0.8317020733733239,8.743239406845447,-0.4881670950952717,-0.42180246,1.3509285,-0.34147367,281.56866,-101.643005,-11.613903
455641001000.0,-0.6340047073297459,8.936730172327099,-0.5091987363223359,-0.52534413,1.427592,-0.3371976,281.27716,-101.83796,-11.813479
455646048000.0,-0.4190412118464961,9.200005037449015,-0.5450595239340007,-0.61819565,1.4859297,-0.32070425,280.9446,-101.95805,-11.93908
455651081000.0,-0.1375613934315906,9.771900889877642,-0.6478219724416018,-0.68569624,1.5213599,-0.28863382,280.5986,-102.07062,-12.057229
455656262000.0,0.1360468163256785,10.342386577289645,-0.7478358380049015,-0.752586,1.5384641,-0.2302962,280.23044,-102.1119,-12.103593
455661037000.0,0.1651023424217119,10.616338603703367,-0.7602882422438051,-0.7678576,1.543351,-0.1423316,279.85797,-102.136345,-12.131938
455666011000.0,0.1953687689770354,10.901707688390667,-0.7732596053190524,-0.768163,1.5497651,-0.041233405,279.462,-102.05562,-12.053662
455671108000.0,0.2222291975869392,11.124797192991773,-0.8214732896009203,-0.7706065,1.536326,0.07086037,279.07315,-101.94977,-11.949334
455676089000.0,0.2475554867852402,11.327407665250863,-0.8763469139934519,-0.7696902,1.5268577,0.12705997,278.6839,-78.16522,-11.83477
455681037000.0,0.2850059909497816,11.457845568975785,-0.9372249455934896,-0.75716746,1.5396858,0.23243423,278.29315,-78.34029,-11.6591215
455686045000.0,0.3326048987227074,11.534003849245732,-1.0038633737316396,-0.7370089,1.5534303,0.32406402,277.90753,-78.52223,-11.475602
455691038000.0,0.3747834567895878,11.507458295010846,-1.0521815145336226,-0.7122689,1.5738943,0.39553526,277.5112,-78.73631,-11.259469
455696099000.0,0.4130151350423979,11.392763419936896,-1.0856342654407414,-0.7012733,1.604743,0.4456262,277.11066,-78.96421,-11.028863
455701055000.0,0.4450538716587452,11.247305667680608,-1.115430359391635,-0.68416905,1.6505579,0.47678033,276.69598,-79.2134,-10.777217
455706079000.0,0.4724952509743346,11.06893647528517,-1.1428717148288974,-0.6658431,1.6832392,0.49877146,276.2793,-79.46779,-10.520072
455711092000.0,0.4688981551028879,10.931729253024816,-1.1463724320409785,-0.66950834,1.7027869,0.5131268,275.8504,-79.72662,-10.258415
455716223000.0,0.4211612805475581,10.849274359445376,-1.1159944469133622,-0.68569624,1.6896533,0.54183745,275.42487,-79.989586,-9.992225
455721120000.0,0.3608765070067912,10.77760867122241,-1.0904503683531408,-0.7076874,1.6471981,0.5830709,275.00073,-80.25393,-9.724377
455726076000.0,0.223887525893039,10.74134699074703,-1.0823921984380305,-0.7431176,1.5787812,0.62125,274.5912,-80.518845,-9.454626
455731128000.0,0.0842450051935483,10.70438290483871,-1.0741779380645162,-0.754724,1.5045611,0.6533204,274.19977,-80.773994,-9.193251
455736039000.0,-0.1426172560781234,10.682472488271666,-1.0874229891058986,-0.7690793,1.3949108,0.6563747,273.84122,-81.02408,-8.934511
455741009000.0,-0.394871984010207,10.663787063794288,-1.1061085111394642,-0.7644979,1.2745703,0.65270954,273.5098,-81.27454,-8.673799
455746087000.0,-0.7242144453583361,10.586012959321751,-1.189963859689275,-0.7415904,1.1468995,0.6365216,273.21353,-81.480644,-8.455737
455751952000.0,-1.1323846770280654,10.473414463247575,-1.3119457678917474,-0.70341134,1.0027353,0.6047566,272.95892,-81.67567,-8.247259
455756050000.0,-1.3261857350975783,10.367769883825485,-1.366920631184224,-0.63591075,0.8680395,0.5696318,272.74243,-81.80746,-8.103164
455761034000.0,-1.4188479045877185,10.197075904465107,-1.3864284054153468,-0.56046885,0.72051555,0.54000485,272.57285,-81.92971,-7.9687767
455766023000.0,-1.481231617696273,10.01231039094059,-1.406218005552269,-0.49663344,0.64934975,0.52656585,272.42352,-81.95672,-7.9361577
455771081000.0,-1.4976059790247611,9.803537198512634,-1.4266860427026111,-0.4633413,0.4783075,0.49296826,272.34695,-81.97119,-7.916625
455776232000.0,-1.5121820290213723,9.590918638357705,-1.45022917424072,-0.3924809,0.28619036,0.45020768,272.2936,-81.95761,-7.930685
455781060000.0,-1.4991795570303712,9.391547310648669,-1.506573219535058,-0.33200526,0.076052725,0.41386122,272.29553,-81.93779,-7.9509263
455786085000.0,-1.485646536782902,9.184040905980504,-1.5652163072740908,-0.27672195,-0.12583824,0.37415496,272.3432,-81.89637,-7.996161
455791098000.0,-1.488432493865484,8.987794354028086,-1.7075311755358462,-0.23396139,-0.3191771,0.3454443,272.449,-81.85062,-8.04658
455796078000.0,-1.4928386712490762,8.793922641167775,-1.8573412985957127,-0.19914207,-0.49296826,0.30268374,272.6071,-81.792465,-8.110343
455801131000.0,-1.5364447417339258,8.629301787158791,-2.01706377018228,-0.1414153,-0.6407976,0.27091873,272.80313,-81.72996,-8.182238
455806075000.0,-1.592264147193253,8.479018893171306,-2.175934392618119,-0.079107046,-0.77213365,0.22388211,273.0435,-81.6529,-8.268875
455811036000.0,-1.6542631355292747,8.376863728824851,-2.31790546493712,-0.025045475,-0.86498517,0.16920967,273.30283,-81.56269,-8.373542
455816106000.0,-1.723008484575664,8.316205720163238,-2.4473083581660697,0.038789943,-0.91599244,0.10781772,273.58633,-81.45869,-8.492171
455821951000.0,-1.82431768517924,8.318007279828786,-2.594376839165329,0.10995574,-0.9166033,0.053450707,273.86807,-81.32303,-8.645125
455826225000.0,-1.9432039133990675,8.46505078208362,-2.69762015551479,0.17531833,-0.8756753,-0.004581489,274.15054,-81.16737,-8.815086
455831102000.0,-2.078863280509058,8.632840010089428,-2.815429620614538,0.23548855,-0.79901177,-0.056199603,274.4113,-80.9748,-9.019537
455836067000.0,-2.1391110453140416,8.796144062479447,-2.840541932587964,0.28405234,-0.6948592,-0.08857546,274.6502,-80.767075,-9.232677
455841070000.0,-2.127294357448208,8.953699900690562,-2.777519515044393,0.31490102,-0.56107974,-0.11148291,274.85657,-99.4571,-9.455024
455846109000.0,-2.1089423242783547,9.109802129691715,-2.7097702386131326,0.3323107,-0.40622538,-0.13072516,275.01666,-99.73174,-9.718459
455851062000.0,-2.0274873656554093,9.237802894676587,-2.6011636946193475,0.33108896,-0.23243423,-0.14782938,275.13153,-100.01645,-9.982452
455856199000.0,-1.943006420279663,9.37055878600049,-2.488522504129528,0.32162055,-0.04550946,-0.17898351,275.19638,-100.30438,-10.242029
455861039000.0,-1.7746106377463056,9.509214721059111,-2.3150514844827583,0.28710666,0.05009095,-0.19120082,275.23755,-100.59201,-10.49493
455866064000.0,-1.5507193492610838,9.660670545155993,-2.097745263218391,0.25870144,0.24740042,-0.20189096,275.1953,-100.888016,-10.748276
455871126000.0,-1.325179508004926,9.813241566365626,-1.878838976245211,0.24831672,0.4266894,-0.21685717,275.13232,-101.1544,-10.9708
455876060000.0,-1.1239396630709046,9.901266841075794,-1.6894086930953545,0.20066923,0.6032294,-0.23823744,275.01413,-101.42036,-11.190528
455881059000.0,-0.9272915189046456,9.966816075794622,-1.5068068833545234,0.172264,0.766025,-0.25381452,274.84967,-101.686844,-11.405031
455886044000.0,-0.7575645542161049,10.01287597148086,-1.3660168180951655,0.15118915,0.93034774,-0.27855456,274.6429,-101.862465,-11.538456
455891727000.0,-0.5791083567469879,10.05437738554217,-1.229062021686747,0.12736541,1.073901,-0.2932153,274.39728,-102.03521,-11.667587
455896117000.0,-0.4424077637516204,10.084843807363235,-1.1200270439719988,0.10873401,1.1869112,-0.30024028,274.11804,-102.15449,-11.748849
455901244000.0,-0.3023758263209748,10.093330762509725,-0.9375611859735544,0.10781772,1.2718215,-0.29168814,273.8083,-102.27114,-11.825299
455906014000.0,-0.1720945036090225,10.101226759398497,-0.7678006744360901,0.11728613,1.320996,-0.28130344,273.48352,-102.33336,-11.852838
455911040000.0,-0.0608195498931347,10.13452385378886,-0.5999242914572539,0.14355333,1.3271047,-0.26175576,273.1501,-102.391014,-11.8732195
