timestamp,acc_x,acc_y,acc_z,gyro_x,gyro_y,gyro_z,ori_azimuth,ori_pitch,ori_roll
2405671410000.0,-5.583050481730706,-0.7482144217809402,7.55216814115497,9.900599,-8.537758,5.9687643,279.48492,11.729775,-27.483694
2405675903000.0,-5.591859673829176,-0.7460658391849798,7.550664138767134,9.900599,4.4443502,0.036651913,282.49518,12.608336,-30.614563
2405680791000.0,-5.6014433219434245,-0.7437283649519386,7.549027912710659,-1.1823297,0.73975784,0.031154128,279.60632,11.89943,-27.876005
2405685758000.0,-5.611181861260829,-0.7413531123914813,7.547365241920455,-1.1679744,0.7583892,0.029932396,279.96588,9.320783,-29.290117
2405690818000.0,-5.621102740855366,-0.7389333866101415,7.545671439988016,-1.1792754,0.7663304,0.03359759,280.07996,9.527716,-29.650635
2405695754000.0,-5.630780500080393,-0.7365729584566449,7.544019146245225,-1.1942415,0.7657196,0.039095376,280.1895,9.7275,-30.003744
2405701049000.0,-5.641162131988115,-0.734040854106409,7.542246679598533,-1.2092078,0.75961095,0.03573562,280.29614,9.926456,-30.347197
2405705764000.0,-5.650406587973934,-0.7317861096283425,7.540668364161486,-1.1936307,0.732122,0.031154128,280.3954,10.116634,-30.675014
2405710751000.0,-5.660184340254163,-0.729401292934362,7.538998998501985,-1.1615603,0.7125743,0.033292156,280.48923,10.301613,-30.994183
2405715800000.0,-5.670083652719146,-0.7269868274264599,7.53730887874766,-1.1301007,0.7312057,0.037873644,280.58038,10.479033,-31.307337
2405720772000.0,-5.679831995277257,-0.7246091838326217,7.535644534240132,-1.138042,0.77763146,0.04153884,280.6679,10.654053,-31.614391
2405725954000.0,-5.689992073945023,-0.7221311168367912,7.533909893604973,-1.2321151,0.7699956,0.046120327,280.7475,10.837647,-31.903519
2405730846000.0,-5.699583564651836,-0.7197917297770454,7.5322723285746385,-1.2425,0.7602218,0.046731193,280.82672,10.999122,-32.196564
2405735820000.0,-5.709335828506229,-0.7174131297698549,7.530607314580181,-1.2388347,0.7495316,0.050701816,280.89917,11.174574,-32.47947
2405740994000.0,-5.7194802219888645,-0.7149388884274336,7.528875351892743,-1.235475,0.7370089,0.05589417,280.96674,11.348212,-32.751324
2405745765000.0,-5.728834474270591,-0.7126573643755024,7.527278290821662,-1.2403619,0.7141015,0.058643065,281.02884,11.518727,-33.009766
2405751019000.0,-5.739135719604524,-0.7101448664989888,7.525519548657029,-1.2330315,0.6914995,0.064446285,281.0841,11.680365,-33.258022
2405755828000.0,-5.748564476515616,-0.7078451705933637,7.523909767334282,-1.2412782,0.6411031,0.0693332,281.1317,11.842837,-33.48535
2405760789000.0,-5.758291251944174,-0.7054727872729633,7.522249105004868,-1.196685,0.61361414,0.07574729,281.174,11.986289,-33.706676
2405765712000.0,-5.767943522743365,-0.7031185758062567,7.520601162927122,-1.1496484,0.5311473,0.07941248,281.20407,12.127396,-33.89284
2405770770000.0,-5.777860481041619,-0.7006998064382692,7.518908030481612,-1.0302242,0.4605924,0.071776666,281.23193,12.238695,-34.068676
2405775913000.0,-5.787944094431877,-0.6982403895028088,7.5171864448415855,-0.91507614,0.38789943,0.07269296,281.24628,12.33533,-34.217052
2405780786000.0,-5.797498332824008,-0.6959100883699099,7.5155552399370835,-0.77457714,0.32650748,0.06627888,281.25873,12.398475,-34.34375
2405785781000.0,-5.807291770289366,-0.6935214460225202,7.513883196329863,-0.6569856,0.22052236,0.055283304,281.23425,12.446687,-34.425983
2405790751000.0,-5.817036191551194,-0.6911447588420343,7.512219521309265,-0.46792278,-0.018325957,0.00030543262,281.2087,12.452963,-34.44809
2405795736000.0,-5.826810022535141,-0.6887608985614061,7.510550825136694,-0.005192355,-0.048563786,-0.0067195175,281.1802,12.361475,-34.49955
2405801060000.0,-5.837248513238958,-0.6862149262175617,7.508768650929518,0.05497787,-0.008552114,0.002443461,281.1504,12.326582,-34.501595
2405810808000.0,-5.856360911319501,-0.6815533675384116,7.505505571633585,-0.00061086525,-0.0009162979,0.0061086523,281.12146,12.214916,-34.485825
2405815753000.0,-5.866056316377799,-0.6791886355248296,7.503850265199611,0.010995574,0.0076358155,0.014966198,281.0938,12.073483,-34.482613
2405820740000.0,-5.875834068658028,-0.6768038188308492,7.502180899540109,0.0125227375,0.008552114,0.013439035,281.0706,11.950617,-34.479023
2405825958000.0,-5.886064730658877,-0.674308536394677,7.500434208140215,0.015271631,0.014966198,0.02321288,281.04398,11.823576,-34.480816
2405830757000.0,-5.895473881088558,-0.6720136225558135,7.498827774252116,0.014049901,0.023823744,0.013744468,281.02676,11.702674,-34.482098
2405835780000.0,-5.90532221670187,-0.6696115904214915,7.497146357827878,0.007330383,0.017715093,0.017715093,281.0031,11.580718,-34.48263
2405840744000.0,-5.91505487407485,-0.6672377724810626,7.49548469126807,0.013744468,0.025350908,0.02321288,280.98596,11.459354,-34.48883
2405845742000.0,-5.924854193484633,-0.6648476955136444,7.493811643430455,0.0125227375,0.032070424,0.027488936,280.96918,11.342901,-34.49326
2405850821000.0,-5.934812325393853,-0.6624188838054578,7.492111481372182,0.0125227375,0.022296581,0.030543262,280.95215,11.225996,-34.495453
2405855837000.0,-5.944646936470177,-0.6600201991178688,7.4904324081521985,0.009773844,0.020158553,0.030543262,280.9377,11.111826,-34.50161
2405860763000.0,-5.954305089213792,-0.6576645530311338,7.488783461844057,0.0009162979,0.017104227,0.032375857,280.9226,11.000266,-34.505074
2405865746000.0,-5.964074998901455,-0.6552816491638579,7.487115435158415,-0.0033597588,0.014966198,0.03634648,280.90848,10.889867,-34.50832
2405870740000.0,-5.973866475718673,-0.6528934850231444,7.48544372629466,-0.013133603,0.010995574,0.0421497,280.8944,10.784106,-34.510437
2405875866000.0,-5.98391675809053,-0.6504421976011785,7.483727831293536,-0.013133603,0.008246681,0.0421497,280.88263,10.679203,-34.512188
2405880808000.0,-5.993606281204404,-0.6480789002076249,7.482073529089956,-0.022907447,-0.0012217305,0.05009095,280.867,10.57841,-34.511864
2405885764000.0,-6.003323253392255,-0.6457089079206052,7.480414540477867,-0.03268129,-0.0070249503,0.055588737,280.85394,10.479788,-34.511673
2405890743000.0,-6.013085320487354,-0.643327916880034,7.478747852766085,-0.030543262,-0.008552114,0.05375614,280.8419,10.3823,-34.510174
2405895741000.0,-6.022884639897136,-0.6409378399126158,7.47707480492847,-0.034513887,-0.018936822,0.052839845,280.82816,10.289152,-34.505108
2405900805000.0,-6.032813362084238,-0.6385162013045714,7.475379664022171,-0.023518313,-0.018936822,0.05375614,280.81665,10.193652,-34.50266
2405905836000.0,-6.0426773828826805,-0.6361103435168403,7.473695569650213,-0.02565634,-0.02565634,0.056505036,280.8051,10.103613,-34.49569
2405910798000.0,-6.052406118959379,-0.6337374819897637,7.472034572577335,-0.028099801,-0.014660766,0.054061573,280.79782,10.013391,-34.493637
2405915749000.0,-6.062113287906524,-0.6313698807361247,7.47037725768257,-0.02076942,-0.014660766,0.046120327,280.79166,9.923428,-34.48674
2405920740000.0,-6.071898882779317,-0.6289831512154396,7.46870655304921,-0.016798794,-0.008246681,0.03176499,280.79114,9.837826,-34.48436
2405926778000.0,-6.0837372762559605,-0.6260957393048212,7.466685372008089,-0.009468411,-0.004581489,0.02687807,280.79123,9.750962,-34.481514
2405930777000.0,-6.091577908172671,-0.6241833908068809,7.465346732891918,-0.008857546,0.0015271631,0.022296581,280.79788,9.668486,-34.480507
2405935825000.0,-6.101475259989513,-0.621769403505655,7.4636569478810575,-0.01038471,0.013439035,0.028405234,280.80432,9.585238,-34.482655
2405940752000.0,-6.11113537338127,-0.6194132792122438,7.462007666829451,-0.010079277,0.017104227,0.023518313,280.8169,9.505335,-34.48344
2405945745000.0,-6.120924889550346,-0.6170255932782064,7.46033629270916,0.0018325958,0.02443461,0.007330383,280.8333,9.425282,-34.48834
2405950828000.0,-6.13089086405213,-0.6145948687433151,7.458634791677028,-0.01038471,0.013744468,0.01282817,280.84396,9.349362,-34.49018
2405955781000.0,-6.140601954295558,-0.612226311076324,7.456976807295334,-0.0125227375,0.016187929,0.011911872,280.86447,9.2732525,-34.496487
2405960759000.0,-6.150362060742516,-0.6098457982424288,7.455310454327017,0.0009162979,0.0027488936,0.00061086525,280.88562,9.198374,-34.495132
2405965712000.0,-6.160073150985943,-0.6074772405754376,7.453652469945323,-0.0033597588,0.0009162979,0.0015271631,280.90457,9.127461,-34.498398
2405970742000.0,-6.169935211136244,-0.6050718609943825,7.45196871031683,-0.0067195175,0.00030543262,0.0061086523,280.926,9.0555935,-34.49798
2405975866000.0,-6.175532303790368,-0.6025487809770659,7.451258362903299,-0.0012217305,0.0021380284,0.0018325958,280.9508,8.98507,-34.49748
2405980838000.0,-6.170532804620838,-0.5999299986690466,7.452924854340098,-0.00061086525,-0.0027488936,0.0036651916,280.97214,8.915842,-34.495678
2405985760000.0,-6.16558358199163,-0.5973375516617919,7.454574587013455,0.0070249503,-0.004581489,-0.0015271631,280.97363,8.828904,-34.532623
2405990743000.0,-6.160573021983231,-0.5947129755876045,7.456244765378211,0.007941248,-0.010995574,-0.00580322,280.97473,8.744483,-34.56617
2405996349000.0,-6.15493601628243,-0.5917602616658917,7.458123757935472,0.0033597588,-0.008246681,0.009773844,280.97235,8.658665,-34.60172
2406001057000.0,-6.150201977245796,-0.5892805297459089,7.459701763101291,0.013744468,-0.006414085,0.0076358155,280.97803,8.5742035,-34.63329
2406005770000.0,-6.14546291055513,-0.5867981642958496,7.461281444143455,0.017104227,-0.0018325958,0.0061086523,280.97968,8.491287,-34.666473
2406010765000.0,-6.140440284177053,-0.5841672677494788,7.462955644611439,0.013439035,-0.009773844,0.0067195175,280.9817,8.409079,-34.695892
2406015741000.0,-6.135436762884299,-0.5815463786173984,7.464623476749313,0.009773844,-0.010079277,0.0061086523,280.98648,8.328005,-34.72786
2406020749000.0,-6.1304010646057385,-0.5789086348928287,7.466302034495793,0.01740966,-0.014660766,0.0027488936,280.99225,8.246919,-34.755592
2406025851000.0,-6.125270846431374,-0.5762213808028219,7.468012098717545,0.014966198,-0.0076358155,0.0067195175,280.9974,8.169323,-34.78619
2406030798000.0,-6.120296485532006,-0.573615766145185,7.469670210772623,0.026267206,-0.005192355,0.0012217305,281.00732,8.090209,-34.81297
2406035763000.0,-6.115304025078122,-0.5710006707792727,7.471334355982541,0.018020526,-0.0033597588,-0.002443461,281.0166,8.016626,-34.84121
2406040743000.0,-6.110296481662141,-0.5683776748231312,7.473003528821491,0.010995574,-0.005192355,-0.007330383,281.029,7.942566,-34.868156
2406045746000.0,-6.105265811037613,-0.565742564628638,7.474680410691626,0.0125227375,-0.00580322,-0.00580322,281.04144,7.869244,-34.895485
2406050829000.0,-6.100154697948572,-0.5630653179529217,7.47638410658327,0.02076942,-0.00061086525,-0.005192355,281.05682,7.7981353,-34.923077
2406055817000.0,-6.09513911028614,-0.5604381083486578,7.4780559608243715,0.02687807,0.008246681,-0.0067195175,281.0733,7.728446,-34.950954
2406060763000.0,-6.090165754917578,-0.5578330203970361,7.479713737704181,0.01740966,-0.00061086525,-0.005497787,281.08862,7.661098,-34.974873
2406065770000.0,-6.085131062169824,-0.5551958033784817,7.48139196027539,0.01160644,0.0027488936,-0.008246681,281.10773,7.593569,-35.003883
2406070748000.0,-6.080125529815456,-0.5525738608343709,7.483060462763803,0.016187929,0.009773844,-0.007330383,281.1255,7.5261383,-35.031113
2406075853000.0,-6.074992295048673,-0.5498850266263181,7.484771532511362,0.023823744,0.004276057,-0.0143553335,281.14706,7.462197,-35.05472
2406080793000.0,-6.07002497286495,-0.5472830989107882,7.486427298339558,0.022907447,0.010079277,-0.0018325958,281.16315,7.3968563,-35.083874
2406085803000.0,-6.064987263524777,-0.544644301774188,7.4881065264365745,0.013744468,0.002443461,-0.00580322,281.18683,7.336612,-35.106106
2406090750000.0,-6.060012902625408,-0.5420386871165509,7.489764638491652,0.027183503,0.0015271631,-0.005497787,281.206,7.269595,-35.132084
2406095746000.0,-6.054989270716525,-0.5394072638641648,7.491439174134905,0.014966198,0.003970624,0.004886922,281.2234,7.210698,-35.15666
2406100816000.0,-6.049891229527966,-0.5367368643666472,7.493138512748054,0.01863139,0.003970624,0.004886922,281.24457,7.1476717,-35.179394
2406105795000.0,-6.0448846916427925,-0.5341143951165209,7.494807350411736,0.015271631,0.0015271631,0.009162978,281.2613,7.087719,-35.20229
2406111829000.0,-6.038817318756843,-0.5309362510202643,7.496829797984071,0.015882496,0.002443461,0.014049901,281.2785,7.0268946,-35.225708
2406115752000.0,-6.034872621403251,-0.5288699833222837,7.49814469056383,0.01038471,-0.0036651916,0.0067195175,281.29858,6.9705944,-35.24567
2406120743000.0,-6.029854017148399,-0.526241193599974,7.499817550330738,0.009162978,0.008857546,0.004581489,281.3167,6.9124823,-35.271164
2406125848000.0,-6.024720782381617,-0.5235523593919214,7.501528620078298,0.0015271631,0.0030543262,0.005192355,281.33566,6.858837,-35.289165
2406130797000.0,-6.019744410420636,-0.5209456913222538,7.503187402483913,0.0009162979,0.0030543262,0.013439035,281.35413,6.803812,-35.31213
2406135801000.0,-6.0147127342653,-0.5183100544217453,7.504864619529316,0.008552114,0.008857546,0.01740966,281.3742,6.7500997,-35.334538
2406140745000.0,-6.009741389958351,-0.5157060198821541,7.506521726058588,-0.0009162979,-0.005192355,0.0106901415,281.39462,6.701787,-35.35082
2406145746000.0,-6.004712730395436,-0.5130719630996915,7.508197937578185,0.011911872,0.004581489,0.0143553335,281.41202,6.645007,-35.375652
2406150839000.0,-5.99959156199833,-0.5103894493638222,7.509904985222517,0.002443461,0.0061086523,0.01160644,281.43326,6.598621,-35.393303
2406155797000.0,-5.994606140260091,-0.5077780409400171,7.511566784205553,0.0027488936,-0.0015271631,0.009162978,281.45358,6.5471745,-35.41091
2406160757000.0,-5.989618707460239,-0.5051655791041814,7.5132292535391265,0.011911872,0.009773844,0.015882496,281.47305,6.49559,-35.434193
2406165727000.0,-5.984621219352323,-0.5025478502081927,7.514895074625389,0.0027488936,0.010995574,0.010995574,281.4969,6.4513125,-35.45158
2406170743000.0,-5.979577476827311,-0.4999058928355008,7.516576313774018,-0.0021380284,0.004276057,0.015271631,281.51572,6.402076,-35.47015
2406175864000.0,-5.976854871684245,-0.4986360469676181,7.518221065688033,0.006414085,0.0021380284,0.017104227,281.53772,6.3538165,-35.48968
2406181878000.0,-5.980595860758058,-0.5012259672649056,7.51994768342635,0.0067195175,0.0018325958,0.008552114,281.56192,6.3103585,-35.507263
2406185764000.0,-5.983013134376421,-0.502899467476954,7.521063352952639,-0.0070249503,0.0036651916,0.016798794,281.547,6.249593,-35.509594
2406191007000.0,-5.986274525416327,-0.5051573577527568,7.522568616803985,0.009773844,0.00580322,0.0070249503,281.54224,6.1872406,-35.510967
2406195738000.0,-5.989217428527103,-0.5071947559779758,7.523926885596799,-0.00580322,0.004581489,0.013439035,281.52982,6.132619,-35.512882
2406200863000.0,-5.992405418052092,-0.5094018297264956,7.525398271680748,-0.007941248,-0.006414085,0.004886922,281.52655,6.0762053,-35.511726
2406210812000.0,-5.99859416103436,-0.51368635201411,7.528254626831815,-0.009468411,0.0015271631,0.0021380284,281.52066,6.022275,-35.516098
2406215745000.0,-6.001662717585925,-0.5158107412436608,7.529670889768815,-0.01038471,-0.007941248,0.00030543262,281.5169,5.9709463,-35.51224
2406220744000.0,-6.004772329222106,-0.5179635532766073,7.5311061012875795,-0.0021380284,-0.0036651916,-0.0067195175,281.51764,5.920108,-35.514328
2406225832000.0,-6.007937303017842,-0.5201546930292841,7.532566864681753,-0.011301007,-0.00580322,-0.0009162979,281.51447,5.872592,-35.512432
2406230829000.0,-6.011045670560549,-0.5223066437651579,7.534001502001069,-0.0033597588,-0.007330383,0.00061086525,281.51605,5.8219557,-35.51164
2406235759000.0,-6.014112360971905,-0.5244297410490999,7.535416903638898,0.0012217305,-0.01740966,0.0036651916,281.51526,5.773863,-35.508186
2406240747000.0,-6.017215130093983,-0.5265778159481471,7.536848957060702,0.0015271631,-0.01160644,0.005497787,281.5156,5.7257466,-35.508953
2406245738000.0,-6.02031976535627,-0.5287271827928032,7.538281871781677,0.0018325958,-0.011911872,0.002443461,281.51654,5.6777678,-35.505253
2406251911000.0,-6.024159659861199,-0.5313855762073618,7.540054138376061,-0.0076358155,-0.014660766,0.0036651916,281.5161,5.6318574,-35.502872
2406255795000.0,-6.026575689386089,-0.5330582151223375,7.541169233702902,0.007330383,-0.0106901415,0.00061086525,281.51913,5.58227,-35.502213
2406260832000.0,-6.029708938798259,-0.5352273917996633,7.542615355011167,0.005192355,-0.015271631,0.00061086525,281.52075,5.5389557,-35.498653
2406265758000.0,-6.032773141022669,-0.5373487664894601,7.544029608250101,-0.0009162979,-0.014966198,-0.007330383,281.52713,5.49576,-35.49738
2406270742000.0,-6.0358734219578,-0.5394951187943621,7.54546051327301,-0.0027488936,-0.014049901,-0.0012217305,281.529,5.450531,-35.49562
2406275828000.0,-6.039037151660063,-0.5416853972499663,7.546920702467736,0.005497787,-0.014966198,-0.002443461,281.53656,5.407659,-35.49309
2406280789000.0,-6.042123125520253,-0.5438218446385334,7.548345004196999,0.0015271631,-0.005192355,0.005497787,281.5397,5.3662496,-35.494522
2406285812000.0,-6.045247666278111,-0.545984992236351,7.549787106109132,0.0009162979,-0.008857546,0.00580322,281.54584,5.324366,-35.491726
2406290810000.0,-6.048356655867554,-0.5481373736207612,7.551222030528172,0.010079277,-0.008246681,0.0015271631,281.55185,5.28133,-35.493114
2406295763000.0,-6.051437653353852,-0.550270375821038,7.552644035459647,0.0018325958,-0.016187929,0.0009162979,281.55646,5.2425675,-35.49125
2406300852000.0,-6.054603249196324,-0.5524619462222511,7.554105085953544,0.0070249503,-0.0033597588,0.0030543262,281.5629,5.199542,-35.49552
2406310760000.0,-6.060766488262392,-0.5567288119198773,7.556949670015939,0.013133603,-0.01160644,-0.0061086523,281.57275,5.160902,-35.491306
2406315743000.0,-6.063866147150787,-0.5588747335762431,7.558380287939124,0.012217305,-0.0106901415,-0.0018325958,281.57843,5.1208014,-35.4939
2406320756000.0,-6.066984467441279,-0.5610335746886976,7.559819518854019,0.006414085,-0.009468411,-0.0015271631,281.58878,5.0832877,-35.49395
2406325996000.0,-6.070243992340976,-0.5632901730188915,7.561323921406195,0.009773844,-0.011301007,-0.0033597588,281.59866,5.04418,-35.493557
2406330836000.0,-6.073254698546039,-0.5653745119345668,7.562713484068891,0.010079277,-0.016493361,-0.0061086523,281.60898,5.007873,-35.49264
2406340743000.0,-6.079417315565371,-0.5696409469836567,7.565557781031562,0.009773844,-0.01863139,0.0030543262,281.61612,4.9698844,-35.49249
2406345741000.0,-6.082526305154814,-0.5717933283680668,7.566992705450603,0.009162978,-0.017104227,-0.004276057,281.63025,4.9357266,-35.491463
2406350973000.0,-6.085780853680618,-0.5740464815099704,7.568494811204989,-0.0018325958,-0.02565634,0.00580322,281.63498,4.9002633,-35.487907
2406355781000.0,-6.088771654390111,-0.5761170396724842,7.569875186676526,0.0012217305,-0.020158553,0.004581489,281.64706,4.8653746,-35.488377
2406360759000.0,-6.091868203044823,-0.5782608080861684,7.571304369101093,0.004581489,-0.021991149,0.008246681,281.65366,4.831058,-35.484955
2406365728000.0,-6.094959153278905,-0.580400700663026,7.572730967628146,0.008857546,-0.019547688,0.0067195175,281.66312,4.7974663,-35.484264
2406370749000.0,-6.09808244994329,-0.582562986963771,7.574172495340831,-0.005192355,-0.015882496,0.009162978,281.67023,4.766685,-35.48379
2406375931000.0,-6.104532040318371,-0.5882253474412036,7.573399525913472,-0.0018325958,-0.00580322,0.018325957,281.67615,4.7305875,-35.48612
2406380803000.0,-6.118670619845653,-0.602135879917206,7.567014368493285,0.0015271631,-0.003970624,0.02107485,281.68356,4.6989613,-35.487114
2406385757000.0,-6.13304716397089,-0.6162805387608259,7.560521743316846,-0.0030543262,-0.008246681,0.02107485,281.66318,4.668453,-35.490883
2406391141000.0,-6.148671571231745,-0.6316529334346348,7.553465567711286,0.0018325958,-0.015271631,0.030543262,281.63925,4.6336236,-35.4946
2406400962000.0,-6.177172184847803,-0.6596938487562316,7.540594338026627,-0.0125227375,-0.0076358155,0.033292156,281.61874,4.606128,-35.500973
2406405795000.0,-6.191197586090692,-0.6734930284476355,7.534260293319779,-0.003970624,-0.016798794,0.029321533,281.59726,4.572427,-35.500576
2406410771000.0,-6.205637974376356,-0.6877005016825674,7.527738835330687,-0.005497787,-0.0106901415,0.029321533,281.57495,4.543938,-35.506794
2406415821000.0,-6.220293111201638,-0.7021192596882759,7.521120394244492,-0.009468411,-0.012217305,0.03145956,281.55338,4.51499,-35.50814
2406420764000.0,-6.234637733246662,-0.7162325113362398,7.51464218547438,-0.023823744,-0.012217305,0.04337143,281.5294,4.487826,-35.51188
2406425950000.0,-6.249687543063674,-0.7310395764882407,7.5078455051826944,-0.028710667,-0.017104227,0.053450707,281.50577,4.45994,-35.513744
2406430879000.0,-6.263991537006608,-0.7451128553417333,7.501385644566088,-0.033292156,-0.02107485,0.053145275,281.48236,4.435663,-35.51587
2406435826000.0,-6.2783477670808,-0.7592375277881176,7.4949021934664035,-0.04886922,-0.026267206,0.06047566,281.4533,4.4127374,-35.5167
2406440824000.0,-6.29285199952689,-0.7735078154143614,7.488351902664659,-0.047036625,-0.03481932,0.062308256,281.42682,4.3883653,-35.515297
2406445764000.0,-6.307187915550037,-0.78761250146351,7.481877625641728,-0.064751714,-0.050701816,0.06811147,281.39667,4.3708167,-35.510666
2406450966000.0,-6.3222841574837245,-0.8024652498091924,7.475059976031749,-0.070554934,-0.05375614,0.081855945,281.364,4.3489738,-35.507626
2406455878000.0,-6.336538817302691,-0.8164899902693985,7.46862239531583,-0.09682214,-0.065973446,0.08124508,281.3343,4.337925,-35.497425
2406460783000.0,-6.350773163070614,-0.8304947443323689,7.462193988676663,-0.09865474,-0.07574729,0.08827003,281.29788,4.3194785,-35.487827
2406465832000.0,-6.365425397888604,-0.8449106471384724,7.4555768581728605,-0.119729586,-0.09682214,0.08857546,281.26398,4.3132405,-35.47163
2406470772000.0,-6.379761313911751,-0.8590153331876209,7.449102581149929,-0.124005646,-0.10598512,0.09193522,281.22745,4.302242,-35.456665
2406475961000.0,-6.39481982975064,-0.8738309639384372,7.442301969111063,-0.13836098,-0.12308934,0.08674286,281.19354,4.30019,-35.433704
2406480866000.0,-6.409054175518563,-0.8878357180014076,7.435873562471897,-0.1328632,-0.14538592,0.071776666,281.16214,4.295879,-35.40704
2406485783000.0,-6.423323345373991,-0.9018747344596392,7.429429428844011,-0.14660765,-0.15943582,0.050701816,281.13504,4.301495,-35.37822
2406490805000.0,-6.437897225995092,-0.9162135468764052,7.422847684064828,-0.14752395,-0.16493362,0.023823744,281.1153,4.306461,-35.345768
2406495807000.0,-6.452413066470352,-0.9304952553010694,7.4162921509335105,-0.15363261,-0.16523905,-0.007941248,281.10464,4.3201723,-35.311047
2406500869000.0,-6.46710302738314,-0.9449482757020392,7.409657982858595,-0.14721853,-0.15485434,-0.029932396,281.10022,4.333887,-35.278324
2406505823000.0,-6.481479571508377,-0.9590929345456588,7.403165357682156,-0.14813483,-0.1469131,-0.058337633,281.10883,4.356783,-35.244778
2406510757000.0,-6.495798075487771,-0.9731804893971768,7.396698944153584,-0.14446963,-0.124005646,-0.07696902,281.12216,4.378765,-35.219025
2406515748000.0,-6.510281993882817,-0.9874307906261852,7.3901578274285935,-0.15088372,-0.112704635,-0.102319926,281.14706,4.4086337,-35.19211
2406520742000.0,-6.524774618299739,-1.0016896574540088,7.383612778956423,-0.13439035,-0.08368854,-0.11636983,281.17514,4.432933,-35.177216
2406526116000.0,-6.540370005487674,-1.0170335001317667,7.376569709174796,-0.122783914,-0.058948494,-0.1414153,281.21518,4.4651833,-35.1639
2406530802000.0,-6.553968811658618,-1.0304129654812222,7.370428320079764,-0.12583824,-0.03481932,-0.16890424,281.26096,4.499047,-35.158554
2406535878000.0,-6.568699400673496,-1.0449059586766631,7.363775803851341,-0.12644911,-0.023823744,-0.19822577,281.31537,4.5333314,-35.155933
2406540748000.0,-6.582832176186193,-1.0588107807534557,7.357393267595941,-0.119729586,-0.032375857,-0.22876903,281.37857,4.5704975,-35.153805
2406545734000.0,-6.597301584544779,-1.0730468059844382,7.350858703782917,-0.10415252,-0.03481932,-0.24190263,281.44498,4.6067195,-35.156147
2406550891000.0,-6.612267236150319,-1.0877710703478916,7.344100030380638,-0.09682214,-0.04642576,-0.28069258,281.52863,4.6515245,-35.151848
2406555798000.0,-6.626507385932826,-1.101781534810072,7.337669002576685,-0.09896017,-0.05467244,-0.32803464,281.61807,4.697451,-35.14722
2406560813000.0,-6.641060952502883,-1.1161003608296023,7.331096431874254,-0.07666359,-0.06414085,-0.36682457,281.7156,4.739791,-35.138226
2406565755000.0,-6.655402672540615,-1.1302107572779612,7.324619533686535,-0.052534413,-0.06169739,-0.410196,281.829,4.7894354,-35.128986
2406570741000.0,-6.6698720808992,-1.1444467825089442,7.318084969873511,-0.011301007,-0.030848695,-0.43585235,281.94788,4.831947,-35.124863
2406577082000.0,-6.688273709138628,-1.1625516032048249,7.309774566917557,0.04153884,0.019547688,-0.48838675,282.08923,4.8762527,-35.12528
2406580768000.0,-6.690877320494847,-1.1544010440297974,7.30807257718747,0.10903945,0.03573562,-0.50518554,282.22418,4.9044485,-35.125202
2406585787000.0,-6.680794613919387,-1.1118569302467587,7.31102360661946,0.12858713,0.0729984,-0.5448918,282.385,4.9426694,-35.14305
2406590745000.0,-6.670834450699397,-1.069829889773297,7.313938769784194,0.17379116,0.09315695,-0.5815437,282.54868,5.0149517,-35.217453
2406595740000.0,-6.660799957903138,-1.0274892146694363,7.316875687897919,0.23060162,0.10903945,-0.62980205,282.72858,5.0865884,-35.297493
2406600916000.0,-6.650401852855403,-0.9836142728601104,7.31991902887022,0.28893927,0.11362094,-0.68661255,282.92157,5.1530485,-35.37642
2406605796000.0,-6.6405983844178165,-0.942248408093976,7.322788330250596,0.36071593,0.11026118,-0.75319684,283.13205,5.2111087,-35.453552
2406610760000.0,-6.630626167753026,-0.9001705079507198,7.325707021244896,0.4251622,0.10629055,-0.81214535,283.35657,5.2638745,-35.52811
2406615736000.0,-6.620629844198635,-0.8579908884678747,7.328632767898329,0.4877759,0.11759156,-0.8567385,283.59634,5.3075504,-35.602467
2406620797000.0,-6.610462763509572,-0.8150907569962753,7.33160849213728,0.53786683,0.14721853,-0.9016371,283.85373,5.3475933,-35.67722
2406626062000.0,-6.599885865697299,-0.7704613967516654,7.334704162581477,0.5833763,0.2312125,-0.8863655,284.10458,5.370215,-35.769516
2406630839000.0,-6.590289314728785,-0.7299686229836687,7.337512902887635,0.64599,0.2507602,-0.9288206,284.38608,5.393168,-35.846718
2406635769000.0,-6.580385400917863,-0.6881789276359143,7.340411602847729,0.6792821,0.27916542,-0.9767735,284.66452,5.409922,-35.948387
2406640798000.0,-6.570282605267735,-0.6455500477365518,7.343368511995661,0.7098254,0.301462,-0.9914343,284.9431,5.413574,-36.051346
2406645798000.0,-6.560238067934143,-0.603166989574529,7.346308369967358,0.72265357,0.33383787,-1.0051788,285.23608,5.420803,-36.16132
2406650822000.0,-6.550145316821349,-0.5605804927333284,7.349262339257319,0.7583892,0.37507126,-1.0351112,285.53748,5.420262,-36.27676
2406655828000.0,-6.540088726042956,-0.5181465749015113,7.352205725058581,0.77763146,0.4202753,-1.0784826,285.84628,5.4246063,-36.39906
2406660783000.0,-6.530134589545366,-0.4761449642629467,7.355119124308531,0.81000733,0.45540005,-1.1328496,286.16708,5.424167,-36.526157
2406665746000.0,-6.520164381788042,-0.4340755407313229,7.358037227331239,0.84299403,0.4841107,-1.17897,286.498,5.424649,-36.660168
2406670731000.0,-6.51014997806645,-0.3918196317437862,7.36096826572902,0.8713993,0.5140431,-1.217149,286.8427,5.426141,-36.7999
2406675853000.0,-6.499860354021918,-0.34840242696261,7.363979856235226,0.90285885,0.5009095,-1.2479976,287.19623,5.4254084,-36.931133
2406680777000.0,-6.489968493655796,-0.30666359128465,7.366875028365754,0.9309586,0.46822822,-1.2550226,287.55075,5.4208093,-37.06167
2406685790000.0,-6.479897840525136,-0.2641703371714059,7.369822529968176,0.96761054,0.4175264,-1.2599095,287.9095,5.4113746,-37.179443
2406690759000.0,-6.469915579323012,-0.2220500539699876,7.372744160820448,1.0143417,0.35094208,-1.2437216,288.2565,5.3901596,-37.281353
2406695822000.0,-6.459744480819016,-0.1791329692751234,7.375721061002588,1.0228939,0.28069258,-1.2250903,288.5974,5.3691163,-37.365646
2406701197000.0,-6.448946603185404,-0.133571181750949,7.378881408322162,1.0381655,0.21991149,-1.2009611,288.9237,5.3317323,-37.433044
2406705873000.0,-6.439552951871028,-0.0939345457578253,7.381630763497293,1.0283916,0.15363261,-1.1691961,289.2331,5.293092,-37.478886
2406710677000.0,-6.429902160400912,-0.0532129034757538,7.384455379036499,0.999681,0.100792766,-1.1252137,289.52344,5.248652,-37.512077
2406715673000.0,-6.419865658697187,-0.0108637517602605,7.387392885121819,0.9673051,0.05681047,-1.1065824,289.80527,5.205891,-37.52918
2406720668000.0,-6.409831165900928,0.0314769233436,7.390329803235543,0.9266826,0.030848695,-1.0699304,290.05988,5.1604724,-37.53877
2406725830000.0,-6.399461185557727,0.0752331925900724,7.393364912605523,0.8943067,0.02321288,-1.0375546,290.30487,5.117771,-37.542118
2406730757000.0,-6.389563298469205,0.1169974581029298,7.396261848650833,0.86620694,0.046120327,-1.0421361,290.54694,5.0831623,-37.54741
2406735643000.0,-6.379747776586818,0.1584141825388583,7.399134677860775,0.8533788,0.074830994,-1.0183123,290.76407,5.041603,-37.55482
2406740642000.0,-6.369705248160693,0.2007887640892487,7.402073947860877,0.84513205,0.11362094,-1.0005972,290.98328,5.007016,-37.571686
2406745641000.0,-6.359662719734566,0.2431633456396391,7.405013217860979,0.8472701,0.14874569,-0.97127575,291.18787,4.966637,-37.597004
2406751084000.0,-6.348728236393217,0.2893015427548171,7.408213547248969,0.8530733,0.19242255,-0.95356065,291.3894,4.9262066,-37.635876
2406755782000.0,-6.339290389114574,0.3291246642038536,7.410975837799175,0.87017757,0.20891592,-0.9315695,291.57672,4.876968,-37.677704
2406760760000.0,-6.32929004774525,0.3713212369099636,7.413902760395796,0.883922,0.22327125,-0.91965765,291.76062,4.826136,-37.730915
2406765792000.0,-6.319181225372722,0.4139755466442234,7.416861433458512,0.9095783,0.2125811,-0.88086766,291.9245,4.760588,-37.782444
2406770813000.0,-6.3090945009823285,0.4565366136505266,7.4198136388336895,0.91751957,0.19394971,-0.8512407,292.0857,4.6960077,-37.835
2406776011000.0,-6.300520774432382,0.4745692727113987,7.419173965575411,0.93615097,0.1563815,-0.83260936,292.2342,4.6191254,-37.879223
2406780771000.0,-6.297147946525726,0.4286987814840208,7.409730038045113,0.92057395,0.14752395,-0.7996226,292.36584,4.5413837,-37.92698
2406785854000.0,-6.293546248153976,0.3797156497804995,7.399645272575259,0.9056077,0.13439035,-0.7629707,292.36636,4.2786083,-37.935604
2406790811000.0,-6.290033830520931,0.3319467369624087,7.389810493422383,0.89736104,0.116675265,-0.75411314,292.36798,4.021503,-37.941505
2406795805000.0,-6.286495195528109,0.2838212678049454,7.379902305589124,0.9034697,0.122783914,-0.77732605,292.37195,3.7683716,-37.951614
2406800904000.0,-6.282882159919697,0.23468394957629,7.369785795825051,0.89949906,0.16310102,-0.79443026,292.37445,3.5212872,-37.96792
2406805782000.0,-6.279425719892667,0.1876763327260485,7.360107754124883,0.9056077,0.1337795,-0.7458665,292.3629,3.2673814,-37.96799
2406810750000.0,-6.2759055079094175,0.139801416671928,7.350251150769731,0.8863655,0.12217305,-0.7174612,292.36932,3.0309474,-37.984463
2406815744000.0,-6.272366872916595,0.0916759475144648,7.340342962936472,0.8738427,0.13683382,-0.68875057,292.36093,2.7873864,-38.00192
2406820744000.0,-6.268823986460024,0.0434926584100763,7.330422870992882,0.89949906,0.15057829,-0.66675943,292.34753,2.5400865,-38.017044
2406825898000.0,-6.26517197910059,-0.0061746759987273,7.320197240217428,0.9239337,0.16523905,-0.6383542,292.32486,2.294086,-38.037834
2406831711000.0,-6.261053019306181,-0.0621925679114894,7.30866414132381,0.93645644,0.1957823,-0.5882632,292.29016,2.0418375,-38.06819
2406835764000.0,-6.258181155544484,-0.1012499420595068,7.300622914794335,0.9401216,0.19608775,-0.55955255,292.25598,1.7895068,-38.094467
2406840739000.0,-6.2546559835201965,-0.1491923147183734,7.290752423310463,0.9502009,0.20830505,-0.54611355,292.21344,1.5317206,-38.133347
2406845742000.0,-6.251110971331752,-0.1974045137962246,7.280826379311705,0.9660834,0.21868975,-0.52015173,292.15958,1.2694981,-38.172142
2406850939000.0,-6.247428495148792,-0.247486224491326,7.270515435745537,0.96883225,0.20799962,-0.49021935,292.103,1.009877,-38.208317
2406855825000.0,-6.243966386503431,-0.2945709346041346,7.26082152189826,0.9786061,0.21319197,-0.45540005,292.0392,0.74473184,-38.251907
2406860757000.0,-6.240471683302669,-0.3420989309767033,7.251036343205102,0.98471475,0.23487769,-0.4111123,291.96503,0.47796342,-38.29704
2406865743000.0,-6.236938716928177,-0.3901473068715996,7.241144027518954,0.9776898,0.23976462,-0.38362336,291.8883,0.21398178,-38.338516
2406870736000.0,-6.233400790512644,-0.438263139371242,7.231237823704084,0.96577793,0.24190263,-0.37140608,291.8054,-0.050010648,-38.384895
2406876050000.0,-6.229635410786601,-0.4894723390313861,7.220694749986436,0.9285152,0.23609942,-0.36071593,291.71744,-0.3059717,-38.429764
2406880904000.0,-6.226195976614562,-0.5362486760939265,7.211064324727597,0.9007208,0.22999077,-0.33322698,291.62323,-0.56127965,-38.474407
2406885888000.0,-6.222664427394652,-0.584277778673181,7.2011759770782255,0.8671232,0.22815818,-0.30695978,291.52982,-0.8035724,-38.51787
2406890815000.0,-6.219173267080347,-0.6317575917566454,7.191400718477011,0.83108217,0.22571471,-0.2846632,291.43213,-1.0383327,-38.55864
2406895809000.0,-6.215634632087524,-0.6798830609141087,7.181492530643753,0.7910705,0.17684549,-0.26328292,291.3299,-1.2644012,-38.58476
2406901776000.0,-6.211406551390252,-0.7373849981312859,7.169653892918272,0.7458665,0.11942416,-0.23151793,291.22034,-1.4824104,-38.60679
2406905831000.0,-6.208533270473973,-0.7764616455949451,7.161608698352019,0.70249504,0.06963864,-0.19639318,291.10666,-1.6918273,-38.61643
2406910880000.0,-6.204955663730128,-0.8251171309325567,7.151591389507382,0.6560693,-0.0033597588,-0.1731803,290.99142,-1.8896837,-38.60286
2406915807000.0,-6.2014645034158224,-0.8725969440160211,7.141816130906167,0.6026186,-0.064751714,-0.14966199,290.86862,-2.0783699,-38.578384
2406920810000.0,-6.197919491227378,-0.9208091430938724,7.13189008690741,0.5494733,-0.11942416,-0.12797627,290.744,-2.2565112,-38.53561
2406925797000.0,-6.194385816275593,-0.9688671556465892,7.121995787202873,0.51923543,-0.16371189,-0.10598512,290.6164,-2.4282098,-38.47928
2406930784000.0,-6.19085214132381,-1.0169251681993066,7.112101487498335,0.50518554,-0.17745635,-0.08827003,290.48773,-2.591053,-38.417515
2406935767000.0,-6.187321300681191,-1.06494463412074,7.102215123867352,0.49174652,-0.17745635,-0.07727446,290.35892,-2.746383,-38.348797
2406940745000.0,-6.183794002925029,-1.1129159167530691,7.0923386803283135,0.47769663,-0.18234327,-0.06627888,290.22882,-2.8980289,-38.276516
2406945743000.0,-6.180252533623041,-1.1610799325418162,7.0824225564215,0.45142943,-0.17684549,-0.06169739,290.10153,-3.0412514,-38.20914
2406951008000.0,-6.176521874184272,-1.2118169359687372,7.071976699604899,0.4361578,-0.17654006,-0.053450707,289.97372,-3.1829984,-38.140614
2406955788000.0,-6.17313487473179,-1.2578801603525327,7.062493091706826,0.40653083,-0.16982053,-0.06994407,289.8573,-3.3088107,-38.07781
2406960823000.0,-6.169567188070023,-1.306400732480652,7.05250355911963,0.37782016,-0.1554652,-0.08857546,289.74274,-3.4293456,-38.019024
2406965761000.0,-6.166068233405514,-1.353986548800146,7.04270647631614,0.36010507,-0.14263703,-0.105068825,289.63702,-3.5403142,-37.963818
2406971515000.0,-6.161991079671291,-1.4094358779014764,7.031290434507455,0.34697145,-0.12736541,-0.12370021,289.5418,-3.6396217,-37.915485
2406977601000.0,-6.156034906217742,-1.4607351410498512,7.021323415765984,0.34697145,-0.090713486,-0.15821409,289.46042,-3.7298489,-37.879143
2406980803000.0,-6.135863463051794,-1.411547858198231,7.037926066387354,0.34025195,-0.07513642,-0.17012598,289.38055,-3.8141816,-37.842358
2406985765000.0,-6.104604655747161,-1.3353244673457203,7.063654471254073,0.34330627,-0.051618114,-0.20066923,289.39758,-3.693129,-37.841152
2406990748000.0,-6.0732135560295095,-1.258778486568199,7.08949176296122,0.35155296,-0.038789943,-0.21991149,289.4131,-3.5735815,-37.840694
2406995799000.0,-6.041394080879227,-1.181187928890643,7.115681640627846,0.37507126,-0.011301007,-0.24495697,289.4389,-3.4538312,-37.851124
2407000840000.0,-6.009637602116096,-1.1037509854630922,7.141819667418078,0.4092797,-0.002443461,-0.2706133,289.4703,-3.3369706,-37.85941
2407005785000.0,-5.9784858886696215,-1.0277887388355902,7.167459925794928,0.43127087,-0.00030543262,-0.28405234,289.504,-3.2225165,-37.87281
2407010759000.0,-5.947151485700407,-0.9513810108830734,7.193250551713319,0.46089783,-0.02687807,-0.30634892,289.5488,-3.1135077,-37.88015
2407015742000.0,-5.915760385982755,-0.874835030105552,7.219087843420467,0.4792238,-0.043066,-0.30573806,289.58795,-3.010582,-37.88981
2407020754000.0,-5.8841865967423646,-0.7978435680030159,7.245075502669156,0.49235737,-0.07452556,-0.31490102,289.63766,-2.9094765,-37.887287
2407025815000.0,-5.85230412520493,-0.720099396075455,7.271317231212176,0.505491,-0.111177474,-0.3210097,289.6845,-2.814972,-37.8779
2407030794000.0,-5.82093822404214,-0.6436148609979356,7.297133782568765,0.52015173,-0.13408493,-0.32589662,289.73254,-2.724137,-37.86317
2407035760000.0,-5.789654218182646,-0.5673300244454228,7.322882927786042,0.54183745,-0.16890424,-0.32650748,289.7801,-2.639225,-37.83446
2407041232000.0,-5.755182595133281,-0.483272306842654,7.351255727348857,0.5476407,-0.20066923,-0.32345316,289.8263,-2.5554178,-37.800163
2407045748000.0,-5.72673342669561,-0.4139001115403689,7.374671583128403,0.54550266,-0.2144137,-0.31703907,289.86963,-2.4766667,-37.76136
2407050769000.0,-5.695102940706782,-0.3367703966128283,7.400705908165847,0.535118,-0.23182335,-0.30818152,289.90958,-2.3997114,-37.71293
2407055791000.0,-5.66346615507924,-0.2596253202602872,7.42674541829093,0.5271767,-0.2519819,-0.3051272,289.94748,-2.3242588,-37.660473
2407060758000.0,-5.632175849581031,-0.1833251222827738,7.452499748595846,0.505491,-0.2843578,-0.312763,289.98456,-2.2443044,-37.600346
2407065755000.0,-5.600696554921367,-0.1065640815552453,7.478409631529945,0.47158796,-0.33475417,-0.31948254,290.0188,-2.1617503,-37.530174
2407070744000.0,-5.569267657371425,-0.0299259322277209,7.504278033762928,0.45204028,-0.37018433,-0.32498032,290.0534,-2.0777512,-37.456257
2407075785000.0,-5.537511178608295,0.0475110111998298,7.53041606055316,0.419359,-0.38881573,-0.3210097,290.0852,-1.9850043,-37.374126
2407080784000.0,-5.506019284671201,0.1243027747773592,7.556336313662538,0.38728857,-0.40775254,-0.3203988,290.11816,-1.8879102,-37.28356
2407085759000.0,-5.47467858206327,0.2007258641548766,7.582132124668568,0.35246924,-0.41447207,-0.31673363,290.1461,-1.7855363,-37.19283
2407090754000.0,-5.443211886681037,0.2774561820324042,7.608031637427389,0.31887165,-0.42302418,-0.32620203,290.17615,-1.6756054,-37.09812
2407095737000.0,-5.411820786963386,0.3540021628099254,7.633868929134535,0.29046643,-0.42546764,-0.3378085,290.203,-1.5609099,-37.005047
2407101011000.0,-5.378596492379622,0.4350183182625942,7.661215081344748,0.26083946,-0.45173484,-0.34147367,290.22797,-1.439882,-36.904545
2407105773000.0,-5.348597612818022,0.5081694241150037,7.685906468683587,0.24281894,-0.4810564,-0.3481932,290.2553,-1.3144845,-36.80438
2407110835000.0,-5.316708841641873,0.5859289574675652,7.712153382314247,0.21960606,-0.50762904,-0.33169982,290.27283,-1.1865518,-36.69925
2407115810000.0,-5.285368139033943,0.6623520468450823,7.737949193320278,0.20830505,-0.52839845,-0.3313944,290.2957,-1.0554127,-36.58966
2407120811000.0,-5.253863645819418,0.739174533272613,7.763879816604934,0.18173242,-0.537256,-0.31215215,290.30298,-0.9235669,-36.47789
2407126038000.0,-5.220935434255267,0.819468701750258,7.790982269696095,0.15393804,-0.5299256,-0.2874121,290.30536,-0.79187286,-36.367176
2407130796000.0,-5.190961753248527,0.8925583619026654,7.815652916684376,0.1337795,-0.5305365,-0.2941316,290.30942,-0.65576535,-36.254078
2407135799000.0,-5.159444660756573,0.9694115711801968,7.841593910144311,0.11636983,-0.5549711,-0.28955013,290.2982,-0.52199924,-36.13839
2407140807000.0,-5.127896070071042,1.0463415875827309,7.867560829042443,0.093462385,-0.59986967,-0.2764165,290.28375,-0.38467914,-36.018894
2407145811000.0,-5.096372677940373,1.123210158285263,7.893507007590017,0.047647487,-0.6435465,-0.25289822,290.26147,-0.24259025,-35.895107
2407150982000.0,-5.063797246144271,1.2026440869628794,7.920319095773372,0.008246681,-0.6921103,-0.22999077,290.23236,-0.100774355,-35.75972
2407155806000.0,-5.0334077889823305,1.2767476011653205,7.945331958545854,-0.02107485,-0.73639804,-0.21135938,290.19397,0.044117898,-35.615967
2407160764000.0,-5.002174180232558,1.3529095463178291,7.971039623062015,-0.054367006,-0.7684685,-0.19730948,290.14673,0.19407679,-35.465034
2407165798000.0,-4.970461798940433,1.4302389597703766,7.997141354238772,-0.07696902,-0.818254,-0.17287487,290.0869,0.34164464,-35.29987
2407170808000.0,-4.938900608977473,1.5071996990229115,8.023118643312182,-0.11453723,-0.8707884,-0.13439035,290.0148,0.49393633,-35.128483
2407176110000.0,-4.872226131456342,1.5678845880151016,8.033670623744879,-0.14996742,-0.9080512,-0.099265605,289.93314,0.6457824,-34.951267
2407180885000.0,-4.706926325247008,1.556864652076472,7.989590764920877,-0.18600847,-0.93554014,-0.063224554,289.83563,0.7984441,-34.76625
2407185745000.0,-4.538684009398345,1.5456485497389347,7.944726238452888,-0.19517145,-0.9578367,-0.023518313,289.62836,0.6257653,-34.462025
2407195807000.0,-4.342278532175837,1.3944396796652558,7.7045772888611,-0.24281894,-0.97341377,0.024129177,289.41507,0.46790388,-34.16073
2407201019000.0,-4.271342400903583,1.3503514335968785,7.661424033370983,-0.2574797,-0.9599747,0.045814894,289.20636,0.30667695,-33.869987
2407205769000.0,-4.215291815627888,1.3363387628914674,7.675436508984495,-0.2648101,-0.9483683,0.069027774,289.01004,0.16440117,-33.56338
2407210749000.0,-4.151958356554307,1.2854442580524346,7.671452745318352,-0.27855456,-0.945314,0.08368854,288.8319,0.054035343,-33.274883
2407215907000.0,-4.083797313305736,1.2124147358959196,7.656847054405676,-0.29810223,-0.9450085,0.09162979,288.6539,-0.053135466,-32.996098
2407220743000.0,-4.020247058411921,1.157815384040026,7.679455555611547,-0.3313944,-0.9306532,0.09285152,288.49014,-0.1464155,-32.715508
2407227268000.0,-3.934775617910877,1.094836380908502,7.737935827010294,-0.34697145,-0.8915578,0.101098195,288.32617,-0.23917343,-32.449078
2407230808000.0,-3.888404905363185,1.0606684619681808,7.769663054711684,-0.3643811,-0.88178396,0.099265605,288.18478,-0.29750645,-32.182922
2407235762000.0,-3.777361500116009,1.0184023375290023,7.807519456264501,-0.3662137,-0.8518516,0.10354166,288.04187,-0.3564263,-31.939938
2407240888000.0,-3.653970295359629,0.9756899821732404,7.845486049419954,-0.40653083,-0.8210029,0.10262536,287.90448,-0.3991586,-31.706074
2407245818000.0,-3.5398787550793958,0.9277758357375168,7.881695510388368,-0.4334089,-0.7846564,0.108123146,287.78204,-0.42531294,-31.463146
2407250909000.0,-3.4232833621006318,0.8764738569829731,7.919006004974173,-0.46181414,-0.7632761,0.11575896,287.6614,-0.44045165,-31.230576
2407255764000.0,-3.309951511036036,0.8251367903153153,7.919566243243244,-0.47708577,-0.7501425,0.13775012,287.54578,-0.44106555,-30.984787
2407260815000.0,-3.1911003123976247,0.7706632962633088,7.90470984987715,-0.5006041,-0.74189585,0.16768251,287.44034,-0.41793787,-30.723541
2407265750000.0,-3.0641273393796733,0.6924217597433767,7.907280123696114,-0.5329799,-0.7440339,0.19486602,287.32983,-0.39144543,-30.46881
2407270728000.0,-2.932104741262808,0.6044067402843164,7.916081529142435,-0.55863625,-0.72143185,0.24648413,287.2026,-0.36844423,-30.228994
2407276123000.0,-2.8426297080994387,0.4737946607858861,7.989967303127505,-0.57604593,-0.6994407,0.2828306,287.0785,-0.32756144,-29.9724
2407280785000.0,-2.797875255813953,0.3395312104651162,8.092902590116278,-0.57879484,-0.7281514,0.30665436,286.94296,-0.2895082,-29.71316
2407285871000.0,-2.740095169121381,0.2119494734992382,8.2175032785678,-0.6035349,-0.732122,0.3454443,286.81342,-0.21986602,-29.445595
2407290812000.0,-2.677611970695785,0.1014022847780599,8.347276422752667,-0.61636305,-0.73853606,0.3817908,286.67813,-0.15563288,-29.174839
2407296675000.0,-2.728714810778748,0.0068346645321582,8.639334236335904,-0.6062838,-0.70646566,0.42302418,286.5486,-0.056925364,-28.90439
2407301008000.0,-2.813106971231252,-0.0494267405209728,8.906575802389629,-0.591623,-0.65240407,0.49357912,286.39862,0.03407753,-28.644444
2407305777000.0,-2.926645939096267,-0.1149593063575638,9.168466194499018,-0.5729916,-0.66920286,0.4886922,286.28787,0.16028339,-28.355532
2407310766000.0,-3.109687938388998,-0.1947468964591355,9.342121620628683,-0.5882632,-0.6560693,0.50488013,286.14822,0.27790013,-28.096586
2407315782000.0,-3.2792727254946725,-0.2548385249086757,9.504944589802133,-0.605062,-0.59528816,0.50426924,286.03662,0.41811547,-27.841156
2407320756000.0,-3.3916537067732118,-0.236712564826484,9.620950837290716,-0.61758476,-0.5311473,0.5018258,285.9209,0.5576135,-27.597029
2407325911000.0,-3.5081241447488583,-0.2179270151232877,9.741178462100455,-0.60903263,-0.50701815,0.48502702,285.8498,0.7293745,-27.393404
2407330814000.0,-3.589141553757341,-0.1773239136247636,9.787497,-0.600786,-0.5006041,0.4813618,285.775,0.89985204,-27.208155
2407335777000.0,-3.6506411607843137,-0.1205550943137254,9.787497,-0.59956425,-0.5018258,0.4654793,285.7091,1.0706791,-27.032198
2407340740000.0,-3.65619170548926,-0.1516861054653938,9.79282235680191,-0.61453044,-0.48716503,0.4560109,285.66925,1.2429557,-26.879519
2407345746000.0,-3.618052118536197,-0.251802598875895,9.802356954852824,-0.6386596,-0.49632803,0.45540005,285.63022,1.4148587,-26.723845
2407351113000.0,-3.652035397254529,-0.4048770972964728,9.76686206148713,-0.65484756,-0.49571714,0.46517387,285.605,1.5775284,-26.59028
2407355792000.0,-3.728925506844614,-0.5672007868789324,9.707058732125834,-0.6627888,-0.49480084,0.46211955,285.58243,1.7427226,-26.457644
2407360765000.0,-3.883287288839511,-0.7334164775982224,9.595557254317743,-0.65209866,-0.47678033,0.46181414,285.5607,1.9245806,-26.319725
2407366393000.0,-4.1554734212301785,-0.9130592135642864,9.4050272003838,-0.60048056,-0.4025602,0.49968776,285.52643,2.089642,-26.20239
2407370804000.0,-4.326533551453879,-0.9954421202469356,9.34979224228326,-0.5519168,-0.36193767,0.53878313,285.52917,2.3001237,-26.104752
2407376150000.0,-4.491435721231099,-1.0366677344367898,9.377276048850318,-0.5491679,-0.3726278,0.5002986,285.54163,2.5090265,-26.015352
2407380739000.0,-4.663807175939255,-1.0876359453476123,9.408629761323736,-0.5849035,-0.3472769,0.48991394,285.59174,2.7588065,-26.023382
2407385763000.0,-4.951003968354986,-1.1932229436622193,9.46775834278441,-0.55924714,-0.35124752,0.4859433,285.64514,2.9886236,-26.018274
2407391155000.0,-5.265113027809325,-1.3056550011356844,9.52306271383742,-0.49968776,-0.36010507,0.4801401,285.72977,3.2329648,-26.05142
2407395825000.0,-5.672785534832636,-1.3825112539748954,9.382716373430965,-0.45356745,-0.3399465,0.47555858,285.80734,3.4655807,-26.088474
2407400771000.0,-6.104551748909145,-1.4639097607292288,9.234075474148238,-0.40561453,-0.28496864,0.5305365,285.89087,3.6951723,-26.169838
2407405805000.0,-6.470036212091899,-1.535401185217654,9.118237656892385,-0.3481932,-0.32803464,0.473726,286.0,3.915379,-26.221354
2407410846000.0,-6.654892587625957,-1.579182961043934,9.089049738613465,-0.36010507,-0.30085114,0.453262,286.07526,4.1207385,-26.305166
2407415740000.0,-6.805958336225851,-1.6209407018358415,9.084282482655569,-0.32528573,-0.28985557,0.4392121,286.153,4.307987,-26.462376
2407420731000.0,-6.892687255929128,-1.661754339310492,9.135299462909597,-0.28802297,-0.28619036,0.42180246,286.23196,4.491658,-26.615477
2407425801000.0,-6.965558708352145,-1.6794160679556385,9.175173886740602,-0.24984388,-0.27366763,0.42088616,286.28958,4.6532865,-26.774088
2407430771000.0,-7.0169437963882615,-1.6654019264304645,9.19853078928256,-0.23823744,-0.28160888,0.41447207,286.34937,4.8080115,-26.91952
2407436012000.0,-6.985867379609977,-1.607417290648526,9.216685592562358,-0.21105394,-0.2959642,0.41538838,286.37933,4.935823,-27.052576
2407440807000.0,-6.848417541197279,-1.4991233138231292,9.225015627482993,-0.17562376,-0.3042109,0.41508293,286.40875,5.0540996,-27.178596
2407445812000.0,-6.7200294861842105,-1.4069000873839008,9.235602724845204,-0.14721853,-0.3576616,0.4654793,286.41074,5.146134,-27.273687
2407451140000.0,-6.6509162125,-1.4019634397058822,9.255349727941176,-0.13561209,-0.39492437,0.47800204,286.42328,5.2344356,-27.365263
2407455763000.0,-6.589701440064975,-1.402572835025024,9.262599425498289,-0.1151481,-0.41905355,0.4908302,286.4079,5.2794776,-27.41812
2407460773000.0,-6.513870741671789,-1.440488228211432,9.19519427228027,-0.08979719,-0.44104472,0.51159966,286.3841,5.315602,-27.45911
2407465735000.0,-6.438766564939854,-1.4780403601457546,9.128434916937396,-0.059864793,-0.45540005,0.52626044,286.34534,5.3358793,-27.466022
2407470810000.0,-6.369087656328486,-1.4676550945142102,9.090319941341704,-0.019547688,-0.44898596,0.5665775,286.29196,5.340071,-27.473318
2407475744000.0,-6.302722625181758,-1.4481359557171185,9.059089074686051,0.006414085,-0.44043383,0.59681535,286.23724,5.3391786,-27.476793
2407480848000.0,-6.241443092853395,-1.423447725658516,9.018716247350191,0.010079277,-0.42302418,0.6301075,286.16125,5.335506,-27.478456
2407485763000.0,-6.19204664653164,-1.393809744390807,8.969319697869661,0.0009162979,-0.4196644,0.65209866,286.08063,5.3261704,-27.478806
2407490849000.0,-6.149313952620244,-1.417952679632858,8.89806604522613,-0.0012217305,-0.43554693,0.69058317,285.98624,5.3045535,-27.466084
2407495741000.0,-6.115681364824121,-1.4900218082555634,8.811583351758793,-0.007941248,-0.44593164,0.70952,285.89337,5.286679,-27.455956
2407500839000.0,-6.043055450657334,-1.543574126179892,8.780178103187364,-0.004581489,-0.44990227,0.7272351,285.7672,5.2487073,-27.425539
2407505832000.0,-5.943559217601438,-1.5797546046155302,8.79374557599546,0.01282817,-0.45845437,0.7440339,285.63776,5.207923,-27.392147
2407510802000.0,-5.824566273318005,-1.6275669375787265,8.853220962811157,0.016798794,-0.47403142,0.7648033,285.49823,5.181281,-27.357801
2407515970000.0,-5.676132096371089,-1.691888465920224,8.971968717684694,0.022602014,-0.50671273,0.7984009,285.3515,5.1472297,-27.317785
2407520804000.0,-5.56365980721171,-1.7703518718314888,9.005726953230988,0.02687807,-0.52320606,0.8032878,285.1875,5.115127,-27.247957
2407526266000.0,-5.470285152445555,-1.8824015550517676,8.945033135130311,0.05131268,-0.5910121,0.816116,285.0113,5.073,-27.157286
2407530808000.0,-5.38570577713514,-2.002423805465957,8.904804878525463,0.07452556,-0.59437186,0.81581056,284.8479,5.04769,-27.047493
2407535790000.0,-5.2681985764677846,-2.229856795757528,8.897224021609597,0.0711658,-0.6078109,0.818254,284.6806,5.023054,-26.919643
2407540714000.0,-5.1520593841582585,-2.454642031445142,8.889731420354334,0.07941248,-0.59650993,0.83016586,284.49408,5.0068398,-26.779346
2407545738000.0,-5.089450036792453,-2.566240511259229,8.871644882280558,0.106901415,-0.6020077,0.8399397,284.30984,4.988611,-26.634565
2407551227000.0,-5.049920606289309,-2.627331602816516,8.846489592288762,0.129198,-0.63285637,0.8231409,284.1333,4.973538,-26.489294
2407555799000.0,-5.016995017610063,-2.678216731364506,8.825536780147663,0.18112154,-0.66706485,0.8206975,283.94675,4.997211,-26.308666
2407560808000.0,-4.99457545961612,-2.655846441023682,8.718053922555386,0.21685717,-0.6771441,0.799928,283.77344,5.0251584,-26.130348
2407565721000.0,-4.976603365947288,-2.610916324140565,8.587756677425515,0.23976462,-0.6591236,0.7788532,283.60315,5.044986,-25.955542
2407570745000.0,-4.991914734540059,-2.571068573234421,8.577533989317507,0.27275133,-0.64660084,0.73853606,283.43582,5.07203,-25.763433
2407576144000.0,-5.026983882967359,-2.5316156382111066,8.63452124679949,0.29657507,-0.6713409,0.7357872,283.2647,5.094906,-25.57184
2407580776000.0,-5.044064318289461,-2.479996452480673,8.61603791799589,0.2910773,-0.7247916,0.7254025,283.09265,5.1102214,-25.376322
2407585779000.0,-5.034687132576573,-2.386224497436148,8.451936678442117,0.3036,-0.6740898,0.6924158,282.93353,5.119753,-25.207886
2407590725000.0,-5.0116779656398345,-2.271634696929603,8.357902241894758,0.3378085,-0.7180721,0.6759224,282.75873,5.1116886,-24.991322
2407595735000.0,-4.948680593253207,-2.0923344326128674,8.459667835269165,0.34269542,-0.77854776,0.64568454,282.60205,5.1155205,-24.788393
2407601015000.0,-4.890503693212571,-1.9247814066128328,8.531769401207624,0.3707952,-0.80878556,0.61941737,282.4363,5.0852146,-24.586414
2407605793000.0,-4.853886715429943,-1.8149302647097336,8.528440512367235,0.39767328,-0.8426886,0.63224554,282.26846,5.055344,-24.371977
2407610819000.0,-4.815369149432562,-1.6993773473374072,8.524938839007712,0.41538838,-0.8695667,0.63163465,282.11105,4.991319,-24.12874
2407615796000.0,-4.756514831388029,-1.6057453396322574,8.492259162386329,0.47678033,-0.8765916,0.61850107,281.95673,4.912009,-23.88809
2407621052000.0,-4.676033847996402,-1.5252645663335664,8.431898936944139,0.516792,-0.87689704,0.6096435,281.80414,4.836376,-23.64847
2407626246000.0,-4.581578232419831,-1.436551984032734,8.440023458749643,0.56199604,-0.88208944,0.5842926,281.64868,4.713965,-23.390783
2407630884000.0,-4.488593371728994,-1.3520202523741556,8.486515999429061,0.6123924,-0.84971356,0.5665775,281.49933,4.583909,-23.1506
2407635730000.0,-4.383737740944345,-1.2538573411062814,8.482546488366147,0.6423248,-0.86376345,0.5549711,281.34915,4.4365506,-22.879583
2407640811000.0,-4.2634672706895085,-1.13773412396659,8.407895672462285,0.6960809,-0.93431836,0.5317582,281.21252,4.2774625,-22.607946
2407645767000.0,-4.143201035571184,-1.0292439611333717,8.329949726960503,0.73364913,-0.9728029,0.52015173,281.0758,4.0993595,-22.310387
2407651252000.0,-3.975679384659416,-0.9648125734974242,8.183904930165998,0.7791586,-0.9896017,0.51007247,280.95013,3.912397,-22.007019
2407655874000.0,-3.8345152879385065,-0.9105187040984546,8.060838558099599,0.82558435,-0.9969321,0.50732356,280.81363,3.6904275,-21.664452
2407660797000.0,-3.687984183594984,-0.8935174344356712,7.984168941235485,0.8698721,-0.98654735,0.5137377,280.6841,3.4628572,-21.331903
2407665811000.0,-3.540785160427311,-0.897978008072457,7.9351027243845795,0.93462384,-0.98654735,0.5213735,280.56134,3.2235224,-21.003866
2407670804000.0,-3.3916780994801305,-0.9085671752586132,7.822795479742709,0.9960158,-0.9966267,0.5216789,280.42456,2.9624953,-20.647774
2407676262000.0,-3.225872533350956,-0.9269900004432108,7.629355572438101,1.0616838,-0.99112886,0.5195409,280.2941,2.6891098,-20.306137
2407680815000.0,-3.1178451316459603,-0.9334944035959564,7.4947960212670734,1.1285735,-0.977079,0.5204572,280.1575,2.4068167,-19.929003
2407685824000.0,-3.099336685315225,-0.9112842486727372,7.43556899300872,1.1872166,-0.9599747,0.5137377,280.03192,2.1172862,-19.565235
2407690745000.0,-3.08115340234586,-0.8894642901226947,7.377382487506752,1.2388347,-0.9621128,0.5039638,279.89343,1.8213172,-19.171404
2407695817000.0,-3.076657319000246,-0.8710571330263915,7.339974051796432,1.294118,-0.9593639,0.50885075,279.7609,1.5154601,-18.795029
2407701307000.0,-3.0809800790101125,-0.8537664540820522,7.314038123653703,1.3515394,-0.958753,0.51343226,279.63916,1.2037266,-18.428207
2407705794000.0,-3.080722731707317,-0.8337312579664239,7.30204085137789,1.412015,-0.95417154,0.51159966,279.50867,0.87174344,-18.055845
2407710829000.0,-3.065448875,-0.7879100068181819,7.324951377272727,1.4899004,-0.9486737,0.5195409,279.38208,0.5263853,-17.694506
2407715723000.0,-3.05060274695122,-0.7433719327130187,7.347220317437441,1.5561792,-0.9486737,0.5158757,279.24454,0.16412966,-17.325563
2407720806000.0,-3.08226031953125,-0.6883703928906251,7.533904170833333,1.5891659,-0.94042706,0.51893,279.1113,-0.20256592,-16.97062
2407726291000.0,-3.142107615185547,-0.624248359272461,7.824590601822915,1.6536123,-0.91324353,0.5109888,278.99097,-0.585646,-16.63091
2407730798000.0,-3.2119814956661696,-0.556575882411871,8.090662150427887,1.745242,-0.89675015,0.50488013,278.8713,-0.9916513,-16.28345
2407735831000.0,-3.363351746580828,-0.4279111632071917,8.484224810708957,1.7599027,-0.87689704,0.48716503,278.766,-1.3830756,-15.954632
2407740712000.0,-3.510150513660988,-0.3031322054408416,8.86590161278166,1.8044959,-0.86437434,0.4373795,278.66296,-1.8163393,-15.615159
2407745806000.0,-3.7088122505167225,-0.146282226287737,9.417415777117748,1.8374827,-0.82802784,0.3707952,278.5787,-2.2375276,-15.298759
2407751312000.0,-3.9490980512165352,0.0382230675587924,10.099656624867768,1.8332067,-0.8002335,0.28008172,278.5246,-2.645161,-14.994302
2407755808000.0,-4.2154547487657705,0.2474524918321448,10.719746150850249,1.7996091,-0.75136423,0.16737708,278.50247,-3.0762744,-14.716279
2407761162000.0,-4.802088849228117,0.7215813049235955,11.700147840373011,1.7238617,-0.69058317,0.026572637,278.52203,-3.475968,-14.460992
2407765718000.0,-5.301286638116135,1.125042431640937,12.534423166758092,1.6203201,-0.634689,-0.13194689,278.58362,-3.8847482,-14.230488
2407770806000.0,-5.561963599934329,1.4519710406008866,12.744873586192742,1.5265522,-0.56169057,-0.31673363,278.69824,-4.2542415,-14.034406
2407776304000.0,-5.670019203217862,1.732915410556559,12.550374276555573,1.45783,-0.42577308,-0.5170974,278.8652,-4.5825033,-13.88416
2407780807000.0,-5.646287715384011,1.93276618446663,12.373360029557425,1.4462235,-0.36285394,-0.6808093,279.12164,-5.0042715,-13.820311
2407785826000.0,-5.241990753698608,2.053677409857716,12.116423212011634,1.4538593,-0.37598756,-0.7858781,279.41882,-5.391823,-13.779143
2407790712000.0,-4.848407379561355,2.171384572093389,11.8662950409559,1.5030339,-0.43066,-0.8155051,279.759,-5.852935,-13.780181
2407795808000.0,-4.255114644102148,2.180565590920146,11.541895931901095,1.5537357,-0.5112942,-0.7425067,280.10034,-6.304357,-13.770165
2407801304000.0,-3.516913979391973,2.129360960713417,11.157861205350628,1.5971072,-0.6059783,-0.63163465,280.441,-6.756573,-13.741033
2407806302000.0,-2.766696399898777,1.991531488273768,10.669943264034885,1.6530013,-0.6753115,-0.50823987,280.74377,-7.2543406,-13.613096
2407810813000.0,-1.932479976321732,1.6854278415790702,9.953458917698358,1.7030923,-0.70921457,-0.3549127,281.0097,-7.7610574,-13.469544
2407815763000.0,-1.0170795558592234,1.3495349018453633,9.16724798567313,1.6936239,-0.7144069,-0.28955013,281.23306,-8.245734,-13.165913
2407820804000.0,-0.7601371523782421,1.200773836320026,8.692274753069356,1.7085901,-0.7333437,-0.19242255,281.41046,-8.753068,-12.85572
2407826274000.0,-0.8964347510448004,1.1581808200585413,8.377086406049273,1.7437148,-0.75686204,-0.14049901,281.5884,-9.254207,-12.555547
2407830791000.0,-1.0339857467249556,1.1506360191167753,8.154229289196799,1.8976529,-0.75991637,-0.14202617,281.69327,-9.71285,-12.09586
2407835815000.0,-1.2977992402637817,1.2647175237996442,8.072233223992294,1.9474384,-0.7415904,-0.1423316,281.78867,-10.146985,-11.650714
2407840718000.0,-1.5552589454430945,1.376051444472436,7.992211984402786,1.9941696,-0.6646214,-0.17531833,281.8843,-10.630257,-11.251259
2407845803000.0,-1.842239826340243,1.6023181963187991,8.189155397873481,2.0433443,-0.5561928,-0.16707164,281.972,-11.12075,-10.879333
2407851148000.0,-2.166967392726948,1.9682083756433169,8.719696076706576,2.1300871,-0.54702985,-0.20922135,282.09094,-11.620473,-10.520191
2407855850000.0,-2.316843891027541,2.443116131536241,9.207555217796676,2.0967948,-0.51343226,-0.20952678,282.2177,-12.141747,-10.270321
2407860815000.0,-2.0905444438480143,3.377992317188109,9.782578492158851,2.0430388,-0.50823987,-0.19272798,282.35895,-12.6694565,-10.027053
2407865713000.0,-1.867298785784505,4.300252852399158,10.349842137239603,1.9969184,-0.5412266,-0.15210545,282.52023,-13.244294,-9.842611
2407870805000.0,-1.6844646468241673,4.7654850129357085,10.559264159759875,1.9101756,-0.6020077,-0.10903945,282.68295,-13.781429,-9.658443
2407876465000.0,-1.5081208362896978,5.013206246088304,10.584455982378,1.8374827,-0.6765333,-0.07452556,282.84503,-14.299586,-9.467065
2407880827000.0,-1.3805111326114956,5.190397438375463,10.588117300354211,1.7828102,-0.7290677,-0.021991149,283.06116,-14.983833,-9.20907
2407885798000.0,-1.3038627705844468,5.278542968668492,10.46164732893254,1.7189748,-0.7470882,0.027183503,283.27744,-15.627941,-8.950648
2407890788000.0,-1.2269214455965225,5.367025406037675,10.334693967960073,1.6777414,-0.7556403,0.0711658,283.49,-16.301075,-8.661387
2407895803000.0,-1.133334161047718,5.442129732105809,10.239578092842324,1.6276505,-0.7425067,0.11148291,283.69522,-16.936922,-8.383252
2407901285000.0,-1.019874484664592,5.514743959111342,10.157887383644535,1.6074919,-0.7467828,0.15577064,283.89465,-17.55387,-8.107166
2407905811000.0,-0.8900254929682437,5.54510771257291,10.048599560920286,1.5961909,-0.75686204,0.20372356,284.0879,-18.176098,-7.8329406
2407911792000.0,-0.623986181162238,5.507985845971052,9.79493422618276,1.5943583,-0.73456544,0.24801129,284.27228,-18.779915,-7.574808
2407915780000.0,-0.4859854824347825,5.461977618434783,9.635783389565216,1.6041322,-0.72143185,0.2574797,284.4548,-19.388092,-7.309168
2407920808000.0,-0.3510663165217391,5.382887129855073,9.44503564347826,1.6062702,-0.68416905,0.26633725,284.6252,-19.97889,-7.0628033
2407926011000.0,-0.2133528181221122,5.288045734264196,9.209652227299651,1.6209309,-0.6386596,0.28252518,284.76465,-20.574314,-6.804747
2407930841000.0,-0.0880933356468647,5.18235796071761,8.939561341287975,1.6325374,-0.602924,0.28863382,284.90536,-21.154303,-6.5632286
2407936042000.0,0.0358198435657929,5.072114515276675,8.664246242520518,1.6459764,-0.5390886,0.30970868,285.01373,-21.728533,-6.3225894
2407940806000.0,-0.0004183664665078,5.019770469949696,8.623981592268995,1.643533,-0.50976706,0.32436943,285.12567,-22.28753,-6.090074
2407945802000.0,-0.0384213256019768,4.964877344329715,8.581756111022857,1.649947,-0.4804455,0.35033122,285.20898,-22.844027,-5.8603263
2407951284000.0,-0.1555153580950004,4.944877783012246,8.577573382263473,1.6554449,-0.45998153,0.37048978,285.29108,-23.387226,-5.641207
2407955833000.0,-0.2710450660719132,4.938081958076593,8.584369384603384,1.6594155,-0.43096542,0.39858958,285.36322,-23.920345,-5.4341755
2407960757000.0,-0.400904274185961,4.957115002021316,8.58178179106946,1.6551393,-0.4129449,0.4166101,285.41943,-24.441912,-5.2476773
2407965806000.0,-0.5563954009555311,5.099278401690555,8.532913093439912,1.642922,-0.3753767,0.43127087,285.467,-24.950962,-5.076109
2407971154000.0,-0.7178332649281609,5.248217574978448,8.488100858836207,1.6169603,-0.35430184,0.47647488,285.51657,-25.443151,-4.9366746
2407976168000.0,-0.8316692911063218,5.368952641831896,8.526046248922414,1.5986344,-0.35643986,0.51343226,285.56653,-25.92238,-4.8043656
2407980778000.0,-0.9363330487212644,5.47995955411638,8.560934212284483,1.5848899,-0.35918877,0.54550266,285.6252,-26.421034,-4.7129736
2407985759000.0,-1.062206250109934,5.650759973176094,8.606015965620628,1.5800029,-0.35369098,0.559858,285.682,-26.905375,-4.623988
2407990804000.0,-1.2360359452428542,6.0080766107435535,8.678444942234659,1.5460999,-0.36102137,0.5867361,285.73325,-27.366886,-4.528583
2407995721000.0,-1.3815929690630675,6.291034992187905,8.722803391123799,1.5109752,-0.4092797,0.62858033,285.8012,-27.843277,-4.4590034
2408000913000.0,-1.441816036664071,6.334051469045765,8.666881926291202,1.486846,-0.46028697,0.63804877,285.87595,-28.300955,-4.389956
2408005778000.0,-1.4982461645298035,6.374358703235574,8.614482479756035,1.4636332,-0.49877146,0.6227771,285.97064,-28.80108,-4.3478575
2408010803000.0,-1.424807932719816,6.518154669010704,8.52642365859758,1.4416419,-0.5158757,0.63407815,286.06366,-29.282465,-4.295103
2408015773000.0,-1.3391081699909972,6.670510001610484,8.43596264879464,1.4251486,-0.5290093,0.63591075,286.17065,-29.745771,-4.239135
2408020803000.0,-1.3409388535801918,6.681357082139936,8.417827482340694,1.4202617,-0.5543602,0.6612616,286.27927,-30.213335,-4.1878734
2408025996000.0,-1.352032389694401,6.677659236768533,8.406734100676632,1.4065173,-0.6062838,0.66859204,286.4005,-30.66139,-4.1309175
2408030744000.0,-1.3578292794117648,6.677111809742647,8.377048003676471,1.389413,-0.61911196,0.65484756,286.5017,-31.143665,-4.0649896
2408035772000.0,-1.347994281372549,6.686946756433823,8.273779908088235,1.3671165,-0.6224717,0.6429357,286.60983,-31.608486,-3.9900968
2408040718000.0,-1.3072112057142855,6.701641752241918,8.159235132679875,1.3448198,-0.6273586,0.6337727,286.71802,-32.062393,-3.918034
2408045734000.0,-1.1719655142857142,6.731696431699687,8.003953371845673,1.3292428,-0.65057147,0.6218608,286.8358,-32.50008,-3.845662
2408051054000.0,-1.051018999957347,6.763842082391412,7.833126011317268,1.3106114,-0.6789767,0.63713247,286.941,-32.940502,-3.7760398
2408055795000.0,-0.9767825635743228,6.792891028932964,7.671742398279662,1.2944235,-0.6908886,0.6536258,287.05243,-33.366028,-3.7089725
2408060784000.0,-0.898662845979953,6.82345951539063,7.501916866652449,1.2822062,-0.70952,0.66431594,287.14362,-33.8114,-3.607974
2408065738000.0,-0.8942110944649788,6.8055415778044726,7.375884400304934,1.255328,-0.7257079,0.6731735,287.2358,-34.23757,-3.5060554
2408070744000.0,-0.956231141757531,6.74352166928479,7.2872845375993345,1.2247849,-0.7464773,0.6899723,287.33005,-34.64922,-3.3993888
2408075872000.0,-1.0148828306570707,6.6848699975979065,7.170369069352276,1.1890492,-0.7877107,0.6994407,287.42303,-35.08314,-3.2639863
2408080788000.0,-1.0632869364987385,6.636465707963361,7.016356013664828,1.1798862,-0.8561276,0.713796,287.52173,-35.506317,-3.1183627
2408085774000.0,-1.1127222977740765,6.5984197,6.877403222637796,1.1841623,-0.8863655,0.7244862,287.6132,-35.92168,-2.9983048
2408090748000.0,-1.1632137076923077,6.5984197,6.7980596,1.1924089,-0.87109387,0.71868294,287.71164,-36.32615,-2.8780315
2408095744000.0,-1.2139284410963052,6.5984197,6.718365040551181,1.1902709,-0.8509353,0.7086037,287.80896,-36.738583,-2.7768502
2408101116000.0,-1.2791609105235464,6.674987182662457,6.676407681934578,1.2144,-0.8503244,0.6969972,287.91162,-37.151466,-2.6802335
2408105864000.0,-1.342962613338595,6.786640256274665,6.664444912102079,1.2040154,-0.8567385,0.68600166,288.01688,-37.544598,-2.5922408
2408110730000.0,-1.3714374352275045,6.908136123597225,6.63438148791063,1.1887437,-0.8588765,0.68539083,288.1098,-37.960995,-2.52919
2408115741000.0,-1.3126869109773516,7.050116587023057,6.560943140889615,1.1823297,-0.8741482,0.67347896,288.21426,-38.36713,-2.4687932
2408120928000.0,-1.2814950715625002,7.170230526744186,6.484999346918604,1.171945,-0.88453287,0.66859204,288.31488,-38.79076,-2.4353626
2408125855000.0,-1.302069915625,7.238813220930233,6.412987518023256,1.16492,-0.88331115,0.6630942,288.42166,-39.203465,-2.4054062
2408130833000.0,-1.3228577325,7.308105823255814,6.340230285581396,1.1636983,-0.883922,0.64751714,288.52472,-39.648888,-2.3562546
2408135757000.0,-1.3130555642113029,7.312536128514797,6.313704358394026,1.146594,-0.8738427,0.61727935,288.63278,-40.0771,-2.316085
2408140739000.0,-1.2822653160873976,7.272948817553241,6.318102958707477,1.1346822,-0.9193522,0.61666846,288.75067,-40.49658,-2.2635345
2408145734000.0,-1.2641385,7.258854382405075,6.315165651320085,1.1362094,-0.93859446,0.6032294,288.8732,-40.939007,-2.2386737
2408150854000.0,-1.2641385,7.281726486146096,6.301442341309824,1.135904,-0.9279043,0.57604593,289.00378,-41.367096,-2.2153676
2408155757000.0,-1.2576590999009412,7.309189893115404,6.273819706785537,1.1475104,-0.9239337,0.5519168,289.12265,-41.79312,-2.1846137
2408160798000.0,-1.233747931599802,7.3522298961862305,6.20686853541357,1.1472049,-0.9443977,0.5305365,289.25165,-42.205338,-2.1576903
2408165769000.0,-1.1959032910248448,7.393893597846791,6.136263801449275,1.1328496,-0.9434814,0.5112942,289.36963,-42.62271,-2.1414366
2408170751000.0,-1.116877785869565,7.433406324637682,6.0522990507246375,1.1319333,-0.9673051,0.50579643,289.50027,-43.03365,-2.118936
2408175976000.0,-1.0717157471984131,7.454125152001134,5.964044760005667,1.1420126,-0.98532563,0.49663344,289.62646,-43.458843,-2.0991085
2408180822000.0,-1.094728016774102,7.437687816589927,5.881858082949635,1.1542299,-0.98807454,0.49602258,289.7557,-43.87447,-2.0789099
2408185755000.0,-1.118153424495289,7.420955382503364,5.798195912516824,1.153619,-0.99265605,0.48533243,289.88626,-44.306175,-2.0329423
2408190762000.0,-1.0429003085567117,7.422409866472424,5.725776600582726,1.1499538,-1.0164797,0.4859433,290.02127,-44.730553,-1.9834679
2408195809000.0,-0.8668654493673256,7.442528122289282,5.665421833132154,1.1594223,-1.02717,0.49296826,290.1575,-45.14858,-1.9395993
2408201019000.0,-0.7470874295969397,7.4507556,5.615440076954656,1.1707232,-1.0170907,0.49571714,290.28876,-45.579933,-1.9100559
2408205813000.0,-0.6742668737506998,7.4507556,5.576887961671954,1.1756102,-1.0051788,0.5036584,290.42172,-46.00231,-1.8790879
2408210779000.0,-0.5980908384483633,7.461373841816155,5.501456790919225,1.1701124,-1.0167851,0.49418998,290.55023,-46.4367,-1.7975738
2408215745000.0,-0.5209716919925003,7.485473562501267,5.380958187493666,1.1701124,-1.0015136,0.48716503,290.67096,-46.864388,-1.725956
2408220743000.0,-0.4138513809466357,7.504732311276101,5.321220668863108,1.2030991,-0.9611965,0.4990769,290.7775,-47.305256,-1.6385483
2408225857000.0,-0.2684012331396752,7.518368252399072,5.334856515062644,1.2220359,-0.9440922,0.5119051,290.8892,-47.732334,-1.5553038
2408230770000.0,-0.1177562989919759,7.543610247241726,5.327617999007021,1.2388347,-0.93737274,0.53878313,290.98737,-48.190083,-1.4475565
2408236499000.0,0.0858569867301905,7.604143998996991,5.267084419638916,1.235475,-0.9211848,0.5671884,291.08005,-48.63736,-1.3466651
2408240715000.0,0.2289060598723404,7.650320072340426,5.247316005531915,1.2452488,-0.9285152,0.6038403,291.16357,-49.087887,-1.1941621
2408245733000.0,0.3847120721073961,7.708747488348531,5.276529611854103,1.2626585,-0.9166033,0.6432411,291.2366,-49.529778,-1.0473415
2408250989000.0,0.5234346291303162,7.738882582878953,5.300976781161396,1.2519683,-0.9282097,0.68386364,291.30807,-49.975758,-0.8423805
2408255796000.0,0.6112890248398309,7.716918865185387,5.313527369336151,1.2299771,-0.9334021,0.7067711,291.37457,-50.413265,-0.6428401
2408260805000.0,0.702835242461832,7.694032187022901,5.3266053589694655,1.1908818,-0.95630956,0.7287622,291.43396,-50.840656,-0.39302063
2408265739000.0,0.7766816236781124,7.674564913208342,5.338304180535075,1.1688906,-0.95630956,0.73884153,291.49045,-51.256298,-0.15164743
2408270806000.0,0.8277935852011796,7.659231554244786,5.348526562165579,1.1438452,-0.95325524,0.7483099,291.55017,-51.649918,0.090383925
2408276013000.0,0.8589475578894973,7.651869,5.346823242110503,1.1194105,-0.9407325,0.7556403,291.59326,-52.027462,0.3622466
2408280871000.0,0.8705264763563962,7.651869,5.335244323643604,1.087951,-0.94989544,0.75441855,291.64304,-52.38618,0.6293889
2408285779000.0,0.8858916120075401,7.654062367012252,5.32514327340245,1.0922271,-0.9773844,0.7583892,291.6903,-52.73719,0.90827215
2408290812000.0,0.9358634198963244,7.676776803581527,5.329686160716305,1.0925325,-1.0002918,0.75900006,291.7419,-53.068954,1.1785145
2408296125000.0,0.9846629636716998,7.699753,5.329990517356855,1.1068878,-1.0238101,0.7791586,291.78992,-53.40688,1.4564077
2408301025000.0,0.9460779726416504,7.699753,5.235281846404544,1.0958922,-1.0369438,0.81306165,291.8408,-53.728218,1.7311817
2408306892000.0,0.8998783517491404,7.699753,5.121882709164299,1.0806206,-1.0592403,0.84391034,291.8952,-54.047543,2.0231416
2408310724000.0,0.8763404884943821,7.688951337850513,5.060855186800195,1.0626001,-1.0720685,0.8524625,291.95093,-54.353527,2.3092682
2408315812000.0,0.8596776886741573,7.65086481185149,5.008486468324377,1.0607675,-1.0629056,0.8573494,292.00433,-54.650352,2.5925841
2408320736000.0,0.8435519759550562,7.614005917586713,4.957805735271128,1.0348058,-1.0458013,0.8533788,292.0606,-54.95934,2.858888
2408326127000.0,0.8258968749662922,7.573651267103078,4.902318360801172,1.0030408,-1.0348058,0.85062987,292.11774,-55.25675,3.11707
2408330826000.0,0.8252254040349704,7.519823470743747,4.871908351585376,0.98990715,-1.0424415,0.86834496,292.1749,-55.542763,3.3707476
2408335791000.0,0.8769391999732286,7.396506129574165,4.903732161465741,0.9728029,-1.0302242,0.8915578,292.22644,-55.810127,3.6118474
2408340741000.0,0.9284967608784406,7.273561348347695,4.93545982690538,0.95081174,-1.0076222,0.89980453,292.27148,-56.08599,3.8443034
2408345756000.0,0.9148982610473207,7.3306558597773135,5.002391962456507,0.94134337,-0.9969321,0.890947,292.31793,-56.35196,4.069896
2408350959000.0,0.8845575431497912,7.434681010177453,5.080410847886221,0.9462303,-0.98746365,0.85918194,292.36386,-56.60835,4.280675
2408355722000.0,0.9631403155133929,7.584615007053571,5.2083611563392855,0.97524637,-0.98715824,0.8393288,292.39734,-56.83886,4.5111256
2408360720000.0,1.1447704803571428,7.792955521428571,5.395333435714286,0.9896017,-0.9984592,0.82986045,292.43665,-57.060226,4.728926
2408365679000.0,1.2577562362163783,7.950704099810019,5.540186092290771,0.9896017,-1.0299188,0.8237518,292.47653,-57.288563,4.932896
2408370648000.0,1.3434045356364364,8.088693045975402,5.668658665633437,0.9773844,-1.108415,0.81214535,292.53525,-57.51044,5.1347485
2408375787000.0,1.3233846860041725,8.213028414564764,5.770339424995259,0.93401295,-1.1866057,0.7666359,292.59784,-57.709965,5.3693695
2408380661000.0,1.2614196744168404,8.323680600606865,5.854434642708136,0.8927795,-1.2568552,0.68661255,292.686,-57.902042,5.594666
2408385641000.0,1.2119854738668334,8.393552473272898,5.927797748358862,0.8454375,-1.3267993,0.6084218,292.78412,-58.078247,5.837399
2408390641000.0,1.172069614744191,8.433468071897469,5.992660986870897,0.8164214,-1.3952162,0.54458636,292.90942,-58.24581,6.065328
2408395634000.0,1.2125818647137152,8.398617296937417,5.867024585486019,0.79137594,-1.4535538,0.49021935,293.04953,-58.411213,6.257189
2408400832000.0,1.2965432460896582,8.323493392276964,5.637235655863293,0.77457714,-1.5424347,0.44012842,293.22247,-58.569572,6.441405
2408405696000.0,1.3606260509593495,8.266272178536585,5.427915893203252,0.7858781,-1.5845845,0.4016439,293.39563,-58.734715,6.628385
2408410699000.0,1.4073702324119242,8.224722060162602,5.220163891273713,0.8038987,-1.6022996,0.3368922,293.59473,-58.897827,6.7980742
2408415686000.0,1.4985247209542742,8.273397438170974,5.01203200914513,0.8029824,-1.6059648,0.2846632,293.81195,-59.090763,6.98548
2408420670000.0,1.6218846165407554,8.387268461630219,4.803269291848906,0.7654142,-1.6084082,0.23609942,294.0409,-59.277843,7.1516724
2408425823000.0,1.751711592045006,8.409103913541255,4.574279817745755,0.7510588,-1.5699236,0.23609942,294.26477,-59.50282,7.3276825
2408430792000.0,1.878523002645085,8.362136760757993,4.344140671022503,0.7556403,-1.5457945,0.21899518,294.50104,-59.72203,7.481536
2408435662000.0,1.959669610129564,8.359007332155477,4.272711079623085,0.7473936,-1.4724907,0.1572978,294.7462,-59.972633,7.647429
2408440656000.0,2.0066136022771888,8.391868322732625,4.329043772163329,0.72387534,-1.4468343,0.10323623,294.99738,-60.215202,7.8053236
2408445642000.0,2.0618757312065585,8.311552495277134,4.264775073498485,0.67073005,-1.491733,0.07849618,295.27133,-60.46871,7.9884386
2408450977000.0,2.1301687705043664,8.102120229192657,4.064449008715024,0.62888575,-1.4446963,-0.016187929,295.53116,-60.723137,8.1160965
2408455723000.0,2.180358781479984,7.930646254245855,3.9078038146583096,0.55680364,-1.4062119,-0.10415252,295.8004,-60.945984,8.262356
2408460749000.0,2.2046880358269307,7.789536680651031,3.800754993914274,0.47403142,-1.3997977,-0.18142697,296.07523,-61.156937,8.378042
2408465688000.0,2.2016493995787787,7.648491775749674,3.714620588085448,0.40530908,-1.4114041,-0.26206118,296.36658,-61.362724,8.499452
2408470756000.0,2.1286347220539565,7.497594883963495,3.6756794809547686,0.3390302,-1.426065,-0.34788775,296.66553,-61.550846,8.593142
2408475855000.0,2.0964883657776445,7.358179094096494,3.657924066946359,0.25137106,-1.4385877,-0.45753807,296.9782,-61.728153,8.676977
2408480739000.0,2.152554500149835,7.250719141444411,3.685957085346119,0.18906279,-1.4413365,-0.5684101,297.30048,-61.900417,8.73387
2408485710000.0,2.226428181799344,7.1575494449145225,3.687173106924538,0.13194689,-1.4294246,-0.66706485,297.62045,-62.065365,8.760539
2408490706000.0,2.342097314764289,7.103845723242963,3.6210763978932814,0.07391469,-1.4022411,-0.76174897,297.94733,-62.221844,8.754714
2408496069000.0,2.461757761272349,7.045591652790021,3.550230073214137,0.015271631,-1.3503176,-0.8344419,298.26587,-62.346737,8.742977
2408500976000.0,2.473481675850312,6.979156136848233,3.4877025287983368,-0.059253927,-1.3292428,-0.8924741,298.5916,-62.45872,8.709291
2408505786000.0,2.484973835850312,6.914033896848233,3.4264110087983366,-0.110872045,-1.2831224,-0.9233228,298.9112,-62.555096,8.69027
2408510776000.0,2.4899697,6.814183719197225,3.314468309900892,-0.20647246,-1.2476922,-0.98990715,299.23602,-62.62862,8.644716
2408515816000.0,2.4899697,6.689808757056492,3.1661749763032705,-0.26939157,-1.2159272,-1.0360274,299.54712,-62.69852,8.590488
2408520807000.0,2.5104126243360616,6.604927174394522,2.993856728328044,-0.30115658,-1.2189816,-1.1178834,299.8675,-62.769444,8.520277
2408525849000.0,2.546706013245365,6.548470754217472,2.800292268197762,-0.2843578,-1.2321151,-1.1823297,300.18192,-62.83995,8.440298
2408530814000.0,2.597288616915423,6.494728882018479,2.612827903482587,-0.2443461,-1.2525792,-1.2629639,300.5265,-62.922012,8.345041
2408535810000.0,2.718197064234384,6.44938821920556,2.439022062244334,-0.20372356,-1.2281445,-1.3420709,300.86652,-63.01497,8.230447
2408540732000.0,2.8373146338308457,6.4047191354655295,2.2677906069651743,-0.17012598,-1.201572,-1.421178,301.24893,-63.142754,8.114547
2408545807000.0,3.052546982712831,6.485188796505092,2.222657121238289,-0.13958271,-1.178359,-1.505172,301.63193,-63.28759,7.975301
2408551089000.0,3.332771648553972,6.645906050061099,2.2556247188594702,-0.11026118,-1.1902709,-1.566564,302.0197,-63.44503,7.8238926
2408555820000.0,3.5653688484376245,6.802067800970025,2.2778469446131826,-0.09621128,-1.221425,-1.6313156,302.4461,-63.6174,7.6835394
2408561579000.0,3.7583182891945617,7.0520249311362,2.2690765238133097,-0.08399397,-1.2721269,-1.6829338,302.88208,-63.799778,7.5358896
2408565720000.0,3.897058284710185,7.231756217126501,2.262770166367178,-0.093462385,-1.3509285,-1.6902641,303.33908,-63.959053,7.4464355
2408570808000.0,4.024638097132788,7.438224465353195,2.285836395707192,-0.0888809,-1.4581354,-1.6780468,303.8163,-64.127144,7.35906
2408576092000.0,4.134064971968605,7.64491976741951,2.326364921159699,-0.1020145,-1.6059648,-1.6588045,304.32047,-64.28698,7.286531
2408580776000.0,4.222680791497139,7.820908956770502,2.32035142738398,-0.13805555,-1.7293595,-1.6511687,304.85437,-64.44569,7.2507815
2408585811000.0,4.276325827693897,7.974180374443738,2.1057712425858237,-0.17837265,-1.7272215,-1.6688838,305.39023,-64.59987,7.2149806
2408590722000.0,4.328649715034965,8.123677083916084,1.896475654195804,-0.21197024,-1.6187929,-1.6832392,305.9288,-64.74627,7.1953244
2408595893000.0,4.303092857988891,8.373507150302238,1.4824446435370038,-0.25534168,-1.4556919,-1.6933185,306.4494,-64.880135,7.1638474
2408601107000.0,4.233752322602516,8.67534331890214,0.960349872287208,-0.27000242,-1.3811663,-1.6847663,306.9598,-65.01235,7.129942
2408605849000.0,4.178781174886191,8.899059079817905,0.5945475119878604,-0.26267207,-1.212873,-1.6841555,307.43024,-65.19089,7.062435
2408610812000.0,4.149931383915023,8.953152014264036,0.5981537076176024,-0.2406809,-1.0192287,-1.6902641,307.86932,-65.36785,6.983455
2408615810000.0,4.120878138846738,9.00762642215478,0.6017853348103187,-0.21166481,-0.83658,-1.6869044,308.3167,-65.685684,6.859467
2408620810000.0,4.058045115338962,9.026346642063029,0.7385156861857394,-0.17379116,-0.691194,-1.690875,308.71698,-66.00742,6.714562
2408626078000.0,3.965266312964976,9.017912029340469,0.9873317678441862,-0.14782938,-0.56107974,-1.7150042,309.06766,-66.32923,6.547459
2408631926000.0,3.8129372684729055,9.121460177339902,1.276593118719212,-0.13103059,-0.3454443,-1.7947221,309.36157,-66.65951,6.328329
2408635820000.0,3.649016040598712,9.3334274629784,1.4857340007502842,-0.1518,-0.25289822,-1.8280143,309.6441,-66.97787,6.1168184
2408640838000.0,3.437779080795756,9.606578936870026,1.7552432318832891,-0.13652839,-0.048258353,-1.9092593,309.82977,-67.2647,5.812404
2408645804000.0,3.336980796572096,9.829434049048569,2.123774810833276,-0.13622294,0.12736541,-1.9908098,309.9963,-67.53631,5.497238
2408651069000.0,3.326589537658858,10.023403926083672,2.605236835494951,-0.17195857,0.21380283,-2.053729,310.13318,-67.79788,5.158939
2408655807000.0,3.317238391461153,10.19795839472419,3.038506934801126,-0.24312437,0.16982053,-2.0995438,310.23984,-68.02362,4.727742
2408660806000.0,3.3574057942918163,10.377373817687603,3.3893966217454614,-0.3640757,0.10140363,-2.143526,310.33224,-68.216225,4.2830615
2408665807000.0,3.427146902135715,10.5540521906611,3.6776603109115618,-0.49693888,0.055588737,-2.189341,310.4316,-68.375565,3.8371828
2408670801000.0,3.472403203127993,10.69312796768273,3.8280084053622727,-0.6236934,0.059864793,-2.2363777,310.5103,-68.38838,3.3673139
2408676070000.0,3.50058873731248,10.809896525215448,3.876326463964252,-0.7339546,0.06352998,-2.278833,310.60547,-68.36024,2.9019158
2408680796000.0,3.5252371512987564,10.914789413402149,3.912538436923597,-0.80848014,0.064446285,-2.3051,310.70358,-68.24479,2.4423883
2408685829000.0,3.54154996492089,11.028978342245535,3.83913107371182,-0.86559606,0.04428773,-2.324953,310.81158,-68.09767,1.9857812
2408690724000.0,3.557415496945596,11.140036320923937,3.7677364695151874,-0.9049969,0.017715093,-2.3283129,310.935,-67.916626,1.5403179
2408695782000.0,3.501742679305344,11.10009613221374,3.683701852839695,-0.9401216,-0.05100725,-2.3075435,311.0761,-67.716354,1.1127435
2408700766000.0,3.414296953564885,10.99078902259542,3.596256089053435,-0.95630956,-0.13255776,-2.2956316,311.23035,-67.50725,0.6959894
2408705812000.0,3.3081629281929787,10.88145923325436,3.520010630217532,-0.9999864,-0.19120082,-2.2809708,311.40842,-67.29073,0.2999372
2408710751000.0,3.0025424376265346,10.789773394572476,3.5862284404049105,-1.0216721,-0.23151793,-2.2699752,311.60297,-67.07413,-0.07865991
2408715833000.0,2.678860749780666,10.70059509179529,3.649754532672624,-1.0528263,-0.28893927,-2.2855523,311.83093,-66.84024,-0.46494627
2408720750000.0,2.3345858306742486,10.631740115962632,3.6956578232656376,-1.0781772,-0.2666427,-2.3283129,312.05078,-66.60014,-0.8517525
2408726184000.0,1.9541119827132407,10.555645355199024,3.74638763434606,-1.1016954,-0.2678644,-2.3515258,312.29407,-66.325035,-1.2775544
2408730775000.0,1.5596614768718802,10.537400257626178,3.830747457016084,-1.0958922,-0.30665436,-2.3887885,312.54816,-66.04832,-1.7068163
2408735817000.0,1.1088469027454242,10.52847328896284,3.9334082258458127,-1.1227703,-0.34300083,-2.450486,312.80862,-65.7218,-2.2247128
2408740744000.0,0.6726484548246419,10.637683657455012,4.107651720538009,-1.1731668,-0.37232238,-2.5079072,313.08142,-65.385605,-2.7357945
2408745745000.0,0.2329348089680499,10.8311574344473,4.336302794160852,-1.2351695,-0.4098906,-2.5717428,313.37405,-65.03319,-3.2476087
2408751061000.0,-0.2352618836769596,11.031457773871734,4.55753631824228,-1.2932017,-0.43127087,-2.6215281,313.6762,-64.61924,-3.8556614
2408755813000.0,-0.6546796252978623,11.204413868503565,4.730492096826604,-1.3561208,-0.48258355,-2.6847527,314.0055,-64.17892,-4.4608994
2408760723000.0,-1.0759036429925597,11.356756073387016,4.862649711446336,-1.4013249,-0.5861252,-2.7605,314.3603,-63.667046,-5.155567
2408765742000.0,-1.4776375298440527,11.449840592905922,4.887145664560188,-1.4159856,-0.6786713,-2.8393016,314.73407,-63.138515,-5.8438025
2408771092000.0,-1.7121420808544303,11.599627007911392,4.798199920886075,-1.4288138,-0.754724,-2.9095511,315.1432,-62.542072,-6.6093273
2408776062000.0,-1.6368307815161105,11.815290835586882,4.54145709867664,-1.4315627,-0.7984009,-2.9562824,315.57483,-61.937977,-7.3598094
2408780805000.0,-1.5649592537974684,12.021104424050634,4.29644075949367,-1.3952162,-0.82924956,-2.9862146,316.03333,-61.309105,-8.166914
2408785810000.0,-1.3570525229287091,12.154714341682723,4.155024296017984,-1.317331,-0.8396343,-3.0143147,316.50308,-60.684925,-8.95944
2408790782000.0,-1.0512344239471512,12.22461612716763,4.102598048142031,-1.2391402,-0.8402451,-3.0085113,316.97693,-60.070305,-9.726011
2408795801000.0,-0.748637660491036,12.235056535635431,4.104617743301246,-1.169807,-0.8738427,-2.990491,317.47717,-59.555542,-10.430829
2408801101000.0,-0.439334631435132,12.14540307807118,4.1987536163031,-1.149343,-0.93615097,-2.946203,317.9782,-59.049564,-11.105805
2408805813000.0,-0.1588292086360211,12.051346510173325,4.256252087113791,-1.1527027,-1.0491611,-2.8997774,318.5235,-58.585903,-11.678086
2408810895000.0,0.1822595577000753,11.849627492238133,4.135220523165034,-1.2027937,-1.149343,-2.8674014,319.07495,-58.11912,-12.221983
2408815719000.0,0.5060321292871137,11.658149227279578,4.0203334187792015,-1.2644911,-1.2281445,-2.8069258,319.6688,-57.651833,-12.660127
2408820804000.0,0.9420911228225008,11.178215793879907,3.845654283833718,-1.2922854,-1.2709051,-2.7424796,320.27197,-57.189415,-13.068836
2408826098000.0,1.510809989186737,10.34186466108545,3.598930653810624,-1.2880094,-1.3090842,-2.6627617,320.88098,-56.73421,-13.437388
2408830888000.0,1.9951733443554385,9.614836779585431,3.3865001265339827,-1.2605205,-1.3350459,-2.5561657,321.50653,-56.315876,-13.699589
2408835798000.0,2.045655475497564,9.30806092030721,3.3282515261541,-1.2116512,-1.3891076,-2.4920247,322.14166,-55.915802,-13.9347105
2408840770000.0,2.096775059212156,8.997411312907754,3.2692674037327607,-1.1844677,-1.4489723,-2.4260514,322.81146,-55.52177,-14.048786
2408845803000.0,2.154088374735737,8.78366500861043,3.2674341302135104,-1.151481,-1.4605788,-2.3561072,323.4714,-55.158188,-14.137978
2408850970000.0,2.216440446426321,8.627784738956949,3.3020742986489324,-1.1209377,-1.4474452,-2.2971587,324.1305,-54.815617,-14.201809
2408855852000.0,2.275353319271964,8.480502471403572,3.334803793965698,-1.0998629,-1.423316,-2.2235496,324.7943,-54.4704,-14.237417
2408860751000.0,2.3818723988960797,8.229707321279026,3.300965349409973,-1.0555751,-1.3313808,-2.1395555,325.42578,-54.155064,-14.262515
2408865760000.0,2.5051305035972598,7.942105013418348,3.246183916577845,-1.0064005,-1.2339478,-2.0482311,326.0355,-53.863575,-14.267153
2408870808000.0,2.5752088687200487,7.654512313148035,3.252384437649212,-0.9272934,-1.1319333,-1.9401081,326.6264,-53.583065,-14.244446
2408876114000.0,2.6194840337631784,7.353441542214864,3.292232095434347,-0.8249735,-1.0424415,-1.8536706,327.18362,-53.33632,-14.213676
2408880797000.0,2.639480279921966,7.08434775949594,3.32658977027312,-0.7281514,-0.98899084,-1.7418822,327.72128,-53.111225,-14.141378
2408886692000.0,2.627573660497733,6.739055609701572,3.3682629382579354,-0.6417139,-0.91904676,-1.6316211,328.21747,-52.92556,-14.061897
2408890850000.0,2.5393668799583704,6.520008684646645,3.3691699102091386,-0.537256,-0.8713993,-1.4914275,328.7068,-52.74899,-13.946531
2408895748000.0,2.367341196937258,6.282892227574586,3.345923222529488,-0.43371433,-0.8170323,-1.4321736,329.17102,-52.602856,-13.833172
2408901091000.0,2.121947786667209,5.994564609777923,3.296788396965753,-0.3903429,-0.8313876,-1.3747523,329.63428,-52.449123,-13.687181
2408905789000.0,1.8511110866916127,5.71274804978443,3.230909160424632,-0.32650748,-0.8194757,-1.2883148,330.06116,-52.341537,-13.530881
2408911130000.0,1.5426725696739712,5.395712324639231,3.154019766948156,-0.25259277,-0.77518797,-1.1838568,330.47614,-52.223103,-13.39656
2408915747000.0,1.2685373680064138,5.168841680171032,3.05949030707643,-0.17134771,-0.82833326,-1.0571023,330.8909,-52.138523,-13.219978
2408920927000.0,0.9840519992087998,4.938023819664223,2.982689174189502,-0.09621128,-0.84299403,-0.9550878,331.27124,-52.03002,-13.117135
2408926083000.0,0.8363562797954458,4.847500797279043,3.0779768201563105,-0.03145956,-0.818254,-0.8762862,331.635,-51.953796,-12.985842
2408930859000.0,0.6985505163855664,4.7615733350588005,3.162802824444668,0.06383542,-0.8029824,-0.8222246,331.98575,-51.884342,-12.895437
2408935771000.0,0.5425185480028143,4.643367133832546,3.200628680470399,0.15485434,-0.7684685,-0.7360926,332.30487,-51.844193,-12.785391
2408940802000.0,0.3877044564763562,4.524335480874266,3.240531722901393,0.23823744,-0.70463306,-0.66523224,332.61557,-51.791756,-12.702706
2408945749000.0,0.3095541287719941,4.437501894244868,3.296973719684751,0.32742378,-0.61850107,-0.5821546,332.89383,-51.77612,-12.606224
2408951694000.0,0.2197816694288923,4.331262825263522,3.367520306505962,0.41691554,-0.52778757,-0.5198463,333.15186,-51.751804,-12.5454
2408956692000.0,0.2115105667176429,4.211331725833765,3.4709090796008293,0.52778757,-0.39003745,-0.44684792,333.36053,-51.766598,-12.485294
2408960804000.0,0.2047056898971833,4.112660921340936,3.5559700309745983,0.6377433,-0.2733622,-0.39187005,333.5557,-51.774548,-12.445456
2408965763000.0,0.1862326853167378,4.055605918558424,3.6604004290915846,0.7309003,-0.17898351,-0.35643986,333.71326,-51.812252,-12.412722
2408970813000.0,0.1592795697677874,4.046621552963031,3.768212910050158,0.8246681,-0.09407325,-0.33292156,333.83716,-51.882656,-12.388088
2408976109000.0,0.2049779563222678,4.064673870794479,3.887819223722492,0.91965765,0.027794369,-0.29749137,333.94308,-51.931755,-12.377432
2408980850000.0,0.3277591576837001,4.111245928664677,4.002132629494592,0.9972375,0.11575896,-0.2144137,334.024,-52.006634,-12.3586
2408985722000.0,0.4251226748041045,4.1642252350746265,4.103021325093284,1.0910053,0.13958271,-0.13072516,334.09793,-52.08388,-12.343241
2408990818000.0,0.4402978687593283,4.235043155472637,4.1586639089241295,1.1337659,0.19364429,-0.0870483,334.13623,-52.170166,-12.337513
2408995733000.0,0.4574924751820128,4.317745680942185,4.1749547648822265,1.2183707,0.24281894,-0.0061086523,334.16684,-52.294098,-12.264849
2409001113000.0,0.4820098165889444,4.440332238639067,4.10957502850345,1.2962561,0.28619036,0.09896017,334.17386,-52.4317,-12.184565
2409005787000.0,0.5033098265770481,4.546832158838924,4.052774863478468,1.3579534,0.3222314,0.21777347,334.16055,-52.594257,-12.0790415
2409010773000.0,0.3491309413034476,4.881331710323868,3.860864766473549,1.4407257,0.35338554,0.33353242,334.1203,-52.78997,-11.9566145
2409015784000.0,0.1531443129972457,5.268747211862475,3.637531221274575,1.4990633,0.4092797,0.44226643,334.0463,-53.002747,-11.818876
2409020780000.0,0.0002362466020814,5.488553119671078,3.513527222581267,1.5558738,0.47067168,0.5503896,333.93555,-53.28753,-11.646242
2409025826000.0,-0.1363615291388924,5.640673389849672,3.429705888250032,1.5995506,0.54428095,0.6722572,333.78824,-53.591133,-11.456979
2409033112000.0,-0.3359800497155673,5.871014145937405,3.305510819828729,1.6679676,0.6435465,0.8323039,333.5558,-54.0283,-11.284921
2409035787000.0,-0.4300004937465592,6.048608265878276,3.232383753868896,1.7647897,0.66981375,0.8894198,333.32242,-54.47994,-11.1085
2409040743000.0,-0.6041931369680905,6.37763871762667,3.0969004869915384,1.7993035,0.7458665,0.9969321,332.9975,-54.99597,-10.950627
2409045742000.0,-0.7196660859996854,6.69042162962089,3.0149118898065126,1.9037615,0.8191703,1.1154399,332.66006,-55.55511,-10.778952
2409051130000.0,-0.8048946769388077,7.015102111263174,2.9621513173666827,1.9837849,0.8686504,1.2269229,332.2983,-56.117725,-10.590358
2409055817000.0,-0.8685341126710334,7.328271565065503,2.9379189147743814,2.0567832,0.89369583,1.3500122,331.8837,-56.775692,-10.408264
2409060761000.0,-0.8379032100412421,7.944718558951965,3.11404673583212,2.1022928,0.88606006,1.4651603,331.45584,-57.446568,-10.201502
2409065744000.0,-0.8070306801455603,8.566028302183406,3.291563914701601,2.1368067,0.8512407,1.568091,330.9983,-58.19411,-9.976613
2409070737000.0,-0.8496199825700814,8.974897248178312,3.3863433552850406,2.1303926,0.7837401,1.6557503,330.54514,-58.93847,-9.719385
2409076043000.0,-0.945455362542649,9.262403756536647,3.4299048192713246,2.1184807,0.69027776,1.7394388,330.10233,-59.68579,-9.427794
2409080744000.0,-1.021105975967221,9.48521147971003,3.46862414941297,2.0971005,0.58551437,1.813048,329.66702,-60.475887,-9.065302
2409085776000.0,-1.0780642430226146,9.640897380584668,3.51039359547711,2.05434,0.5357288,1.861001,329.2443,-61.243717,-8.684921
2409090712000.0,-1.1339358658734535,9.793613121188244,3.551366168166417,2.0390682,0.43310347,1.8784106,328.8602,-62.01885,-8.290068
2409096116000.0,-1.1555586082162692,9.920994765272786,3.575255750212349,1.9929478,0.22540927,1.91323,328.51862,-62.760025,-7.862624
2409100881000.0,-1.1630126575873898,10.021623672901011,3.5901637711205487,1.881465,0.14660765,1.9156734,328.1827,-63.45867,-7.447178
2409105763000.0,-1.157304045504114,10.140986485773768,3.623012280103103,1.8490891,0.017715093,1.9168952,327.91803,-64.15503,-7.0074883
2409110776000.0,-1.1192284542976108,10.302807934767522,3.699163363120849,1.7757853,-0.10598512,1.9156734,327.6817,-64.79083,-6.5655084
2409115727000.0,-1.067605791884058,10.502366703933747,3.811608751552795,1.7214183,-0.2406809,1.9172006,327.48923,-65.412544,-6.111864
2409120746000.0,-0.976743801978576,10.81389349032316,4.027947033594383,1.6893479,-0.4007276,1.9257526,327.34323,-66.002304,-5.647141
2409125909000.0,-0.8921675268280663,11.124950471057572,4.232949,1.6783522,-0.5571091,1.9254472,327.24185,-66.56439,-5.1648946
2409130785000.0,-0.910431163814925,11.314892487953692,4.232949,1.702176,-0.70371675,1.9404135,327.184,-67.110596,-4.6689205
2409135770000.0,-0.9291030732446808,11.50908054255319,4.232949,1.7321084,-0.84574294,1.9391917,327.17914,-67.619675,-4.1406965
2409140736000.0,-0.93852705,11.699140289077018,4.179656517034895,1.7550159,-0.97524637,1.9086485,327.21606,-68.113785,-3.6134348
2409145749000.0,-0.93852705,11.887486451992563,4.070613571278134,1.7669277,-1.078788,1.8671097,327.2893,-68.59393,-3.0888402
2409151002000.0,-0.9715017566761364,11.965512394886364,3.912343197159091,1.7687603,-1.1478158,1.8112154,327.3959,-69.07601,-2.580312
2409155810000.0,-1.0238259776988636,11.95679197594697,3.7379292636742414,1.7592919,-1.1872166,1.72264,327.53357,-69.53742,-2.0955539
2409160764000.0,-1.0725833492739207,11.881694852794908,3.5158750158344936,1.7253889,-1.208597,1.6114625,327.6941,-70.00735,-1.6370013
2409165858000.0,-1.116253328665208,11.721571291028448,3.2344461584245074,1.6649132,-1.2034045,1.5048665,327.86984,-70.44804,-1.2102048
2409170736000.0,-1.1071302707346522,11.519167473762424,2.9842904563945387,1.6154331,-1.1609493,1.4110987,328.05362,-70.90009,-0.8334568
2409175982000.0,-1.0278065313272036,11.234535309742732,2.7416530899972136,1.5482379,-1.0925325,1.3185526,328.24185,-71.3141,-0.49615884
2409180752000.0,-0.9587145521670644,10.978090226650757,2.563354779077168,1.502423,-1.0512991,1.244638,328.4365,-71.74862,-0.19748424
2409185780000.0,-0.8935922561670645,10.713770626650756,2.482909579077168,1.4288138,-0.97219205,1.1921035,328.6113,-72.143524,0.06616149
2409190717000.0,-0.8296485856515513,10.454234853937947,2.4039203284009547,1.3839152,-0.9053023,1.0647382,328.79456,-72.551315,0.2971077
2409195810000.0,-0.5235900352391589,10.237973404155715,2.204247353983246,1.325883,-0.86742866,0.93370754,328.97076,-72.924515,0.50291324
2409201169000.0,-0.1231629567227331,10.02722201461892,1.9555610136169517,1.2718215,-0.8622363,0.8179486,329.14862,-73.277794,0.6706476
2409205764000.0,0.199692251737354,10.000408119649803,1.8102866464494165,1.241889,-0.84665924,0.6805039,329.3262,-73.613,0.8045374
2409211673000.0,0.5685138885782101,10.31418176770428,1.7772578081128405,1.2522738,-0.7828238,0.5164866,329.5011,-73.93951,0.89159596
2409215724000.0,0.8597328152139144,10.528689051579368,1.6681401323070773,1.2745703,-0.70188415,0.3567453,329.6753,-74.296104,1.0290797
2409220742000.0,1.316086207736905,10.792893473010796,1.3174686086765297,1.2977833,-0.6236934,0.22418754,329.84338,-74.65136,1.1205726
2409225898000.0,1.7621071202595688,11.056939194236692,1.0257906480642325,1.3200798,-0.4728097,0.08460484,329.97998,-75.0253,1.2146719
2409230817000.0,2.135160249802024,11.291824510045462,0.9048937975216308,1.3695599,-0.27152961,-0.016187929,330.0873,-75.40822,1.2707669
2409235782000.0,2.5117019835239773,11.528906354524125,0.7828663807816396,1.432479,-0.108123146,-0.09193522,330.17285,-75.87099,1.3755684
2409240744000.0,2.9807199322545848,11.891558488084732,0.7201651533686378,1.5115861,0.01740966,-0.15577064,330.21796,-76.34489,1.4417316
2409245760000.0,3.5318977083063645,12.36265075992939,0.7060323999705795,1.5974126,0.1432479,-0.18234327,330.2187,-76.82989,1.4845771
2409251019000.0,4.038927843148423,12.748505620851908,0.7411795431649331,1.6710218,0.2751948,-0.1740966,330.17978,-77.35832,1.6083621
2409255790000.0,4.442504779692917,13.012528129271915,0.8128427279346211,1.6957619,0.3894266,-0.12095132,330.1078,-77.88263,1.7280042
2409260803000.0,4.856842994539646,13.259510955852454,0.8889268065059541,1.6811012,0.4877759,-0.00580322,329.99252,-78.40143,1.9596553
2409265754000.0,5.173583950517959,13.213605997095556,0.971554965340304,1.6035212,0.56138515,0.14905111,329.84607,-78.88356,2.2065868
2409271072000.0,5.470125371007177,13.123095212871675,1.0608993525041406,1.5012014,0.5891795,0.34513888,329.67093,-79.293816,2.5784795
2409276037000.0,5.260113976969793,12.579315521649972,1.1509042020979572,1.3891076,0.605062,0.55924714,329.47058,-79.635315,2.985281
2409281720000.0,5.019732355154193,11.956898606199228,1.2539248587428031,1.2657127,0.5656612,0.76052725,329.26715,-79.8569,3.4940877
2409285835000.0,4.671311816479776,11.681388623948738,1.338314543752503,1.1462886,0.5180137,0.8512407,329.05917,-79.99736,4.017502
2409290807000.0,4.113536747757309,11.485929487384862,1.447962675030036,1.0778717,0.35613444,0.9831876,328.8866,-80.04689,4.6015944
2409295759000.0,3.5685214075757576,11.405687393939395,1.458286434848485,0.93951076,0.10567969,1.0424415,328.7567,-79.98577,5.148959
2409300925000.0,3.011329966496516,11.445773076000648,1.3620807560444013,0.7825184,-0.15424347,1.0711522,328.67316,-79.854935,5.7204723
2409305968000.0,2.461391023421639,11.48188540282248,1.268062638169514,0.6560693,-0.38637227,1.0906999,328.6592,-79.69538,6.208284
2409310764000.0,1.8473183198316416,11.470513456301063,1.177088926293637,0.5833763,-0.54550266,1.0989466,328.69843,-79.49117,6.699308
2409315841000.0,1.1972667943674176,11.458475221837087,1.080785019872906,0.55741453,-0.61819565,1.0760391,328.791,-79.349045,7.065221
2409320737000.0,0.509100101892581,11.408834770818393,1.0843954182006534,0.56169057,-0.73945236,1.026559,328.94345,-79.19324,7.42709
2409326018000.0,-0.2767910146346323,11.328230189019044,1.1569392051557892,0.54611355,-0.8756753,0.94225967,329.12296,-79.03319,7.7689676
2409330781000.0,-1.0442166957096106,11.226946073754789,1.2125126034083653,0.50823987,-0.9831876,0.86376345,329.3426,-78.98219,7.958657
2409335798000.0,-2.4517190861031293,10.828089768199234,1.170325872621328,0.44898596,-1.0320568,0.7874053,329.58643,-78.93862,8.124125
2409340772000.0,-3.847157971855045,10.432652003831418,1.1285007183588762,0.38423425,-1.0360274,0.6817256,329.8604,-79.00974,8.09121
2409345742000.0,-4.584623896109916,10.170523754510842,1.0538783687800033,0.3213151,-0.98654735,0.56382865,330.13354,-79.08752,8.032966
2409351945000.0,-4.909133466321801,9.964018070435358,0.9309580326932628,0.23793201,-0.88331115,0.42577308,330.3941,-79.17406,7.937767
2409355823000.0,-5.023216735263585,9.850487555393348,0.8748952647080291,0.16310102,-0.7254025,0.30665436,330.6454,-79.46837,7.503327
2409360877000.0,-4.77591152160584,9.77197798978102,0.8945226766058394,0.07788532,-0.573297,0.1777618,330.8696,-79.75729,7.029995
2409365747000.0,-4.537609901005678,9.696326706731549,0.9134355171167884,-0.004581489,-0.45662177,0.06658431,331.06622,-80.07383,6.478582
2409370741000.0,-4.125777076294278,9.732854155313351,0.908413610081744,-0.103847094,-0.3811799,-0.0067195175,331.2306,-80.35659,5.90535
2409375929000.0,-3.6211786854760137,9.82310762075799,0.8920038988275122,-0.17073683,-0.34238997,-0.06383542,331.37225,-80.6109,5.3108664
2409380754000.0,-3.131418849433237,9.900871198366955,0.8596871998174832,-0.21166481,-0.34300083,-0.08093964,331.4996,-80.78232,4.769566
2409385777000.0,-2.567660586743516,9.965564639769452,0.7811307126801152,-0.20708331,-0.38606682,-0.11575896,331.62845,-80.925,4.2149878
2409390799000.0,-1.9504968586589797,10.00504533376041,0.6547382346401879,-0.18875736,-0.48349985,-0.15454891,331.77087,-80.996414,3.772925
2409395743000.0,-1.1315418043775358,9.944381830877644,0.3413110091522528,-0.13988814,-0.600786,-0.18784106,331.93054,-81.056145,3.3314471
2409400926000.0,-0.2729972966225356,9.880785767883836,0.012732265280091,-0.06047566,-0.7290677,-0.20005837,332.11993,-81.09641,3.0046144
2409405802000.0,0.4085654653169014,9.804649127934272,-0.2676560161737089,0.021991149,-0.8558222,-0.19150625,332.34103,-81.13861,2.6837695
2409410804000.0,0.9145850604166668,9.701571430555555,-0.5112950897222223,0.1001819,-0.92087936,-0.1695151,332.57922,-81.18842,2.3706148
2409415730000.0,1.312458744720497,9.602999683229816,-0.6440452294409938,0.16890424,-0.96577793,-0.13255776,332.85065,-81.28973,2.2947137
2409421243000.0,1.5365450736024844,9.499154966149067,-0.5565968592049689,0.21166481,-0.9896017,-0.099265605,333.13202,-81.40205,2.2262108
2409425931000.0,1.6111865317171536,9.480645444882596,-0.4396945413398458,0.20952678,-1.022283,-0.09040806,333.4299,-81.54185,2.2623167
2409430887000.0,1.5516348928212942,9.544450724681845,-0.2652933321804983,0.19364429,-1.0219775,-0.076052725,333.7221,-81.68409,2.3075228
2409435798000.0,1.4696022682252097,9.631615076563412,-0.0650748969842197,0.15668693,-1.0216721,-0.061391957,334.02066,-81.78994,2.3927472
2409440782000.0,1.283626051120203,9.826889711279954,0.260383550917592,0.1282817,-1.0149527,-0.07269296,334.3164,-81.891945,2.4725382
2409445743000.0,1.1038244664936931,10.024304712677631,0.5819037998882325,0.09590584,-1.0137309,-0.09468412,334.61053,-81.94655,2.537841
2409450962000.0,0.9561867229123424,10.255736905316942,0.901120522497206,0.059864793,-1.0235047,-0.11881329,334.90497,-81.99232,2.598049
2409455824000.0,0.8186479780775986,10.471338231358777,1.1985015735270637,0.0106901415,-1.0100657,-0.15302174,335.18808,-81.976654,2.6062527
2409460759000.0,0.6661618613830642,10.648361392165612,1.4172674740787008,-0.0711658,-0.9505063,-0.18784106,335.46033,-81.94493,2.605786
2409465742000.0,0.504351699568127,10.801655225930222,1.5875939461586508,-0.17073683,-0.86742866,-0.21563543,335.72165,-81.89792,2.5961595
2409470736000.0,0.3456884746661193,10.816022946451376,1.6175577895730706,-0.30024028,-0.7855727,-0.24404067,335.96332,-81.7617,2.5351439
2409476158000.0,0.1798984196524357,10.574443218846923,1.3901885788998356,-0.41508293,-0.75716746,-0.27763826,336.19687,-81.60601,2.4652987
2409480790000.0,0.0971195172686305,10.373890738546274,1.209838512664608,-0.50793445,-0.71929383,-0.2874121,336.40393,-81.39413,2.3551702
2409485772000.0,0.2563839835091379,10.182773269298172,1.0744637155286656,-0.5537493,-0.70463306,-0.3115413,336.61093,-81.1679,2.2344568
2409490765000.0,0.416000097507302,9.99123382249854,0.9387900177968788,-0.60231316,-0.7284568,-0.31948254,336.82437,-80.9599,2.0930536
2409495766000.0,0.6157150165604396,9.78765425934066,0.818122410967033,-0.6206391,-0.7473936,-0.30970868,337.03174,-80.747406,1.9524883
2409501127000.0,0.8413908856632653,9.566008469387755,0.6931946913265306,-0.6282749,-0.77549344,-0.27183503,337.2467,-80.523285,1.8225737
2409505809000.0,1.0137419507398568,9.368916278838505,0.5846423468098647,-0.6383542,-0.8216137,-0.21074851,337.4753,-80.31406,1.7485522
2409510830000.0,1.1246782494988068,9.147043601431982,0.4698806611933174,-0.6560693,-0.86101454,-0.14355333,337.7067,-80.100586,1.6900859
2409515723000.0,1.2327864569928402,8.930827108591886,0.3580445871599045,-0.65179324,-0.8979719,-0.0870483,337.95218,-79.90675,1.7058097
2409520806000.0,1.1881430807580176,8.742438491211995,0.270076327816743,-0.65026605,-0.91324353,-0.034208454,338.19812,-79.70756,1.7407757
2409525957000.0,1.0813056341107872,8.565746104539777,0.192002811753436,-0.6291912,-0.9251554,0.008857546,338.4496,-79.516396,1.7906754
2409530743000.0,0.949148368068331,8.529487128777925,0.1752140351379763,-0.59589905,-0.9379836,0.04734206,338.70816,-79.346855,1.8874253
2409535771000.0,0.7412451930354796,8.759987940491834,0.2746459962117514,-0.54000485,-0.93370754,0.07544186,338.96207,-79.190735,1.9922892
2409540799000.0,0.5344539431425638,9.021476687050695,0.3489879324190085,-0.4801401,-0.9098838,0.08582657,339.2132,-79.06193,2.0805528
2409545740000.0,0.3356531702642144,9.401407342078237,0.3224811627018952,-0.40286562,-0.8689558,0.07574729,339.4564,-78.9555,2.1687589
2409550983000.0,0.1366707670725806,9.799207849462366,0.288429932301564,-0.33017266,-0.79809546,0.048563786,339.68213,-78.8591,2.204966
2409555794000.0,0.0653603791451613,10.114474921146954,0.2021068263202997,-0.258396,-0.7031059,0.009162978,339.88922,-78.78727,2.2306175
2409560782000.0,-0.008573567016129,10.441340885304658,0.1126078338791137,-0.2180789,-0.57726765,-0.018020526,340.06952,-78.7565,2.2012343
2409565745000.0,0.0338016988320431,10.714128335811774,0.0333490973562843,-0.19822577,-0.45570546,-0.052534413,340.22568,-78.74299,2.1540182
2409570775000.0,0.1564624688473212,10.954543174882868,-0.0402473665997148,-0.16371189,-0.34972036,-0.06994407,340.35037,-78.74533,2.0984528
2409576047000.0,0.3313007705481481,11.071892744444446,-0.0073682319135802,-0.14019357,-0.32375857,-0.076358154,340.46884,-78.79068,2.0162363
2409580794000.0,0.510900198508642,11.113050992592592,0.0749481667078189,-0.12950343,-0.3115413,-0.07696902,340.56134,-78.84086,1.9273051
2409585822000.0,0.7010822349296028,11.132754796789524,0.1610468319917496,-0.09437868,-0.34880406,-0.063224554,340.66635,-78.92122,1.8682349
2409590740000.0,0.8869260499237736,11.065175187606492,0.241297574895525,-0.07513642,-0.44226643,-0.053145275,340.7833,-78.99812,1.8115426
2409596138000.0,1.0866431741559952,10.98541774644936,0.3226926878603026,-0.056199603,-0.5177083,-0.03848451,340.9074,-79.054726,1.8069972
2409600770000.0,1.1761545520372525,10.809837805122234,0.2641660215785797,-0.041233405,-0.5757405,-0.02687807,341.05173,-79.11388,1.8083581
2409606812000.0,1.2929135643771827,10.58081060186263,0.1878235954831199,-0.02565634,-0.63255095,0.030543262,341.21817,-79.14623,1.8736119
2409610741000.0,1.3184092977819035,10.456513231581004,0.1153858339319914,-0.03268129,-0.6389651,0.04153884,341.3875,-79.177086,1.9280721
2409615747000.0,1.2856175520128983,10.330030776626929,-0.0064119852863005,-0.026572637,-0.6377433,0.056199603,341.56628,-79.21187,2.0005572
2409620723000.0,1.2533632110227084,10.22563239391679,-0.113129502133267,-0.015577064,-0.6301075,0.07391469,341.74844,-79.2477,2.1035066
2409626075000.0,1.2193800957566716,10.157666074672631,-0.1980873523968175,0.0009162979,-0.59223384,0.0870483,341.92004,-79.28468,2.2053764
2409631288000.0,1.1862617898117014,10.092691698049764,-0.2791474980968393,0.004276057,-0.5534439,0.086132,342.0904,-79.3412,2.3018148
2409635829000.0,1.1570161236634164,10.063446222763954,-0.3120488524731002,0.028710667,-0.49480084,0.08582657,342.24274,-79.40541,2.3969657
2409640852000.0,1.124666204909213,10.031096515131138,-0.3484424889038332,0.047036625,-0.44837508,0.07574729,342.39142,-79.484665,2.4813073
2409645811000.0,1.1175283301452588,10.015133710543497,-0.3550936818655133,0.08307768,-0.40439278,0.058948494,342.52377,-79.5739,2.558947
2409651205000.0,1.130174957989228,10.01091807989228,-0.3382315026032316,0.10415252,-0.35735616,0.051923547,342.64142,-79.66184,2.632311
2409655791000.0,1.1566495954221934,10.008188248544162,-0.3137047205402782,0.13652839,-0.33567044,0.0580322,342.75452,-79.76979,2.6960442
2409660809000.0,1.312121635182789,10.01207512868004,-0.2048742683565189,0.1563815,-0.3182608,0.054061573,342.85574,-79.878876,2.7515278
2409665717000.0,1.464185559285021,10.015876804189585,-0.0984294976674215,0.16798794,-0.30482176,0.06536258,342.9518,-79.98515,2.8144512
2409670816000.0,1.5625053965826716,10.035909966344494,-0.009709037342078,0.16707164,-0.301462,0.08368854,343.0451,-80.090454,2.8766003
2409676372000.0,1.6313810975837073,10.06805162771833,0.0729417463237832,0.18753563,-0.28496864,0.10415252,343.12967,-80.200874,2.939988
2409680724000.0,1.6764925256048189,10.084377,0.1250498131588822,0.19364429,-0.2733622,0.13744467,343.21683,-80.26304,3.0492203
2409685779000.0,1.7099550582403475,10.084377,0.1585123707524439,0.18753563,-0.27488935,0.15974127,343.3019,-80.32362,3.158908
2409690784000.0,1.7129737337360271,10.090213662014856,0.1994692683038256,0.18203785,-0.25381452,0.17623462,343.37772,-80.359116,3.2870176
2409695756000.0,1.6435483476359092,10.110049535930017,0.2589767278025411,0.18845193,-0.23701571,0.20952678,343.45264,-80.3894,3.423934
2409700795000.0,1.5731874223425677,10.130152707422065,0.3192860778455877,0.19028452,-0.204029,0.23854288,343.51767,-80.40337,3.567495
2409705814000.0,1.4814633598007618,10.13988312843051,0.3465225288543803,0.16584991,-0.2012801,0.26236662,343.5845,-80.40621,3.7168438
2409710795000.0,1.3603329704072664,10.135224173747435,0.3278870798417814,0.14446963,-0.20372356,0.27000242,343.64224,-80.40613,3.8657627
2409715731000.0,1.2542553510743468,10.116888692121456,0.3023703074891556,0.10873401,-0.17715092,0.28069258,343.68753,-80.38167,3.9978127
2409720741000.0,1.1719738968223543,10.073328023302734,0.2636496029193987,0.106901415,-0.13133603,0.2782491,343.7276,-80.359726,4.1250615
2409725737000.0,1.0863536052906253,10.035830133965336,0.2445400987608924,0.09865474,-0.10323623,0.2724459,343.7646,-80.337875,4.2281637
2409730793000.0,0.993620983017332,10.008010272239778,0.2584499908915063,0.07086037,-0.077579886,0.27152961,343.78864,-80.30955,4.3281384
2409735776000.0,0.9048779973361072,9.984361018469658,0.2879748016399431,0.035430185,-0.08368854,0.267559,343.8142,-80.29049,4.409472
2409740756000.0,0.8225994672975442,9.969841493403695,0.3557335690846356,0.0143553335,-0.08827003,0.25228736,343.83228,-80.26927,4.4846697
2409745717000.0,0.7648152498022294,9.959879,0.3982381266307083,-0.008552114,-0.08155051,0.23701571,343.84665,-80.24367,4.5382376
2409750751000.0,0.7604814120460266,9.959879,0.3852366043113988,-0.01985312,-0.064446285,0.23915374,343.85898,-80.21558,4.5911355
2409755780000.0,0.7679060191288771,9.96205944423494,0.3695706576449514,-0.019242255,-0.042760566,0.22785273,343.86725,-80.18234,4.6183133
2409760882000.0,0.8876743507966438,9.98509179720939,0.3281123934307532,-0.009773844,-0.01863139,0.23671028,343.8688,-80.14611,4.6503334
2409766108000.0,1.0011190333760862,10.007560920148943,0.2891228819445594,0.0030543262,-0.00030543262,0.25778514,343.8666,-80.11446,4.680999
2409770750000.0,0.8999583251985933,10.002962612949938,0.3305068112908564,0.007941248,0.032986723,0.25686884,343.8538,-80.08549,4.7057023
2409775921000.0,0.7825137487685971,9.993971950407666,0.3723717128553417,0.0033597588,0.08857546,0.2883284,343.8313,-80.04799,4.76872
2409780776000.0,0.6105546396612591,9.935349569975624,0.3567390699117425,-0.0018325958,0.10170906,0.28985557,343.8127,-80.01605,4.8223877
2409785764000.0,0.4338848072766244,9.875121262335044,0.3406781794889468,-0.015577064,0.0983493,0.28527406,343.77914,-79.97904,4.8590455
2409790781000.0,0.3577480789812332,9.832487873100982,0.2344049712243074,0.009162978,0.084910266,0.25045475,343.7461,-79.95491,4.88674
2409795759000.0,0.334079461012809,9.799352118359646,0.0829257707516631,0.050396383,0.05100725,0.22266038,343.7198,-79.93172,4.9155
2409800809000.0,0.3777697540679378,9.799087668548683,-0.0350186352341725,0.12461651,0.04886922,0.20433442,343.68604,-79.947586,4.8948827
2409805775000.0,0.4570044398009996,9.816695273324694,-0.1318610360579415,0.18509217,0.10751228,0.18845193,343.646,-79.97367,4.866224
2409810831000.0,0.49799395,9.84955499880335,-0.1700838231581571,0.21655174,0.20677789,0.20005837,343.59772,-80.039635,4.8361025
2409816062000.0,0.49799395,9.899511361786995,-0.145105626017152,0.22082779,0.29840767,0.19853121,343.53656,-80.11656,4.7961845
2409820744000.0,0.4797681476331361,9.937519423929396,-0.088510790514492,0.20341812,0.37201694,0.20525073,343.4543,-80.20433,4.776265
2409825750000.0,0.4413034062130178,9.971175749473472,0.0076510705666432,0.16982053,0.40408736,0.22388211,343.358,-80.28582,4.757687
2409830806000.0,0.4233425208388815,9.990572061834222,0.0770910627371837,0.16279559,0.36926803,0.22968534,343.26016,-80.36563,4.736534
2409835803000.0,0.4273251498002663,9.994554773968042,0.1169173814613848,0.13897185,0.3210097,0.24037547,343.15674,-80.4281,4.7217607
2409840760000.0,0.4306703082812034,9.995898078194816,0.1472230796647304,0.10598512,0.2733622,0.25686884,343.06213,-80.46989,4.703823
2409845738000.0,0.4271200170688115,9.96749589678284,0.0726669115625558,0.08979719,0.27030787,0.2666427,342.96902,-80.5084,4.6876273
2409850810000.0,0.4235026854036342,9.938557394548704,-0.0032971070421507,0.09101892,0.28955013,0.2669481,342.8801,-80.53304,4.6740484
2409855754000.0,0.4121006663837123,9.904560784582548,-0.0587093381009769,0.1001819,0.30909783,0.2687807,342.79202,-80.55358,4.664032
2409860828000.0,0.3881653324899433,9.86067928634759,-0.0866338948657745,0.1151481,0.31703907,0.26358834,342.70267,-80.576385,4.6520557
2409866164000.0,0.3647186829216835,9.815626991475758,-0.1123216050450719,0.12339478,0.3145956,0.25717425,342.61145,-80.61811,4.639797
2409870743000.0,0.3834090143420351,9.801609445391582,-0.051578017194992,0.12217305,0.29565877,0.25534168,342.52335,-80.66037,4.6280303
2409875741000.0,0.4066371995536209,9.787791063157895,0.0042832240576968,0.11362094,0.28955013,0.25259277,342.43237,-80.711266,4.6091046
2409880801000.0,0.4641662638353779,9.791626010526317,-0.0647516462723387,0.09621128,0.29932398,0.25778514,342.3426,-80.75777,4.592428
2409885840000.0,0.5214565711309853,9.795445042105262,-0.1335000082472497,0.06841691,0.33536503,0.25259277,342.2468,-80.78675,4.575047
2409890744000.0,0.553604481498829,9.799648547619046,-0.1834096867993754,0.051923547,0.36743546,0.26053402,342.14923,-80.811,4.5629277
2409895818000.0,0.567829505854801,9.80439032142857,-0.2213431147892271,0.052839845,0.408058,0.27030787,342.03976,-80.832695,4.548418
2409900741000.0,0.5567188415237385,9.810625538155604,-0.1877392244581158,0.05222898,0.44409904,0.2874121,341.92404,-80.85714,4.551933
2409905772000.0,0.5207897522247079,9.818609942331593,-0.0839440598548347,0.05589417,0.43493605,0.2883284,341.81058,-80.883194,4.5539036
2409910801000.0,0.4847945783012393,9.825804,0.009576807,0.051923547,0.39553526,0.29626966,341.6954,-80.90947,4.565291
2409915811000.0,0.4482036827149666,9.825804,0.009576807,0.013133603,0.3454443,0.2910773,341.5871,-80.92908,4.5739584
2409920981000.0,0.4099823170840714,9.825804,0.0076350862817822,-0.011911872,0.3399465,0.2959642,341.47333,-80.92916,4.5770245
2409925769000.0,0.3631226523450061,9.825804,-0.0423485631742744,-0.034513887,0.34269542,0.3005457,341.3723,-80.92101,4.58017
2409930774000.0,0.3141392308706908,9.825804,-0.0945975534682518,-0.06291912,0.3643811,0.3115413,341.26535,-80.90842,4.5774126
2409935856000.0,0.264137223558623,9.821481912212777,-0.1424172152882754,-0.08735373,0.37415496,0.3173445,341.16165,-80.89143,4.5749307
2409940767000.0,0.2126758875178857,9.766062139045536,-0.1265829624964228,-0.10415252,0.38515055,0.32436943,341.05157,-80.86781,4.57505
2409945749000.0,0.1604705574109923,9.709841143338105,-0.1105197885178015,-0.1142318,0.3820962,0.31856623,340.9424,-80.86284,4.5583124
2409950747000.0,0.1370341571558045,9.635476376985745,-0.1450525405203666,-0.121256754,0.37904188,0.3115413,340.83054,-80.8537,4.5430546
2409955808000.0,0.1271628312688391,9.551569944602852,-0.2042805009959267,-0.13133603,0.3912592,0.29626966,340.71643,-80.8434,4.523611
2409960754000.0,0.1664748093068374,9.506320246185725,-0.2364112946788472,-0.13530666,0.42088616,0.2910773,340.5958,-80.833176,4.4920692
2409965858000.0,0.2263203773912224,9.474095537954415,-0.2594288301092484,-0.14905111,0.4456262,0.2770274,340.47482,-80.82144,4.4539495
2409970812000.0,0.3138610335268487,9.447059017685506,-0.2607375623990773,-0.1554652,0.46792278,0.26419923,340.34702,-80.82106,4.413619
2409975825000.0,0.4215310833480713,9.42244886889658,-0.248432410911188,-0.1563815,0.48899764,0.2501493,340.21396,-80.82062,4.3686595
2409980767000.0,0.5276761833314111,9.398187277970012,-0.2363015394463667,-0.17073683,0.52656585,0.2406809,340.07056,-80.8149,4.3331184
2409985749000.0,0.5953211930755915,9.388983064462945,-0.218707391420328,-0.18020524,0.56291234,0.24098633,339.92258,-80.81071,4.2961416
2409990816000.0,0.6193219902827467,9.396983502843954,-0.1947065607979556,-0.20677789,0.59681535,0.23304509,339.76624,-80.80089,4.2533565
2409995858000.0,0.643055363830739,9.406116209518697,-0.1718187753506888,-0.2284636,0.6169739,0.22632557,339.60538,-80.77033,4.2452035
2410001637000.0,0.6678113321524424,9.43582289586688,-0.1619164035319377,-0.2678644,0.64660084,0.21746802,339.4336,-80.73036,4.2325306
2410005762000.0,0.685481927294686,9.457027270531402,-0.1548481765458937,-0.29535335,0.66553766,0.19456059,339.25806,-80.684616,4.2179346
2410010815000.0,0.7118430753662918,9.52510525219775,-0.1866984002315909,-0.33414328,0.68936145,0.18051068,339.07385,-80.62668,4.202016
2410015718000.0,0.7384741654882314,9.60056019292939,-0.2266450678570753,-0.3463606,0.711658,0.1826487,338.8861,-80.570175,4.1837044
2410020751000.0,0.7714867049950788,9.646464909940946,-0.2258114010260827,-0.3643811,0.7333437,0.1777618,338.69287,-80.50353,4.1626234
2410025748000.0,0.8068129784612861,9.677865841535432,-0.2061856958218504,-0.39400807,0.7699956,0.15974127,338.49075,-80.43308,4.137078
2410030759000.0,0.8463696086631486,9.684521058340662,-0.1735532962720609,-0.43951756,0.8045095,0.15302174,338.2824,-80.36375,4.1162343
2410035834000.0,0.8986148069187921,9.618027300400664,-0.1023098293171113,-0.47586402,0.8313876,0.13072516,338.0686,-80.29415,4.0849824
2410040745000.0,0.951450878833784,9.557075555141234,-0.0340370787731891,-0.50701815,0.88086766,0.112704635,337.839,-80.20898,4.058344
2410045735000.0,1.013820226880768,9.508071029178708,0.0327871926018458,-0.5479461,0.9266826,0.0888809,337.6056,-80.11634,4.0230474
2410050870000.0,1.0837753366666667,9.4475198,0.0980026525333333,-0.58062744,1.001819,0.051618114,337.35153,-80.00228,3.986593
2410055794000.0,1.21112612404321,9.283783122222223,0.1234728236864197,-0.6206391,1.0494665,0.014966198,337.09518,-79.879745,3.9429543
2410060779000.0,1.3400545714583334,9.118018025,0.1492585270166666,-0.6453791,1.0491611,-0.01282817,336.83173,-79.73695,3.9032423
2410065735000.0,1.423397902361028,9.00194372773461,0.2163167712372982,-0.70249504,1.0965031,-0.029321533,336.54465,-79.57961,3.85222
2410071370000.0,1.461030641900777,8.932054121737398,0.3453432041522215,-0.72356987,1.1270463,-0.051618114,336.26624,-79.4306,3.7929685
2410075812000.0,1.5057054742536635,8.885845164827213,0.4132339302189253,-0.7519751,1.1215485,-0.061086524,335.9871,-79.24188,3.7695985
2410080928000.0,1.5721903795910983,8.84152192545685,0.4575572019866112,-0.7669413,1.1252137,-0.086437434,335.70093,-79.05757,3.7334857
2410085734000.0,1.650243919159695,8.815043162820631,0.4971795271076584,-0.7968737,1.1603385,-0.12003502,335.40714,-78.83912,3.6965785
2410090744000.0,1.778166533299623,8.832687556495358,0.5324685217293371,-0.8359691,1.1976013,-0.14355333,335.11505,-78.61847,3.6549206
2410095779000.0,1.912506523503625,8.850964779126624,0.5760083539369415,-0.8576548,1.2244794,-0.14660765,334.81818,-78.38318,3.6228607
2410100746000.0,2.10900229132524,8.875025543500254,0.7083421811330298,-0.84635377,1.2308935,-0.16798794,334.5216,-78.15335,3.5780656
2410105818000.0,2.3096518855252066,8.899594940903727,0.8434734820266397,-0.8356637,1.2434162,-0.2012801,334.21893,-77.908905,3.5552132
2410110804000.0,2.510106055573756,8.944802611863093,0.9519076652125184,-0.8219192,1.278541,-0.20647246,333.91043,-77.67153,3.5321698
2410115742000.0,2.7098839378739545,8.997805117423916,1.0497580582808863,-0.8164214,1.3148874,-0.22449298,333.60342,-77.44224,3.4951453
