timestamp,acc_x,acc_y,acc_z,gyro_x,gyro_y,gyro_z,ori_azimuth,ori_pitch,ori_roll
2187042242000.0,-4.472659435306651,-1.2162545,8.332112692894958,-8.859989,-4.043317,5.952882,92.18413,-4.97208,-8.8151245
2187047234000.0,-4.473136535767214,-1.2162545,8.332589805810175,-8.859989,0.7528914,0.038789943,93.74899,-4.694217,-10.370521
2187052206000.0,-4.473611724767598,-1.2162545,8.333065007215316,-1.1859949,0.75533485,0.038179077,92.25699,-4.464689,-9.245302
2187057223000.0,-4.474091214553384,-1.2162545,8.333544509518129,-1.1823297,0.7528914,0.03756821,92.32686,-1.8405246,-9.660857
2187062205000.0,-4.474567359283857,-1.2162545,8.334020666678308,-1.1801916,0.73273283,0.036651913,92.39396,-1.3945508,-10.065956
2187067222000.0,-4.475046849069644,-1.2162545,8.334500168981123,-1.1603385,0.73792523,0.024740042,92.46532,-0.9619787,-10.471948
2187072217000.0,-4.475524236249233,-1.2162545,8.334977568622852,-1.1621711,0.7669413,0.035124753,92.531654,-0.5329114,-10.873145
2187077196000.0,-4.47600009426068,-1.2162545,8.335453439056518,-1.1930199,0.72234815,0.042455133,92.603645,-0.10826198,-11.249187
2187082268000.0,-4.476484840561956,-1.2162545,8.335938198012045,-1.1475104,0.72051555,0.030543262,92.679214,0.288251,-11.639882
2187088001000.0,-4.477032760622135,-1.2162545,8.336486132375615,-1.1365148,0.700357,0.032375857,92.749794,0.69414437,-12.006815
2187092210000.0,-4.477435027416707,-1.2162545,8.336888409671317,-1.1273518,0.75625116,0.045814894,92.82181,1.0802552,-12.389272
2187097238000.0,-4.477915568505591,-1.2162545,8.337368963304675,-1.2116512,0.77091193,0.05009095,92.89696,1.4824976,-12.748412
2187102204000.0,-4.478390184067922,-1.2162545,8.337843591256792,-1.2379184,0.7620544,0.059253927,92.96804,1.8575193,-13.110892
2187107282000.0,-4.478875503807252,-1.2162545,8.33832892366534,-1.2421945,0.7535023,0.058948494,93.04199,2.2426221,-13.471446
2187112252000.0,-4.479350501661619,-1.2162545,8.338803933919474,-1.2318097,0.7431176,0.06291912,93.11308,2.6223662,-13.822936
2187117235000.0,-4.479826741965101,-1.2162545,8.339280186655156,-1.239751,0.7296785,0.07147124,93.18391,3.0004392,-14.165083
2187122279000.0,-4.480308812222128,-1.2162545,8.339762269496573,-1.2345587,0.70921457,0.076358154,93.25545,3.3644416,-14.496225
2187127248000.0,-4.480783714503485,-1.2162545,8.340237184175203,-1.2327261,0.68294734,0.09621128,93.320755,3.7224479,-14.816334
2187132414000.0,-4.481277444667602,-1.2162545,8.34073092722809,-1.2333369,0.6218608,0.09285152,93.391304,4.0737233,-15.114519
2187137270000.0,-4.481741547198951,-1.2162545,8.341195041874784,-1.1511755,0.5546656,0.10170906,93.452446,4.3920784,-15.398458
2187142230000.0,-4.482215589323228,-1.2162545,8.341669096373879,-1.0366384,0.48655418,0.09743301,93.517715,4.695927,-15.659106
2187147368000.0,-4.482706643443094,-1.2162545,8.342160163312657,-0.91324353,0.40653083,0.09040806,93.57976,4.9678383,-15.89249
2187152251000.0,-4.483173326445683,-1.2162545,8.342626858497956,-0.7791586,0.3463606,0.076052725,93.65476,5.1965694,-16.110435
2187157584000.0,-4.48368301730229,-1.2162545,8.343136562659986,-0.6542367,0.24220806,0.06963864,93.7264,5.3890595,-16.288996
2187162266000.0,-4.484130490130085,-1.2162545,8.34358404716901,-0.47067168,-0.0106901415,0.017715093,93.80977,5.5295625,-16.402704
2187167239000.0,-4.484605774703478,-1.2162545,8.344059344149654,0.0030543262,-0.05100725,0.0009162979,93.887924,5.5507183,-16.545164
2187172195000.0,-4.48507943453572,-1.2162545,8.344533016346734,0.06719518,-0.030543262,0.011911872,93.96751,5.633855,-16.63084
2187177246000.0,-4.485562173803809,-1.2162545,8.345015768216678,0.028405234,-0.011301007,0.0106901415,94.05468,5.6182117,-16.702833
2187182433000.0,-4.4860579110011125,-1.2162545,8.345511518355146,0.00580322,-0.0030543262,0.018020526,94.1366,5.579903,-16.776983
2187187276000.0,-4.486520771083345,-1.2162545,8.34597439052029,0.014049901,-0.0036651916,0.015577064,94.22228,5.545455,-16.852537
2187192271000.0,-4.486998158262935,-1.2162545,8.34645179016202,0.020158553,-0.0033597588,0.012217305,94.3065,5.5179033,-16.929604
2187197246000.0,-4.487473633982346,-1.2162545,8.346927278293672,0.018020526,-0.010995574,0.0033597588,94.39296,5.4916964,-17.002733
2187202249000.0,-4.487951785746007,-1.2162545,8.347405442539431,0.003970624,-0.0009162979,0.013744468,94.47529,5.466441,-17.080196
2187207286000.0,-4.488433186991972,-1.2162545,8.347886856352321,0.0106901415,-0.005192355,0.0125227375,94.56307,5.438484,-17.14961
2187212444000.0,-4.488926152572016,-1.2162545,8.348379834801179,0.016493361,-0.011911872,0.0125227375,94.64764,5.414242,-17.22027
2187217243000.0,-4.489384807441856,-1.2162545,8.348838501644153,0.00030543262,-0.007330383,0.011911872,94.732925,5.3949566,-17.291664
2187222196000.0,-4.48985818055507,-1.2162545,8.349311887114721,0.0067195175,-0.0012217305,0.0070249503,94.819305,5.3689194,-17.360292
2187227237000.0,-4.490339964093071,-1.2162545,8.349793683229628,-0.005497787,-0.004276057,-0.0021380284,94.90692,5.353372,-17.426292
2187232430000.0,-4.490836274728427,-1.2162545,8.350290006821119,-0.004581489,0.005497787,0.002443461,94.99233,5.3322997,-17.496733
2187237218000.0,-4.49129387829517,-1.2162545,8.35074762233355,0.0015271631,0.0033597588,-0.005192355,95.08351,5.3154893,-17.561136
2187242260000.0,-4.491775757406178,-1.2162545,8.351229514023961,-0.010079277,0.0036651916,0.0076358155,95.16738,5.3015933,-17.628496
2187247246000.0,-4.492252284428687,-1.2162545,8.351706053486154,0.005192355,0.003970624,0.016493361,95.25441,5.280219,-17.693737
2187252263000.0,-4.492731774214474,-1.2162545,8.352185555788969,-0.0018325958,-0.0021380284,0.005497787,95.34314,5.269174,-17.755854
2187257270000.0,-4.493210308270171,-1.2162545,8.352664102336744,0.0076358155,-0.0027488936,0.0067195175,95.42553,5.248166,-17.81903
2187262406000.0,-4.493701171244019,-1.2162545,8.353154978124516,0.0033597588,-0.004276057,0.013133603,95.509186,5.2338147,-17.878927
2187267227000.0,-4.494161928720055,-1.2162545,8.353615747628576,0.005497787,-0.0030543262,0.0070249503,95.596016,5.2166677,-17.938028
2187273272000.0,-4.494739667559017,-1.2162545,8.354193501549346,0.00061086525,-0.008857546,0.0021380284,95.68003,5.2024355,-17.99382
2187277249000.0,-4.49511976141552,-1.2162545,8.354573605328156,-0.0030543262,-0.00061086525,0.004886922,95.76371,5.1876554,-18.052942
2187282429000.0,-4.49561482960176,-1.2162545,8.355068686438099,0.005497787,-0.0061086523,0.008552114,95.84768,5.1717014,-18.105366
2187287298000.0,-4.496080174582225,-1.2162545,8.355534043566342,0.010995574,0.0061086523,0.014049901,95.93066,5.15761,-18.164267
2187292254000.0,-4.496553834414467,-1.2162545,8.35600771576342,-0.0015271631,-0.010995574,0.01282817,96.01321,5.1468525,-18.212147
2187297244000.0,-4.497030743729011,-1.2162545,8.35648463752763,-0.002443461,-0.006414085,0.007941248,96.09582,5.131796,-18.26868
2187302267000.0,-4.497510806952851,-1.2162545,8.356964713283467,0.0015271631,0.00061086525,0.0125227375,96.17515,5.118505,-18.320309
2187307250000.0,-4.497987047256333,-1.2162545,8.357440966019151,0.01038471,-0.0027488936,0.010079277,96.257515,5.1056294,-18.369003
2187312233000.0,-4.498463287559816,-1.2162545,8.357917218754833,0.004886922,-0.0021380284,0.005497787,96.33903,5.0957932,-18.41991
2187317259000.0,-4.498943637502682,-1.2162545,8.358397581237181,-0.008857546,-0.0036651916,0.015271631,96.41641,5.0851836,-18.468616
2187322321000.0,-4.4994274280738695,-1.2162545,8.35888138443767,-0.00580322,0.0012217305,0.014049901,96.49824,5.073358,-18.517977
2187327251000.0,-4.499898603007879,-1.2162545,8.359352571671648,0.007330383,-0.0027488936,0.013439035,96.5762,5.061941,-18.563728
2187332440000.0,-4.5003945313512,-1.2162545,8.359848512961124,0.011301007,0.010079277,0.021685716,96.65204,5.051848,-18.614933
2187343188000.0,-4.500775625489951,-1.2156077476032396,8.364756885513948,0.0012217305,-0.008246681,0.013133603,96.7317,5.0440354,-18.654764
2187347244000.0,-4.500387231349365,-1.2148309552664731,8.369806029619538,0.011301007,0.0021380284,0.020463986,96.8048,5.027916,-18.706125
2187352234000.0,-4.499909399307569,-1.2138752861933806,8.376017871110388,0.01160644,0.007941248,0.014049901,96.89589,5.0124636,-18.757631
2187357261000.0,-4.499428024222578,-1.2129125309969002,8.382275772347764,0.006414085,-0.00030543262,0.013744468,96.9822,4.9952054,-18.807352
2187362244000.0,-4.498950862486251,-1.211958202541746,8.388478899832517,0.007330383,-0.0061086523,0.015882496,97.069305,4.97724,-18.858204
2187367228000.0,-4.498473604992001,-1.211003682569743,8.394683272175282,0.007330383,-0.005192355,0.011911872,97.15767,4.962142,-18.907417
2187372249000.0,-4.4979928044545545,-1.2100420764743527,8.400933704264572,0.0061086523,-0.0021380284,0.0106901415,97.2438,4.9472766,-18.954731
2187377239000.0,-4.497514972412759,-1.20908640740126,8.407145545755425,0.0027488936,-0.006414085,0.011301007,97.32975,4.93378,-18.999195
2187382444000.0,-4.497016552417258,-1.2080895622057797,8.413625031719327,0.002443461,-0.011301007,0.008246681,97.41658,4.9208183,-19.043264
2187387227000.0,-4.496558542265773,-1.207173537120288,8.41957918760124,-0.00061086525,-0.009468411,0.009773844,97.50126,4.9095592,-19.087246
2187392214000.0,-4.49608099749775,-1.2062184425977402,8.425787294518047,0.0009162979,-0.008246681,0.012217305,97.585754,4.89786,-19.128735
2187397247000.0,-4.4955990478652135,-1.20525453830017,8.432052664903509,0.011911872,-0.01038471,0.0125227375,97.66972,4.8849764,-19.168915
2187402262000.0,-4.495118821875312,-1.2042940813058691,8.438295627844715,0.00580322,-0.00061086525,0.0067195175,97.75449,4.877142,-19.211885
2187407235000.0,-4.494642617718228,-1.2033416680191982,8.444486306749324,-0.003970624,-0.009468411,0.0061086523,97.83637,4.867346,-19.248253
2187412943000.0,-4.494096031486851,-1.2022484898490151,8.45159195629437,0.002443461,-0.0018325958,0.004581489,97.92031,4.855953,-19.29108
2187417236000.0,-4.493684942718228,-1.201426308019198,8.456936131749325,0.008552114,-0.00030543262,0.014966198,97.99973,4.8466325,-19.329126
2187422226000.0,-4.493207110676432,-1.2004706389461055,8.463147973240176,0.0012217305,-0.0012217305,0.004276057,98.08545,4.841809,-19.367252
2187427262000.0,-4.492724873770123,-1.1995061600979902,8.46941707819968,0.009468411,-0.0030543262,0.012217305,98.161705,4.828787,-19.405455
2187432566000.0,-4.492216973740126,-1.1984903547345265,8.476019805106988,0.004886922,-0.0061086523,0.009468411,98.24369,4.823721,-19.441725
2187437276000.0,-4.491765953917108,-1.1975883103789622,8.481883086353864,0.0067195175,0.0027488936,0.01863139,98.319275,4.813206,-19.480589
2187442279000.0,-4.491286877022298,-1.1966301515868414,8.4881111109989,0.01282817,0.00061086525,0.016493361,98.39803,4.80454,-19.51436
2187447249000.0,-4.490810960138986,-1.195678312850715,8.494298055329466,0.016187929,-0.007330383,0.013439035,98.47372,4.795763,-19.548433
2187452273000.0,-4.490329872327767,-1.1947161322047797,8.5005522219928,0.009468411,-0.00580322,0.01282817,98.54885,4.7884784,-19.58386
2187457255000.0,-4.489852806349365,-1.1937619952664733,8.506754104619537,0.0027488936,-0.0018325958,0.0067195175,98.62577,4.7815647,-19.616825
2187462257000.0,-4.489373825212478,-1.1928040279912009,8.51298088440656,0.003970624,-0.005497787,0.011911872,98.6986,4.7737007,-19.64765
2187467216000.0,-4.488898961666333,-1.191854295940406,8.51915413529897,0.003970624,0.0033597588,0.014049901,98.773994,4.769213,-19.682262
2187472222000.0,-4.48841959749775,-1.1908955625977402,8.525385894518047,0.005497787,-0.0030543262,0.0076358155,98.84923,4.7646675,-19.710735
2187477257000.0,-4.487937456349365,-1.1899312752664737,8.531653754619537,0.005497787,-0.0030543262,0.008552114,98.92135,4.759967,-19.743114
2187482978000.0,-4.487389625264973,-1.1888356073772623,8.538775587318767,0.0070249503,0.0106901415,0.009162978,98.99501,4.7554345,-19.776785
2187487280000.0,-4.486977674675033,-1.1880117018958103,8.54413096649585,0.0009162979,0.02107485,0.00030543262,99.070526,4.754127,-19.808657
2187492236000.0,-4.48650309840266,-1.1870625443955605,8.550300482814219,0.002443461,0.010079277,0.00580322,99.14061,4.749231,-19.838028
2187497244000.0,-4.486023542718228,-1.1861034280191982,8.556534731749325,0.0018325958,0.012217305,0.0012217305,99.21637,4.7486877,-19.87288
2187502260000.0,-4.485543220970403,-1.1851427795080491,8.562778939548545,0.0015271631,0.011911872,0.004276057,99.28711,4.746661,-19.903568
2187512245000.0,-4.48458707809719,-1.1832304837776222,8.575208846820319,0.02076942,0.004886922,-0.004581489,99.362045,4.7414255,-19.931871
2187517248000.0,-4.48410800120238,-1.1822723249855014,8.581436871465353,0.007330383,-0.0009162979,0.0067195175,99.42927,4.743062,-19.96037
2187522347000.0,-4.483619731546845,-1.1812957805759423,8.587784402479752,0.004886922,-0.0076358155,-0.0061086523,99.5056,4.740157,-19.985191
2187527251000.0,-4.483150134686532,-1.180356581951805,8.593889186181382,0.004276057,-0.0012217305,0.002443461,99.57154,4.7374496,-20.0124
2187532469000.0,-4.482650469838016,-1.1793572470372964,8.60038485529947,0.005192355,0.004276057,-0.0030543262,99.64476,4.7378817,-20.036274
2187537298000.0,-4.482188054822018,-1.1784324121767824,8.606396274650034,0.008552114,0.00061086525,-0.0015271631,99.712494,4.736537,-20.05925
2187542239000.0,-4.478360731773667,-1.170777707399347,8.580871260609358,0.0106901415,0.0070249503,0.0030543262,99.78074,4.735756,-20.086073
2187552820000.0,-4.4620797570095885,-1.139945247603006,8.45540526250324,0.009468411,0.00030543262,-0.0027488936,99.85053,4.736104,-20.107386
2187557275000.0,-4.43628266333247,-1.151001166882612,8.42223769707178,0.004886922,-0.0015271631,0.004276057,99.92526,4.7230077,-20.125143
2187562233000.0,-4.407572901166105,-1.1633053751403646,8.38532528642999,0.009773844,-0.0027488936,0.00061086525,100.01466,4.701897,-20.153091
2187567248000.0,-4.383553561823167,-1.1830113858122002,8.355488808430431,-0.00030543262,-0.0027488936,0.0030543262,100.09893,4.685616,-20.180473
2187572265000.0,-4.362971482659356,-1.2077098808087732,8.330789797635367,0.0027488936,-0.0015271631,0.0030543262,100.183945,4.665969,-20.207056
2187577192000.0,-4.3500678607918974,-1.2302263986372008,8.31926078563536,-0.0036651916,0.005497787,0.007330383,100.28116,4.6494827,-20.240059
2187582473000.0,-4.359381920616943,-1.2488544210313075,8.34720340276243,-0.0009162979,-0.0030543262,-0.002443461,100.38091,4.6320777,-20.267834
2187587265000.0,-4.366699271995272,-1.2634890575533724,8.37337721223314,0.010079277,-0.0015271631,-0.0018325958,100.491066,4.61422,-20.304348
2187592263000.0,-4.363163344832681,-1.2564173509123144,8.408735745438428,-0.004276057,0.0027488936,0.0036651916,100.600815,4.603936,-20.33808
2187598169000.0,-4.358985036344833,-1.2480609084509122,8.450517957745438,-0.0012217305,-0.005497787,-0.0027488936,100.73132,4.583434,-20.37685
2187602235000.0,-4.361837090938459,-1.2420581828945243,8.487848301889839,-0.00061086525,-0.00030543262,-0.0009162979,100.85615,4.56732,-20.419804
2187607396000.0,-4.373812386569213,-1.2340746802616702,8.54772436322888,0.0067195175,-0.011301007,0.0030543262,100.979744,4.5502267,-20.45457
2187612210000.0,-4.384982522815377,-1.226627948683573,8.60357465566952,0.0009162979,-0.0027488936,-0.0030543262,101.12042,4.52865,-20.502523
2187617236000.0,-4.402222419145775,-1.2178088404271123,8.585482246935934,0.00061086525,-0.0030543262,-0.002443461,101.25495,4.5042562,-20.543741
2187627264000.0,-4.4244847,-1.214706533513754,8.56547038918959,0.004886922,0.003970624,0.0027488936,101.38804,4.4819245,-20.588114
2187632303000.0,-4.4244847,-1.2254407579965891,8.583360763327649,0.007330383,-0.0012217305,0.0018325958,101.54048,4.449811,-20.638563
2187637322000.0,-4.425357727258914,-1.2351170899007953,8.599973,0.013133603,-0.004276057,0.006414085,101.70307,4.4081445,-20.708984
2187642242000.0,-4.437990945240862,-1.230906002582894,8.599973,0.009162978,-0.004276057,0.0027488936,101.86493,4.371906,-20.77609
2187647230000.0,-4.450798768674591,-1.2266367132451514,8.599973,0.009773844,0.0036651916,0.005192355,102.045074,4.3273892,-20.85775
2187652204000.0,-4.444465524813109,-1.228747801880239,8.594139874424224,0.008246681,0.0009162979,0.0070249503,102.22223,4.287852,-20.933302
2187657262000.0,-4.433492342195877,-1.23240554215057,8.586824241108511,0.0027488936,-0.0076358155,0.0070249503,102.39538,4.2518888,-21.0066
2187668171000.0,-4.468876415327323,-1.2354081,8.530085875931007,0.004581489,-0.0030543262,-0.00061086525,102.58984,4.2077355,-21.102022
2187672234000.0,-4.493287899341564,-1.234525300329218,8.497584002469136,0.0076358155,-0.004276057,-0.0030543262,102.77783,4.167343,-21.189917
2187677255000.0,-4.507679253714927,-1.2273296231425364,8.443616423569024,0.010079277,-0.0009162979,0.002443461,102.98729,4.1220417,-21.296803
2187687281000.0,-4.5298295,-1.2162545,8.349418756349287,0.0076358155,0.0012217305,-0.004581489,103.2125,4.0777845,-21.4268
2187692247000.0,-4.5298295,-1.2162545,8.325357549225943,0.006414085,0.0027488936,0.004276057,103.425385,4.034208,-21.552767
2187697198000.0,-4.536226246801604,-1.2119900169753677,8.293477870918466,0.016187929,-0.0015271631,0.0021380284,103.66179,3.984066,-21.700962
2187702283000.0,-4.550174556186748,-1.2026911764177963,8.25163318550697,0.004581489,0.0009162979,0.0067195175,103.88748,3.9422987,-21.846012
2187707175000.0,-4.55856,-1.2022959123420294,8.225178219791589,0.0076358155,-0.0012217305,0.004886922,104.13024,3.8922772,-22.001371
2187712253000.0,-4.55856,-1.2166720827359396,8.221584102135836,0.00580322,-0.002443461,-0.00061086525,104.36654,3.8505805,-22.151608
2187722294000.0,-4.54933789745874,-1.23848212348087,8.2169,0.006414085,-0.0033597588,-0.0036651916,104.58901,3.812151,-22.29835
2187727263000.0,-4.535950626781696,-1.2429445315078769,8.2169,-0.0015271631,0.0033597588,0.0018325958,104.80517,3.779446,-22.441435
2187732607000.0,-4.524362664359379,-1.2258508753600297,8.175898518628635,0.011911872,-0.0015271631,0.00061086525,105.01294,3.7512493,-22.568594
2187738092000.0,-4.514601728978909,-1.191687423162687,8.1026911210629,0.01038471,-0.003970624,0.0009162979,105.214096,3.7308712,-22.69376
2187742177000.0,-4.504764903941858,-1.1690806636281514,8.074725801018312,0.011911872,0.005497787,0.012217305,105.41162,3.7064998,-22.811592
2187747246000.0,-4.4888184718403545,-1.1451610362897269,8.078712481892092,0.016187929,-0.0009162979,0.0033597588,105.6106,3.6863568,-22.919691
2187752765000.0,-4.4720932071917465,-1.121037391369904,8.08254949856165,0.008857546,-0.0015271631,-0.0015271631,105.79599,3.663726,-23.029888
2187757224000.0,-4.467857267771055,-1.129509358674735,8.078313426445789,0.007941248,0.0027488936,0.004581489,105.97671,3.640187,-23.135931
2187762652000.0,-4.462626525269979,-1.1398054738660908,8.073413473002159,0.010995574,-0.0018325958,-0.0036651916,106.16377,3.612464,-23.231699
2187767242000.0,-4.454714764740821,-1.147717193088553,8.081325150917927,0.0061086523,-0.0036651916,-0.004886922,106.34287,3.5877793,-23.32626
2187772207000.0,-4.4461566185475165,-1.156275294600432,8.089883207748379,-0.005192355,-0.00580322,0.004276057,106.51767,3.5686684,-23.417086
2187777254000.0,-4.448643048484407,-1.1688030708394055,8.102411023098222,0.005192355,-0.005192355,0.00061086525,106.69321,3.5486298,-23.504705
2187782336000.0,-4.455735667502186,-1.1829882718449432,8.1165962981638,-0.004581489,-0.0012217305,-0.0070249503,106.863655,3.5379822,-23.589705
2187787639000.0,-4.461708810330617,-1.1977508138016302,8.131575547211282,0.003970624,-0.004276057,-0.0027488936,107.02964,3.5222898,-23.667568
2187792315000.0,-4.441202758128034,-1.2100544451231798,8.147980303324479,0.008857546,-0.0030543262,0.004581489,107.19384,3.5121882,-23.744825
2187797167000.0,-4.419924878468724,-1.2228211729187657,8.16500251817932,0.007330383,-0.0018325958,0.0076358155,107.35951,3.5058804,-23.8209
2187802259000.0,-4.412234781957014,-1.2258313,8.211786651300905,0.0061086523,-0.005192355,0.0036651916,107.52184,3.499614,-23.893303
2187807799000.0,-4.408483609728507,-1.2258313,8.271804231900452,0.003970624,0.0021380284,0.010079277,107.67719,3.4937756,-23.966734
2187812639000.0,-4.405175253774085,-1.225519804295563,8.322556502209652,0.002443461,-0.0027488936,0.010995574,107.83599,3.4921274,-24.025562
2187817245000.0,-4.401276519444936,-1.2177222542160155,8.330354215131695,0.008246681,-0.00061086525,0.018020526,107.988205,3.48887,-24.086416
2187822226000.0,-4.397060367535796,-1.209289862347534,8.338786783100582,0.0021380284,-0.0012217305,0.013133603,108.1472,3.4887211,-24.13886
2187827243000.0,-4.409642179111705,-1.203900124177659,8.363619780597762,0.008246681,0.010079277,0.011911872,108.30014,3.483978,-24.193464
2187832303000.0,-4.429870350759726,-1.1998544898480548,8.395985108699282,0.018325957,0.018020526,0.018020526,108.44933,3.4807546,-24.244986
2187837206000.0,-4.4436383,-1.1901069164280709,8.425007968965861,0.01282817,0.008552114,0.0061086523,108.60057,3.480677,-24.288322
2187842249000.0,-4.4436383,-1.16593237280008,8.449182462108318,0.016493361,0.0036651916,0.005192355,108.743904,3.4748478,-24.333725
2187847232000.0,-4.4436383,-1.1579607229376463,8.476099134370868,0.010079277,-0.0015271631,0.005192355,108.88295,3.4746468,-24.371798
2187852257000.0,-4.4436383,-1.1873311860136304,8.510364308310447,0.008246681,0.0009162979,0.010079277,109.01834,3.4729056,-24.40927
2187857206000.0,-4.451694333258057,-1.2066777,8.539379792958325,0.011911872,-0.0012217305,0.009162978,109.15113,3.4665363,-24.437897
2187862311000.0,-4.476786492978854,-1.2066777,8.55945341593102,0.005497787,-0.00030543262,0.003970624,109.28149,3.4642622,-24.466875
2187867239000.0,-4.495342200248002,-1.2092243001653349,8.562328979195371,0.007330383,-0.002443461,-0.0009162979,109.41139,3.4648485,-24.486095
2187872215000.0,-4.505190813529898,-1.2157900423532657,8.53934908721411,0.009162978,-0.007941248,0.00061086525,109.5386,3.4677598,-24.503693
2187877368000.0,-4.515389749269771,-1.2225893328465145,8.515551783480298,0.004581489,-0.01160644,-0.008552114,109.6637,3.4753554,-24.52007
2187882257000.0,-4.522645915947391,-1.2354041637895603,8.487452388409372,-0.006414085,-0.018020526,-0.002443461,109.78126,3.4828017,-24.533606
2187887282000.0,-4.527590780312371,-1.2551836212494862,8.452838131319359,-0.0012217305,-0.022602014,0.0027488936,109.89991,3.4890194,-24.545681
2187892346000.0,-4.523717886507513,-1.2559897103729694,8.431055492868584,0.0015271631,-0.022296581,-0.0021380284,110.01466,3.5020106,-24.556803
2187897246000.0,-4.512980379833728,-1.2416730846388528,8.420318173060789,0.008246681,-0.01160644,0.0076358155,110.12152,3.5106268,-24.569407
2187903135000.0,-4.499985459448917,-1.225460118524359,8.405467486181426,0.014660766,-0.01863139,-0.0027488936,110.23565,3.5266235,-24.580034
2187907218000.0,-4.49024972910615,-1.222214863781227,8.379504906050293,0.0106901415,-0.023518313,0.002443461,110.34046,3.5408168,-24.594141
2187912229000.0,-4.478301224392065,-1.218232015013694,8.347641450493816,0.01863139,-0.01740966,0.008552114,110.44409,3.5490987,-24.609148
2187917339000.0,-4.462693189124361,-1.2283488885945475,8.32940232434255,0.025045475,-0.01160644,0.009468411,110.54605,3.5591621,-24.622162
2187922254000.0,-4.4445562188902805,-1.2510201013871496,8.324868460552933,0.030543262,-0.004581489,0.015882496,110.642975,3.5663977,-24.636972
2187927249000.0,-4.438046717498549,-1.274101616569936,8.314274356935577,0.03176499,-0.008246681,0.03023783,110.73475,3.5730062,-24.652622
2187937212000.0,-4.451485643701068,-1.317210723070666,8.273560898322318,0.044593163,0.008246681,0.03848451,110.82557,3.575547,-24.675385
2187942214000.0,-4.446615012953736,-1.3318227678901882,8.244337215556685,0.0580322,0.009468411,0.0729984,110.90331,3.579316,-24.69007
2187947222000.0,-4.440208407976136,-1.3510426581642956,8.209327539880679,0.049480084,0.022602014,0.0888809,110.98621,3.5929408,-24.717382
2187952239000.0,-4.431388434483708,-1.3775025325929324,8.16522767241854,0.06291912,0.022602014,0.105068825,111.05673,3.5935056,-24.741186
2187957226000.0,-4.416046299150272,-1.4019641145192574,8.105393728918445,0.06383542,0.03481932,0.11301007,111.12577,3.6014104,-24.770742
2187962242000.0,-4.37611514946892,-1.4197113590745358,7.985599955574028,0.06566802,0.038789943,0.13225232,111.184944,3.6025512,-24.797636
2187967330000.0,-4.336174847316593,-1.435196783029706,7.871340480879698,0.07086037,0.035430185,0.1591304,111.23979,3.6086576,-24.827692
2187972234000.0,-4.305342909158051,-1.4159268719842442,7.859778695224027,0.07819075,0.032986723,0.1863139,111.28772,3.611484,-24.858534
2187977276000.0,-4.273643351206302,-1.3961146999835876,7.847891557525027,0.086132,0.031154128,0.2125811,111.33084,3.6146398,-24.890491
2187982284000.0,-4.238251142013,-1.382780004924168,7.846333436379751,0.10873401,0.03573562,0.2452624,111.362816,3.6081607,-24.923319
2187987240000.0,-4.200857111680126,-1.373431448532598,7.851007616958833,0.1301143,0.045814894,0.28038713,111.385315,3.596661,-24.95689
2187993236000.0,-4.218039574849627,-1.3904672601972892,7.89494928909295,0.15790866,0.065973446,0.3286455,111.39204,3.5694368,-24.9936
2187997193000.0,-4.251470369797097,-1.411741442826209,7.937497622616088,0.183565,0.058643065,0.33353242,111.40067,3.5388198,-25.024244
2188002273000.0,-4.302680966087685,-1.436521,7.99319238057968,0.21868975,0.070249505,0.35216382,111.38948,3.490101,-25.058203
2188007240000.0,-4.432090467908339,-1.436521,8.05789710550382,0.24037547,0.09712757,0.3744604,111.37563,3.438181,-25.093847
2188012264000.0,-4.58518563366346,-1.4103613783248443,8.117277447651386,0.24862215,0.12889257,0.38698313,111.36391,3.3865778,-25.13918
2188017300000.0,-4.839931185408413,-1.2647924780418789,8.149120813808715,0.23457226,0.1160644,0.40133846,111.3441,3.333385,-25.178751
2188022406000.0,-5.093974881856478,-1.1357324230433818,8.182687420959278,0.22968534,0.13072516,0.42485678,111.31178,3.2733293,-25.247675
2188027210000.0,-5.291181584864385,-1.1969345522577783,8.226888765427537,0.24129178,0.087964594,0.38148534,111.29478,3.220109,-25.294067
2188032187000.0,-5.495490028009755,-1.260340671554209,8.272681873549626,0.21380283,0.04886922,0.33841935,111.23623,3.144147,-25.382666
2188037225000.0,-5.631162,-1.2749708018623902,8.325414514433524,0.19333886,0.0143553335,0.3036,111.18858,3.0691786,-25.457657
2188042266000.0,-5.631162,-1.1950507409208484,8.390349792136576,0.19547687,-0.0021380284,0.26542094,111.155624,3.0024738,-25.524096
2188047185000.0,-5.66576143824228,-1.0973177951781472,8.446811843230405,0.20311269,-0.008857546,0.22143865,111.14071,2.9586608,-25.619473
2188052217000.0,-5.751611720902613,-0.9685427496832938,8.494506278701504,0.22388211,-0.025350908,0.19883664,111.13084,2.9137225,-25.705008
2188057192000.0,-5.774133678679016,-0.8595016320497708,8.554499507437553,0.23609942,-0.058643065,0.16371189,111.1286,2.8613737,-25.777565
2188063170000.0,-5.683081954775938,-0.7630938349050426,8.650907550659557,0.26206118,-0.10567969,0.10354166,111.14107,2.8072412,-25.838865
2188067186000.0,-5.61037095986317,-0.702513918722919,8.719360767388826,0.2968805,-0.11636983,0.08857546,111.13412,2.7203953,-25.913704
2188072212000.0,-5.486882464614215,-0.6384829175104523,8.815406844165716,0.29871312,-0.15149458,0.05375614,111.15142,2.6472692,-25.965239
2188077258000.0,-5.364472231577175,-0.58418524,8.903171979296415,0.3155119,-0.17501289,0.023823744,111.16652,2.5481548,-26.001556
2188082192000.0,-5.253122623161084,-0.58418524,8.942939637266454,0.31612277,-0.20250183,0.0076358155,111.1875,2.4578564,-26.02541
2188087259000.0,-5.138771495101834,-0.58418524,8.983779264938562,0.31245756,-0.22052236,-0.01863139,111.22112,2.3572292,-26.018671
2188092282000.0,-5.030878059498802,-0.6084334298986549,8.968373048829925,0.30085114,-0.22357668,-0.03604105,111.256355,2.262404,-26.008427
2188097169000.0,-4.927391489598305,-0.6386170529334808,8.938189722959278,0.28313604,-0.21838433,-0.05009095,111.29809,2.1758153,-25.995403
2188102253000.0,-4.85676582107378,-0.6761371535692913,8.893195314268617,0.26511553,-0.22113322,-0.07422013,111.357254,2.0976322,-25.958313
2188107268000.0,-4.811600037368556,-0.7171969569376764,8.839817312644268,0.25167647,-0.20922135,-0.09468412,111.418915,2.0268178,-25.927708
2188112370000.0,-4.7596599528569925,-0.7573114405219404,8.781918360622962,0.22999077,-0.21838433,-0.1160644,111.49874,1.9741527,-25.877277
2188117226000.0,-4.696041549489634,-0.7915674519877933,8.718300314953172,0.22785273,-0.21838433,-0.13622294,111.58343,1.924562,-25.833843
2188122180000.0,-4.637240362903225,-0.8311162149395162,8.649246744959678,0.22510384,-0.21380283,-0.14385876,111.67346,1.8924223,-25.780373
2188127197000.0,-4.588806083064516,-0.8795505453528226,8.571751796068549,0.21563543,-0.21410827,-0.16340645,111.77208,1.8681562,-25.726563
2188132899000.0,-4.522963097446285,-0.9240354284554728,8.473522224914996,0.20799962,-0.20677789,-0.17531833,111.87413,1.8521069,-25.670362
2188137219000.0,-4.463103767344281,-0.9479791729971786,8.389718975258628,0.1994475,-0.20372356,-0.172264,111.97595,1.8405273,-25.614233
2188142222000.0,-4.393780566302539,-0.9757084678911958,8.292666276640382,0.20280726,-0.19700404,-0.19120082,112.096954,1.8409851,-25.559496
2188147191000.0,-4.34797698304419,-0.9626023188608838,8.240921687561375,0.20830505,-0.19364429,-0.20922135,112.215004,1.8434378,-25.505972
2188152417000.0,-4.315212101342063,-0.9216461996268412,8.216347940752865,0.20952678,-0.19822577,-0.21930063,112.33478,1.8482879,-25.453133
2188157247000.0,-4.286246247310453,-0.8817215800142116,8.198935554181768,0.21502456,-0.20891592,-0.22540927,112.45862,1.8616232,-25.389719
2188162218000.0,-4.262566583443474,-0.8309793866396646,8.205701313721312,0.22174409,-0.20677789,-0.23426682,112.58487,1.8764672,-25.329844
2188167235000.0,-4.238667795750729,-0.7797676416869183,8.212529681375685,0.2180789,-0.2180789,-0.23823744,112.70964,1.8820794,-25.262215
2188172213000.0,-4.196036697314488,-0.7230725774941948,8.215191513478041,0.2180789,-0.22999077,-0.26175576,112.8416,1.88936,-25.196106
2188177213000.0,-4.118687227349823,-0.6553919818354367,8.210357086421,0.22693644,-0.22174409,-0.27030787,112.96837,1.8947634,-25.134092
2188182215000.0,-4.0513934755908,-0.5941663764352484,8.188573756013025,0.23182335,-0.22052236,-0.28221974,113.09935,1.8886149,-25.063347
2188187227000.0,-4.000979788499107,-0.5437525840604978,8.138160016279802,0.226631,-0.21410827,-0.2929099,113.2308,1.884922,-24.997972
2188192298000.0,-3.9545224851321152,-0.4942410100880767,8.125298878401471,0.24617869,-0.20189096,-0.30848694,113.36208,1.8609253,-24.92181
2188197193000.0,-3.9144659800709873,-0.4480219400473248,8.153030240633626,0.26328292,-0.19242255,-0.31490102,113.49174,1.8407537,-24.848673
2188202515000.0,-3.870915271197581,-0.3977710941317208,8.183180661430262,0.2678644,-0.19486602,-0.3203988,113.62076,1.8108932,-24.77134
2188207246000.0,-3.83241806726448,-0.3756777458951366,8.223933521890496,0.28008172,-0.19272798,-0.31856623,113.74731,1.7765734,-24.700027
2188212309000.0,-3.791496058634877,-0.3807929836206351,8.285316588247706,0.2828306,-0.18020524,-0.31520647,113.87287,1.7460237,-24.632868
2188217219000.0,-3.771543401838956,-0.38307226,8.341880840511122,0.2855795,-0.16890424,-0.3109304,113.9977,1.6954114,-24.55652
2188222232000.0,-3.76829761058752,-0.38307226,8.397059427354472,0.27366763,-0.17012598,-0.312763,114.1208,1.6509845,-24.482435
2188227232000.0,-3.765060236508688,-0.38307226,8.452094921911973,0.2678644,-0.1685988,-0.30268374,114.24053,1.6018078,-24.398918
2188232279000.0,-3.7748934614814815,-0.3718638511851851,8.495088822222222,0.2507602,-0.16340645,-0.30665436,114.36276,1.5633281,-24.318613
2188237249000.0,-3.793951297117117,-0.3528061050990991,8.52844005945946,0.23884831,-0.14935656,-0.2968805,114.47523,1.524783,-24.244028
2188242219000.0,-3.826081512575613,-0.3250557500676536,8.584120421442217,0.24648413,-0.14446963,-0.28191432,114.58992,1.4845325,-24.162668
2188247216000.0,-3.867979631454951,-0.2907754431439032,8.656489819961795,0.23518312,-0.13805555,-0.2657264,114.69893,1.4534954,-24.088362
2188252280000.0,-3.914967888625685,-0.2571863706851997,8.724471,0.23090707,-0.13347405,-0.28069258,114.808495,1.4144214,-24.01072
2188257108000.0,-4.014538063449491,-0.2390826844909945,8.724471,0.22724187,-0.1432479,-0.28802297,114.908485,1.3778057,-23.933558
2188262525000.0,-4.122687132737067,-0.2272571617969306,8.722140789714402,0.204029,-0.13347405,-0.28985557,115.00737,1.3359846,-23.86195
2188267117000.0,-4.176322990202256,-0.3077105186177457,8.69532293098892,0.21105394,-0.1160644,-0.28863382,115.10552,1.2903385,-23.792358
2188272368000.0,-4.232949,-0.3855624575793124,8.665828913597878,0.20158553,-0.08399397,-0.25595254,115.18812,1.2470237,-23.746
2188277085000.0,-4.232949,-0.3026155643823319,8.652004634295624,0.19120082,-0.07422013,-0.25137106,115.27722,1.2073661,-23.699602
2188282134000.0,-4.231192405432495,-0.2160507204700812,8.639333942066754,0.19211712,-0.08155051,-0.29046643,115.37806,1.1821018,-23.661118
2188287091000.0,-4.207401587751829,-0.1589527232574922,8.653608233938057,0.19730948,-0.058948494,-0.29840767,115.46641,1.1557515,-23.635107
2188292107000.0,-4.180431145524753,-0.1039718881920792,8.666838381534653,0.17531833,-0.046731193,-0.29749137,115.55608,1.1203496,-23.604816
2188297087000.0,-4.116683644732673,-0.0850837688455445,8.664477442425742,0.1685988,-0.030848695,-0.2782491,115.64091,1.0802233,-23.582857
2188302225000.0,-4.050913632871287,-0.0655963878811881,8.662041598019801,0.16646078,-0.023823744,-0.30573806,115.73647,1.0361458,-23.555416
2188307106000.0,-3.988433401673267,-0.0470837552445544,8.659727593242573,0.13652839,-0.026267206,-0.3378085,115.82575,1.0014505,-23.530657
2188312304000.0,-3.924481407130333,-0.0374377953964543,8.659107994058056,0.12614368,-0.007941248,-0.3390302,115.912254,0.9636997,-23.514513
2188317141000.0,-3.897407776738749,-0.1547569452367037,8.681669352717709,0.11484267,0.005192355,-0.31215215,115.99801,0.9360967,-23.49671
2188322419000.0,-3.868852998542741,-0.2832144488715123,8.706025511373733,0.100792766,0.010995574,-0.28099802,116.09,0.90209186,-23.464977
2188327099000.0,-3.8648704657543984,-0.4066730484805403,8.721955767282743,0.102319926,-0.009162978,-0.26328292,116.17567,0.8673844,-23.430597
2188332108000.0,-3.86060796431491,-0.5388106821219123,8.739005906566554,0.10567969,-0.02565634,-0.24007004,116.27088,0.84995353,-23.384363
2188337137000.0,-3.913176916106504,-0.7089177944478394,8.720600470100393,0.10567969,-0.04734206,-0.2171626,116.35866,0.83254755,-23.332342
2188342092000.0,-3.9856717454386734,-0.8901550083609777,8.689531149388912,0.10170906,-0.05375614,-0.21105394,116.44283,0.8161053,-23.281523
2188347098000.0,-4.063805443021347,-0.9924755945754854,8.64482456292862,0.10598512,-0.07666359,-0.17745635,116.53324,0.8189786,-23.216003
2188352166000.0,-4.143502031527094,-1.0862363554679804,8.597944216748768,0.12034045,-0.09468412,-0.1563815,116.623985,0.82182187,-23.15161
2188357166000.0,-4.230856216758027,-1.1444771873923258,8.559018457321848,0.12186762,-0.11148291,-0.13683382,116.72146,0.8555727,-23.09108
2188362130000.0,-4.319271198590447,-1.1956647445184023,8.52179137274863,0.14080444,-0.121256754,-0.13194689,116.81541,0.8802615,-23.028769
2188367246000.0,-4.406772889028459,-1.2371128998429832,8.471933466143279,0.14813483,-0.13316862,-0.118202426,116.91309,0.91834277,-22.97508
2188372244000.0,-4.491323157448479,-1.2746907478704612,8.420263759568204,0.15699236,-0.13225232,-0.10934488,117.00928,0.95081973,-22.92334
2188377197000.0,-4.532907049756225,-1.321402461022114,8.386205784433223,0.16982053,-0.13561209,-0.10842858,117.10914,0.9864732,-22.883415
2188382203000.0,-4.562124333841198,-1.3714893520372626,8.356988282430784,0.18112154,-0.14172074,-0.076358154,117.19511,1.0154471,-22.843979
2188387956000.0,-4.596531286165126,-1.4013499976941877,8.319444785145043,0.2134974,-0.14446963,-0.10262536,117.29882,1.0442119,-22.81493
2188392185000.0,-4.622352317213899,-1.405653502868983,8.289320069174371,0.23182335,-0.15699236,-0.1151481,117.386955,1.0684298,-22.78231
2188397153000.0,-4.619317706677571,-1.3972194653805443,8.287574827768692,0.26511553,-0.1563815,-0.12370021,117.49108,1.0899222,-22.758423
2188402331000.0,-4.5906895894448185,-1.3781341037140382,8.311431592129319,0.28710666,-0.1518,-0.12614368,117.59572,1.1102158,-22.732758
2188407212000.0,-4.559220344827586,-1.3902881724137932,8.368478068965517,0.31245756,-0.14660765,-0.09315695,117.688736,1.1195964,-22.715239
2188412178000.0,-4.522978431415508,-1.431060271785102,8.459083207277578,0.3381139,-0.14355333,-0.089186326,117.79019,1.126866,-22.698872
2188417210000.0,-4.488371073648838,-1.4211273008120977,8.555602315877906,0.36102137,-0.14294247,-0.1255328,117.8947,1.125463,-22.6801
2188422229000.0,-4.456964258331,-1.3358800566507982,8.6587961041725,0.3726278,-0.15271631,-0.124311075,117.985085,1.1163882,-22.660145
2188427168000.0,-4.4273519794976135,-1.2526281940996948,8.741715994835277,0.38240165,-0.15974127,-0.11911872,118.09387,1.1114286,-22.625858
2188432223000.0,-4.400833898074967,-1.169285488606307,8.772022260583771,0.3924809,-0.17256944,-0.1151481,118.201004,1.1039736,-22.587933
2188437227000.0,-4.374583358126614,-1.0867836293997966,8.80202276578762,0.3894266,-0.16462818,-0.084910266,118.289825,1.0731615,-22.539604
2188442306000.0,-4.341178007121662,-0.9790260421810087,8.846200307678043,0.4007276,-0.16890424,-0.07391469,118.3818,1.0388339,-22.485329
2188447218000.0,-4.3062809436201785,-0.8656104764836795,8.894183861090506,0.40011674,-0.16890424,-0.099265605,118.47446,1.0103842,-22.435774
2188452231000.0,-4.295873293143092,-0.8194923216054198,8.913275067850545,0.3915646,-0.18661933,-0.11453723,118.55349,0.95730907,-22.37592
2188457977000.0,-4.307170299548347,-0.8307894695668241,8.90762638770273,0.40225476,-0.19822577,-0.118507855,118.63571,0.90269625,-22.319164
2188462209000.0,-4.296002013714071,-0.8331822,8.871171548938568,0.38789943,-0.19700404,-0.12308934,118.70864,0.83383596,-22.250755
2188467225000.0,-4.273440850460267,-0.8331822,8.812512712943828,0.3933972,-0.204029,-0.12064589,118.77944,0.75915337,-22.178755
2188472221000.0,-4.247184489077233,-0.8428452409153512,8.728785174065049,0.40378192,-0.20799962,-0.12950343,118.85777,0.6893961,-22.109207
2188477208000.0,-4.216825763343575,-0.8630844618497722,8.617469247589787,0.4111123,-0.19883664,-0.13622294,118.93358,0.62092066,-22.043434
2188482240000.0,-4.184994883442082,-0.8546689227489196,8.537601115752903,0.4129449,-0.19486602,-0.14508049,119.01895,0.5500026,-21.976482
2188487235000.0,-4.152566154902127,-0.8262939535259723,8.480851295822388,0.44318274,-0.18478674,-0.15943582,119.10684,0.47341684,-21.91572
2188492179000.0,-4.119835478588826,-0.8036749578588825,8.432506166063916,0.45540005,-0.18417588,-0.16035213,119.18936,0.4038886,-21.84925
2188497202000.0,-4.084331591829655,-0.8001245691829655,8.411203737619013,0.4605924,-0.18020524,-0.16065755,119.27491,0.33215645,-21.788448
2188502188000.0,-4.049089230814082,-0.7966003330814082,8.390058225330284,0.4783075,-0.18997909,-0.17287487,119.368034,0.24660727,-21.724503
2188507296000.0,-4.047704678067723,-0.7842955468779124,8.384995812364089,0.4990769,-0.19517145,-0.16676621,119.45424,0.1596465,-21.664703
2188512311000.0,-4.077544733001967,-0.7644021059490524,8.39494272237755,0.4990769,-0.20525073,-0.15790866,119.541954,0.07724518,-21.602362
2188517274000.0,-4.116403754047537,-0.7590320023079572,8.40132435377196,0.50732356,-0.20677789,-0.15149458,119.62972,-0.014900056,-21.533588
2188522225000.0,-4.161319753039958,-0.7631152555632105,8.405407692301068,0.50732356,-0.24220806,-0.15332718,119.71598,-0.102019176,-21.454193
2188527589000.0,-4.214834068703242,-0.7480775377306733,8.40099762094763,0.52839845,-0.24098633,-0.1441642,119.79964,-0.20312597,-21.392
2188532193000.0,-4.269811079885812,-0.6988875351949075,8.380742800630003,0.5403103,-0.24801129,-0.14660765,119.88619,-0.29739287,-21.319338
2188537181000.0,-4.329373489047119,-0.64559480438509,8.358798612153825,0.55924714,-0.25961772,-0.1469131,119.96964,-0.3990655,-21.254517
2188542169000.0,-4.386822330170484,-0.6016352349715861,8.355027858016186,0.5766568,-0.2947425,-0.1441642,120.05179,-0.50050634,-21.182781
2188547202000.0,-4.436624328861718,-0.5933349018563803,8.421430609609093,0.59559363,-0.2666427,-0.04520403,120.10314,-0.6141831,-21.127447
2188552247000.0,-4.486545068658516,-0.5850147785569141,8.487991682882727,0.6068946,-0.24098633,-0.058643065,120.17684,-0.73671335,-21.07674
2188557213000.0,-4.413384761415803,-0.5277524906469633,8.351375490859231,0.6261369,-0.34483343,-0.19425514,120.25767,-0.86045593,-20.998905
2188562184000.0,-4.326353234572415,-0.4648962959272801,8.191817296160878,0.61819565,-0.36346483,-0.20250183,120.30255,-0.9880537,-20.95387
2188567253000.0,-4.309980181228179,-0.4093076932789073,8.123633896077223,0.6075055,-0.3378085,-0.21746802,120.39253,-1.1065379,-20.898336
2188572600000.0,-4.299331028556727,-0.3519388293216705,8.059957233050339,0.6197228,-0.3359759,-0.22357668,120.481445,-1.2255428,-20.832705
2188577193000.0,-4.288014784049396,-0.3104458973458537,7.995831926284195,0.63132924,-0.344528,-0.22510384,120.56231,-1.3513474,-20.7649
2188582246000.0,-4.275565190429638,-0.2647973484075122,7.925284315770518,0.6420194,-0.37048978,-0.23976462,120.64764,-1.4919853,-20.693047
2188587236000.0,-4.255046260706079,-0.2263033214476708,7.891139688719448,0.643852,-0.40744713,-0.24709499,120.73029,-1.6300004,-20.617622
2188592225000.0,-4.23009396532275,-0.1913700870670566,7.876168207269689,0.6569856,-0.42180246,-0.25442538,120.81637,-1.76848,-20.543543
2188597255000.0,-4.161702807111294,-0.1529385857085602,7.92654886003494,0.67011917,-0.4147775,-0.25259277,120.90147,-1.9204774,-20.46845
2188602106000.0,-4.080542401603124,-0.1147455226163806,7.998160806597472,0.6640105,-0.42058071,-0.23823744,120.98414,-2.0671413,-20.387974
2188607125000.0,-3.992264337585868,-0.0729914361874386,8.073304264474976,0.67011917,-0.43493605,-0.22113322,121.06397,-2.224647,-20.307222
2188612087000.0,-3.9036596712070657,-0.0310207726062806,8.14791881776251,0.6747007,-0.42852196,-0.21044308,121.14021,-2.3766418,-20.233055
2188617112000.0,-3.803798599274581,0.0352523389955886,8.243824271738065,0.68508536,-0.42760566,-0.20250183,121.213264,-2.541295,-20.133417
2188622092000.0,-3.7009424867365945,0.1100567691220468,8.346680481913538,0.6899723,-0.42363504,-0.18112154,121.27788,-2.7033486,-20.039194
2188627087000.0,-3.5609979760908548,0.1275953544411237,8.525504622833234,0.711658,-0.42638394,-0.16798794,121.33991,-2.8807783,-19.920033
2188632079000.0,-3.403830789001793,0.1180700634429169,8.739823446503289,0.71593404,-0.4373795,-0.15118915,121.39373,-3.0521512,-19.802952
2188637119000.0,-3.325695382335148,0.1312885781246218,8.928503636418633,0.7247916,-0.45204028,-0.12156218,121.44227,-3.2527533,-19.655878
2188642544000.0,-3.283788269257915,0.157480443117564,9.117085016233112,0.7324274,-0.4636467,-0.0870483,121.4839,-3.45007,-19.510954
2188647083000.0,-3.2818084250844763,0.1758869769986086,9.227374183263764,0.72601336,-0.4783075,-0.064751714,121.53558,-3.648757,-19.317484
2188652133000.0,-3.291421392685351,0.1951129222381236,9.333117278572848,0.7305948,-0.4859433,-0.04642576,121.57791,-3.8479207,-19.129202
2188657105000.0,-3.2944214,0.2107865971802498,9.456404937834622,0.7247916,-0.4905248,-0.022296581,121.62072,-4.049224,-18.92264
2188662100000.0,-3.2944214,0.2250150770434265,9.589204040303391,0.7199047,-0.473726,0.0018325958,121.657715,-4.2460876,-18.72717
2188667136000.0,-3.282640807658321,0.2651851616273932,9.693170961708397,0.7165449,-0.45448375,0.021991149,121.687836,-4.4422545,-18.528849
2188672112000.0,-3.26509509455081,0.3178223375920471,9.78089952724595,0.70738196,-0.44104472,0.042760566,121.710594,-4.6306925,-18.340252
2188677105000.0,-3.241109516301911,0.3922799961823422,9.880821112629445,0.689056,-0.4156938,0.06383542,121.73146,-4.8184853,-18.15377
2188682101000.0,-3.210462173801644,0.4893301683356464,9.993194577346,0.6817256,-0.40683624,0.07819075,121.748604,-5.001309,-17.972815
2188687130000.0,-3.1310065695161766,0.5531949262649648,10.057081300385873,0.66798115,-0.398895,0.09040806,121.76097,-5.1922817,-17.787605
2188692108000.0,-3.0225186764915404,0.595646691647373,10.090099521816564,0.66248333,-0.37843102,0.13164146,121.76033,-5.380619,-17.613857
2188697124000.0,-3.0182259146433537,0.6442176940691436,10.131987396582556,0.65576386,-0.39187005,0.17562376,121.75502,-5.5869036,-17.41754
2188702145000.0,-3.0851037790780844,0.6967645390979534,10.179757228491953,0.64599,-0.40225476,0.21960606,121.73771,-5.787179,-17.23357
2188707128000.0,-3.1647695140445578,0.7044954361075669,10.204804853076848,0.6337727,-0.39370266,0.25259277,121.71402,-5.998625,-17.026964
2188712774000.0,-3.2655979641966826,0.6779616188536658,10.215418047502208,0.61453044,-0.4071417,0.27977628,121.68169,-6.2010865,-16.817795
2188717154000.0,-3.3568106879685966,0.6469805210834152,10.137866123650635,0.6209445,-0.40439278,0.31581733,121.636345,-6.417654,-16.62662
2188722126000.0,-3.4689580270068694,0.604925276263003,9.993009660451422,0.61544675,-0.42180246,0.34391713,121.58836,-6.620578,-16.43172
2188727114000.0,-3.58883822755293,0.5937516638148695,9.85939017902511,0.6178902,-0.42394048,0.35246924,121.543594,-6.8247967,-16.257471
2188732106000.0,-3.715948066016741,0.6125827315135401,9.736988108714918,0.62796944,-0.43249258,0.36377025,121.49251,-7.0262594,-16.080736
2188737155000.0,-3.805952758485301,0.6571636122162431,9.656395026307925,0.63132924,-0.44715336,0.36560285,121.44568,-7.219535,-15.930613
2188742121000.0,-3.853345372456402,0.7282524193532636,9.623220067862482,0.65393126,-0.43035457,0.37201694,121.39505,-7.417184,-15.790412
2188747120000.0,-3.848041195580111,0.7639612457981971,9.572788186972955,0.6597345,-0.4352415,0.37140608,121.34653,-7.615076,-15.6701355
2188752150000.0,-3.782673427624309,0.759292126480566,9.502751397208492,0.6637051,-0.4529566,0.37659842,121.29608,-7.8149385,-15.553534
2188757142000.0,-3.7162681609756096,0.7509150521951219,9.424200681300814,0.6765333,-0.45204028,0.38423425,121.2357,-8.031274,-15.447139
2188762130000.0,-3.64773289784792,0.7372079995695839,9.332820330463893,0.68691796,-0.46273044,0.41386122,121.170555,-8.245278,-15.334188
2188767154000.0,-3.582658988880157,0.7005067150294696,9.264275413359528,0.70005155,-0.47952923,0.42730024,121.114,-8.463262,-15.212379
2188772153000.0,-3.526225385913556,0.6158564087917485,9.245463852259332,0.7150178,-0.48716503,0.4392121,121.051315,-8.681963,-15.091941
2188777178000.0,-3.465883249689999,0.5918396098840867,9.23831423856591,0.7257079,-0.49632803,0.43249258,121.00017,-8.902114,-14.961234
2188782643000.0,-3.390638857067122,0.7282202587294455,9.261828126606163,0.7305948,-0.505491,0.43249258,120.94596,-9.121376,-14.830749
2188787197000.0,-3.3278877094334787,0.8354604049115611,9.276792494488593,0.7281514,-0.50793445,0.4529566,120.89549,-9.324489,-14.6903105
2188792144000.0,-3.259067681466291,0.8678462661112535,9.232262308382468,0.7339546,-0.5207626,0.45937067,120.851814,-9.525756,-14.548347
2188797130000.0,-3.189705106280441,0.9004874433786209,9.1873810656242,0.72021013,-0.48808134,0.47433686,120.795525,-9.7491255,-14.4022
2188802154000.0,-2.947152587221135,0.9604263085596868,9.19820793483366,0.70005155,-0.44715336,0.39675698,120.76644,-9.961016,-14.262891
2188807164000.0,-2.6373025683365947,1.0308467803209391,9.231070495499022,0.7144069,-0.44959682,0.45631635,120.69557,-10.184711,-14.116466
2188812166000.0,-2.416684388965517,1.1534135187698042,9.29614436551724,0.70402217,-0.44532076,0.5119051,120.648,-10.3980875,-13.976302
2188817177000.0,-2.237786505172414,1.3010043277726002,9.376648672413792,0.677755,-0.45723262,0.54550266,120.59234,-10.608785,-13.832345
2188822154000.0,-2.1110102109489053,1.4467269866180048,9.437174274939172,0.6612616,-0.47494772,0.5815437,120.52691,-10.842022,-13.622209
2188827127000.0,-2.028930603953772,1.5915732747972424,9.480628534468774,0.64599,-0.47739118,0.6239988,120.45198,-11.0652,-13.415987
2188832126000.0,-1.997126222447389,1.6722388673421666,9.50534326110678,0.63346726,-0.4813618,0.6407976,120.38498,-11.321182,-13.161302
2188837170000.0,-2.0065388060795013,1.7004766182385036,9.514755549883088,0.6261369,-0.47036624,0.66706485,120.30511,-11.570485,-12.914142
2188842129000.0,-2.0437317571664884,1.6863035397976065,9.4960586367617,0.61666846,-0.4801401,0.6963864,120.22651,-11.84612,-12.640894
2188847129000.0,-2.108962563822127,1.6303914545587237,9.449465272939571,0.6246097,-0.49388456,0.71959925,120.14486,-12.117665,-12.375956
2188852219000.0,-2.177486990122107,1.5831855733369784,9.39936625733552,0.63132924,-0.5002986,0.7180721,120.058365,-12.384315,-12.113877
2188857161000.0,-2.24649156779661,1.5486832169491525,9.34761261016949,0.6365216,-0.4801401,0.70952,119.96974,-12.646282,-11.861448
2188862119000.0,-2.303486742940863,1.5214488991582311,9.306129345551412,0.6426302,-0.4728097,0.7134906,119.87552,-12.893733,-11.6191
2188867167000.0,-2.324091565530101,1.5162977338518913,9.295826799786894,0.63713247,-0.4529566,0.7104363,119.786545,-13.132129,-11.392735
2188872115000.0,-2.29970335687251,1.529008678256972,9.282447254681276,0.6404922,-0.44409904,0.70432764,119.690796,-13.36166,-11.182573
2188877169000.0,-2.1984657969123504,1.5723962111454184,9.263164029780876,0.6426302,-0.44776422,0.6743952,119.60491,-13.582467,-10.9810505
2188882105000.0,-2.114011072927324,1.6192807718366953,9.25452074519834,0.6478226,-0.45845437,0.6621779,119.51563,-13.8013315,-10.7839365
2188887169000.0,-2.0531616461924527,1.6754494320818454,9.263882375928963,0.65668017,-0.4343252,0.6771441,119.42733,-14.016651,-10.600101
2188892154000.0,-2.009865133167614,1.7193054673295454,9.262763372602985,0.6789767,-0.44593164,0.6826419,119.3469,-14.242164,-10.387056
2188897125000.0,-2.005638724005682,1.7362111039772727,9.237404829367897,0.6930266,-0.44073927,0.6780604,119.2646,-14.462879,-10.189857
2188902306000.0,-2.011715975530625,1.7714304483929657,9.21796971619163,0.70249504,-0.44440445,0.68203104,119.17688,-14.698414,-9.970387
2188907292000.0,-2.1468482165858096,2.022390432625833,9.28553621467556,0.72082096,-0.4382958,0.6759224,119.09462,-14.934056,-9.761172
2188912211000.0,-2.2697031,2.250222896968625,9.34957761060539,0.7147123,-0.4111123,0.67103547,119.00397,-15.166802,-9.553827
2188917202000.0,-2.2697031,2.245998609845338,9.383371731153336,0.72601336,-0.41416663,0.66889745,118.918564,-15.403854,-9.345032
2188922159000.0,-2.2697031,2.2418030996730005,9.416935637295625,0.73853606,-0.41783184,0.67073005,118.81524,-15.676492,-9.163321
2188927131000.0,-2.2629675621993126,2.224133867583047,9.41684263802978,0.75411314,-0.42180246,0.6713409,118.71578,-15.946994,-8.985182
2188932118000.0,-2.254551093391488,2.203092585707992,9.408426388932943,0.7684685,-0.42821655,0.67256266,118.618675,-16.214813,-8.809383
2188937155000.0,-2.233041543416928,2.1655761396551725,9.371909619905956,0.7797695,-0.44135013,0.67347896,118.52126,-16.478525,-8.628552
2188942136000.0,-2.2003305044670847,2.1141730784482755,9.31115976684953,0.7867944,-0.45906523,0.6640105,118.42977,-16.738834,-8.44965
2188947129000.0,-2.21449326118899,2.051996312452676,9.268009120740818,0.81061816,-0.46609017,0.655153,118.335884,-16.997726,-8.268338
2188952224000.0,-2.2793984938197074,1.9771054949964184,9.243045549677683,0.8020661,-0.4868596,0.6383542,118.25176,-17.243086,-8.084164
2188957193000.0,-2.338996740380236,1.91310538658283,9.20105477532429,0.8222246,-0.5021312,0.61208695,118.17713,-17.49292,-7.8984976
2188962190000.0,-2.395860215437172,1.8562419610060403,9.144191696108525,0.8188649,-0.5213735,0.600786,118.10718,-17.728287,-7.7105794
2188968197000.0,-2.4873038770819824,1.7680169084113015,9.078496839647984,0.820392,-0.5329799,0.57696223,118.04384,-17.949274,-7.5384073
2188972221000.0,-2.558701901056045,1.7001887819082908,9.0356579208893,0.83260936,-0.56169057,0.5522222,117.98879,-18.167154,-7.3614044
2188977250000.0,-2.6127986896468847,1.6338538171750787,8.982162780366057,0.84482664,-0.57879484,0.52839845,117.93517,-18.372084,-7.1978602
2188982198000.0,-2.6084183969495287,1.5988114755962286,8.929599542429283,0.872621,-0.6020077,0.49235737,117.89627,-18.579147,-7.0320115
2188987214000.0,-2.601981806889107,1.572536095407262,8.878547839646712,0.8979719,-0.6151413,0.45051312,117.86678,-18.769218,-6.8898907
2188992318000.0,-2.5875912316584886,1.582129812227674,8.835375713248283,0.9071349,-0.63591075,0.4269948,117.84606,-18.957949,-6.7444468
2188997200000.0,-2.559580661860952,1.6021852307684266,8.799427008991113,0.9257663,-0.6560693,0.40408736,117.8353,-19.147142,-6.60103
2189002261000.0,-2.4582357374385784,1.6781939373131207,8.789292839309985,0.9550878,-0.6545421,0.38148534,117.83153,-19.33725,-6.4634275
2189007326000.0,-2.377041675372588,1.7485685926948449,8.780848650134375,0.9630291,-0.66645396,0.36071593,117.83111,-19.526255,-6.3161764
2189012195000.0,-2.3504590924993893,1.80173356017591,8.777051075983385,0.9728029,-0.6630942,0.35216382,117.83255,-19.719688,-6.17783
2189017252000.0,-2.322850112916361,1.8569513134212885,8.773106871325025,0.9755518,-0.68111473,0.32895094,117.84226,-19.923267,-6.014873
2189022221000.0,-2.277824458542401,1.9350739025813808,8.77633135133734,0.97494096,-0.68508536,0.31581733,117.850395,-20.124386,-5.860161
2189027179000.0,-2.2286001947854035,2.018755289747045,8.781253885652083,0.9978484,-0.6817256,0.31337386,117.863396,-20.32828,-5.7074695
2189032182000.0,-2.1822496377010694,2.026685767063733,8.814307021302495,1.0030408,-0.6814202,0.2959642,117.881226,-20.536125,-5.5485787
2189037323000.0,-2.1351600266411617,2.0224048933310144,8.852834795496044,0.9944886,-0.6973027,0.2837469,117.90006,-20.742168,-5.3897305
2189042266000.0,-2.1164744,1.9830112536608255,8.882621044639134,1.0118983,-0.71776664,0.25686884,117.92709,-20.968882,-5.2237935
2189047218000.0,-2.1164744,1.918710401345432,8.90735212181894,1.0125091,-0.7357872,0.23426682,117.95796,-21.183481,-5.059055
2189052210000.0,-2.099463432470364,1.928103203059,8.928765236748877,1.0140363,-0.7761043,0.21074851,118.00111,-21.395302,-4.8766336
2189057300000.0,-2.072895213775719,1.9779185177476493,8.948691418108735,1.0173961,-0.8155051,0.19211712,118.0509,-21.602726,-4.695737
2189062231000.0,-2.047156925684698,2.0261777155334517,8.967995150974248,1.0210613,-0.84940815,0.17806722,118.10979,-21.79303,-4.5097466
2189067230000.0,-1.953489154828692,2.1435046030655176,8.918190738028452,1.0155635,-0.8720101,0.16432275,118.17636,-21.97697,-4.322602
2189072214000.0,-1.8339470011120016,2.286955227469445,8.841683691745143,1.0369438,-0.8790351,0.16340645,118.24491,-22.165382,-4.135175
2189077200000.0,-1.7379929595854924,2.3896108128658904,8.806361903640402,1.0369438,-0.8958339,0.1685988,118.315735,-22.354542,-3.9325004
2189082208000.0,-1.650856354404145,2.476747519144068,8.78699815369087,1.0461067,-0.904386,0.17745635,118.38542,-22.548054,-3.7345588
2189087194000.0,-1.5641025378238342,2.5635014363770945,8.76771946813808,1.0445796,-0.90194255,0.18448131,118.44846,-22.76916,-3.510604
2189092371000.0,-1.449668532365432,2.674247417975309,8.729587016395062,1.035722,-0.90224797,0.18997909,118.51075,-22.98584,-3.2882228
2189097214000.0,-1.3351488258370372,2.7841861487407407,8.688360052148148,1.0338894,-0.8958339,0.19975294,118.56889,-23.19932,-3.0722468
2189102229000.0,-1.1683557079242697,3.0092666954681744,8.62891050484023,1.0277808,-0.8903361,0.2003638,118.62762,-23.436193,-2.8285584
2189108329000.0,-0.9431493308147004,3.334564807350296,8.54883709611925,1.0167851,-0.8756753,0.20647246,118.68054,-23.665825,-2.593188
2189112430000.0,-0.8318991607655501,3.4864616880382777,8.529956507177033,1.0228939,-0.8750645,0.20616703,118.73296,-23.92161,-2.3318272
2189117237000.0,-0.7437925496544391,3.594147585816055,8.544641240510368,1.0238101,-0.86742866,0.21288654,118.77954,-24.16682,-2.081231
2189122267000.0,-0.6946777688375413,3.6797673181372113,8.55430361182978,1.0360274,-0.8552113,0.21227567,118.82185,-24.484404,-1.7800387
2189127260000.0,-0.686145881532697,3.739490529271121,8.558569644571326,1.028697,-0.8585711,0.2125811,118.86351,-24.7884,-1.4847511
2189132157000.0,-0.6882920595075239,3.785221127594293,8.577152217901114,1.0277808,-0.85154617,0.22876903,118.8966,-25.114046,-1.1735829
2189137218000.0,-0.7214440326949384,3.7946932188391633,8.638719970295094,1.0454959,-0.84696466,0.23365596,118.93369,-25.4339,-0.87177676
2189142227000.0,-0.7674622227815256,3.805141831744384,8.713721527763363,1.0595458,-0.8472701,0.22876903,118.967995,-25.758135,-0.5723392
2189147187000.0,-0.8590201677737416,3.819227658121432,8.836972508562532,1.0803152,-0.86101454,0.20861048,119.00654,-26.08058,-0.28109503
2189152235000.0,-0.9522025279190452,3.8335633943212986,8.962410200311364,1.099252,-0.9080512,0.16035213,119.05868,-26.39633,0.0026330375
2189157537000.0,-1.03921483365513,3.768254700544315,9.041524374447985,1.1227703,-0.99387777,0.09101892,119.12833,-26.711136,0.28605375
2189162228000.0,-1.1084221871623705,3.652909095306563,9.07382082787306,1.1749994,-0.8374963,0.22693644,119.132515,-27.031054,0.5314825
2189167254000.0,-1.0911438420855364,3.6642974559534167,8.987666306070544,1.2229522,-0.84513205,0.22815818,119.22816,-27.340055,0.7809085
2189172212000.0,-1.0085170548209623,3.772347875684359,8.816056987684894,1.2608259,-0.8866709,0.22235495,119.275055,-27.653244,1.0092237
2189177167000.0,-0.9259402635954757,3.880332915976173,8.644551507128037,1.2910637,-0.8918633,0.21685717,119.32163,-27.949219,1.2129297
2189182238000.0,-0.8039601121770966,4.051699483414219,8.633846354278417,1.3274102,-0.890947,0.21135938,119.37417,-28.250822,1.4191033
2189187265000.0,-0.6563965569093231,4.264846808684546,8.740420038314177,1.3552046,-0.91690874,0.17928895,119.43885,-28.55188,1.6233622
2189192233000.0,-0.506743214973488,4.497981750778791,8.864146307290804,1.3808609,-0.98349303,0.15271631,119.50719,-28.911568,1.8625063
2189197242000.0,-0.3437954691731565,4.8040056305385255,9.04696567738194,1.3695599,-1.0421361,0.1386664,119.58264,-29.260382,2.096823
2189202209000.0,-0.182214025094449,5.107463528475559,9.228252124026511,1.3344351,-1.087951,0.13347405,119.66569,-29.63678,2.3784795
2189207219000.0,-0.1226054316628821,5.376263271615721,9.387093995633188,1.3045027,-1.1071932,0.17073683,119.74558,-30.001013,2.6633487
2189213697000.0,-0.0735431442020867,5.709461463994143,9.58806845597657,1.2681563,-1.099252,0.18203785,119.83513,-30.344202,2.9397213
2189217239000.0,-0.0362877356260296,5.846064564909391,9.724671459637564,1.2330315,-1.0858129,0.21044308,119.904465,-30.712301,3.2650352
2189222182000.0,0.0157036490694673,6.0366995530020136,9.915306312008054,1.1841623,-1.0418307,0.22052236,119.96512,-31.08926,3.5850515
2189227194000.0,-0.1343456937326833,5.937644053483648,10.018607337599024,1.1615603,-1.0235047,0.23640485,120.01918,-31.451159,3.901202
2189232180000.0,-0.4350259112573633,5.620798388401381,10.054171706886043,1.110553,-1.0635164,0.12003502,120.10534,-31.783033,4.1914263
2189237194000.0,-0.7373946659041234,5.302173405504774,10.089935795856183,1.0509937,-1.4694363,-0.21471913,120.289,-32.118855,4.543483
2189242235000.0,-0.7368354806291016,5.1810527,10.037854440823716,0.9761627,-1.1640037,0.062002823,120.24922,-32.412495,4.797135
2189247251000.0,-0.5520349696356641,5.1810527,9.932771946141662,0.9624182,-1.0320568,0.16401732,120.41871,-32.70911,5.102516
2189252640000.0,-0.3630617134506745,5.170483687984824,9.80980763975548,0.9728029,-1.071763,0.19333886,120.54298,-32.912907,5.315983
2189258402000.0,-0.3456139183368465,4.955294121795952,9.484114962268128,0.98837996,-1.0955868,0.27855456,120.60527,-33.104515,5.5135946
2189262305000.0,-0.3378221069627605,4.812036287461565,9.26955989203963,1.0464121,-1.106277,0.3203988,120.66859,-33.31747,5.7616806
2189267773000.0,-0.3691307690331397,4.6376021836351216,9.032508921762895,1.102001,-1.1548407,0.31795537,120.73158,-33.527298,6.023838
2189272188000.0,-0.3944101660778955,4.496759724162966,8.841108037751964,1.1389582,-1.1911873,0.2919936,120.78803,-33.74251,6.293546
2189277279000.0,-0.3580671668690702,4.44438329487666,8.661231548387097,1.1691961,-1.2006557,0.26206118,120.84936,-33.965885,6.559888
2189282245000.0,-0.2992125857074498,4.432612428628001,8.50036240112202,1.1887437,-1.2061534,0.22479841,120.92344,-34.19191,6.8211317
2189287238000.0,-0.0568675709734513,4.610342585840708,8.334534123893805,1.1960741,-1.2034045,0.18967366,121.006775,-34.418648,7.07409
2189292394000.0,0.6080922513928433,5.223055667295114,8.154044862254713,1.1930199,-1.1905763,0.15302174,121.09777,-34.643707,7.313003
2189297209000.0,1.1605440684362751,5.753523730919948,8.025364,1.1924089,-1.176221,0.13041973,121.19295,-34.88586,7.562196
2189302209000.0,1.5045513925639111,6.164545376749394,8.025364,1.1817188,-1.1618657,0.12675454,121.28915,-35.11893,7.7988973
2189307254000.0,1.8314429648965247,6.554899780304568,8.024318438656774,1.1664472,-1.1609493,0.12797627,121.33126,-35.437805,8.183038
2189312268000.0,1.9589412906286607,6.704897789847716,8.01306855759469,1.1365148,-1.153619,0.13713925,121.37037,-35.73876,8.547892
2189317272000.0,2.086185331706365,6.854596641015228,8.0018411134713,1.1218541,-1.146594,0.13622294,121.36922,-36.088512,8.999288
2189322264000.0,2.110628335532126,6.986268945670001,8.017379422005947,1.1053606,-1.1258247,0.12889257,121.36918,-36.415634,9.422307
2189328115000.0,2.0348863311886096,7.122604574578714,8.062824719518789,1.0464121,-1.0842859,0.14172074,121.36444,-36.713142,9.820195
2189332164000.0,1.971311092827869,7.152363737909836,8.056528021721311,0.9957104,-1.0204504,0.18020524,121.366646,-37.034344,10.231104
2189337284000.0,1.8662659661512668,7.047318420473174,7.965184379396423,0.97402465,-0.97341377,0.17470746,121.37511,-37.33674,10.609927
2189342247000.0,1.7572241550374486,6.952207066932432,7.87735819471692,0.95325524,-0.9111055,0.1572978,121.3753,-37.641636,10.960744
2189347249000.0,1.6106250701377145,6.890481210654747,7.792485006378352,0.93767816,-0.8579602,0.14660765,121.37109,-37.930817,11.285164
2189352203000.0,1.4654327737376176,6.829347685664814,7.708426274865104,0.91507614,-0.8145888,0.18967366,121.37506,-38.211983,11.583697
2189357267000.0,1.3565420549248748,6.702665155240215,7.625856093081061,0.9379836,-0.7663304,0.19700404,121.37973,-38.495586,11.848388
2189362547000.0,1.2627458078464109,6.538521698367649,7.541439460916342,0.9502009,-0.73426,0.20005837,121.371635,-38.75878,12.102235
2189367245000.0,1.188659105315904,6.462988308278867,7.444805070849673,0.9728029,-0.6994407,0.20066923,121.38094,-39.041607,12.310208
2189372236000.0,1.117847493228758,6.442161376339869,7.32400890909804,0.9801333,-0.66706485,0.20708331,121.38244,-39.315327,12.505178
2189377187000.0,1.0640544576398498,6.42912387291955,7.195508097272189,0.9984592,-0.65270954,0.20189096,121.39032,-39.586178,12.681106
2189382256000.0,1.068852322751532,6.443517468254596,7.032380483079661,0.9868528,-0.6236934,0.19456059,121.38788,-39.843925,12.841196
2189387211000.0,1.0838732393185186,6.471673983496296,6.8804575792,0.9767735,-0.58062744,0.18051068,121.38962,-40.122303,12.985501
2189392278000.0,1.1413851656296297,6.557941998074074,6.755848564,0.9505063,-0.52748215,0.1554652,121.38713,-40.388275,13.112509
2189397286000.0,1.2025104791630592,6.6382273821428575,6.645455658737374,0.95539325,-0.49418998,0.15515977,121.38095,-40.67776,13.247055
2189402264000.0,1.2816220332178931,6.696701103571429,6.59042135459596,0.95111716,-0.46395215,0.13408493,121.37433,-40.955353,13.35726
2189407216000.0,1.360320389119769,6.754869417857143,6.535674493585859,0.93523467,-0.4297437,0.10170906,121.359764,-41.251995,13.474733
2189412250000.0,1.4315490034843206,6.828563548780488,6.511561127177701,0.91232723,-0.4034765,0.07574729,121.343346,-41.54052,13.57957
2189418294000.0,1.501698683532798,6.942556721633086,6.537867222860172,0.89766645,-0.3304781,0.07147124,121.31224,-41.82185,13.660868
2189422216000.0,1.5472193726708074,7.0165278043478265,6.554937459006211,0.8604037,-0.3042109,0.05467244,121.286995,-42.105022,13.76547
2189427262000.0,1.575726347268673,7.12719408361204,6.539522944537347,0.8332202,-0.23518312,0.025961773,121.24133,-42.382538,13.838067
2189432159000.0,1.5943987431915911,7.239228459149547,6.513381629240325,0.80481493,-0.15760323,0.035430185,121.18355,-42.642075,13.903561
2189437195000.0,1.5855530885401945,7.338488178965225,6.508641960324192,0.7874053,-0.11026118,0.02565634,121.126144,-42.908558,13.964859
2189442270000.0,1.4893653140608802,7.388872296861747,6.572767223023278,0.75991637,-0.06536258,0.017104227,121.051094,-43.15856,14.0093775
2189447216000.0,1.387067984526606,7.4303460903687055,6.625894564140538,0.7247916,-0.045814894,0.04428773,120.965324,-43.41865,14.061393
2189452254000.0,1.2244511107649882,7.420490525380451,6.61603879333061,0.7110472,-0.03848451,0.057421334,120.87798,-43.6742,14.099074
2189457273000.0,1.0584630541009896,7.419986420140143,6.605483826619952,0.70005155,-0.018936822,0.06291912,120.79306,-43.922695,14.108331
2189462283000.0,0.8747651918168027,7.461578359459654,6.591619846846782,0.7110472,-0.0143553335,0.084910266,120.70385,-44.165985,14.123467
2189467265000.0,0.6920939842519686,7.502937848818898,6.577833350393701,0.72021013,0.005497787,0.09437868,120.6135,-44.41036,14.0995245
2189472219000.0,0.5198226083225529,7.525293744394136,6.544774753040104,0.752586,0.004276057,0.11209377,120.52054,-44.656723,14.084528
2189477321000.0,0.3565316352652005,7.52002618790427,6.481565395213454,0.79534656,-0.00061086525,0.124311075,120.42349,-44.903778,14.0666485
2189482249000.0,0.2292852022331288,7.520113806748466,6.436201633742331,0.83016586,0.025350908,0.13347405,120.32232,-45.1759,14.002137
2189487203000.0,0.1253336235940403,7.524271953812446,6.402937151919369,0.86284715,0.07513642,0.13622294,120.2157,-45.45366,13.935649
2189492189000.0,0.0464669076476032,7.539415579043593,6.380278985196823,0.88178396,0.0720821,0.1328632,120.113014,-45.744698,13.851135
2189497261000.0,0.0409165951260926,7.586593321830543,6.388604448763069,0.9101892,0.09010262,0.14782938,119.990715,-46.04018,13.75852
2189502243000.0,0.0354647700113123,7.632933920127979,6.396782181311775,0.9416488,0.122478485,0.16462818,119.86902,-46.349228,13.645568
2189508842000.0,0.0381759406123789,7.693324497373173,6.413180705705138,0.9764681,0.112704635,0.15302174,119.75515,-46.663074,13.535917
2189512217000.0,0.1098133160433426,7.717203550484321,6.460938895041865,0.9941832,0.10598512,0.160963,119.62638,-46.97218,13.428813
2189517254000.0,0.2167281190198653,7.752841710638647,6.532215339394188,0.98899084,0.10140363,0.16065755,119.49414,-47.286263,13.31588
2189522214000.0,0.3113773480253675,7.783889853848371,6.567229449553185,1.0112875,0.08827003,0.17012598,119.361855,-47.605423,13.211344
2189527238000.0,0.3853489050158547,7.807005950321899,6.5302437434707405,1.0094548,0.0888809,0.17806722,119.227905,-47.91159,13.106366
2189532248000.0,0.435642321010319,7.812839207324476,6.452113677109328,1.0103711,0.08368854,0.19364429,119.08214,-48.200962,13.0317335
2189537275000.0,0.4161605888541175,7.767381931746139,6.250802551062252,1.0137309,0.07360926,0.21013765,118.936066,-48.48465,12.960996
2189542248000.0,0.3968881293329736,7.722412957914615,6.05165390776961,1.0458013,0.076052725,0.21319197,118.77431,-48.77017,12.907313
2189547254000.0,0.3668558337060472,7.687681166989063,5.891426142872639,1.0705414,0.08857546,0.20891592,118.61159,-49.04899,12.856157
2189552122000.0,0.312073347100244,7.67925309821929,5.832429573479165,1.1044444,0.09437868,0.2134974,118.4484,-49.332928,12.808922
2189557226000.0,0.2556046126344228,7.673100809070777,5.776299177907698,1.1392636,0.105068825,0.2144137,118.26942,-49.645645,12.762712
2189562090000.0,0.2143418085596598,7.701984756842944,5.796930569173532,1.1588113,0.108123146,0.20769419,118.09224,-49.9586,12.716349
2189567122000.0,0.1716538089494197,7.731866340969085,5.8182745578350605,1.1688906,0.10293079,0.20830505,117.90233,-50.278427,12.662982
2189572094000.0,0.1465080365489983,7.799176265078506,5.802326511640498,1.1866057,0.12003502,0.20708331,117.70893,-50.60126,12.6037445
2189577081000.0,0.1258217175441256,7.876749900595561,5.776468633134813,1.2082914,0.13072516,0.20586158,117.518906,-50.922665,12.547201
2189582082000.0,0.0797136214682381,8.007109353176189,5.698680192089493,1.2260065,0.1328632,0.20463985,117.32041,-51.242466,12.477864
2189587096000.0,0.0317530638393927,8.141398616060728,5.617147103395925,1.2516629,0.13041973,0.21838433,117.119,-51.563755,12.411539
2189592086000.0,0.0063650782476266,8.176700484460879,5.553858659318477,1.29198,0.12705997,0.22174409,116.90696,-51.89674,12.33855
2189597094000.0,-0.0175984714947536,8.205456823823324,5.491553374138103,1.3298537,0.1133155,0.22449298,116.69677,-52.229412,12.271771
2189602154000.0,-0.0667588810223325,8.21597867761023,5.44423251574728,1.3616186,0.10323623,0.24404067,116.47474,-52.588753,12.20006
2189607154000.0,-0.1170284343722084,8.225118780683335,5.398532954762359,1.3729197,0.08552113,0.2443461,116.261696,-52.94844,12.129324
2189612132000.0,-0.1507373444731977,8.19274123267098,5.380496939926063,1.3927728,0.06627888,0.24617869,116.03293,-53.31658,12.05938
2189617150000.0,-0.1818274440591497,8.152768132208871,5.367172804990759,1.4178182,0.032070424,0.24709499,115.813385,-53.68321,11.995743
2189622155000.0,-0.1885085402620689,8.1402855,5.329708449655173,1.4245378,-0.008857546,0.24648413,115.59067,-54.050224,11.928434
2189627138000.0,-0.1841203844551724,8.1402855,5.281438644137931,1.4236214,-0.047036625,0.24190263,115.37727,-54.416077,11.866442
2189632127000.0,-0.1944270802105587,8.10537574316968,5.217770172247329,1.4089607,-0.07574729,0.21746802,115.16808,-54.772045,11.802104
2189637168000.0,-0.2192199515365653,8.035955591618734,5.138432930156122,1.4062119,-0.124005646,0.18387043,114.976166,-55.12636,11.74424
2189642169000.0,-0.2080702279209347,8.0497562368758,5.0608917631242,1.3979651,-0.17012598,0.15485434,114.77663,-55.471287,11.689087
2189647160000.0,-0.1698197167605634,8.126257211267605,4.984390788732394,1.3973542,-0.21838433,0.18173242,114.58686,-55.8094,11.647686
2189652941000.0,-0.1689069347325332,8.180827850869848,4.889017455754024,1.3955216,-0.28588495,0.15943582,114.417206,-56.148796,11.597783
2189657199000.0,-0.3016850016001489,8.11633592696995,4.797969658619406,1.3756685,-0.28802297,0.079107046,114.24882,-56.480907,11.53766
2189662145000.0,-0.4559171102725834,8.041423513722206,4.692210521788073,1.3518448,-0.29810223,0.02107485,114.07726,-56.81813,11.498147
2189667220000.0,-0.42068430650584,8.08837794918677,4.624763477426045,1.3277156,-0.34605515,-0.029321533,113.927345,-57.15188,11.446822
2189672232000.0,-0.3546372167253855,8.159143754744958,4.580866025029656,1.3057245,-0.3726278,-0.10781772,113.78796,-57.48333,11.372952
2189677196000.0,-0.1666606713133649,8.347120414491894,4.707750301028074,1.280679,-0.38881573,-0.18173242,113.69268,-57.835983,11.267804
2189682225000.0,0.0385153516748331,8.539142643089695,4.836064557032394,1.2464706,-0.37598756,-0.25686884,113.58492,-58.184875,11.154749
2189687239000.0,0.4254429863404689,8.75019384429432,4.961131861460198,1.2144,-0.32834008,-0.3436117,113.48382,-58.530594,11.019354
2189692201000.0,0.8083578094778611,8.959056241657171,5.0849020977128445,1.1976013,-0.32467487,-0.43401974,113.35936,-58.846603,10.904531
2189697180000.0,1.265189123743767,9.14393999156118,5.088439619294208,1.153619,-0.3979787,-0.5271767,113.25517,-59.151016,10.773529
2189702305000.0,1.782922590132336,9.318087275316456,5.01313313075374,1.063211,-0.5009095,-0.5946773,113.166664,-59.440044,10.632504
2189707319000.0,2.2534818406001227,9.42446888946724,4.786057598132272,0.9492846,-0.5497787,-0.6386596,112.95218,-59.635147,10.57804
2189712237000.0,2.686109536742192,9.477345671463564,4.439955531567668,0.8857546,-0.6249151,-0.65270954,112.7818,-59.822803,10.531656
2189717229000.0,2.892520032411102,9.29323892152168,4.083455572368538,0.7684685,-0.6918049,-0.6267477,112.466934,-59.904835,10.603242
2189723158000.0,2.932800902367651,8.865254711093376,3.655471467092312,0.7107417,-0.70463306,-0.64660084,112.18373,-59.998745,10.654795
2189727200000.0,2.909706954165131,8.589733987375599,3.4653602435680058,0.6407976,-0.6450737,-0.6921103,111.91365,-60.09814,10.764311
2189732185000.0,2.782129448728345,8.281788046995946,3.430166474308883,0.6239988,-0.559858,-0.77213365,111.6623,-60.207756,10.847723
2189737174000.0,2.639380125759661,7.976312709475913,3.399073869094759,0.6065892,-0.5476407,-0.8323039,111.45007,-60.335556,10.935399
2189742257000.0,2.397145226691371,7.682538450714664,3.3939199385071466,0.59712076,-0.5684101,-0.86590147,111.242516,-60.470314,10.995415
2189747263000.0,2.133829337955573,7.4124711723242624,3.413409152245408,0.6169739,-0.59589905,-0.89980453,111.03316,-60.593704,11.027308
2189752234000.0,1.804215468910472,7.19730655938071,3.500390609827868,0.6337727,-0.6365216,-0.9239337,110.84613,-60.71971,11.052982
2189757362000.0,1.420893212670442,6.940230602059278,3.596019525424726,0.68752885,-0.7174612,-0.8888089,110.68883,-60.85089,11.068775
2189762270000.0,0.8885363244392145,6.559975785026109,3.710095999411635,0.7281514,-0.82619524,-0.9053023,110.567154,-60.993134,11.071723
2189768223000.0,0.2428312397528866,6.098757992483637,3.84846137219975,0.75533485,-0.9108001,-0.9578367,110.47184,-61.133087,11.0418215
2189772225000.0,-0.0660971096143222,5.925913433575448,3.874704560163683,0.76174897,-0.9877691,-1.0213667,110.41139,-61.28119,11.016656
2189777207000.0,-0.3345514074680307,5.838055621483376,3.8454186567774937,0.752586,-1.0882565,-1.0687088,110.38746,-61.43562,10.994956
2189782195000.0,-0.4717040764928812,5.840338479074055,3.820960553641299,0.732122,-1.1960741,-1.1297953,110.63808,-61.648426,10.816494
2189787219000.0,-0.4766322741698248,5.933974044535491,3.8012477217658502,0.70554936,-1.294118,-1.1746938,110.91076,-61.854343,10.643979
2189792825000.0,-0.4813293238941823,6.053085694678131,3.7501028437989,0.67347896,-1.4013249,-1.2000448,111.2651,-62.081684,10.430626
2189797190000.0,-0.4845675865016655,6.153471970764583,3.6950523794716874,0.64599,-1.4886786,-1.2177598,111.63882,-62.30016,10.219496
2189802242000.0,-0.4883155138081959,6.2696578738089705,3.631337615260671,0.6374379,-1.5289958,-1.2614367,112.03124,-62.526653,10.000684
2189807199000.0,-0.4593018613894395,6.4807749658316816,3.617131828473599,0.6203337,-1.6236799,-1.2767084,112.45296,-62.735252,9.804343
2189812426000.0,-0.4277280826410164,6.706301977076951,3.603600219102541,0.61575216,-1.7088956,-1.3038919,112.88319,-62.943382,9.599647
2189817564000.0,-0.4325454630477368,6.945192312856599,3.552493532921263,0.61269784,-1.7898352,-1.3240504,113.335075,-63.171516,9.401398
2189822209000.0,-0.4452359201939901,7.165160183720046,3.497501521034614,0.59040123,-1.8664987,-1.3399329,113.80374,-63.38813,9.20919
2189827196000.0,-0.4718880758475328,7.393923141267305,3.416490896787362,0.5739079,-1.9333885,-1.351234,114.28049,-63.621696,9.025261
2189832190000.0,-0.5058437612557686,7.618879440202343,3.323112758590699,0.54550266,-2.005776,-1.351234,114.771416,-63.838966,8.852176
2189837208000.0,-0.5562139058051911,7.833539369076193,3.215385385235836,0.47616947,-2.0610592,-1.3439035,115.2745,-64.07248,8.676437
2189842218000.0,-0.6320959931621546,8.029940038347753,3.0859395044097124,0.41508293,-2.084883,-1.346347,115.78104,-64.293686,8.504931
2189847188000.0,-0.696862872440689,8.238477410356408,2.9464112973134005,0.34422258,-2.107485,-1.3487904,116.29652,-64.53226,8.328786
2189852207000.0,-0.7281049648683783,8.493621600151663,2.7693726648142127,0.30024028,-2.1138992,-1.3475688,116.805115,-64.75346,8.15595
2189857209000.0,-0.735185611932352,8.69950513529596,2.5841422203257123,0.24770586,-2.0815234,-1.3585643,117.3212,-65.00439,7.956455
2189862214000.0,-0.7051625088944566,8.830856211086752,2.3852390451378014,0.18142697,-2.0237966,-1.3710871,117.82354,-65.23114,7.7570286
2189868301000.0,-0.6428329619460567,8.997876139638102,2.1321817734380337,0.10751228,-1.9553796,-1.396438,118.315544,-65.49344,7.5396795
2189872237000.0,-0.2664046085421646,9.200568381358826,1.823317477091157,0.03359759,-1.8707749,-1.4382823,118.782524,-65.73101,7.309125
2189877228000.0,0.2109210804412769,9.457589971406623,1.4316656216370776,-0.018020526,-1.7675385,-1.4584408,119.21626,-66.00827,7.075421
2189882211000.0,0.7174575372535787,9.67387957566462,1.169786405562372,-0.07147124,-1.6575829,-1.4969252,119.62363,-66.260216,6.819181
2189887243000.0,1.2594773437402864,9.851267866053169,1.0367451620449897,-0.12003502,-1.5216653,-1.529912,119.989784,-66.49089,6.54885
2189892238000.0,1.7814694891203091,10.023020296950522,0.9561632485930224,-0.14049901,-1.3906348,-1.568091,120.19602,-66.761826,6.4025655
2189897228000.0,2.289631943026628,10.19100775454785,0.9183660530925388,-0.14935656,-1.287704,-1.6081028,120.37081,-67.01815,6.2358127
2189902112000.0,2.801301407338,10.336717561752089,0.9197562053781893,-0.14782938,-1.2443326,-1.6307048,120.36113,-67.23514,6.211739
2189907092000.0,3.3666335597426054,10.42824769044931,1.0382067478482728,-0.13744467,-1.1585059,-1.6462818,120.31997,-67.45195,6.1558695
2189912102000.0,3.7196323137618186,10.461943289943653,1.1207260482857415,-0.099571034,-1.112691,-1.6505579,120.48239,-67.733,6.095298
2189917152000.0,3.830482201069621,10.429611908031706,1.1622947680832776,-0.07971791,-1.0677924,-1.7009543,120.622696,-68.010025,6.0061398
2189922095000.0,3.828621350288316,10.302641494081945,1.2475658593323218,-0.05589417,-1.022283,-1.7198911,120.85029,-68.28377,5.9522734
2189927110000.0,3.6439928442690954,10.01598135447648,1.4079010153768337,-0.038789943,-0.9288206,-1.6930131,121.04654,-68.55439,5.8857827
2189932075000.0,3.3691550454290145,9.694909260894828,1.5438153282006586,-0.029932396,-0.86101454,-1.6539177,121.2717,-68.817604,5.817427
2189937111000.0,2.9487995011718,9.31191868099942,1.6465689436180515,-0.03481932,-0.8167268,-1.6239853,121.469864,-69.07375,5.7459073
2189942066000.0,2.4892010124335275,8.953729607748796,1.7380824959736645,-0.057726767,-0.7877107,-1.6136005,121.66504,-69.28172,5.646474
2189947107000.0,1.9268491873892124,8.627728346247995,1.8114327266227737,-0.09468412,-0.7696902,-1.6016886,121.842575,-69.47699,5.553047
2189952546000.0,1.31449547,8.27800364100979,1.8911770457702215,-0.11301007,-0.7742717,-1.6096299,122.00006,-69.6391,5.412404
2189957241000.0,0.6936756199999999,8.009290964039154,1.969937763080886,-0.12889257,-0.79534656,-1.6334536,122.15267,-69.788,5.2732353
2189962352000.0,0.0255668291567369,7.729896444656279,2.0523754818331805,-0.1386664,-0.8597928,-1.6545285,122.2374,-69.89766,5.072738
2189967178000.0,-0.5124390347937673,7.623989675600367,2.0905019434647114,-0.14966199,-0.9443977,-1.6969837,122.33442,-70.002174,4.869014
2189972134000.0,-1.0649373898991752,7.515230051182401,2.129655433693859,-0.1704314,-1.033584,-1.72264,122.5745,-70.119255,4.5262065
2189977149000.0,-1.4008727213668724,7.502511227071666,2.1627293895016613,-0.17928895,-1.1136073,-1.7345519,122.831825,-70.22973,4.1905146
2189982152000.0,-1.6964901373327006,7.507059184394874,2.19456509076412,-0.19761491,-1.1792754,-1.7568485,123.10672,-70.32534,3.859889
2189987145000.0,-1.885279932815302,7.621787206933653,2.2559019203825463,-0.20555615,-1.2556335,-1.78617,123.483376,-70.43461,3.404113
2189992150000.0,-2.0380814160789003,7.774588789918311,2.327527668639171,-0.2284636,-1.323745,-1.8234328,123.873436,-70.52153,2.9528992
2189997124000.0,-2.0456974085941844,8.006245124912022,2.336576820864975,-0.26389378,-1.3478742,-1.8383989,124.29339,-70.59409,2.4434142
2190002242000.0,-2.00030561159474,8.274056916799408,2.3229591395721427,-0.27122417,-1.3768903,-1.8823812,124.73487,-70.65267,1.9303408
2190007159000.0,-1.854301309731906,8.573215161740155,2.2767049232151626,-0.28313604,-1.3888022,-1.9230038,125.18985,-70.68453,1.3888396
2190012180000.0,-1.632362557890602,8.908484140724738,2.2058735189236964,-0.30390546,-1.3753631,-1.9578232,125.64525,-70.692825,0.84570026
2190017196000.0,-1.195620094282442,9.359178233195314,2.157682228878513,-0.30451632,-1.3466524,-1.9920316,126.09611,-70.70817,0.3061954
2190022202000.0,-0.5832056531406924,9.904015908113822,2.128117412950401,-0.30543262,-1.2788464,-2.021964,126.53088,-70.698395,-0.23699799
2190027149000.0,-0.0506356469367972,10.335290355176424,2.128266216421093,-0.28588495,-1.221425,-2.0619757,126.94775,-70.71661,-0.74151623
2190032199000.0,0.2962868700271422,10.485310993020551,2.2079645272974022,-0.26297748,-1.1502593,-2.0836613,127.33785,-70.718445,-1.246724
2190037188000.0,0.5906888642479908,10.614353685706083,2.28450538923651,-0.23945917,-1.1120802,-2.0595322,127.65476,-70.77033,-1.5872298
2190042200000.0,0.7100892434596249,10.674054124665137,2.353390322990815,-0.22999077,-1.0375546,-2.0451767,127.93778,-70.81366,-1.9378244
2190047209000.0,0.8122827381638604,10.721950389991536,2.4232483999247485,-0.23671028,-0.9804387,-2.0525072,128.21352,-70.84182,-2.2232194
2190052339000.0,0.7984188588768696,10.689601134041954,2.5018104581506915,-0.24740042,-0.9370673,-2.0454822,128.46309,-70.86527,-2.499968
2190057508000.0,0.7801482614671044,10.653192370629371,2.5765902587269878,-0.25717425,-0.90102625,-2.0274618,128.74646,-70.86239,-2.7831979
2190062236000.0,0.7026044157870701,10.565955811188813,2.583052241087484,-0.28985557,-0.8775079,-1.9960022,129.01347,-70.84495,-3.0568805
2190068320000.0,0.6028208377165691,10.45369962937063,2.5913675331097474,-0.31245756,-0.86162543,-1.9523253,129.29303,-70.79868,-3.3356907
2190072251000.0,0.5051182113670515,10.37387178454279,2.5998907502107382,-0.34300083,-0.8240572,-1.9062049,129.5518,-70.73866,-3.6023877
2190077194000.0,0.2665623555543339,10.248087289811252,2.62157763054792,-0.37598756,-0.78893244,-1.8747455,129.79913,-70.67003,-3.8557918
2190082555000.0,-0.0071632769920932,10.11129515846858,2.6521721249687893,-0.40622538,-0.75136423,-1.8600847,130.04427,-70.56948,-4.132422
2190087211000.0,-0.3931241388747399,9.98882685784436,2.7486623481897627,-0.4288274,-0.72265357,-1.8338175,130.27376,-70.46275,-4.3926787
2190092251000.0,-0.810916824417811,9.856258078818144,2.853110527965044,-0.44409904,-0.6951646,-1.8102992,130.49767,-70.32227,-4.6996956
2190097188000.0,-1.0259298812392428,9.859734424268504,2.948074190275387,-0.43279803,-0.6899723,-1.7983873,130.71411,-70.18292,-4.9950404
2190102235000.0,-1.1229864227385733,9.947547301778544,3.040509044559189,-0.43768495,-0.6795876,-1.7880026,130.91554,-70.036026,-5.2795014
2190107212000.0,-1.205911696894348,10.03616109736369,3.1488033887857,-0.44806966,-0.6942484,-1.7681495,131.1411,-69.834015,-5.6466293
2190112347000.0,-1.2795739231276213,10.129466416417015,3.276484543319353,-0.44012842,-0.71593404,-1.7229455,131.3581,-69.63811,-5.994397
2190118023000.0,-1.3630759956461835,10.203602612841005,3.371769700606228,-0.42577308,-0.77396625,-1.6389514,131.59857,-69.420784,-6.3395166
2190122227000.0,-1.4259431530265454,10.2442814389639,3.419844547046937,-0.42943826,-0.7993172,-1.6178766,131.83356,-69.19996,-6.680463
2190127240000.0,-1.4354004286769988,10.257056212562864,3.446941699107051,-0.42943826,-0.850019,-1.5558738,132.09587,-68.96286,-6.9949026
2190132195000.0,-1.323379438478908,10.203480878990044,3.417718845365904,-0.42241332,-0.8686504,-1.502423,132.3508,-68.730576,-7.296971
2190137216000.0,-1.3287578822548232,10.065932613042603,3.392156559093649,-0.4184427,-0.90041536,-1.4153748,132.63316,-68.49666,-7.579475
2190142204000.0,-1.5159559384445336,9.801935996885048,3.3729568188605303,-0.38606682,-0.90041536,-1.3264939,132.90208,-68.28119,-7.839705
2190147188000.0,-1.674076477361139,9.59974301493884,3.3346146465209543,-0.3640757,-0.8894198,-1.2846496,133.18309,-68.065285,-8.074647
2190152256000.0,-1.7908647620212552,9.48782070132344,3.2664881047924603,-0.3213151,-0.89736104,-1.2421945,133.45593,-67.87677,-8.276703
2190157191000.0,-1.8827682867494824,9.362364955733018,3.204429038361432,-0.28771752,-0.9224065,-1.2055426,133.74051,-67.66397,-8.510926
2190162196000.0,-1.9442012939958595,9.211145169673664,3.147721692605738,-0.24190263,-0.9459248,-1.1533136,134.01657,-67.47559,-8.721867
2190167241000.0,-2.00333469324054,9.088132062722924,3.0834744299869508,-0.21777347,-0.9627236,-1.1087204,134.30566,-67.285774,-8.951655
2190172219000.0,-2.0572497894388864,9.013480251152677,3.008822791639844,-0.19242255,-0.98624194,-1.073901,134.59413,-67.11573,-9.160444
2190177245000.0,-2.1080410212857914,8.938257636592832,2.928645479182424,-0.17715092,-1.0073168,-1.0488557,134.887,-66.93769,-9.378832
2190182195000.0,-2.1208463049162614,8.86569463010985,2.800592553736719,-0.16462818,-1.0125091,-1.0106765,135.17238,-66.77365,-9.57743
2190188098000.0,-2.134476770917475,8.779197841071712,2.648746207226904,-0.12522738,-1.0048733,-0.9764681,135.46475,-66.622444,-9.788251
2190192246000.0,-2.109210642693592,8.719191009142948,2.560314956312609,-0.08582657,-0.9935723,-0.9410379,135.7489,-66.48116,-9.982687
2190197205000.0,-2.079004584385435,8.647451886786452,2.454593988789951,-0.058643065,-0.9618073,-0.91751957,136.03021,-66.35432,-10.191072
2190202362000.0,-2.016772401745333,8.544105740173016,2.3614605687509487,-0.027183503,-0.91996306,-0.88178396,136.29663,-66.24535,-10.384083
2190207230000.0,-1.9071035060100168,8.39905943572621,2.301319528046745,0.023518313,-0.86651236,-0.85918194,136.5463,-66.1501,-10.574188
2190212183000.0,-1.7955196850204889,8.25148048216725,2.2401283664592504,0.07574729,-0.7959574,-0.8335256,136.78406,-66.0781,-10.764888
2190217220000.0,-1.6588701989080985,8.155691935395815,2.3147551881710644,0.1282817,-0.7125743,-0.8347474,137.00104,-66.017784,-10.959737
2190222209000.0,-1.5139545529875644,8.08323416287534,2.445179279587504,0.18661933,-0.63499445,-0.8240572,137.1933,-65.97613,-11.147589
2190227206000.0,-1.4052020871568371,8.060643715856932,2.592400300597557,0.23854288,-0.5571091,-0.8035932,137.38069,-65.95046,-11.326794
2190232182000.0,-1.3102816659218846,8.05651665670737,2.745098472590283,0.25534168,-0.49449542,-0.79779,137.54904,-65.928406,-11.510269
2190237268000.0,-1.2416902429901706,8.064820214174857,2.8754945690636315,0.27763826,-0.44990227,-0.79320854,137.721,-65.90222,-11.668479
2190242215000.0,-1.212279112353854,8.089329489705122,2.9686297137092605,0.26847526,-0.4184427,-0.782213,137.87614,-65.87305,-11.825522
2190247201000.0,-1.2087755940575209,8.08329858703277,3.0610579105621807,0.27763826,-0.3717115,-0.7507534,138.03726,-65.82968,-11.960388
2190252243000.0,-1.232969514089588,8.04458851708588,3.152994958262351,0.27550024,-0.32498032,-0.7162395,138.18661,-65.78325,-12.091805
2190257310000.0,-1.243246438465897,8.018410135710743,3.210822712585877,0.28160888,-0.3155119,-0.6575964,138.34279,-65.73422,-12.203079
2190262211000.0,-1.239922131022027,8.005112871223174,3.234092829980877,0.29718593,-0.29718593,-0.61117065,138.48006,-65.69058,-12.311495
2190268696000.0,-1.2355234095828316,7.987517939535378,3.264883834124229,0.3051272,-0.2919936,-0.54275376,138.62224,-65.63466,-12.4029255
2190272209000.0,-1.4239775957372467,7.8879779159229315,3.272083181770989,0.32986724,-0.28008172,-0.473726,138.75131,-65.59431,-12.482137
2190277214000.0,-1.7062959703004892,7.7396412978237,3.28165328938804,0.34269542,-0.24190263,-0.44684792,138.8678,-65.5574,-12.555708
2190282247000.0,-1.914989589640592,7.643736765558332,3.2569811692485104,0.35979962,-0.17959438,-0.4092797,138.97586,-65.52905,-12.613373
2190287228000.0,-2.084601064164905,7.574975223717087,3.2157244068902555,0.37873647,-0.101098195,-0.3717115,139.06517,-65.50862,-12.668072
2190292220000.0,-2.2257839853671624,7.516401385436149,3.2180177583243905,0.39187005,-0.05955936,-0.35369098,139.14421,-65.447,-12.783374
2190297188000.0,-2.346131938456232,7.465344694220451,3.250839878882416,0.41080686,0.025350908,-0.3313944,139.18456,-65.398056,-12.898028
2190302222000.0,-2.468078717009045,7.413609713628698,3.28409804210486,0.4529566,0.06658431,-0.3173445,139.22346,-65.33898,-13.050512
2190307242000.0,-2.5399494857116585,7.645773452703199,3.461998850128724,0.44990227,0.05222898,-0.3109304,139.25209,-65.27588,-13.19952
2190312175000.0,-2.6094491783376244,7.880334790584774,3.640091761456418,0.4364632,0.036957346,-0.31337386,139.2685,-65.22103,-13.348768
2190317252000.0,-2.5513085346246216,8.054864468309491,3.6411255595071528,0.42730024,0.023518313,-0.2959642,139.29132,-65.13135,-13.526972
2190322181000.0,-2.462588284504542,8.207660380286102,3.5967654859141693,0.43401974,-0.0036651916,-0.25778514,139.31934,-65.04581,-13.694112
2190327264000.0,-2.3328659109006926,8.308974951963048,3.4890054290069283,0.44532076,-0.035124753,-0.21746802,139.3679,-64.94646,-13.853099
2190332166000.0,-2.202762944018476,8.399324585681292,3.376972200184757,0.45723262,-0.05589417,-0.17959438,139.41623,-64.85613,-13.997668
2190337305000.0,-2.077123012053344,8.471852880280972,3.234872270742136,0.4718934,-0.06811147,-0.121256754,139.46353,-64.81245,-14.098468
2190342216000.0,-1.9813646614272624,8.491004430418405,3.043355719474702,0.5161811,-0.046731193,-0.054367006,139.50156,-64.78668,-14.1861315
2190347199000.0,-1.8898896490377612,8.50579701560387,2.8731417068032874,0.55955255,-0.0067195175,0.004886922,139.52065,-64.828804,-14.222143
2190352305000.0,-1.8085011882034745,8.510883893997713,2.7510591217830025,0.64751714,0.038789943,0.059253927,139.52557,-64.90067,-14.243802
2190357204000.0,-1.745019710386112,8.525190300907912,2.6434777412950217,0.7180721,0.08460484,0.12583824,139.50047,-65.033745,-14.23472
2190362264000.0,-1.701507042322658,8.554198342412452,2.546782771924573,0.8026769,0.14049901,0.18020524,139.45624,-65.19439,-14.2201395
2190367241000.0,-1.7410767686346602,8.586168916495792,2.525251463982182,0.88789266,0.19242255,0.24129178,139.38979,-65.40744,-14.178746
2190372977000.0,-1.9275127076009333,8.628893863112493,2.6262375908293856,0.9560041,0.24281894,0.301462,139.30415,-65.640396,-14.129031
2190377192000.0,-2.0645119200735347,8.660289548257088,2.7004454926182566,1.0338894,0.29229903,0.3549127,139.19211,-65.92302,-14.061994
2190382188000.0,-2.244824631870853,8.67392361325146,2.837510062979103,1.1032226,0.34116822,0.3943135,139.06367,-66.22106,-13.988288
2190387212000.0,-2.4401963834802416,8.669158351490541,3.013821265118352,1.1542299,0.37048978,0.4373795,138.92357,-66.53598,-13.903055
2190392251000.0,-2.618532517782955,8.651537720151426,3.222245119355465,1.1942415,0.4297437,0.44318274,138.77159,-66.81426,-13.868492
2190397250000.0,-2.7811811599592318,8.623655266307512,3.454600260075713,1.2638801,0.49632803,0.4642576,138.60619,-67.11405,-13.822003
2190402261000.0,-2.911914604271535,8.617975520471465,3.626917748138958,1.317331,0.52656585,0.47647488,138.44885,-67.355545,-13.817724
2190407284000.0,-3.009964908605105,8.635027857630273,3.7377571606699753,1.3600914,0.5317582,0.47739118,138.2813,-67.60543,-13.814416
2190412211000.0,-3.095653896253943,8.650024551656152,3.8352355271293375,1.3900238,0.54611355,0.4615087,138.1254,-67.78969,-13.850914
2190418190000.0,-3.1577453750887226,8.661313568513407,3.9086164354100954,1.398576,0.54367006,0.43799037,137.9752,-67.97203,-13.887537
2190422229000.0,-3.1863253442278863,8.655087496626686,3.912628111581709,1.3600914,0.5357288,0.42424592,137.83507,-68.11036,-13.946769
2190427207000.0,-3.1729239263868068,8.597014872563719,3.751811004197901,1.3414601,0.537256,0.4007276,137.69739,-68.24436,-14.014336
2190432278000.0,-3.1561720807737825,8.537294235047792,3.5845303922530727,1.2977833,0.5525276,0.38453966,137.56401,-68.343704,-14.092037
2190437225000.0,-3.1044180393900773,8.472601795903506,3.381827281165225,1.2675453,0.56046885,0.37018433,137.43529,-68.43465,-14.173522
2190443189000.0,-3.0408284279385707,8.398247177594016,3.1388197030419374,1.2428054,0.5503896,0.34972036,137.29738,-68.5362,-14.259765
2190447192000.0,-2.984218961901949,8.390699091159679,2.9916349731246306,1.2434162,0.50823987,0.3378085,137.168,-68.63193,-14.34402
2190452198000.0,-2.913425310395747,8.381259740500099,2.807571331364441,1.2260065,0.45723262,0.3231477,137.02899,-68.75025,-14.423607
2190457201000.0,-2.8325241093435114,8.36748588091603,2.675438128885496,1.2232577,0.41874814,0.3032946,136.90106,-68.863785,-14.504172
2190462315000.0,-2.747782240519084,8.35253166005089,2.5508177304936384,1.2342533,0.38331795,0.28252518,136.78912,-68.96909,-14.583967
2190468430000.0,-2.652458308946417,8.366241974112496,2.48187773539545,1.2394456,0.3399465,0.25686884,136.68016,-69.10405,-14.651756
2190472187000.0,-2.594243724459884,8.37651499305225,2.444209510602456,1.251052,0.28038713,0.23365596,136.58847,-69.233505,-14.719683
2190477200000.0,-2.547104290864626,8.411668517355633,2.362772670211424,1.2681563,0.20861048,0.23701571,136.50516,-69.39008,-14.766744
2190482168000.0,-2.5095706902966235,8.452955513253393,2.272692044525087,1.2864822,0.18478674,0.2452624,136.4276,-69.53968,-14.817217
2190487191000.0,-2.484692549796984,8.48827573810905,2.168269078161253,1.3090842,0.15454891,0.25503623,136.36978,-69.71319,-14.841465
2190492318000.0,-2.5036794505800466,8.50251624825986,2.0163733266821344,1.3081679,0.12339478,0.2843578,136.31812,-69.88561,-14.856042
2190497240000.0,-2.521315936240341,8.539940294117647,1.8661255627503548,1.3148874,0.093767814,0.31703907,136.26266,-70.088646,-14.852628
2190502296000.0,-2.536588070225517,8.692661235294118,1.6904959023182462,1.3118331,0.06169739,0.34147367,136.21664,-70.28765,-14.841369
2190507230000.0,-2.551491691483993,8.841697058823529,1.5191041411291597,1.314582,0.026267206,0.36071593,136.16583,-70.51049,-14.822942
2190512807000.0,-2.5604972642184007,8.928263297483728,1.410304591411639,1.2999213,-0.014660766,0.38056904,136.12561,-70.72782,-14.795755
2190517258000.0,-2.564638514747887,8.965535287379772,1.3564677723695715,1.3048081,-0.048258353,0.4007276,136.09363,-70.946465,-14.762154
2190522229000.0,-2.5694010818098256,8.97459384281483,1.2804702569911144,1.3307699,-0.06566802,0.4092797,136.05006,-71.20289,-14.7196455
2190527212000.0,-2.574275220232867,8.959971580226739,1.1927384118476152,1.3521502,-0.044593163,0.3998113,136.00665,-71.451195,-14.677878
2190532224000.0,-2.5675301658094685,8.893897971361776,1.1156391994155466,1.3924674,-0.03573562,0.3839288,135.96489,-71.71003,-14.6328335
2190537226000.0,-2.5535314846093904,8.795908031268263,1.0456462319306448,1.4037683,-0.009773844,0.34788775,135.91545,-71.95141,-14.599315
2190542265000.0,-2.511761972618466,8.775494227772349,1.055268666047875,1.4288138,0.035124753,0.2919936,135.85464,-72.19478,-14.578895
2190547193000.0,-2.450280859314444,8.81391974804592,1.1244350439016446,1.4361442,0.10720685,0.25350907,135.78091,-72.42242,-14.567015
2190552247000.0,-2.378780560959078,8.869833013132254,1.189791926484792,1.4504995,0.19517145,0.23640485,135.69275,-72.64344,-14.569665
2190557240000.0,-2.2410377227992884,9.056190826315344,1.2100482013301703,1.4004086,0.27672195,0.22143865,135.58861,-72.83625,-14.585488
2190562168000.0,-2.105088051969838,9.2401225914598,1.230040775421503,1.3106114,0.33414328,0.21227567,135.47337,-73.02055,-14.588041
2190567225000.0,-2.016592194515995,9.40835512692148,1.1759817692355627,1.2461652,0.38637227,0.19883664,135.33801,-73.187386,-14.599177
2190572200000.0,-1.9473125808890732,9.566709252908185,1.0968050162754466,1.1661417,0.4269948,0.14752395,135.19249,-73.31933,-14.625255
2190577192000.0,-1.9093069170773085,9.778719231036431,1.0632731295823572,1.0916162,0.46517387,0.09743301,135.03621,-73.47608,-14.610769
2190582409000.0,-1.8770185378463529,10.012809506341386,1.039056834623152,1.03786,0.514654,0.06963864,134.86711,-73.610855,-14.606584
2190587203000.0,-1.7925442754759844,10.437569296300303,1.1059719710839464,1.0064005,0.52931476,0.071776666,134.68932,-73.759285,-14.58461
2190592232000.0,-1.5997721622025098,11.281598596062311,1.3456345586975336,0.9990701,0.5656612,0.106595986,134.49182,-73.899086,-14.563863
2190597185000.0,-1.4525634876668787,12.907617980928164,1.6628575518118247,0.94225967,0.56779927,0.16310102,134.29514,-74.05735,-14.512474
2190602272000.0,-1.3463775947325405,15.416260642811734,2.074328077504314,0.8393288,0.50885075,0.20799962,134.10667,-74.20954,-14.4544935
2190607200000.0,-1.308491691216585,17.117787836770322,2.3558946,0.7180721,0.4120286,0.23518312,133.934,-74.41714,-14.310037
2190612247000.0,-1.4297884752318604,17.065050128532462,2.3558946,0.61544675,0.30970868,0.22021692,133.78233,-74.609695,-14.167184
2190617247000.0,-1.7371203199615262,17.07575599980763,2.258639174094261,0.5448918,0.2919936,0.1563815,133.63716,-74.9142,-13.88166
2190622288000.0,-2.263381066688041,17.159338333440207,2.0481348366142997,0.47800204,0.34513888,0.073303826,133.50525,-75.18255,-13.622386
2190627214000.0,-2.7776362617633854,17.241013908816928,1.8424327206797049,0.36865717,0.4804455,0.05955936,133.35854,-75.40636,-13.399211
2190632248000.0,-3.1662524679152595,16.73624253126599,1.7199762674342445,0.22693644,0.6169739,0.054367006,133.20035,-75.58881,-13.210511
2190637267000.0,-3.294152984034388,15.117808939003172,1.764249538818954,0.09254608,0.6872234,0.050396383,133.02449,-75.74708,-13.037821
2190642266000.0,-3.3834298737185766,13.61820304342148,1.778469010104473,-0.022907447,0.6939429,0.043066,132.81645,-75.79078,-13.0029955
2190647243000.0,-3.4145521287626512,12.295506391609532,1.7473467144384591,-0.11636983,0.63591075,0.020463986,132.60883,-75.814285,-12.976431
2190652812000.0,-3.44833688518743,10.830935401523677,1.7016628310622457,-0.1853976,0.5369505,0.009468411,132.43448,-75.73556,-13.032575
2190657200000.0,-3.4592510047614926,9.910511089516058,1.5015705249069344,-0.20769419,0.45906523,-0.008857546,132.27156,-75.64577,-13.09493
2190662331000.0,-3.472013162358237,8.834235532334862,1.2675975023720891,-0.20555615,0.41141775,-0.023518313,132.13791,-75.4728,-13.228581
2190668306000.0,-3.5138587117126234,7.791296051665402,1.0205772133822415,-0.18081611,0.35155296,-0.03940081,132.03032,-75.29746,-13.363216
2190672233000.0,-3.5487427504174045,7.163383785462518,0.8651848398937516,-0.12156218,0.25320363,-0.03390302,131.94678,-75.13102,-13.491273
2190677203000.0,-3.554157762967557,6.577730021946565,0.7217065031297709,-0.05009095,0.1863139,-0.025961773,131.86646,-74.92274,-13.677114
2190682191000.0,-3.444762879341603,6.609637039503817,0.7353808576335877,0.027794369,0.062308256,-0.013439035,131.82986,-74.72703,-13.853551
2190687246000.0,-3.3304262534153004,6.662877059392077,0.7422973521857924,0.079107046,-0.05222898,0.012217305,131.7977,-74.493324,-14.080204
2190692271000.0,-3.198941327698088,6.823124060544741,0.713535062226776,0.1600467,-0.16707164,0.047647487,131.79869,-74.279335,-14.295417
2190698345000.0,-3.038023194648636,7.017788182162117,0.6758414621670953,0.24037547,-0.34025195,0.11789699,131.84483,-74.11121,-14.462243
2190702301000.0,-2.896576025711441,7.162378685704804,0.5972596724715838,0.32620203,-0.38973203,0.14263703,131.88625,-73.95114,-14.631465
2190707228000.0,-2.7204106563096326,7.342458921032108,0.4993899864680992,0.3622431,-0.48472157,0.18784106,131.98698,-73.86553,-14.724827
2190712188000.0,-2.52961452753857,7.543323366421297,0.3826782580689725,0.43371433,-0.5546656,0.23609942,132.09186,-73.80081,-14.809329
2190717775000.0,-2.2922194215085208,7.802299886699607,0.22081796669759,0.4804455,-0.6078109,0.2779437,132.21614,-73.74699,-14.880154
2190722184000.0,-2.115165977267637,8.001352369540873,0.0975697517357222,0.539394,-0.6264423,0.310625,132.3401,-73.778534,-14.883052
2190727199000.0,-1.9269275591545352,8.220963880739083,-0.0368862591965285,0.59315014,-0.6160576,0.34788775,132.4682,-73.82508,-14.87287
2190732291000.0,-1.7515806573601975,8.444406128865133,-0.1433181781373355,0.6209445,-0.6041457,0.37720928,132.58446,-73.940575,-14.805298
2190737256000.0,-1.6186315539473686,8.66338100263158,-0.1746003117105263,0.6426302,-0.59712076,0.38453966,132.69821,-74.062065,-14.735356
2190742200000.0,-1.486244773026316,8.881429698684212,-0.2057501341447368,0.6722572,-0.58459806,0.4007276,132.79126,-74.254074,-14.606976
2190747201000.0,-1.3889565907790573,9.373775893261966,-0.1525603587198632,0.6966918,-0.5525276,0.4092797,132.87697,-74.443146,-14.481974
2190752224000.0,-1.2980794680100756,9.919038675062971,-0.0833206308564231,0.7153232,-0.51251596,0.41325033,132.95679,-74.632996,-14.356783
2190757208000.0,-1.3332469476075106,10.191793261356754,0.014652340181708,0.72326446,-0.49602258,0.3933972,133.02689,-74.8636,-14.192965
2190762212000.0,-1.444514216535433,10.303061035433071,0.1307573445669291,0.7348709,-0.46975538,0.3857614,133.08295,-75.09489,-14.029097
2190769220000.0,-1.6488730033735903,10.392790741590977,0.1923180322487274,0.71959925,-0.44806966,0.33567044,133.13855,-75.34439,-13.839625
2190772227000.0,-1.7437244199720532,10.42153356782114,0.2038151717446851,0.71593404,-0.43035457,0.2874121,133.18903,-75.58774,-13.656578
2190777190000.0,-1.9119679705822832,10.385743880047832,0.21068975,0.70188415,-0.41996986,0.23182335,133.24406,-75.78609,-13.508891
2190782184000.0,-2.087946543501058,10.302153755864223,0.21068975,0.6939429,-0.40469822,0.20250183,133.29369,-75.97313,-13.371312
2190787209000.0,-2.2324365234539334,10.205505690997056,0.1897221033466554,0.68203104,-0.34605515,0.13255776,133.33226,-76.10018,-13.292441
2190792270000.0,-2.339486680479596,10.093357806058057,0.1438434783087926,0.6630942,-0.27488935,0.052839845,133.36363,-76.21075,-13.227407
2190797198000.0,-2.3795735408344347,9.990504107419294,0.1042926380411553,0.6301075,-0.19333886,-0.011301007,133.37823,-76.25968,-13.222129
2190802262000.0,-2.370417997092694,9.889793413063998,0.0676704353498206,0.5946773,-0.13347405,-0.064751714,133.37936,-76.28514,-13.237752
2190807219000.0,-2.3437138923997547,9.787514542348609,0.03918105054286,0.5543602,-0.080634214,-0.111177474,133.35878,-76.26888,-13.294296
2190812213000.0,-2.294791338164894,9.679885055851065,0.0196120773789893,0.5317582,-0.029932396,-0.14844026,133.3215,-76.23741,-13.363567
2190817210000.0,-2.2410508547504167,9.61241141442232,0.0239029503539784,0.49021935,-0.004886922,-0.17623462,133.27936,-76.188644,-13.446259
2190822227000.0,-2.1820408734625847,9.587121315553995,0.0534079836901482,0.4538729,-0.016187929,-0.20311269,133.23303,-76.12778,-13.538178
2190827175000.0,-2.1384664796687045,9.568176179648985,0.078506774767107,0.419359,-0.03145956,-0.22143865,133.17844,-76.06378,-13.629789
2190832186000.0,-2.152661710826267,9.572908022184974,0.0879702671463222,0.3631594,-0.041233405,-0.20799962,133.1249,-75.99765,-13.718377
2190837954000.0,-2.1792659189869408,9.585503104629996,0.095768064,0.29779682,-0.03359759,-0.1994475,133.0832,-75.93213,-13.801651
2190842221000.0,-2.218076403134151,9.60814268880095,0.095768064,0.22724187,-0.023823744,-0.18692477,133.04298,-75.86865,-13.878482
2190847202000.0,-2.2633810718796994,9.634570569924811,0.095768064,0.15760323,-0.038789943,-0.17562376,133.00443,-75.80295,-13.953002
2190852270000.0,-2.322559279686124,9.674394901513333,0.0881305450249019,0.10903945,-0.0580322,-0.17745635,132.9638,-75.7354,-14.02656
2190857209000.0,-2.386943726183041,9.719842480903194,0.0767685853206822,0.07941248,-0.10170906,-0.16646078,132.93405,-75.67303,-14.091562
2190862239000.0,-2.470088058674464,9.755654628979856,0.0514807838531514,0.045814894,-0.14996742,-0.15088372,132.91205,-75.600235,-14.164078
2190868507000.0,-2.6894865388888887,9.731277037037035,-0.0704072624074074,0.044593163,-0.19394971,-0.118507855,132.9007,-75.53668,-14.2268715
2190872209000.0,-2.8190674536549705,9.716879167641324,-0.1423966605019493,0.052534413,-0.21991149,-0.10170906,132.89874,-75.46277,-14.299534
2190877193000.0,-2.900436120834372,9.746494528712706,-0.0929395123709798,0.05100725,-0.2565634,-0.07971791,132.91165,-75.40017,-14.359491
2190882192000.0,-2.9402220621623867,9.798216501703648,0.0224398005684367,0.04520403,-0.31245756,-0.05955936,132.93692,-75.343094,-14.4134655
2190887189000.0,-2.990617814525932,9.778135504659645,0.044010436158833,0.064751714,-0.4129449,-0.018936822,132.97284,-75.261444,-14.496576
2190892352000.0,-3.0707557123176663,9.567773588330631,-0.1813772745542949,0.09987647,-0.47342056,0.015577064,133.01204,-75.18584,-14.57382
2190897166000.0,-3.119464283984688,9.399683355737558,-0.3629450440238582,0.13530666,-0.49235737,0.014966198,133.07584,-75.10221,-14.65406
2190902208000.0,-3.1108671196474678,9.287919097213567,-0.4876046675260393,0.1600467,-0.50762904,0.009773844,133.15459,-75.02978,-14.723485
2190907310000.0,-3.102571909520106,9.179766739830445,-0.6140009231928133,0.18906279,-0.5222898,0.01740966,133.21957,-74.9477,-14.812199
2190912206000.0,-3.098925023559151,9.128710412537917,-0.7379951258341759,0.21074851,-0.5403103,0.032070424,133.28853,-74.86831,-14.898543
2190917251000.0,-3.09516715189391,9.076100287703197,-0.8657628448549428,0.21960606,-0.5708536,0.017104227,133.36176,-74.78509,-14.993988
2190922223000.0,-3.0318862434910714,9.111504522857144,-1.0983913259241072,0.22021692,-0.6096435,0.00061086525,133.44121,-74.70681,-15.084074
2190927218000.0,-2.9080246487142856,9.235366251428571,-1.4400781140714285,0.21991149,-0.6236934,-0.021685716,133.52122,-74.62372,-15.178692
2190932190000.0,-2.794793121828651,9.348597889024605,-1.7013311667073807,0.2321288,-0.61208695,-0.04734206,133.59966,-74.53726,-15.281716
2190937214000.0,-2.710839504519281,9.432551550165766,-1.7265172650497296,0.26816985,-0.57787853,-0.079107046,133.67432,-74.444046,-15.391526
2190942622000.0,-2.6208846826197387,9.523250044085632,-1.749395184560958,0.30634892,-0.539394,-0.08735373,133.71718,-74.39662,-15.465966
2190947189000.0,-2.55343783133164,9.606566723240205,-1.6819483747006532,0.34880406,-0.49754974,-0.09773844,133.7483,-74.338905,-15.549545
2190952228000.0,-2.479020339840348,9.698494191219158,-1.6075309289187227,0.3839288,-0.46089783,-0.11301007,133.7727,-74.299965,-15.6130705
2190957221000.0,-2.417834436299227,9.777219391424364,-1.5463449665715865,0.41263947,-0.4474588,-0.11728613,133.791,-74.25926,-15.675928
2190962207000.0,-2.360717347248804,9.85191121291866,-1.4892277857655505,0.4269948,-0.4251622,-0.12003502,133.79535,-74.21214,-15.742299
2190967221000.0,-2.3250729908759125,10.008694993952034,-1.3019004449270073,0.43890667,-0.39187005,-0.13347405,133.80148,-74.17847,-15.791104
2190972233000.0,-2.305052428832117,10.22391414139729,-1.021614588430657,0.41172317,-0.36957347,-0.11636983,133.80377,-74.14962,-15.831505
2190977249000.0,-2.3200431042740783,10.262652607691662,-0.9505597837601814,0.41233405,-0.39553526,-0.09621128,133.81906,-74.131485,-15.858193
2190982244000.0,-2.3521776601981697,10.21445079477706,-0.9826942348266018,0.39828414,-0.36713,-0.09987647,133.81139,-74.108574,-15.886866
2190987175000.0,-2.3884920512956542,10.182833829218527,-1.0122866467047542,0.38606682,-0.33628133,-0.101098195,133.83629,-74.10422,-15.893841
2190992211000.0,-2.437694983799225,10.192674631503774,-1.0368881900224445,0.37293324,-0.31856623,-0.096516706,133.85646,-74.0992,-15.900334
2190997170000.0,-2.482740313232814,10.18886525116556,-1.0489772044737624,0.3631594,-0.28038713,-0.08979719,133.85852,-105.91799,-15.917986
2191002291000.0,-2.521659303650432,10.154810931356016,-1.0343825322686242,0.33628133,-0.25900686,-0.09590584,133.86015,-105.93841,-15.937857
2191007226000.0,-2.553004054828496,10.12111393690162,-1.00688298740294,0.3222314,-0.23151793,-0.09101892,133.84668,-105.9635,-15.96138
2191012212000.0,-2.5710025939313983,10.085117009046362,-0.9492878652468902,0.29810223,-0.1966986,-0.09621128,133.8245,-105.993614,-15.989159
2191017212000.0,-2.5890516704485487,10.049019006784771,-0.8915310239351677,0.27672195,-0.18753563,-0.09315695,133.80461,-106.029785,-16.022413
2191022293000.0,-2.5886823968229327,10.003331484114664,-0.8151147883680017,0.25503623,-0.17012598,-0.096516706,133.77174,-106.069176,-16.058369
2191027275000.0,-2.578807281931077,9.953955909655386,-0.7311762602297424,0.22632557,-0.15332718,-0.09712757,133.7362,-106.10662,-16.092121
2191032188000.0,-2.5727130356208496,9.89934973958543,-0.6707561583336688,0.204029,-0.1432479,-0.10567969,133.70644,-106.15351,-16.135767
2191037240000.0,-2.567844499778628,9.840929444556249,-0.6172039111289999,0.18600847,-0.13408493,-0.108123146,133.67175,-106.198074,-16.177126
2191042206000.0,-2.559661413002668,9.777345710305308,-0.5721869997272997,0.160963,-0.10567969,-0.10995574,133.64064,-106.24513,-16.222004
2191047224000.0,-2.550165092184567,9.710871216678196,-0.5294532833553997,0.118202426,-0.08827003,-0.124311075,133.60971,-106.29522,-16.270418
2191052235000.0,-2.5827834277777777,9.662268278122845,-0.5083093265131124,0.10781772,-0.058337633,-0.12950343,133.57289,-106.34511,-16.318947
2191057405000.0,-2.634038233333333,9.619556014492757,-0.495495651884058,0.087659165,-0.035124753,-0.15241088,133.53242,-106.40248,-16.375744
2191062275000.0,-2.685134398637107,9.59070348282755,-0.456872681944394,0.07147124,-0.009468411,-0.16187929,133.49034,-106.458145,-16.431236
2191067225000.0,-2.741128136598219,9.57778158113756,-0.3793428324532073,0.06291912,0.0070249503,-0.17012598,133.4437,-106.51882,-16.49188
2191072209000.0,-2.802316922630093,9.562681116579268,-0.3178541752682533,0.071776666,0.035430185,-0.18325958,133.38768,-106.59588,-16.56887
2191077214000.0,-2.884491491912061,9.53851215530456,-0.3275217698729326,0.062308256,0.05467244,-0.18936823,133.32921,-106.67159,-16.644896
2191082170000.0,-2.960656709351621,9.518560256109726,-0.325759502840399,0.04184427,0.07269296,-0.19700404,133.27629,-106.76419,-16.738785
2191087217000.0,-3.0169060068162925,9.51454237423109,-0.2775458894214464,0.049785517,0.09254608,-0.20616703,133.21678,-106.857704,-16.833149
2191093078000.0,-3.082227412094763,9.509876472568578,-0.2215561949002494,0.06841691,0.13103059,-0.21410827,133.14853,-106.96816,-16.944254
2191097194000.0,-3.149597585775986,9.498791542470489,-0.1946521105298013,0.05131268,0.14019357,-0.21410827,133.08284,-107.076675,-17.05383
2191102224000.0,-3.232818860946348,9.48492150695844,-0.1622882244370861,0.04550946,0.15271631,-0.21288654,133.0044,-107.18564,-17.16319
2191107222000.0,-3.2661748843542724,9.46091756125634,-0.159936036404604,0.042455133,0.1572978,-0.22418754,132.92738,-107.30854,-17.287304
2191112276000.0,-3.280338310183379,9.43259061100273,-0.1693783252204448,0.04795292,0.18081611,-0.21930063,132.8408,-107.42445,-17.40418
2191117252000.0,-3.314514738511856,9.4169848577269,-0.152602459787408,0.046120327,0.18875736,-0.22602014,132.76367,-107.56332,-17.54453
2191122239000.0,-3.358447333748978,9.40722238726492,-0.1233141105355682,0.036957346,0.20861048,-0.22876903,132.67572,-107.69728,-17.67976
2191127222000.0,-3.3792013611835268,9.40170315609756,-0.1013127361679328,0.032986723,0.21777347,-0.22937989,132.58646,-107.83527,-17.818836
2191132199000.0,-3.3906360833586566,9.397891502439023,-0.0822548539360256,0.021685716,0.22357668,-0.22999077,132.49207,-107.97147,-17.956173
2191137187000.0,-3.400740018929216,9.39971609464608,-0.0611959320531381,0.021991149,0.23304509,-0.22418754,132.4012,-108.11301,-18.098867
2191142221000.0,-3.405573547222779,9.423883736113895,-0.0321947405891317,0.018020526,0.2321288,-0.22937989,132.31148,-108.25522,-18.242334
2191147170000.0,-3.4063259433631043,9.448766555281798,-0.0135998324773637,0.013133603,0.23457226,-0.22602014,132.2174,-108.393745,-18.382172
2191152246000.0,-3.3913546875577456,9.478709275331074,-0.0335615893914382,-0.0033597588,0.21960606,-0.23945917,132.12865,-108.53602,-18.52584
2191157189000.0,-3.376225163417383,9.508968473165234,-0.0408636487029159,-0.011911872,0.21655174,-0.2275473,132.0421,-108.66715,-18.658348
2191163070000.0,-3.3563909752218626,9.548636849556276,-0.0091289260509931,-0.022907447,0.21746802,-0.22235495,131.95866,-108.80155,-18.794155
2191168822000.0,-3.3369918508381464,9.587435098323708,0.0219096940295816,-0.03176499,0.20952678,-0.22113322,131.8795,-108.92679,-18.920599
2191172209000.0,-3.2995919776204543,9.614600451258022,0.0100909125150249,-0.05375614,0.20219639,-0.2134974,131.79979,-109.046425,-19.041447
2191177253000.0,-3.220862520963635,9.658885610064177,-0.0341943798798003,-0.06291912,0.20738874,-0.20769419,131.71852,-109.16421,-19.160246
2191182207000.0,-3.1688692644247447,9.67789965696666,-0.0914788982617074,-0.09193522,0.21166481,-0.20738874,131.64186,-109.27135,-19.268621
2191187248000.0,-3.1456101351127383,9.668595810946233,-0.1659081654914241,-0.10751228,0.22510384,-0.20066923,131.56073,-109.37333,-19.371552
2191192229000.0,-3.119314570437395,9.658897623415635,-0.2052225008213056,-0.115453534,0.24312437,-0.20555615,131.4716,-109.45821,-19.457104
2191197259000.0,-3.0875508703861088,9.64830989537695,-0.1911053225005495,-0.118202426,0.2751948,-0.20341812,131.37416,-109.5379,-19.53729
2191202265000.0,-3.055938726756539,9.637772685324933,-0.1770555024858964,-0.1151481,0.30757064,-0.19028452,131.26318,-109.60956,-19.609186
2191207263000.0,-3.000710407384431,9.631074069541723,-0.1244745302761657,-0.12370021,0.33108896,-0.1777618,131.14532,-109.679596,-19.679407
2191212243000.0,-2.933900872063238,9.62630186021613,-0.0528928354592755,-0.1337795,0.34147367,-0.17348573,131.02184,-109.74716,-19.747086
2191217234000.0,-2.8521536981740843,9.60495908693848,0.0140219383400767,-0.13561209,0.35613444,-0.15363261,130.89209,-109.79824,-19.798227
2191222202000.0,-2.763306643832348,9.57534333343708,0.0781892242112252,-0.15851954,0.35246924,-0.13500121,130.76514,-70.15231,-19.84768
2191227187000.0,-2.705920926898357,9.531430527493454,0.1260600445303499,-0.16737708,0.3387248,-0.10751228,130.64435,-70.12345,-19.87644
2191232605000.0,-2.6565164018805048,9.47790913068317,0.1713475584689359,-0.20005837,0.36041048,-0.086132,130.5143,-70.09831,-19.901297
2191237237000.0,-2.6240451,9.442732,0.20111294,-0.21685717,0.36560285,-0.0571159,130.40892,-70.09635,-19.90267
2191242264000.0,-2.6240451,9.442732,0.20111294,-0.22296582,0.37048978,-0.034208454,130.29744,-70.09826,-19.899878
2191247161000.0,-2.619877827937973,9.435786546563287,0.2275056804651973,-0.22479841,0.37690386,-0.011301007,130.19261,-70.113014,-19.883718
2191252266000.0,-2.6071006964805297,9.414491327467548,0.3084275663960275,-0.22388211,0.37751472,0.014660766,130.08846,-70.134254,-19.860691
2191257295000.0,-2.596621091190053,9.393541604262875,0.3852495806962699,-0.21930063,0.36346483,0.036651913,129.98357,-70.161125,-19.831692
2191262311000.0,-2.6170987730941384,9.37306385108348,0.419379082610302,-0.22204952,0.33964106,0.07147124,129.8818,-70.19791,-19.79237
2191267265000.0,-2.637323341705151,9.352839212078152,0.4530867286394316,-0.22602014,0.33292156,0.09285152,129.79031,-70.23516,-19.75154
2191272194000.0,-2.6557878446063605,9.344415821556227,0.4878773576070021,-0.21777347,0.32559118,0.10751228,129.70644,-70.27899,-19.70365
2191277222000.0,-2.6690274151315188,9.375308229584824,0.5275959539776373,-0.22052236,0.30298916,0.12064589,129.6294,-70.32667,-19.651154
2191282348000.0,-2.689899345512192,9.400508082056314,0.5569180268287159,-0.22479841,0.25289822,0.16340645,129.56355,-70.37574,-19.596006
2191287239000.0,-2.795976484789009,9.35100512168793,0.4543767183513248,-0.21471913,0.24007004,0.20372356,129.49329,-70.42637,-19.538954
2191292488000.0,-2.909818010870386,9.29787875919076,0.3443298305578621,-0.21197024,0.23884831,0.20647246,129.43813,-70.475136,-19.482145
2191297168000.0,-3.0109357957733307,9.289656667851132,0.289059442865158,-0.2284636,0.20891592,0.21991149,129.39513,-70.53611,-19.411924
2191302292000.0,-3.121064661866467,9.340132428090518,0.2936481492126426,-0.24098633,0.18753563,0.23182335,129.34973,-70.59541,-19.342823
2191307213000.0,-3.217222343714346,9.37923090238749,0.2827333255060215,-0.23365596,0.16340645,0.24862215,129.2914,-70.62941,-19.300844
2191312259000.0,-3.2886932707796324,9.392844334460174,0.2282792702683287,-0.2312125,0.12308934,0.27122417,129.24423,-70.66671,-19.25444
2191317247000.0,-3.359342692936122,9.406301290302135,0.174451123711529,-0.2321288,0.065973446,0.28893927,129.1986,-70.68548,-19.225643
2191322236000.0,-3.4463415384776006,9.423704145406226,0.1397708398111237,-0.2144137,0.032070424,0.2947425,129.15775,-70.70676,-19.194357
2191327241000.0,-3.555525879498861,9.44645086332574,0.1306721478929385,-0.20372356,-0.028405234,0.27580565,129.14192,-70.72465,-19.165037
2191332197000.0,-3.645979445581356,9.470699470057736,0.0980552185431328,-0.1863139,-0.087659165,0.2751948,129.12878,-70.73123,-19.148895
2191337285000.0,-3.6993696742467024,9.499448203169118,0.0118094716376585,-0.16493362,-0.13652839,0.27855456,129.13048,-70.73357,-19.136728
2191342302000.0,-3.752014874170846,9.527795764886848,-0.0732327674002275,-0.12308934,-0.17715092,0.27397305,129.13457,-70.712425,-19.148695
2191347215000.0,-3.803568764389565,9.555555695267396,-0.1565121216743225,-0.08246681,-0.21960606,0.23671028,129.15364,-70.68377,-19.168207
2191352208000.0,-3.8559621236124575,9.583767649753469,-0.2411475411513338,-0.060170226,-0.27977628,0.1957823,129.18495,-70.654526,-19.188332
2191357378000.0,-3.812932379172441,9.621659603444863,-0.3034260809661453,-0.032375857,-0.3359759,0.16615535,129.22754,-70.619965,-19.214914
2191362343000.0,-3.704674245238567,9.664021345179172,-0.3457879504870322,-0.00061086525,-0.38606682,0.1600467,129.28592,-70.582146,-19.245035
2191367211000.0,-3.537177152335623,9.687307709421,-0.3355613456457311,0.039095376,-0.40622538,0.16279559,129.33069,-70.52553,-19.300913
2191372221000.0,-3.315876799146221,9.696724444455349,-0.2837676362345436,0.06719518,-0.408058,0.15149458,129.38457,-70.46524,-19.360832
2191377241000.0,-3.092043187593052,9.72103505459057,-0.2498049336600496,0.089186326,-0.41722095,0.11728613,129.44319,-70.42757,-19.400124
2191382287000.0,-2.865066738036157,9.759578552640908,-0.2326746401364764,0.10476339,-0.42302418,0.08093964,129.50096,-70.3875,-19.442575
2191387245000.0,-2.642166146958333,9.786197121770831,-0.2137672905114583,0.1133155,-0.41874814,0.07086037,129.57372,-70.39,-19.441294
2191392402000.0,-2.4106617558333334,9.781052477083334,-0.1880445881458333,0.09437868,-0.4196644,0.07819075,129.64946,-70.38678,-19.445133
2191397162000.0,-2.218330845334136,9.77792,-0.1661555787597832,0.0842994,-0.40561453,0.07452556,129.72913,-70.42922,-19.403267
2191402268000.0,-2.056413109331728,9.77792,-0.1465291824804334,0.05955936,-0.398895,0.08032878,129.81056,-70.474335,-19.357338
2191407202000.0,-1.9343419485754,9.74409835580264,-0.1356858528839472,0.029321533,-0.3707952,0.090713486,129.89473,-70.559166,-19.27067
2191412271000.0,-1.8765103098083988,9.642892975379729,-0.1405051519209768,0.006414085,-0.3585779,0.10262536,129.9812,-70.64388,-19.183346
2191417678000.0,-1.8419501139086047,9.533563628957651,-0.1708794382917298,-0.027488936,-0.33383787,0.11056661,130.06285,-70.75732,-19.06549
2191422212000.0,-1.848875899250339,9.44006556300343,-0.229748657087487,-0.06780604,-0.3118467,0.10873401,130.14133,-70.86808,-18.949286
2191427181000.0,-1.8564661567190368,9.33759712680437,-0.2942658931254486,-0.10170906,-0.269697,0.11453723,130.20154,-70.98511,-18.826233
2191432241000.0,-1.9129054090393232,9.220010316276754,-0.3850362562100548,-0.1001819,-0.20158553,0.119729586,130.24718,-71.099174,-18.706594
2191437198000.0,-1.979068799990045,9.101861245246392,-0.4795553797949229,-0.09896017,-0.11911872,0.11911872,130.27571,-71.209785,-18.589813
2191442374000.0,-2.041940251626898,9.045503162689805,-0.4646843518128293,-0.096516706,-0.04734206,0.11636983,130.27768,-71.31125,-18.485544
2191447166000.0,-2.0988254148951557,9.007579489515546,-0.4267609508831732,-0.07849618,-0.00580322,0.12644911,130.26396,-71.41508,-18.380327
2191452386000.0,-2.1572541354695494,9.023179889778978,-0.3962012147379596,-0.08155051,0.018325957,0.12950343,130.21524,-71.49342,-18.30338
2191457177000.0,-2.210394699662195,9.045321791525916,-0.3696309141453527,-0.069027774,0.030848695,0.13713925,130.1577,-71.57584,-18.224083
2191462273000.0,-2.2895825860781525,9.080883509887675,-0.3361972818035121,-0.064751714,0.05222898,0.14019357,130.09404,-71.64049,-18.161385
2191467260000.0,-2.3726952290618573,9.118661948109477,-0.3021966637351685,-0.03940081,0.063224554,0.14538592,130.03,-71.70802,-18.097134
2191472181000.0,-2.466806965385381,9.166174738896634,-0.294241239410476,-0.016493361,0.07238753,0.14385876,129.96233,-71.762505,-18.045473
2191477242000.0,-2.597123784315873,9.243399591416052,-0.3569863905038837,0.00061086525,0.06383542,0.17195857,129.8966,-71.82651,-17.984842
2191482170000.0,-2.737163346893747,9.279152219013728,-0.3872808033634977,0.03756821,0.03359759,0.21960606,129.83098,-71.876175,-17.93872
2191488167000.0,-2.953227177559736,9.185719141942045,-0.3172060382430096,0.089491755,0.06078109,0.18692477,129.75174,-71.91135,-17.909061
