timestamp,acc_x,acc_y,acc_z,gyro_x,gyro_y,gyro_z,ori_azimuth,ori_pitch,ori_roll
2245954163000.0,-5.592855,0.7903403915559484,7.667993492179042,-5.5594845,7.16606,9.80622,89.740364,-26.989422,-16.189943
2245959163000.0,-5.592855,0.7898648358955617,7.669182376985034,-5.5594845,0.7489208,0.032070424,93.20949,-26.119616,-15.921051
2245964174000.0,-5.592855,0.7893882340127221,7.670373877337597,-1.1667526,0.7663304,0.036651913,89.78298,-26.361967,-16.611626
2245969162000.0,-5.592855,0.7889138196859203,7.671559908820053,-1.1942415,0.7663304,0.03726278,89.83465,-24.564632,-17.015478
2245974129000.0,-5.592855,0.7884414026928921,7.672740946986324,-1.1985176,0.7473936,0.030543262,89.88579,-23.976952,-17.412775
2245979146000.0,-5.592855,0.7879642301432601,7.673933874000656,-1.180497,0.7244862,0.0290161,89.936676,-23.397978,-17.803015
2245984152000.0,-5.592855,0.7874881038160809,7.675124185468413,-1.1527027,0.71929383,0.03145956,89.98924,-22.829823,-18.187971
2245989147000.0,-5.592855,0.7870130237113545,7.676311881389598,-1.138042,0.75594574,0.03359759,90.04088,-22.272285,-18.572945
2245994155000.0,-5.592855,0.7865367071619113,7.677502668411278,-1.1780536,0.75869465,0.048258353,90.094025,-21.718319,-18.940794
2245999156000.0,-5.592855,0.7860610563903924,7.67869179099423,-1.2095132,0.77396625,0.046731193,90.14615,-21.178442,-19.317755
2246004154000.0,-5.592855,0.7855856909522698,7.679880200246298,-1.2455542,0.7724391,0.051923547,90.19497,-20.638124,-19.683228
2246010729000.0,-5.592855,0.7849603352588613,7.681443583766176,-1.2406673,0.7504479,0.055588737,90.24618,-20.109507,-20.04212
2246014209000.0,-5.592855,0.7846293485192322,7.682271047591145,-1.2379184,0.743423,0.062308256,90.29453,-19.581144,-20.398205
2246019253000.0,-5.592855,0.784149607969034,7.683470394583429,-1.2287555,0.7318166,0.06169739,90.33973,-19.067963,-20.745829
2246024185000.0,-5.592855,0.7836805198656285,7.684643110556058,-1.2360858,0.7119634,0.076358154,90.38139,-18.562956,-21.081486
2246029186000.0,-5.592855,0.7832048690941097,7.685832233139009,-1.2351695,0.6985244,0.08979719,90.42516,-18.071737,-21.410362
2246034181000.0,-5.592855,0.7827297889893834,7.687019929060194,-1.2403619,0.65026605,0.09743301,90.47297,-17.587177,-21.718172
2246039153000.0,-5.592855,0.7822568964406948,7.688202156111271,-1.2034045,0.5870415,0.100792766,90.52169,-17.124126,-22.012018
2246044174000.0,-5.592855,0.7817793434465344,7.689396034233447,-1.1074986,0.5195409,0.10323623,90.57418,-16.684963,-22.285872
2246049169000.0,-5.592855,0.7813042633418081,7.690583730154631,-0.98532563,0.44440445,0.09315695,90.63659,-16.26999,-22.536463
2246054195000.0,-5.592855,0.7808262347919874,7.691778797161613,-0.8549059,0.3735441,0.08979719,90.70236,-15.8913765,-22.76455
2246059190000.0,-5.592855,0.780351154687261,7.692966493082798,-0.7272351,0.31490102,0.0842994,90.77748,-15.549892,-22.972452
2246064232000.0,-5.592855,0.779871604359327,7.694165364521159,-0.6044512,0.11209377,0.042760566,90.883545,-15.243051,-23.120975
2246069241000.0,-5.592855,0.7793951926987517,7.6953563893198,-0.21655174,-0.034513887,0.004886922,90.98974,-15.044302,-23.265465
2246074198000.0,-5.592855,0.7789237268170442,7.696535049716459,0.063224554,-0.020158553,0.014660766,91.09706,-14.8549385,-23.395687
2246079222000.0,-5.592855,0.7784458884894877,7.697729641169518,0.03023783,-0.0027488936,0.008246681,91.23233,-14.681791,-23.489319
2246084200000.0,-5.592855,0.7779724252740067,7.698913294882363,-0.0061086523,-0.009468411,0.006414085,91.363594,-14.583924,-23.577671
2246089909000.0,-5.592855,0.777429435820977,7.700270763553843,0.0030543262,-0.002443461,0.0106901415,91.49173,-14.490821,-23.673058
2246094238000.0,-5.592855,0.7770176997302143,7.701300100018869,0.0009162979,0.0021380284,0.01038471,91.62199,-14.386246,-23.764894
2246104231000.0,-5.592855,0.7760672541873653,7.703676205192123,0.0018325958,-0.0018325958,0.014660766,91.749084,-14.287541,-23.85406
2246109237000.0,-5.592855,0.7755911278601861,7.70486651665988,0.0027488936,-0.004886922,0.0076358155,91.87865,-14.188512,-23.944067
2246114332000.0,-5.592855,0.775106536642252,7.706077990277184,-0.00580322,-0.0036651916,0.013133603,92.00251,-14.090858,-24.03134
2246119352000.0,-5.592855,0.7746290787592238,7.707271630622399,0.002443461,-0.009468411,0.017715093,92.129036,-13.998431,-24.114939
2246124272000.0,-5.592855,0.7741611319894033,7.708441493271493,0.0067195175,-0.014049901,0.017104227,92.25464,-13.904368,-24.197687
2246129292000.0,-5.592855,0.773683674106375,7.709635133616708,0.004886922,-0.0012217305,0.01985312,92.37628,-13.813334,-24.281616
2246134311000.0,-5.592855,0.7732063113344788,7.710828536184962,0.017104227,-0.006414085,0.019547688,92.500305,-13.728076,-24.358187
2246139288000.0,-5.592855,0.7727329432301299,7.712011952120845,0.01282817,-0.011911872,0.013439035,92.62365,-13.639137,-24.436998
2246144263000.0,-5.592855,0.772259765348045,7.713194892502805,0.0070249503,-0.004581489,0.016493361,92.7431,-13.555417,-24.515882
2246149321000.0,-5.592855,0.7717786932419978,7.714397568372545,0.0106901415,0.0018325958,0.019242255,92.864426,-13.473634,-24.592125
2246154296000.0,-5.592855,0.771305515359913,7.715580508754506,0.014049901,-0.0036651916,0.015882496,92.98647,-13.391267,-24.665949
2246160236000.0,-5.592855,0.7707405552353735,7.716992903904023,0.020158553,-0.007941248,0.021685716,93.10369,-13.313353,-24.739637
2246164260000.0,-5.592855,0.7703578280398944,7.717949718395884,0.01985312,-0.0009162979,0.016493361,93.224236,-13.234177,-24.814632
2246169247000.0,-5.592855,0.7698835088242246,7.71913551210138,0.018936822,-0.013439035,0.016187929,93.34283,-13.158976,-24.880959
2246174240000.0,-5.592855,0.7694086189417624,7.720322732468642,0.026267206,-0.0067195175,0.014660766,93.4607,-13.086255,-24.953693
2246179333000.0,-5.592855,0.7689242179460926,7.721533730532023,0.014966198,-0.004276057,0.009773844,93.58038,-13.009244,-25.020796
2246184257000.0,-5.592855,0.7684558907317437,7.7227045442889635,0.022296581,0.0030543262,0.012217305,93.69677,-12.940806,-25.089432
2246189250000.0,-5.592855,0.7679810008492814,7.7238917646562255,0.028405234,-0.005497787,0.0030543262,93.81862,-12.868278,-25.15423
2246194275000.0,-5.592855,0.7675030674105928,7.725086593886246,0.023823744,-0.010995574,0.004581489,93.93497,-12.797662,-25.21968
2246199232000.0,-5.592855,0.7670316015288854,7.726265254282905,0.016798794,-0.009162978,0.0018325958,94.05492,-12.7274065,-25.284487
2246204243000.0,-5.592855,0.7665549996460458,7.727456754635469,0.015271631,-0.0061086523,0.0012217305,94.173355,-12.658953,-25.346645
2246211064000.0,-5.593456617123081,0.7657835327414987,7.722948166190189,0.0125227375,-0.01038471,0.0030543262,94.291626,-12.589464,-25.406103
2246214293000.0,-5.5942321148038925,0.7653182380198615,7.7158136438860465,0.013133603,-0.006414085,0.003970624,94.40882,-12.521367,-25.467602
2246219286000.0,-5.59543126621928,0.7645987531808607,7.704781538012839,0.009468411,-0.0012217305,0.002443461,94.51812,-12.443421,-25.528234
2246224284000.0,-5.596631618467248,0.7638785478483299,7.693738384567158,0.019242255,-0.00061086525,-0.002443461,94.62748,-12.370027,-25.587591
2246229239000.0,-5.5978216435550205,0.7631645387601564,7.682790240244759,0.01038471,0.0030543262,-0.0009162979,94.73402,-12.292764,-25.647623
2246234342000.0,-5.59904721328719,0.7624292030634968,7.671515087777107,0.0027488936,0.0027488936,0.002443461,94.84102,-12.219123,-25.705658
2246239291000.0,-5.600235797375865,0.7617160585675594,7.660580200541679,0.004581489,-0.009162978,0.0018325958,94.94862,-12.146537,-25.760376
2246244266000.0,-5.601430625793961,0.7609991675052663,7.649587865929381,0.009162978,-0.00030543262,-0.0018325958,95.0539,-12.073949,-25.819532
2246249279000.0,-5.602634580539673,0.7602768006921456,7.638511569766275,0.0030543262,-0.004581489,-0.01038471,95.16198,-11.9995775,-25.87093
2246254255000.0,-5.603829649124285,0.7595597655311466,7.627517025639483,-0.0061086523,-0.01038471,0.00061086525,95.26384,-11.928786,-25.922142
2246259238000.0,-5.605026398874511,0.7588417216792055,7.616507014911225,0.00580322,-0.014660766,0.0036651916,95.370224,-11.860897,-25.97253
2246264327000.0,-5.606248606275454,0.7581084033644298,7.605262795646504,0.010995574,-0.014049901,0.008246681,95.47202,-11.791732,-26.020763
2246269253000.0,-5.607431666534256,0.75739857313873,7.594378727244457,0.0125227375,-0.013744468,0.01038471,95.573204,-11.72586,-26.066668
2246274239000.0,-5.608629136784031,0.7566800969906711,7.5833620879727155,0.008552114,-0.017104227,0.008857546,95.67357,-11.661069,-26.110668
2246279306000.0,-5.609846060521617,0.7559499488474271,7.572166478026883,0.014049901,-0.014660766,0.0106901415,95.77104,-11.600813,-26.155054
2246284348000.0,-5.611056980096299,0.7552234031718327,7.561026105943425,0.013439035,-0.021380283,0.01282817,95.86905,-11.538844,-26.195097
2246289368000.0,-5.612262616007624,0.75450002766777,7.549934343178855,0.006414085,-0.01160644,0.024129177,95.96152,-11.479033,-26.238804
2246294275000.0,-5.613441113102618,0.7537929353174841,7.5390922555522115,0.014660766,-0.013744468,0.02076942,96.05848,-11.422306,-26.277245
2246299689000.0,-5.614741374621326,0.7530127849232621,7.527129944076638,0.0015271631,-0.017715093,0.017715093,96.15056,-11.360771,-26.316288
2246304261000.0,-5.615839415933394,0.7523539656394824,7.517028043805798,0.018020526,-0.027488936,0.023518313,96.24076,-11.310528,-26.351912
2246309290000.0,-5.617047213343365,0.7516292932470658,7.505916395410773,0.01740966,-0.015882496,0.015577064,96.33424,-11.251339,-26.392637
2246314325000.0,-5.6182564517524325,0.7509037562624135,7.4947914899287795,0.01038471,-0.018936822,0.018020526,96.42366,-11.19767,-26.42479
2246319256000.0,-5.619440712843816,0.7501932055431838,7.483896373954258,0.007941248,-0.01863139,0.015271631,96.51541,-11.144155,-26.461142
2246324301000.0,-5.620652352918047,0.7494662275714715,7.472749373327315,0.009162978,-0.02076942,0.016187929,96.604904,-11.091435,-26.494812
2246329354000.0,-5.621865914324406,0.7487380968101113,7.461584696584412,0.009468411,-0.01282817,0.0061086523,96.697235,-11.036942,-26.53148
2246334261000.0,-5.6230444114194,0.7480310044598254,7.4507426089577695,0.0027488936,-0.01863139,0.014049901,96.784,-10.984274,-26.561821
2246339281000.0,-5.624250047330725,0.7473076289557629,7.439650846193199,0.017104227,-0.015577064,0.014049901,96.87449,-10.935553,-26.59719
2246344302000.0,-5.625455923408567,0.7465841093529942,7.428556873914134,0.011911872,-0.022602014,0.0012217305,96.96686,-10.880339,-26.627691
2246349266000.0,-5.626648109994985,0.745868803376467,7.41758884396128,-0.0061086523,-0.0290161,0.011301007,97.05109,-10.829269,-26.657124
2246354562000.0,-5.627920031864781,0.7451056566295515,7.405887255196108,0.0061086523,-0.028405234,0.0125227375,97.141304,-10.782543,-26.687185
2246359237000.0,-5.629042810328017,0.744431995179055,7.39555777493229,0.008857546,-0.01985312,0.01160644,97.22821,-10.730708,-26.71659
2246364259000.0,-5.630248926572374,0.7437083314775804,7.38446159313873,0.016187929,-0.0106901415,0.017104227,97.31189,-10.684927,-26.745283
2246369363000.0,-5.631474736471061,0.7429728516822148,7.373184231156586,0.011911872,-0.0125227375,0.009773844,97.399284,-10.635836,-26.773472
2246374239000.0,-5.632645788404052,0.7422702263918146,7.362410638479286,0.009468411,-0.015882496,0.011911872,97.48079,-10.591732,-26.802248
2246379343000.0,-5.633871598302739,0.7415347465964489,7.351133276497141,0.016187929,-0.017104227,0.0076358155,97.565865,-10.547775,-26.83126
2246384439000.0,-5.635095486869295,0.7408004195907313,7.3398735906309565,0.010995574,-0.015271631,0.009162978,97.647736,-10.501915,-26.859102
2246389435000.0,-5.636295358784231,0.7400805024556124,7.328834856214264,0.008246681,-0.01160644,0.0033597588,97.73248,-10.457528,-26.887192
2246394326000.0,-5.637470013214966,0.7393757156846223,7.318028120819541,0.007941248,-0.014966198,0.0009162979,97.81532,-10.41376,-26.912943
2246399313000.0,-5.638667723631257,0.7386570954378573,7.307009272033303,0.009468411,-0.016493361,0.015271631,97.89361,-10.371904,-26.938974
2246404302000.0,-5.63986591438058,0.7379381869936804,7.295986004218077,0.014660766,-0.018325957,0.014966198,97.97675,-10.329334,-26.964378
2246411380000.0,-5.640081282035228,0.7375786286321969,7.292063215804925,0.023823744,-0.01282817,0.0125227375,98.054985,-10.290411,-26.990168
2246415306000.0,-5.639330404055079,0.737766347147165,7.296756178679129,0.01863139,-0.018325957,0.015882496,98.13162,-10.250489,-27.011517
2246419354000.0,-5.638556192627764,0.7379598989934695,7.301594974836739,0.021380283,-0.0067195175,0.0061086523,98.19512,-10.20837,-27.072847
2246424269000.0,-5.63761616071935,0.7381949057436142,7.307470143590359,0.014049901,-0.0070249503,0.012217305,98.2531,-10.165548,-27.126928
2246429305000.0,-5.636652986621533,0.738435698010904,7.313489950272602,0.021380283,-0.01160644,0.014049901,98.31446,-10.125905,-27.182528
2246434467000.0,-5.635665714045494,0.7386825148662952,7.31966037165738,0.009773844,-0.017104227,0.02076942,98.37187,-10.081702,-27.235865
2246439329000.0,-5.634735818798554,0.7389149874643021,7.325472186607553,0.01160644,-0.014049901,0.021380283,98.429794,-10.042801,-27.28932
2246444927000.0,-5.633665157837557,0.7391826513070916,7.332163782677291,0.02076942,-0.003970624,0.017715093,98.48631,-10.003775,-27.341908
2246449265000.0,-5.632835481658779,0.7393900692688674,7.337349231721687,0.014660766,-0.012217305,0.01985312,98.54127,-9.962814,-27.388693
2246454245000.0,-5.631883017995727,0.7396281839414455,7.343302098536138,0.014049901,-0.009162978,0.022296581,98.59541,-9.925694,-27.440485
2246459233000.0,-5.630929024270565,0.7398666811275537,7.3492645281888445,0.014966198,-0.015882496,0.02076942,98.65072,-9.887762,-27.486189
2246464320000.0,-5.629956096026801,0.7401099119185989,7.355345297964972,0.0076358155,-0.01740966,0.022296581,98.703255,-9.848915,-27.5328
2246469353000.0,-5.628993495702275,0.7403505607433147,7.36136151858287,0.007330383,0.0015271631,0.02565634,98.754295,-9.812694,-27.582218
2246474239000.0,-5.628059010269007,0.7405841808819124,7.36720202204781,0.00580322,-0.004276057,0.026267206,98.80686,-9.774748,-27.623297
2246479301000.0,-5.627090863469335,0.7408262163181755,7.373252907954387,0.013744468,-0.009468411,0.01985312,98.85887,-9.739221,-27.668972
2246485571000.0,-5.625891677291155,0.7411260112975057,7.380747782437641,0.014660766,-0.013439035,0.02321288,98.907394,-9.703526,-27.711742
2246489273000.0,-5.625183641050067,0.7413030194336269,7.385172985840673,0.0036651916,-0.0143553335,0.017104227,98.960556,-9.665236,-27.75378
2246494310000.0,-5.624220275694486,0.7415438595151079,7.391193987877699,0.006414085,-0.010079277,0.013744468,99.01122,-9.632009,-27.794876
2246499263000.0,-5.623272975991053,0.7417806832045214,7.397114580113035,-0.0009162979,-0.010995574,0.018020526,99.06125,-9.594265,-27.83324
2246504296000.0,-5.622310375666527,0.7420213320292373,7.403130800730933,0.008552114,-0.010995574,0.01038471,99.11528,-9.559965,-27.872946
2246509294000.0,-5.621354469363729,0.7422603073572583,7.409105183931461,-0.0012217305,-0.017104227,0.020463986,99.16223,-9.522544,-27.908573
2246514318000.0,-5.620393590359076,0.7425005258542527,7.41511064635632,0.01038471,-0.010995574,0.0125227375,99.21607,-9.489978,-27.948116
2246519287000.0,-5.619443230531425,0.7427381145707267,7.421050364268169,0.008857546,-0.020463986,0.012217305,99.26509,-9.454623,-27.979774
2246524287000.0,-5.618486941713099,0.7429771855271304,7.42702713817826,0.011911872,-0.014966198,0.013744468,99.31426,-9.423046,-28.016825
2246529352000.0,-5.617518221140136,0.7432193644059673,7.433081610149182,0.006414085,-0.016187929,0.0106901415,99.36544,-9.38879,-28.048798
2246534282000.0,-5.616575320365267,0.7434550883689813,7.438974709224532,0.009162978,-0.016798794,0.013744468,99.41332,-9.358922,-28.081287
2246539288000.0,-5.615617884000359,0.7436944462105326,7.444958655263316,0.008552114,-0.015271631,0.014049901,99.462494,-9.326554,-28.11357
2246544276000.0,-5.614663890275199,0.743932943396641,7.450921084916023,0.004581489,-0.017104227,0.014049901,99.51052,-9.294911,-28.143831
2246549310000.0,-5.613701098692909,0.7441736400355481,7.456938500888703,0.004581489,-0.017715093,0.01282817,99.55819,-9.264481,-28.174181
2246555069000.0,-5.6125996452319615,0.7444490019631338,7.463822549078346,0.016187929,-0.018020526,0.011301007,99.60555,-9.236437,-28.20339
2246559296000.0,-5.61179119866495,0.7446511125496774,7.468875313741937,0.0033597588,-0.020463986,0.016493361,99.6508,-9.203503,-28.230848
2246564324000.0,-5.610829554629242,0.744891522303437,7.474885557585923,0.009468411,-0.018020526,0.016187929,99.69756,-9.177721,-28.259283
2246569278000.0,-5.609882063668045,0.7451283938070418,7.480807345176044,0.02321288,-0.018325957,0.0143553335,99.74298,-9.15162,-28.285418
2246574237000.0,-5.60893361641803,0.7453655043816029,7.486735109540072,0.022907447,-0.01160644,0.01740966,99.785904,-9.1245985,-28.313343
2246579283000.0,-5.6079685297425765,0.7456067747908054,7.492766869770135,0.0070249503,-0.0076358155,0.016493361,99.8304,-9.096694,-28.34008
2246584318000.0,-5.607005546902522,0.7458475192439039,7.498785481097598,0.0012217305,-0.018936822,0.0125227375,99.87492,-9.071613,-28.363752
2246589297000.0,-5.606053274497234,0.7460855861022907,7.504737152557267,0.009162978,-0.01160644,0.016187929,99.91557,-9.0473585,-28.39279
2246594288000.0,-5.605098706998782,0.7463242267309728,7.51070316827432,0.009162978,-0.008857546,0.011301007,99.96068,-9.018396,-28.417402
2246599277000.0,-5.604144522015857,0.7465627717312724,7.516666793281809,0.0018325958,-0.01160644,0.009162978,100.00317,-8.990893,-28.441593
2246604258000.0,-5.603191867095042,0.7468009342180417,7.522620855451041,0.002443461,-0.018020526,0.010995574,100.045555,-8.965677,-28.464943
2246611119000.0,-5.603104618371774,0.7465873289769356,7.527100952651291,0.00580322,-0.0067195175,0.004886922,100.089836,-8.938374,-28.49243
2246614315000.0,-5.603848970281812,0.7461407178309127,7.526803211887276,0.008246681,-0.012217305,0.0021380284,100.13334,-8.912148,-28.51257
2246619415000.0,-5.605036765882937,0.745428040470238,7.526328093646826,0.008552114,-0.011301007,0.007330383,100.16566,-8.877588,-28.522896
2246624784000.0,-5.6062872118794935,0.7446777728723042,7.525827915248203,-0.0036651916,-0.010079277,0.004276057,100.20145,-8.839627,-28.532055
2246634293000.0,-5.608501868422845,0.7433489789462933,7.524942052630863,0.01160644,-0.013133603,0.005192355,100.234116,-8.8105345,-28.539558
2246639271000.0,-5.609661250089982,0.7426533499460112,7.524478299964008,0.0061086523,-0.0015271631,0.0012217305,100.26806,-8.772755,-28.551678
2246645427000.0,-5.611094989250868,0.741793106449479,7.523904804299653,0.0015271631,-0.005497787,0.0070249503,100.29926,-8.741099,-28.557796
2246649280000.0,-5.611992357182463,0.7412546856905223,7.523545857127015,-0.0021380284,-0.016493361,0.008857546,100.33242,-8.70779,-28.565382
2246654257000.0,-5.613151505948502,0.7405591964308992,7.523082197620599,0.014049901,-0.008857546,0.015577064,100.361,-8.680388,-28.5764
2246659227000.0,-5.614309024406852,0.7398646853558887,7.5226191902372594,0.008246681,-0.009773844,0.008552114,100.39419,-8.645496,-28.582388
2246664279000.0,-5.615485640755261,0.7391587155468439,7.522148543697896,0.00580322,-0.00580322,0.013439035,100.42039,-8.618577,-28.590866
2246669284000.0,-5.61665131075205,0.7384593135487699,7.52168227569918,0.009773844,-0.009162978,0.008246681,100.45224,-8.589959,-28.597717
2246674241000.0,-5.617805801496123,0.7377666191023259,7.521220479401551,0.007941248,-0.00580322,0.01160644,100.47889,-8.561648,-28.606781
2246679270000.0,-5.618977061119272,0.7370638633284371,7.520751975552292,0.008246681,-0.0067195175,0.0067195175,100.509964,-8.533498,-28.614216
2246684397000.0,-5.620171145050049,0.7363474129699705,7.520274341979981,0.0015271631,-0.012217305,0.005497787,100.53855,-8.50459,-28.620821
2246689233000.0,-5.621297454761233,0.7356716271432602,7.5198238180955075,0.0030543262,-0.018325957,-0.00030543262,100.56996,-8.476992,-28.627308
2246694312000.0,-5.622480359439295,0.7349618843364235,7.519350656224282,0.004581489,-0.016187929,0.008857546,100.59649,-8.450127,-28.633806
2246699315000.0,-5.623645563633888,0.7342627618196675,7.518884574546445,0.015271631,-0.009162978,0.007330383,100.62807,-8.4241495,-28.640686
2246704276000.0,-5.624800985982354,0.7335695084105877,7.518422405607058,0.010079277,-0.014049901,0.007941248,100.656235,-8.396612,-28.644196
2246709225000.0,-5.625953613517641,0.7328779318894153,7.517961354592944,0.009773844,-0.007330383,0.011911872,100.68251,-8.373633,-28.652773
2246714281000.0,-5.627131161470443,0.7321714031177347,7.517490335411823,0.007330383,-0.0061086523,0.006414085,100.71191,-8.348009,-28.65876
2246719294000.0,-5.628298694676018,0.731470883194389,7.517023322129593,0.004276057,-0.011301007,0.008552114,100.73725,-8.324179,-28.66417
2246724279000.0,-5.629459706650843,0.7307742760094943,7.516558917339663,0.008857546,-0.009468411,0.00580322,100.76524,-8.300625,-28.672276
2246729281000.0,-5.630624677944338,0.7300752932333971,7.516092928822265,0.0143553335,-0.009468411,0.0036651916,100.79241,-8.277347,-28.678185
2246734341000.0,-5.631803157501532,0.7293682054990808,7.5156215369993875,0.0070249503,-0.01863139,-0.005497787,100.82285,-8.251044,-28.68238
2246740343000.0,-5.633201029893287,0.7285294820640278,7.515062388042685,0.0067195175,-0.017715093,-0.0018325958,100.84901,-8.229729,-28.688824
2246749328000.0,-5.63529364626115,0.7272739122433097,7.51422534149554,0.00061086525,-0.015271631,0.005497787,100.87701,-8.204775,-28.693325
2246754297000.0,-5.636450931818403,0.7265795409089583,7.513762427272639,0.004581489,-0.010995574,-0.00061086525,100.9077,-8.18131,-28.699007
2246759291000.0,-5.637614039903112,0.7258816760581328,7.5132971840387555,-0.0021380284,-0.016493361,0.0036651916,100.93279,-8.156508,-28.701742
2246764301000.0,-5.638780874405393,0.7251815753567642,7.512830450237843,0.0015271631,-0.008552114,0.008857546,100.95832,-8.134976,-28.709642
2246769283000.0,-5.639941187676923,0.7244853873938463,7.512366324929231,-0.0027488936,-0.016798794,0.011911872,100.98402,-8.11048,-28.711264
2246774267000.0,-5.641101966750649,0.7237889199496104,7.511902013299741,0.004886922,-0.015271631,0.007330383,101.009315,-8.089927,-28.717928
2246779305000.0,-5.642275322483682,0.723084906509791,7.511432671006528,0.0125227375,-0.021380283,0.0036651916,101.0339,-8.06924,-28.719889
2246784292000.0,-5.643436800260703,0.7223880198435783,7.510968079895719,0.0012217305,-0.020463986,0.0036651916,101.0581,-8.045938,-28.72427
2246789255000.0,-5.644592688411366,0.7216944869531805,7.510505724635454,-0.0027488936,-0.018325957,0.007941248,101.08205,-8.026772,-28.727242
2246794287000.0,-5.645764646737809,0.7209913119573147,7.510036941304877,0.008246681,-0.009162978,0.00580322,101.1074,-8.007992,-28.732742
2246799291000.0,-5.6469300838335,0.7202920496998998,7.5095707664666,0.00580322,-0.01863139,0.010079277,101.129906,-7.9867,-28.73308
2246804237000.0,-5.648082012665493,0.7196008924007042,7.509109994933803,0.005497787,-0.01740966,0.012217305,101.15251,-7.9684114,-28.73915
2246810100000.0,-5.649447511804589,0.7187815929172462,7.508563795278165,0.0106901415,-0.015882496,0.0143553335,101.173965,-7.9517837,-28.742422
2246814282000.0,-5.650058711940298,0.7186249903731343,7.509095465373135,0.020158553,-0.014049901,0.0125227375,101.19571,-7.9361877,-28.746202
2246819283000.0,-5.647218319916972,0.7226488675387961,7.518800114227538,0.0015271631,-0.022296581,0.008857546,101.21757,-7.915155,-28.747524
2246824284000.0,-5.644377927893644,0.7266727447044579,7.528504763081941,0.009773844,-0.030543262,0.014049901,101.22746,-7.892867,-28.761942
2246829313000.0,-5.64152163285559,0.7307191510764061,7.538263747102897,0.022296581,-0.032375857,0.01282817,101.240616,-7.8661804,-28.775991
2246834296000.0,-5.638691464198874,0.7347285451808836,7.547933466207374,0.019547688,-0.021685716,0.017104227,101.249985,-7.8397574,-28.790554
2246839265000.0,-5.635869247049521,0.738726674682218,7.557576017728576,0.018936822,-0.03604105,0.013133603,101.26365,-7.8161435,-28.797735
2246844270000.0,-5.633026583166947,0.7427537703059207,7.567288428749629,0.03604105,-0.029932396,0.015271631,101.27227,-7.7981763,-28.813007
2246849282000.0,-5.630179943530691,0.746786498231195,7.577014423562321,0.027794369,-0.040011674,0.014049901,101.28469,-7.7731404,-28.819796
2246854250000.0,-5.62735829434615,0.7507838231180192,7.58665503454186,0.03756821,-0.04428773,0.0143553335,101.29523,-7.7577477,-28.829596
2246859296000.0,-5.624492343906296,0.7548439079366412,7.596447007771078,0.03756821,-0.04153884,0.013744468,101.306496,-7.7379327,-28.838503
2246864274000.0,-5.621665015073639,0.7588492789685677,7.606107024167244,0.050701816,-0.03359759,0.011301007,101.318085,-7.7239485,-28.847649
2246869281000.0,-5.618821215261441,0.7628779838212909,7.615823316271622,0.043066,-0.029321533,0.0070249503,101.330414,-7.7047396,-28.856535
2246874232000.0,-5.616009221478699,0.7668616302614412,7.625430938042898,0.032070424,-0.03756821,0.0106901415,101.34106,-7.6889877,-28.863722
2246880270000.0,-5.612579849945636,0.7717198926742117,7.637147928601364,0.049480084,-0.03970624,0.005497787,101.355286,-7.676887,-28.874233
2246884271000.0,-5.610307422734012,0.7749391553296432,7.64491203579322,0.04550946,-0.040927973,0.009773844,101.36552,-7.658848,-28.88197
2246889244000.0,-5.607482933725413,0.7789405032890184,7.654562349481072,0.039095376,-0.041233405,0.0061086523,101.37991,-7.6429596,-28.889822
2246894299000.0,-5.604611871602254,0.7830078296382327,7.664371787585253,0.046731193,-0.041233405,0.010079277,101.39037,-7.6315002,-28.8968
2246899268000.0,-5.601789654452901,0.7870059591395671,7.674014339106455,0.04795292,-0.043066,0.013744468,101.40209,-7.6165614,-28.903248
2246904270000.0,-5.598948694464762,0.7910306409197391,7.683720928502521,0.054367006,-0.034208454,0.012217305,101.41353,-7.60489,-28.912687
2246909230000.0,-5.596131588998715,0.7950215288904814,7.69334601514876,0.04062254,-0.040927973,0.009162978,101.425026,-7.5889864,-28.917038
2246914273000.0,-5.593267342453297,0.7990791998655729,7.70313216675299,0.054367006,-0.04428773,0.0125227375,101.43425,-7.5824194,-28.924511
2246919519000.0,-5.590287799051103,0.803300207586241,7.713312248314718,0.043066,-0.045814894,0.010995574,101.44615,-7.565297,-28.93086
2246924229000.0,-5.587612684787981,0.8070899419294257,7.72245219954532,0.04153884,-0.04520403,0.015271631,101.45503,-7.5554967,-28.936419
2246929328000.0,-5.584716632213107,0.81119267131709,7.732347021482653,0.04795292,-0.046120327,0.015271631,101.46581,-7.5442686,-28.941313
2246934262000.0,-5.581914293832164,0.8151626393105664,7.741921654045666,0.0421497,-0.042455133,0.013439035,101.47547,-7.530163,-28.94754
2246939305000.0,-5.579050047286745,0.8192203102856578,7.751707805649897,0.041233405,-0.04428773,0.011301007,101.48542,-7.5190153,-28.95193
2246944340000.0,-5.57619034445982,0.8232715443446674,7.761478432920827,0.03481932,-0.040927973,0.01160644,101.49466,-7.5053425,-28.958742
2246949848000.0,-5.57306199427696,0.8277033610670159,7.772166936398142,0.03359759,-0.032986723,0.018325957,101.502266,-7.4935536,-28.966108
2246954260000.0,-5.570556133527726,0.8312533202861521,7.780728606213304,0.026572637,-0.027183503,0.013133603,101.51346,-7.477328,-28.974245
2246959228000.0,-5.567734484343185,0.8352506451729762,7.790369217192844,0.022602014,-0.030543262,0.009162978,101.52204,-7.462916,-28.981585
2246964275000.0,-5.56486796593852,0.8393115346061085,7.800163130963725,0.027183503,-0.027488936,0.0143553335,101.52867,-7.4497237,-28.99206
2246969288000.0,-5.562020758337452,0.8433450671458931,7.8098910663180785,0.026572637,-0.029321533,0.011911872,101.53934,-7.432923,-29.000557
2246974248000.0,-5.559203652871405,0.8473359551166354,7.819516152964318,0.020463986,-0.027183503,0.011911872,101.54712,-7.4172273,-29.01058
2246979310000.0,-5.556328614994563,0.8514089137674212,7.829339174860137,0.014966198,-0.00580322,0.01038471,101.55522,-7.4012456,-29.025568
2246984358000.0,-5.553461528625086,0.8554706078150638,7.83913502917268,0.020463986,-0.0070249503,-0.00061086525,101.567314,-7.3854494,-29.035017
2246989309000.0,-5.550649534842345,0.859454254255214,7.848742650943956,0.022907447,0.016798794,0.0018325958,101.57319,-7.369522,-29.056826
2246994275000.0,-5.547829021587427,0.8634499699130177,7.85837938084017,0.0143553335,0.03634648,-0.004276057,101.585556,-7.3497915,-29.077616
2246999275000.0,-5.544989197528912,0.8674730424641692,7.868082089152911,0.005192355,0.04337143,-0.0070249503,101.59538,-7.331635,-29.10093
2247004262000.0,-5.542156757012949,0.8714856550266877,7.877759570424039,-0.0021380284,0.058643065,-0.0143553335,101.60722,-7.310662,-29.131989
2247011068000.0,-5.538291188504497,0.8769618613833152,7.890966896979342,-0.008246681,0.054367006,-0.0106901415,101.61684,-7.289278,-29.158554
2247014327000.0,-5.536440191183157,0.8795841000721558,7.897291122257586,-0.029626964,0.05100725,0.00030543262,101.625534,-7.2627196,-29.188997
2247019570000.0,-5.535059361587384,0.8785563839509914,7.897351863471695,-0.04062254,0.04337143,0.006414085,101.63488,-7.2375383,-29.216406
2247024417000.0,-5.534582445272783,0.8749794717517724,7.892344194858729,-0.05467244,0.021685716,0.0125227375,101.64139,-7.208376,-29.237823
2247029324000.0,-5.534099625310798,0.8713582817039968,7.887274537362582,-0.05955936,0.00030543262,0.022296581,101.61939,-7.18221,-29.229183
2247034250000.0,-5.5336149358604745,0.8677230703375116,7.882185250053427,-0.04886922,-0.008857546,0.021380283,101.5998,-7.1566005,-29.21833
2247039341000.0,-5.533114011379842,0.8639660948874962,7.876925493315525,-0.055283304,-0.01863139,0.033292156,101.57442,-7.1294727,-29.200754
2247044288000.0,-5.532627255652933,0.8603153862740163,7.871814509897257,-0.035124753,-0.02076942,0.022296581,101.5573,-7.1089826,-29.184208
2247049311000.0,-5.532133021972671,0.8566085923856982,7.86662500722696,-0.022296581,-0.022907447,0.027488936,101.53202,-7.0896955,-29.16431
2247054294000.0,-5.531642724057331,0.8529313170630843,7.861476830478784,-0.015271631,-0.005192355,0.025350908,101.51229,-7.071966,-29.150755
2247064268000.0,-5.530661341073667,0.8455708627047159,7.851172211798007,0.013439035,-0.002443461,0.016187929,101.49436,-7.0630455,-29.13299
2247069291000.0,-5.530167107393404,0.8418640688163979,7.845982709127711,0.02321288,0.002443461,0.010995574,101.47536,-7.0518174,-29.121204
2247074232000.0,-5.529680942031234,0.8382177879877736,7.840877924597761,0.02565634,-0.00030543262,0.01160644,101.45796,-7.045712,-29.10854
2247079482000.0,-5.52916437288503,0.8343434762390836,7.835453897319429,0.023823744,-0.0036651916,0.0070249503,101.44405,-7.0397205,-29.097824
2247084306000.0,-5.528689719635262,0.8307835372151443,7.830469991111682,0.014049901,0.003970624,0.009162978,101.42768,-7.033562,-29.08948
2247089334000.0,-5.528194993984383,0.8270730535061133,7.82527532270112,0.007941248,-0.009773844,0.00580322,101.41597,-7.02663,-29.074862
2247094279000.0,-5.527708435045721,0.8234238208209185,7.820166405578958,0.004886922,-0.014660766,0.0076358155,101.40138,-7.0192866,-29.064892
2247099275000.0,-5.527216858006781,0.8197369519644508,7.815004797906093,-0.0027488936,-0.014049901,0.004886922,101.39002,-7.0084147,-29.053263
2247104243000.0,-5.526728036003288,0.8160707461039761,7.809872118378712,-0.007941248,-0.015882496,0.0012217305,101.37892,-6.997783,-29.039898
2247109231000.0,-5.526237246117333,0.8123897809606493,7.8047187758902705,-0.004581489,-0.015577064,0.0033597588,101.36695,-6.98811,-29.02755
2247114263000.0,-5.525742126889962,0.8086763453950477,7.799519974887496,-0.005192355,-0.010995574,-0.004276057,101.35945,-6.974588,-29.016792
2247119645000.0,-5.525212569719511,0.8047046223795336,7.793959572066167,-0.021991149,0.00061086525,0.014660766,101.34249,-6.9621773,-29.007318
2247124237000.0,-5.524760743906298,0.8013158910366793,7.78921535620672,-0.024740042,-0.0036651916,0.0018325958,101.33904,-6.9479136,-28.9965
2247129390000.0,-5.524253718990034,0.7975131618098222,7.78389154428953,-0.01985312,0.004276057,0.009773844,101.32187,-6.93728,-28.991083
2247139251000.0,-5.523283454542279,0.7902360973995685,7.773703671338745,-0.003970624,0.0030543262,0.0070249503,101.31312,-6.925811,-28.98302
2247144299000.0,-5.5227867610089385,0.7865108544076852,7.768488339967122,-0.00061086525,-0.00580322,0.0015271631,101.30293,-6.913496,-28.975016
2247149287000.0,-5.522295971122984,0.7828298892643584,7.763334997478681,-0.010079277,-0.005192355,0.008857546,101.28929,-6.9036055,-28.969128
2247154245000.0,-5.521808133060721,0.7791710630453097,7.75821264943183,-0.003970624,-0.00030543262,0.01282817,101.27889,-6.8974333,-28.962526
2247159246000.0,-5.521316064051166,0.775480504368129,7.7530458760186995,0.0033597588,-0.014049901,0.016493361,101.26724,-6.8904395,-28.950758
2247164266000.0,-5.520822125553273,0.7717759243722387,7.747859472792562,0.0021380284,-0.016493361,0.01985312,101.2539,-6.8835597,-28.943632
2247169296000.0,-5.520327203114148,0.7680639647349224,7.742662738085894,0.0070249503,-0.024129177,0.0290161,101.23855,-6.8815136,-28.93106
2247174235000.0,-5.519841234540224,0.7644191598345833,7.73756001985205,0.015882496,-0.02565634,0.024740042,101.226524,-6.87889,-28.920229
2247179313000.0,-5.519341589183191,0.7606717779184218,7.732313694038837,0.015271631,-0.023823744,0.02107485,101.2118,-6.876577,-28.908167
2247184279000.0,-5.518852963967944,0.7570070479862324,7.727183080807562,0.018325957,-0.031154128,0.018020526,101.198944,-6.876933,-28.89358
2247189248000.0,-5.518364043570328,0.7533401041616151,7.722049368132128,0.02565634,-0.03848451,0.023518313,101.18467,-6.8789406,-28.879658
2247194274000.0,-5.517869514707695,0.7496310963808692,7.716856766017672,0.028099801,-0.04062254,0.019242255,101.174805,-6.8787374,-28.866001
2247199261000.0,-5.517378823215863,0.745950869201685,7.711704456677284,0.030848695,-0.035430185,0.030543262,101.15836,-6.883361,-28.851954
2247205196000.0,-5.5167948540953455,0.7415710520153087,7.7055727229826365,0.032070424,-0.04734206,0.024129177,101.15006,-6.8851247,-28.833733
2247209227000.0,-5.516398227385184,0.7385963185564574,7.701408103180931,0.035124753,-0.05009095,0.026572637,101.13483,-6.890783,-28.819181
2247214327000.0,-5.525888066909304,0.7473942414760821,7.711230166605429,0.03848451,-0.046731193,0.03848451,101.11907,-6.8971796,-28.80333
2247219302000.0,-5.53960909260221,0.7615884106709103,7.727553466737505,0.036957346,-0.048563786,0.039095376,101.10671,-6.901807,-28.786036
2247224300000.0,-5.553393552182742,0.7758482011504583,7.743952231372705,0.044898596,-0.04886922,0.041233405,101.08022,-6.8861337,-28.792469
2247229278000.0,-5.567122851860991,0.7900509296432934,7.760285374700842,0.03756821,-0.043982297,0.043676864,101.053696,-6.8668957,-28.799795
2247234314000.0,-5.581012115255861,0.8044191378975958,7.776808819819462,0.04153884,-0.05100725,0.06047566,101.02278,-6.8552203,-28.802992
2247239244000.0,-5.594609031168631,0.8184849176223199,7.792984472010645,0.040011674,-0.05222898,0.06811147,100.993996,-6.8398747,-28.809437
2247244297000.0,-5.608545180480442,0.8329016285653283,7.8095636952402705,0.03573562,-0.04795292,0.08155051,100.95845,-6.8283887,-28.814594
2247249303000.0,-5.622351704021887,0.8471842438395614,7.825988708398296,0.034513887,-0.046120327,0.09254608,100.92188,-6.8184004,-28.818552
2247254275000.0,-5.636064455729451,0.8613698537363826,7.8423021653343135,0.033292156,-0.057726767,0.10781772,100.88054,-6.810195,-28.81925
2247259228000.0,-5.649724805529846,0.8755012547458266,7.85855328202862,0.03481932,-0.062308256,0.12003502,100.83681,-6.803837,-28.822184
2247264323000.0,-5.663776790636451,0.890037795860932,7.875270310003079,0.043676864,-0.06536258,0.13652839,100.78784,-6.8020544,-28.821638
2247269246000.0,-5.677354400583422,0.9040836038903068,7.89142299473679,0.05009095,-0.09132435,0.14935656,100.73802,-6.8015122,-28.813133
2247274848000.0,-5.692804689212902,0.9200666663685836,7.909803522845311,0.058948494,-0.096516706,0.1518,100.68617,-6.804842,-28.809637
2247279274000.0,-5.705011575588139,0.9326944840281431,7.924325518098492,0.06383542,-0.10293079,0.1572978,100.631165,-6.811099,-28.798227
2247284294000.0,-5.718856711061182,0.9470170426930752,7.940796466171461,0.07238753,-0.105068825,0.15974127,100.57718,-6.8204536,-28.787024
2247289258000.0,-5.732547398807833,0.9611798277952114,7.957083674584653,0.07544186,-0.116675265,0.16554448,100.52179,-6.8308864,-28.771456
2247294281000.0,-5.746400808266219,0.9755109457581504,7.973564465853682,0.08582657,-0.1328632,0.16920967,100.46743,-6.8452797,-28.75446
2247299315000.0,-5.760284555670861,0.9898734478137816,7.990081348841597,0.09682214,-0.13775012,0.16432275,100.41474,-6.8601193,-28.73805
2247304295000.0,-5.774019371339338,1.004081882505288,8.00642105430044,0.09590584,-0.13225232,0.15943582,100.361916,-6.874913,-28.72054
2247309235000.0,-5.787643867203249,1.0181761932233686,8.022629517145155,0.1001819,-0.12736541,0.16126843,100.30952,-6.8937902,-28.702078
2247314256000.0,-5.801491760671407,1.0325016049876363,8.039103746283478,0.11759156,-0.11636983,0.15363261,100.26196,-6.913539,-28.688103
2247319265000.0,-5.815306558198195,1.0467927795598764,8.055538602637563,0.12950343,-0.1020145,0.14905111,100.21319,-6.9334316,-28.676851
2247324244000.0,-5.829038615871558,1.060998361152047,8.071875027031053,0.13744467,-0.09254608,0.1432479,100.16766,-6.955174,-28.66815
2247329334000.0,-5.843076811002592,1.0755206367704744,8.088575649678745,0.1600467,-0.08277224,0.14172074,100.12223,-6.9831905,-28.663963
2247334390000.0,-5.8570212342997445,1.0899459070114896,8.10516471610443,0.17073683,-0.07422013,0.14569137,100.077126,-7.009807,-28.66239
2247339404000.0,-5.870849821802104,1.1042513470804078,8.12161597778528,0.19333886,-0.06658431,0.14049901,100.035675,-7.0431166,-28.663939
2247344384000.0,-5.884584637470581,1.1184597817719142,8.137955683244122,0.21074851,-0.067500606,0.13805555,99.992645,-7.0782056,-28.665337
2247349274000.0,-5.898071233578785,1.1324114375232126,8.15400009282118,0.22785273,-0.069027774,0.13744467,99.950935,-7.117783,-28.66891
2247354235000.0,-5.911753647340093,1.1465656633273418,8.170277458038312,0.23884831,-0.06627888,0.14844026,99.906654,-7.160746,-28.673117
2247359232000.0,-5.925535348925511,1.1608226007075542,8.186672941608158,0.25809056,-0.062002823,0.1414153,99.8689,-7.206686,-28.678139
2247364268000.0,-5.93942461232038,1.1751908089618566,8.203196386726779,0.2733622,-0.06078109,0.14294247,99.8254,-7.256229,-28.682339
2247369307000.0,-5.953322149700592,1.189567576514166,8.21972967504146,0.28955013,-0.067500606,0.15515977,99.7814,-7.3103967,-28.685354
2247374251000.0,-5.96695767754496,1.2036732996295891,8.235951262147587,0.2883284,-0.09437868,0.16493362,99.73912,-7.3628907,-28.683033
2247379352000.0,-5.98102621062225,1.2182269593407085,8.252687976514165,0.28008172,-0.11575896,0.16462818,99.69677,-7.4168763,-28.680351
2247384290000.0,-5.994645190495933,1.2323155638601178,8.268889877228174,0.26939157,-0.13530666,0.1600467,99.65445,-7.469593,-28.67062
2247389361000.0,-6.008630983719798,1.2467836305911677,8.285528159634158,0.23426682,-0.14446963,0.1685988,99.609085,-7.5148473,-28.657661
2247394300000.0,-6.022252721588596,1.260875088209913,8.301733341413518,0.21166481,-0.1600467,0.16371189,99.571365,-7.557087,-28.638662
2247399263000.0,-6.035940651340132,1.2750350202127132,8.318017268761357,0.19211712,-0.1704314,0.15363261,99.533325,-7.590977,-28.619026
2247404237000.0,-6.049658919037925,1.2892263363082055,8.334337287828081,0.17348573,-0.17287487,0.14080444,99.498726,-7.617727,-28.598272
2247409225000.0,-6.063415798667315,1.3034575957943972,8.35070324180975,0.15821409,-0.16462818,0.12858713,99.46765,-7.638602,-28.578775
2247414287000.0,-6.086632483607799,1.3344283071739542,8.368021523566155,0.15821409,-0.16768251,0.10751228,99.44469,-7.6552653,-28.557068
2247419259000.0,-6.122684753946621,1.3885065479841,8.386047494037479,0.14721853,-0.15851954,0.070249505,99.43028,-7.6611576,-28.543032
2247424283000.0,-6.134848224842767,1.4284400319706498,8.38838954821803,0.15363261,-0.129198,0.036651913,99.37337,-7.7036657,-28.562973
2247429339000.0,-6.089168536792453,1.433515482201258,8.352860283647798,0.16523905,-0.12675454,-0.007330383,99.333435,-7.7375393,-28.579391
2247434229000.0,-6.029684519648705,1.4185021324799048,8.299387113724322,0.16920967,-0.12675454,-0.036651913,99.272194,-7.7648582,-28.622551
2247439477000.0,-5.939909451672125,1.368627123647911,8.209612306142702,0.18325958,-0.13103059,-0.064446285,99.22548,-7.7914844,-28.6655
2247444271000.0,-5.872113740306519,1.315578279454764,8.130488114746806,0.19883664,-0.1386664,-0.08674286,99.16592,-7.803084,-28.72243
2247449262000.0,-5.824852752595523,1.2480624115121124,8.052844982936648,0.204029,-0.13561209,-0.10629055,99.11502,-7.8124437,-28.78024
2247454236000.0,-5.777752742001554,1.180776511462674,7.975466313807472,0.21594086,-0.13561209,-0.11942416,99.05858,-7.806558,-28.844507
2247460243000.0,-5.7059492476132805,1.0924035011201938,7.868156233979211,0.20250183,-0.12736541,-0.13255776,99.00891,-7.7938256,-28.910572
2247464299000.0,-5.651068771924513,1.0296831036633365,7.789755911121203,0.1994475,-0.11362094,-0.1459968,98.96424,-7.785605,-28.9766
2247469491000.0,-5.586133554172212,0.9634903057622608,7.703322115593324,0.2003638,-0.108123146,-0.15241088,98.91496,-7.7464404,-29.058035
2247474233000.0,-5.5303377848674105,0.912344075468414,7.633577282584212,0.18753563,-0.10415252,-0.15821409,98.87042,-7.7030444,-29.140718
2247479354000.0,-5.4926762751104015,0.8934406049779198,7.606782486554542,0.18325958,-0.09896017,-0.16615535,98.82224,-7.638722,-29.23785
2247484271000.0,-5.470554164051489,0.8978650271897022,7.611206816367566,0.17165314,-0.093767814,-0.18295415,98.78016,-7.5696974,-29.333681
2247489242000.0,-5.448303288781485,0.9337453665303468,7.630324337949624,0.16676621,-0.11453723,-0.183565,98.720795,-7.4806204,-29.43874
2247494348000.0,-5.425578527744214,1.0064646682907332,7.666683955609257,0.16646078,-0.12950343,-0.19364429,98.671455,-7.389303,-29.544453
2247499255000.0,-5.405283398706151,1.0787053886104785,7.702804257676537,0.14935656,-0.14996742,-0.20799962,98.60679,-7.282483,-29.652735
2247504253000.0,-5.387838261102506,1.1572081435079726,7.742055521275626,0.13988814,-0.16768251,-0.20891592,98.54395,-7.181682,-29.753868
2247509284000.0,-5.3725886,1.2347676468128426,7.779345792638997,0.11759156,-0.17287487,-0.20799962,98.45756,-7.0738587,-29.866943
2247514268000.0,-5.3725886,1.3020467291620987,7.801772231480031,0.110872045,-0.18142697,-0.21227567,98.376854,-6.970968,-29.97057
2247519264000.0,-5.3725886,1.369487799671104,7.824252666562255,0.093462385,-0.20769419,-0.21930063,98.28255,-6.878846,-30.051962
2247524285000.0,-5.383146217243022,1.387656165437744,7.836467445651138,0.1001819,-0.21135938,-0.22724187,98.19183,-6.7941723,-30.134632
2247530502000.0,-5.405834328684386,1.3649682316757168,7.842139562351147,0.09254608,-0.22113322,-0.21563543,98.10085,-6.7072706,-30.20503
2247534245000.0,-5.42507904595076,1.3409957568779465,7.848132649072813,0.09621128,-0.2321288,-0.22327125,98.01127,-6.643197,-30.263956
2247539244000.0,-5.455172868831849,1.3008704152959665,7.858163853535883,0.112704635,-0.23426682,-0.23518312,97.92141,-6.584475,-30.32037
2247544292000.0,-5.471124651618123,1.2971323158980583,7.857022354571197,0.13591751,-0.21991149,-0.23609942,97.8434,-6.533094,-30.371433
2247549270000.0,-5.475945981553398,1.321239066262136,7.847379795388349,0.14538592,-0.23365596,-0.24312437,97.77416,-6.482114,-30.413063
2247554259000.0,-5.505329888571429,1.338025322142857,7.886782725892857,0.15485434,-0.24587326,-0.25503623,97.71584,-6.432502,-30.456453
2247559229000.0,-5.551690306753247,1.3496154266883116,7.960186640665584,0.17165314,-0.23762658,-0.26053402,97.65869,-6.3888807,-30.500402
2247564286000.0,-5.587042582627817,1.3647502811434855,8.018098478284772,0.1881465,-0.24678956,-0.27458394,97.6095,-6.3537335,-30.531237
2247569299000.0,-5.541797787151497,1.4024542773737532,7.96154248393937,0.19730948,-0.25900686,-0.27550024,97.55847,-6.323424,-30.562187
2247574240000.0,-5.497202827157779,1.439616744035184,7.905798783947224,0.19028452,-0.25259277,-0.29352075,97.523735,-6.2931685,-30.594627
2247579264000.0,-5.437989043261147,1.4838706756942677,7.909908026624204,0.19181168,-0.2507602,-0.29932398,97.48664,-6.269962,-30.62102
2247584261000.0,-5.368898717673036,1.5326404196348196,7.958677685690021,0.20738874,-0.25686884,-0.31215215,97.45846,-6.2458606,-30.646969
2247589252000.0,-5.266591116682738,1.5815562421852978,8.003679196387509,0.19333886,-0.27091873,-0.32895094,97.423164,-6.2253795,-30.665995
2247594403000.0,-5.03971862487946,1.632785518225651,8.036612392478302,0.2003638,-0.2666427,-0.33261612,97.38787,-6.2146306,-30.687862
2247599250000.0,-4.8262356181292185,1.680991361939025,8.067601948186336,0.20372356,-0.28313604,-0.34208453,97.34179,-6.2032175,-30.68371
2247604213000.0,-4.615376637565366,1.7258694769138447,8.053147936905273,0.204029,-0.29260445,-0.33933565,97.29331,-6.1948557,-30.682364
2247611089000.0,-4.333121464792113,1.7823205232576085,7.974116377711101,0.20952678,-0.28130344,-0.34574974,97.25164,-6.1866155,-30.682934
2247614241000.0,-4.234612351967356,1.7978019537161178,7.961058967356456,0.1994475,-0.24465153,-0.34025195,97.2142,-6.2006764,-30.640497
2247619306000.0,-4.192199017273875,1.7836641918876908,8.027035107208782,0.19333886,-0.2415972,-0.33078352,97.1786,-6.2167163,-30.593225
2247624280000.0,-4.163050497047426,1.762550351402473,8.080993193301346,0.17837265,-0.23609942,-0.31856623,97.146416,-6.2487793,-30.52982
2247629279000.0,-4.211640610998339,1.6962911847757889,8.067741092452481,0.16829337,-0.21105394,-0.3036,97.109055,-6.281976,-30.474033
2247634615000.0,-4.265891349283019,1.6249318078641508,8.053006948528301,0.16432275,-0.18051068,-0.2910773,97.07457,-6.31189,-30.410503
2247639253000.0,-4.369810902339623,1.547830185916981,8.026189157433961,0.14844026,-0.1740966,-0.28985557,97.03868,-6.336662,-30.348688
2247644331000.0,-4.483589145207547,1.4634140504603772,7.996827203320755,0.14721853,-0.1685988,-0.27091873,97.00051,-6.353954,-30.301344
2247649249000.0,-4.613951520615453,1.369184325309399,7.962373235990634,0.16126843,-0.17256944,-0.26725355,96.96705,-6.369113,-30.254839
2247654150000.0,-4.786644804671647,1.2488224537072137,7.915275112320214,0.16798794,-0.16982053,-0.25473082,96.923935,-6.386244,-30.211939
2247659121000.0,-4.966960967985612,1.1472618742805756,7.898393840467626,0.17959438,-0.17867808,-0.25228736,96.89007,-6.380091,-30.19295
2247664174000.0,-5.155537433493206,1.0650618635491609,7.912899605915268,0.17867808,-0.19792034,-0.2489276,96.85241,-6.37492,-30.171768
2247669152000.0,-5.276385883058866,0.9964226851223728,7.922195630515876,0.1740966,-0.2049453,-0.2452624,96.81514,-6.3451695,-30.174847
2247674124000.0,-5.332705194095169,0.9401033107542536,7.926527979164772,0.204029,-0.21685717,-0.22907446,96.774635,-6.3271017,-30.170399
2247679138000.0,-5.378708765671482,0.9155202006869984,7.915825731086143,0.21288654,-0.23732115,-0.226631,96.7632,-6.2906027,-30.176008
2247684225000.0,-5.399561600749064,0.967652037977528,7.868907205992509,0.23090707,-0.24709499,-0.22907446,96.74856,-6.2661705,-30.180555
2247689108000.0,-5.387913830176565,1.003648616608441,7.835744243395335,0.25228736,-0.26206118,-0.23701571,96.75187,-6.2350554,-30.181753
2247694561000.0,-5.328743966131621,1.0233718874610518,7.816020869568502,0.2782491,-0.26419923,-0.24251351,96.75514,-6.21017,-30.18366
2247699110000.0,-5.209497323195194,1.019385279365645,7.828953284991345,0.30268374,-0.27305678,-0.24862215,96.75706,-6.201156,-30.183996
2247704159000.0,-4.9239366587822015,0.9701506918032788,7.907728532552693,0.32803464,-0.267559,-0.23793201,96.754745,-6.200499,-30.187357
2247709134000.0,-4.702832836204683,0.9434427014274424,7.969796150479107,0.3408628,-0.2846632,-0.22418754,96.75141,-6.20669,-30.177086
2247714222000.0,-4.592122821544997,0.9578831370295366,8.003490491840363,0.34972036,-0.28008172,-0.24495697,96.75485,-6.2144403,-30.175535
2247719194000.0,-4.51116591695092,0.9475694199829447,8.022335003790031,0.3640757,-0.24953845,-0.23854288,96.75053,-6.220021,-30.143597
2247724199000.0,-4.483916456698882,0.8885287725980671,8.01325164487398,0.36041048,-0.24678956,-0.22815818,96.75277,-6.220939,-30.106693
2247729194000.0,-4.465443844743378,0.8303836722268212,8.007093969784767,0.35979962,-0.24312437,-0.21074851,96.76007,-6.236025,-30.060549
2247734181000.0,-4.477304606837748,0.7750332151821192,8.01104765347682,0.36254853,-0.25473082,-0.19242255,96.764,-6.25234,-30.011692
2247739182000.0,-4.489198665637417,0.7195273728559604,8.01501243634106,0.3717115,-0.22785273,-0.20555615,96.78415,-6.2574883,-29.972258
2247744196000.0,-4.552358675088513,0.7581133267210858,8.061414469905586,0.3662137,-0.21227567,-0.19761491,96.792175,-6.2651205,-29.926298
2247749155000.0,-4.627089312706531,0.8188320581825335,8.1174626797797,0.35827246,-0.2144137,-0.19364429,96.805214,-6.2716775,-29.8847
2247754199000.0,-4.699277269973532,0.8077366579551024,8.119803556219978,0.37048978,-0.23701571,-0.16890424,96.817566,-6.272872,-29.83795
2247759167000.0,-4.769237628761887,0.7750885554553475,8.10581124095677,0.37140608,-0.2565634,-0.16126843,96.83407,-6.267446,-29.793005
2247764199000.0,-4.82957024731655,0.7867279130620609,8.084825173692428,0.3717115,-0.24709499,-0.16218472,96.84129,-6.279467,-29.756283
2247769185000.0,-4.885483459553083,0.8146845726990632,8.061527981654956,0.37110063,-0.25045475,-0.16798794,96.84897,-6.2915826,-29.711535
2247774187000.0,-4.9197271213095,0.8662509062331794,8.060654985539264,0.36651915,-0.25411993,-0.1704314,96.8601,-6.2949944,-29.682978
2247779202000.0,-4.943842230769231,0.928950236153846,8.07030123076923,0.36102137,-0.2687807,-0.14019357,96.86305,-6.301777,-29.65012
2247784246000.0,-4.967892393650794,0.8746968656746031,8.043217856587301,0.35460728,-0.29077184,-0.1328632,96.86492,-6.3081813,-29.622847
2247789276000.0,-4.99178688968254,0.7695610082837301,8.000207713829365,0.3539964,-0.28619036,-0.12034045,96.855156,-6.319614,-29.598368
2247794202000.0,-5.0551638145161295,0.7903697369892473,7.968366526075269,0.35246924,-0.28221974,-0.12156218,96.83882,-6.3415556,-29.565952
2247799232000.0,-5.138409445276498,0.8689904141013824,7.940618127361751,0.34147367,-0.27183503,-0.11453723,96.81584,-6.363556,-29.536865
2247804147000.0,-5.205133209552496,0.9410894248519792,7.9199796400688465,0.33200526,-0.26725355,-0.0983493,96.81705,-6.3703485,-29.510708
2247810531000.0,-5.278793691480207,1.0305345061049913,7.898933756695353,0.31581733,-0.26542094,-0.09132435,96.818726,-6.372274,-29.487473
2247814145000.0,-5.323397516271863,1.0520431141133495,7.885797564224043,0.32070425,-0.26358834,-0.076052725,96.79913,-6.39826,-29.472511
2247819155000.0,-5.392440795439451,1.0095548868607482,7.864553478326322,0.32406402,-0.27488935,-0.06658431,96.77987,-6.4195776,-29.454788
2247824135000.0,-5.453345469810394,0.9864111,7.8508638156793396,0.32345316,-0.28985557,-0.057421334,96.75207,-6.464571,-29.437235
2247829171000.0,-5.505464087120543,0.9864111,7.846125849513704,0.321926,-0.31031954,-0.03023783,96.716385,-6.5130396,-29.414474
2247834140000.0,-5.531384161092632,0.9924259211672212,7.873479043029937,0.3313944,-0.32345316,-0.0021380284,96.69168,-6.5603466,-29.395998
2247839151000.0,-5.521709966213083,1.0069373650136075,7.946036110734805,0.3368922,-0.35918877,0.03756821,96.65646,-6.610759,-29.36456
2247844122000.0,-5.506221418946956,0.9890916208925424,7.993068187707967,0.33933565,-0.39767328,0.054367006,96.62374,-6.6633043,-29.335686
2247849147000.0,-5.4826730631043255,0.9278658760305344,8.007197152035623,0.33353242,-0.4175264,0.064751714,96.58143,-6.7186475,-29.301662
2247854483000.0,-5.44765466595906,0.8968536380506066,7.995085065959059,0.31795537,-0.44868052,0.09254608,96.52996,-6.777875,-29.244093
2247859117000.0,-5.405597339196361,0.9094708316878316,7.953027739196361,0.31520647,-0.45723262,0.10262536,96.481476,-6.83653,-29.189169
2247864144000.0,-5.357196085125618,0.9165748070797856,7.922817658992957,0.31215215,-0.47494772,0.11789699,96.438354,-6.884665,-29.114872
2247869108000.0,-5.302225981646169,0.9065802290539262,7.932812294418165,0.31581733,-0.47678033,0.14263703,96.38921,-6.9354916,-29.043959
2247874111000.0,-5.256756215777492,0.8984719020469167,7.979375714668911,0.3213151,-0.4810564,0.15149458,96.340034,-6.991236,-28.961004
2247879136000.0,-5.228176435019301,0.8937086218331189,8.088931109848561,0.3222314,-0.50854534,0.1740966,96.28042,-7.050898,-28.87182
2247884259000.0,-5.190185136596415,0.9334019795647036,8.191508095725823,0.3115413,-0.537256,0.18387043,96.223915,-7.106574,-28.770935
2247889106000.0,-5.139898824305693,1.043117428548355,8.273794441402403,0.31337386,-0.5543602,0.21197024,96.155945,-7.1699834,-28.66685
2247894133000.0,-5.100046669573477,1.1219501666191698,8.384516781704189,0.30573806,-0.56596667,0.22907446,96.08952,-7.223227,-28.543947
2247899112000.0,-5.086457835394699,1.1264797464804788,8.547582224280422,0.3005457,-0.61361414,0.25503623,96.01502,-7.2814083,-28.408115
2247904233000.0,-5.08722512681528,1.1321573222088612,8.683916471464249,0.29168814,-0.6658431,0.28527406,95.91914,-7.3598332,-28.254227
2247909149000.0,-5.135127956784756,1.1408668863194893,8.714400127740264,0.2706133,-0.6740898,0.31703907,95.8166,-7.4359274,-28.102745
2247914219000.0,-5.186057392816814,1.1456420220828103,8.74433993318695,0.25686884,-0.68966687,0.34880406,95.71264,-7.510865,-27.925163
2247919160000.0,-5.255324023651192,1.0961658941028858,8.75423484880803,0.23732115,-0.72356987,0.36346483,95.60764,-7.5794387,-27.745047
2247924162000.0,-5.328340492501972,1.0555349853196527,8.760691843725336,0.25534168,-0.7302894,0.39003745,95.497284,-7.663556,-27.567957
2247929179000.0,-5.418404452940015,1.0697556262825572,8.746471400749803,0.26511553,-0.7467828,0.4111123,95.38841,-7.740232,-27.383759
2247934181000.0,-5.5022300361227225,1.0779712644609196,8.731242703131162,0.2782491,-0.77396625,0.41233405,95.29441,-7.815822,-27.199024
2247939154000.0,-5.543548806136131,1.0441650230459816,8.708705156558088,0.27488935,-0.77763146,0.4083634,95.197075,-7.8900986,-27.020996
2247944186000.0,-5.585357784762206,1.0099577021531667,8.685900223045982,0.28130344,-0.7968737,0.39003745,95.11135,-7.9728413,-26.841036
2247949167000.0,-5.5752934659271,1.020659273534073,8.624777118154604,0.28985557,-0.8185594,0.37965274,95.02649,-8.053956,-26.66419
2247954187000.0,-5.52873316481775,1.0629867838351823,8.535889350942067,0.3155119,-0.8188649,0.3753767,94.947044,-8.137687,-26.493494
2247959196000.0,-5.497087,1.1340500022335671,8.491740910870028,0.3203988,-0.8246681,0.36193767,94.88969,-8.209525,-26.326206
2247964219000.0,-5.497087,1.267076159540523,8.542904776430547,0.34697145,-0.8026769,0.35705075,94.83078,-8.292271,-26.171131
2247969238000.0,-5.446889228629697,1.4021058942289335,8.60470731033585,0.37384954,-0.8237518,0.33261612,94.7801,-8.384763,-26.001654
2247974193000.0,-5.335700155254708,1.538003789134774,8.67883364592554,0.3933972,-0.8206975,0.3182608,94.72665,-8.4807625,-25.849382
2247979211000.0,-5.231620576008381,1.676087700806705,8.756032169617601,0.4184427,-0.829555,0.31673363,94.671326,-8.606721,-25.685238
2247984311000.0,-5.180450397904662,1.819363558323729,8.84813779559979,0.44990227,-0.79809546,0.31398472,94.619865,-8.734627,-25.538544
2247989355000.0,-5.10864281588212,1.9541686798655065,8.918442922072785,0.44684792,-0.81581056,0.3118467,94.55693,-8.88662,-25.355524
2247994741000.0,-4.965816716613924,2.076591202848101,8.928645003164558,0.4709771,-0.7883216,0.31703907,94.49,-9.050583,-25.198832
2247999261000.0,-4.848604477082868,2.1848147366986823,8.955953110788474,0.4877759,-0.7831292,0.32345316,94.41326,-9.232777,-25.0175
2248004302000.0,-4.727292705115032,2.324997183085772,9.053002213089124,0.47433686,-0.78954333,0.32436943,94.337456,-9.409021,-24.845886
2248011085000.0,-4.564059666182712,2.51362196662944,9.183588220013402,0.47311515,-0.79229224,0.32467487,94.25268,-9.614195,-24.658854
2248014832000.0,-4.473888031672995,2.617820265897923,9.255725293276749,0.4978552,-0.782213,0.33567044,94.16567,-9.819222,-24.478815
2248019253000.0,-4.414921953760661,2.668438976453864,9.300810071422418,0.52626044,-0.8038987,0.34330627,94.08328,-10.019857,-24.29485
2248024381000.0,-4.3683804166192814,2.693825293538382,9.334659201085552,0.52748215,-0.82711154,0.32834008,94.00564,-10.21381,-24.11929
2248029286000.0,-4.273186230860401,2.734223222961518,9.32912730560348,0.5335908,-0.8371908,0.31887165,93.90216,-10.456004,-23.907955
2248034335000.0,-4.066439622818994,2.8103930179506413,9.242075894906607,0.539394,-0.8378017,0.32436943,93.80135,-10.692468,-23.699894
2248041342000.0,-3.786762821301775,2.912836820710059,9.13413461908284,0.54702985,-0.8197812,0.3313944,93.70416,-10.931495,-23.482943
2248044412000.0,-3.7316726098619326,2.927334244773176,9.206621890779092,0.52473325,-0.84971356,0.3371976,93.61063,-11.15883,-23.2594
2248049327000.0,-3.643474437475345,2.950544290138067,9.322672359960553,0.50732356,-0.86162543,0.33567044,93.50571,-11.412015,-23.01338
2248054276000.0,-3.447618237652503,2.9943061160370217,9.32603415835086,0.49663344,-0.8512407,0.34055737,93.39984,-11.656754,-22.77203
2248059463000.0,-3.1759422933950354,3.0528209750862434,9.25915982797644,0.50488013,-0.84696466,0.3472769,93.29729,-11.896409,-22.533028
2248064240000.0,-2.967350872243862,3.088155476918199,9.200520273213153,0.49113566,-0.8347474,0.35705075,93.19898,-12.127659,-22.277779
2248069315000.0,-2.8792952317872995,3.066141497844008,9.147686760213787,0.48563787,-0.82650065,0.3717115,93.09942,-12.359099,-22.029345
2248074382000.0,-2.790411501537,3.042536825662724,9.096762801312494,0.4877759,-0.83108217,0.3839288,92.99284,-12.605782,-21.741255
2248079277000.0,-2.6892145514463346,2.993962372463518,9.076523428201364,0.47891834,-0.8222246,0.39858958,92.88221,-12.844761,-21.46533
2248084220000.0,-2.5870252717122875,2.944911601847854,9.056085589327346,0.48258355,-0.7987063,0.4156938,92.76872,-13.083696,-21.184576
2248089273000.0,-2.517731986440678,2.909710150043545,9.033909946874791,0.47555858,-0.8008443,0.44226643,92.65181,-13.315115,-20.904549
2248094378000.0,-2.462052876271186,2.8802329217659275,9.010983445568431,0.45937067,-0.79381937,0.47067168,92.52932,-13.542231,-20.63905
2248099294000.0,-2.408435147457627,2.8518470149661685,8.988905741274202,0.45173484,-0.784351,0.49693888,92.40655,-13.761495,-20.353722
2248104151000.0,-2.416415601306052,2.8146931307357423,8.960831082716588,0.4428773,-0.7742717,0.52320606,92.27728,-13.974541,-20.075472
2248109108000.0,-2.4474161117435784,2.773358883032216,8.929830410426645,0.42302418,-0.76083267,0.5714644,92.13534,-14.183076,-19.804081
2248114147000.0,-2.5165055981267592,2.759591665631369,8.913425681063769,0.40866885,-0.75991637,0.59864795,92.00008,-14.383551,-19.521774
2248119148000.0,-2.590881821459769,2.7502946983888186,8.899479866155488,0.3866777,-0.7535023,0.6188065,91.85387,-14.576604,-19.248478
2248124147000.0,-2.628124354853498,2.7291827876220847,8.88523673430337,0.3747658,-0.7629707,0.62858033,91.70838,-14.761115,-18.97335
2248129168000.0,-2.6568776612916083,2.70522169892366,8.870860281243772,0.364992,-0.75625116,0.6545421,91.55324,-14.939976,-18.708635
2248134277000.0,-2.6225279533593677,2.5692395261840395,8.876088010713929,0.35124752,-0.754724,0.6630942,91.404045,-15.108473,-18.453552
2248139139000.0,-2.575904795794533,2.415383539501352,8.885412807750074,0.32742378,-0.745561,0.6948592,91.242256,-15.272657,-18.205475
2248144542000.0,-2.502579859106335,2.44462896040724,8.955281237839365,0.32345316,-0.73792523,0.71959925,91.07567,-15.430313,-17.95727
2248149132000.0,-2.436279022567873,2.5067860757918554,9.025725708993212,0.3005457,-0.73884153,0.73639804,90.90534,-15.575411,-17.714413
2248154222000.0,-2.348663128282828,2.574485751726354,9.1733055738292,0.2968805,-0.73639804,0.7687739,90.742355,-15.698518,-17.464163
2248159173000.0,-2.2572296606060607,2.63979535201102,9.347464841322314,0.26267207,-0.743423,0.8014552,90.57839,-15.806026,-17.216806
2248164205000.0,-2.201875935786511,2.5941805913374334,9.44092973991452,0.24037547,-0.7510588,0.81245077,90.404396,-15.924495,-16.94808
2248169175000.0,-2.1820295077660794,2.4453323293755864,9.455814353695404,0.23945917,-0.7483099,0.82253003,90.22451,-16.03965,-16.685392
2248174169000.0,-2.1457518782979568,2.3564416488692723,9.436520122297164,0.23548855,-0.7507534,0.8378017,90.040924,-16.15227,-16.392775
2248179231000.0,-2.0976683007934933,2.3083580211565167,9.393245093334656,0.23243423,-0.75869465,0.8445212,89.860634,-16.262314,-16.107428
2248184199000.0,-2.0364696557132187,2.3149176218166545,9.386118281646752,0.24037547,-0.7480045,0.8558222,89.689705,-16.347902,-15.822071
2248189209000.0,-1.964804580283794,2.3597084342699777,9.404034456964151,0.24312437,-0.7357872,0.8588765,89.52297,-16.42898,-15.543452
2248194555000.0,-1.813467040607761,2.4154573961772963,9.466179042194913,0.25137106,-0.7309003,0.88025683,89.35065,-16.508192,-15.25918
2248199225000.0,-1.610039797793477,2.4717244106938936,9.561400400948418,0.24770586,-0.7247916,0.89736104,89.18074,-16.58281,-14.98684
2248204194000.0,-1.5171773346571824,2.4879487695218336,9.60704554258052,0.25870144,-0.68691796,0.9605856,88.98068,-16.674902,-14.701446
2248210124000.0,-1.6518316877494563,2.420621710146216,9.550939610946454,0.2501493,-0.7305948,0.9447031,88.80833,-16.753662,-14.409048
2248214241000.0,-1.7374175062931123,2.3741903674413667,9.485261664968696,0.2660318,-0.7333437,0.9505063,88.603935,-16.855541,-14.092517
2248219321000.0,-1.8303500224769185,2.317398145431391,9.361351283985991,0.27947086,-0.7357872,0.9691377,88.407585,-16.951551,-13.77301
2248224175000.0,-1.9432874859176097,2.2401557054720653,9.267910335838048,0.29840767,-0.74281216,0.9764681,88.21926,-17.04128,-13.473085
2248229285000.0,-2.0903768392591937,2.1320018236651346,9.198691790045968,0.31215215,-0.7629707,0.9673051,88.035286,-17.131252,-13.177223
2248234200000.0,-2.215856966520376,2.044362997492163,9.14585,0.33200526,-0.7461719,0.99204516,87.82943,-17.221722,-12.901535
2248239220000.0,-2.281163337262278,2.019245162591432,9.14585,0.34483343,-0.7690793,0.99173975,87.64239,-17.309715,-12.620903
2248244325000.0,-2.32945422345679,1.963764283630544,9.183638364197533,0.3640757,-0.7993172,0.96883225,87.45503,-17.381681,-12.366697
2248249213000.0,-2.336589094238683,1.846040070492303,9.301362726337448,0.3903429,-0.7987063,0.9502009,87.27076,-17.458202,-12.122851
2248254209000.0,-2.3438816094650208,1.725714749535132,9.421688199588475,0.3912592,-0.82527894,0.9077458,87.10931,-17.523544,-11.871738
2248259291000.0,-2.2777875814496804,1.6692012634484823,9.481465111122205,0.4092797,-0.8604037,0.84788096,86.9629,-17.597494,-11.629925
2248264289000.0,-2.177431873182908,1.64530702105631,9.51013824191294,0.44257188,-0.8756753,0.80878556,86.82682,-17.673409,-11.396281
2248269282000.0,-1.9848973617391303,1.5863355291304349,9.567438191304348,0.4700608,-0.872621,0.7657196,86.71998,-17.708582,-11.161692
2248274242000.0,-1.7502087862450593,1.511235198695652,9.63784470513834,0.49418998,-0.8677341,0.7874053,86.609726,-17.752897,-10.929247
2248279283000.0,-1.6885558295233032,1.539883631738437,9.62693704288499,0.49021935,-0.9193522,0.70188415,86.54075,-17.780766,-10.681553
2248284958000.0,-1.7270802597908914,1.6361948079744817,9.564335044834309,0.50976706,-0.904386,0.62796944,86.45852,-17.82332,-10.458588
2248289235000.0,-1.7035012399147864,1.742335252774281,9.527733365449793,0.5122105,-0.8793405,0.59559363,86.40076,-17.842495,-10.190177
2248294498000.0,-1.5961263568509731,1.92292021388593,9.49844923230367,0.537256,-0.8772025,0.5714644,86.36241,-17.869148,-9.933718
2248299259000.0,-1.5954785164201049,2.090600268400257,9.437955129743637,0.54733527,-0.89644474,0.5564982,86.30581,-17.906336,-9.680026
2248304293000.0,-1.7903902968482956,2.2766524308554628,9.305060397592577,0.55863625,-0.9053023,0.5390886,86.2564,-17.948551,-9.440119
2248309229000.0,-1.9617966622537,2.4393865846090983,9.19185831944066,0.5742133,-0.91751957,0.51159966,86.197716,-18.025633,-9.179015
2248314293000.0,-2.019043542994643,2.487826206946336,9.17864768473622,0.59559363,-0.9434814,0.49021935,86.14509,-18.105299,-8.920816
2248319711000.0,-2.0776036588235294,2.539262057352941,9.16303230882353,0.6102544,-0.9593639,0.4636467,86.06994,-18.221199,-8.6898155
2248324276000.0,-2.0639246563204003,2.5734596707368587,9.115155871479974,0.63255095,-0.979217,0.43585235,86.005196,-18.341923,-8.460308
2248329336000.0,-2.0487623884856068,2.61136545906602,9.06208801321965,0.6478226,-0.9896017,0.41050145,85.94983,-18.471844,-8.228282
2248334308000.0,-2.0260135739884397,2.5703248841866224,9.060599484310488,0.66950834,-1.0009027,0.38026363,85.906105,-18.605711,-8.000728
2248339546000.0,-1.989768430635838,2.4046325840214697,9.13826764863749,0.68691796,-0.9816604,0.42577308,85.84725,-18.742014,-7.780923
2248344468000.0,-1.958977640530008,2.3986942962100546,9.105358202650038,0.6747007,-1.070236,0.36254853,85.82706,-18.878506,-7.5323358
2248349307000.0,-1.931887538113796,2.5386599667965704,8.969907690568979,0.6753115,-1.0775663,0.33536503,85.77598,-19.023956,-7.310289
2248354223000.0,-1.875204550927903,2.658023993381508,8.874920959599276,0.68966687,-1.0659598,0.28069258,85.76274,-19.131392,-7.073068
2248359284000.0,-1.7717250126621775,2.745583657029069,8.843080877894565,0.6951646,-1.074512,0.24220806,85.75501,-19.233768,-6.8368664
2248364801000.0,-1.65888444837353,2.840419754613338,8.807370832031586,0.677755,-1.0913107,0.2144137,85.73893,-19.362972,-6.5981183
2248369254000.0,-1.5673783368552054,2.9099642938803534,8.767108274439963,0.6740898,-1.0958922,0.20097467,85.72894,-19.493849,-6.369602
2248374206000.0,-1.4656181158269677,2.987301944554116,8.722333923397134,0.68019843,-1.0919216,0.183565,85.709564,-19.63865,-6.1244335
2248379277000.0,-1.3788533095879625,3.0567698625404605,8.61180748884612,0.6768387,-1.0916162,0.17256944,85.692924,-19.776518,-5.8851733
2248384277000.0,-1.3034519448779631,3.1196043914530662,8.4651941129385,0.6658431,-1.104139,0.16126843,85.68193,-19.910437,-5.6524158
2248389228000.0,-1.2496135740703416,3.198281966572609,8.350337255164769,0.6740898,-1.106277,0.15210545,85.65466,-20.064074,-5.4134593
2248394505000.0,-1.234334896170513,3.3154186034969264,8.289221799052706,0.67347896,-1.099252,0.1414153,85.63141,-20.208717,-5.1823754
2248399253000.0,-1.349591360564916,3.334202857096135,8.234580356144697,0.6753115,-1.0900891,0.14721853,85.58637,-20.375233,-4.929535
2248404250000.0,-1.6910761880872152,3.206145991060456,8.17766630901883,0.6759224,-1.0790935,0.17256944,85.53863,-20.538265,-4.685864
2248409233000.0,-1.8643724307855412,3.17302795203958,8.141930252271809,0.6948592,-1.0720685,0.20463985,85.48331,-20.728298,-4.444295
2248414268000.0,-1.713443882875606,3.32395644911147,8.146798757673668,0.7076874,-1.0922271,0.1518,85.44647,-20.91193,-4.2117186
2248419294000.0,-1.5604879486265015,3.4669707970202066,8.17968671496415,0.7315111,-1.1114693,0.116675265,85.4402,-21.087086,-4.012789
2248424251000.0,-1.4057688497253005,3.5951665994040414,8.25925674299283,0.7812967,-1.1252137,0.105374254,85.44302,-21.269154,-3.8185375
2248429228000.0,-1.2366194834310398,3.751617292317186,8.373066247763036,0.8216137,-1.1184943,0.09040806,85.43361,-21.475521,-3.6088996
2248434281000.0,-1.0126534566286125,4.015399691062429,8.616940668415099,0.84879726,-1.1276573,0.07269296,85.43094,-21.687958,-3.3989775
2248439228000.0,-0.7976035207286315,4.2744184960298925,8.873607458664175,0.8735373,-1.133155,0.073303826,85.40663,-21.924717,-3.1704922
2248444458000.0,-0.5823780917141522,4.55046849771135,9.196445758524051,0.8756753,-1.1661417,0.073303826,85.3912,-22.157785,-2.9408932
2248449296000.0,-0.3956778124610244,4.792093533407573,9.474480650334076,0.838718,-1.1707232,0.06811147,85.33809,-22.406162,-2.6892004
2248454241000.0,-0.2806165282182628,4.955096812917595,9.63268961267463,0.8029824,-1.1707232,0.076358154,85.28536,-22.650621,-2.436765
2248459317000.0,-0.1967445747368421,5.102253643274854,9.778815900584796,0.75655663,-1.1661417,0.079107046,85.20993,-22.90089,-2.1474273
2248464283000.0,-0.2845717581855955,5.146167359187442,9.841026934441366,0.6960809,-1.1252137,0.12370021,85.118996,-23.132378,-1.8718182
2248470215000.0,-0.3894833272991689,5.198623292089874,9.915339429978454,0.6600399,-1.1325442,0.13194689,85.060104,-23.376562,-1.5779552
2248474239000.0,-0.4674223851687193,5.19918883418444,9.939094555221788,0.591623,-1.1404854,0.11209377,84.99386,-23.589333,-1.3021406
2248479442000.0,-0.5721976661219585,5.179231757885251,9.954062232201863,0.5882632,-1.1294898,0.09682214,84.92448,-23.805893,-1.036944
2248484313000.0,-0.5422715376582279,5.142694925527426,9.986043464135022,0.5702427,-1.1270463,0.09468412,84.84204,-23.991716,-0.7883141
2248489364000.0,-0.4170264127272727,5.091668878787879,10.032430515151516,0.56107974,-1.1588113,0.10934488,84.76411,-24.175297,-0.5416745
2248494591000.0,-0.2218124659759547,5.029570841212872,10.030512085307638,0.5708536,-1.2021828,0.11178834,84.711586,-24.353914,-0.3065182
2248499317000.0,0.0102490072206506,4.965554012747525,9.986500374734796,0.5885687,-1.2345587,0.103847094,84.66173,-24.528564,-0.07292595
2248504362000.0,0.2689962843046178,4.965811060653524,9.966274561166625,0.61300325,-1.2861768,0.086132,84.61665,-24.692158,0.1839928
2248509302000.0,0.5585849897146458,5.191519834080475,10.03441312089297,0.6713409,-1.2953397,0.07727446,84.57141,-24.867336,0.43004388
2248514627000.0,0.8798083903267412,5.461196682179708,10.115812875107482,0.6966918,-1.3109168,0.08002335,84.55614,-25.037138,0.73670566
2248519259000.0,1.2850728438091144,6.061941741595013,10.296990090068787,0.7089091,-1.2834278,0.099571034,84.534676,-25.21598,1.0261157
2248524381000.0,1.6470478399530657,6.62786592731984,10.466734557739317,0.7076874,-1.2293663,0.108123146,84.52586,-25.43879,1.3562161
2248529279000.0,1.52320947462599,6.632452528121639,10.462147861151852,0.689056,-1.1866057,0.116675265,84.50994,-25.65483,1.6747404
2248534271000.0,1.3730960704098174,6.602032856177563,10.440216011438526,0.68936145,-1.1502593,0.12308934,84.47852,-25.960054,2.0394273
2248540130000.0,0.8970429955412468,6.125979586023787,10.197938971668812,0.7089091,-1.1615603,0.10354166,84.45352,-26.258074,2.3927042
2248544566000.0,0.5366109354427694,5.765547378069844,10.014504776683584,0.73364913,-1.1951579,0.109650314,84.411964,-26.547678,2.7204678
2248549319000.0,0.2733449903387424,5.511116137849899,9.799351971805272,0.7693848,-1.2134838,0.08674286,84.38336,-26.83978,3.0313804
2248554302000.0,0.1378283179279919,5.394959072373226,9.552518106592292,0.7837401,-1.2632693,0.040011674,84.36846,-27.12641,3.346966
2248559273000.0,0.0812039455877147,5.27761620778761,9.220527855283706,0.81183994,-1.2986995,0.002443461,84.32689,-27.346014,3.5726116
2248564303000.0,0.1112953589349297,5.157250533451328,8.789217792816242,0.83260936,-1.3469579,-0.04520403,84.308815,-27.564583,3.7994373
2248569318000.0,0.2713162528826682,5.061727355568791,8.378411542465754,0.8384125,-1.3768903,-0.08368854,84.28611,-27.780617,4.0028324
2248574301000.0,0.5318550393656939,4.985934214115545,7.985234639726027,0.8686504,-1.3863586,-0.12767084,84.28114,-28.006561,4.1994925
2248579304000.0,0.8604035727272727,4.974889814545455,7.741948678787878,0.904386,-1.3750577,-0.17073683,84.29242,-28.249239,4.4175053
2248584357000.0,1.2490028151136363,5.018882151272727,7.624635627727272,0.93615097,-1.3353515,-0.20097467,84.30839,-28.495642,4.6192093
2248590150000.0,1.700767579748078,5.073297937346639,7.489752122525765,0.94959,-1.2819008,-0.24007004,84.32998,-28.767502,4.8465843
2248594480000.0,2.107777875674792,5.158091846392933,7.384607921805987,0.93554014,-1.2327261,-0.25350907,84.346504,-29.036001,5.0569997
2248599304000.0,2.5612230644855227,5.2525597025682975,7.267468054768526,0.9257663,-1.1539245,-0.26145032,84.4087,-29.34403,5.331984
2248604255000.0,2.9926036894440533,5.440209291344124,7.160907583391977,0.893085,-1.0424415,-0.28313604,84.46385,-29.63723,5.5753717
2248611966000.0,3.600631287797326,5.902726032793807,7.020593430401126,0.8472701,-0.870483,-0.29077184,84.49525,-29.918766,5.778308
2248614246000.0,3.780413796453202,6.039483673891626,6.979105132019704,0.7984009,-0.8237518,-0.2883284,84.55866,-30.230104,6.0700865
2248619524000.0,4.032060890860826,6.256879920667425,6.895188354569586,0.79351395,-0.7296785,-0.2773328,84.588425,-30.535933,6.3024635
2248624335000.0,4.171838046530148,6.401024878697383,6.825299776734926,0.7663304,-0.5934556,-0.27763826,84.60544,-30.81723,6.506806
2248629293000.0,4.2425256,6.50084191346136,6.738358132155117,0.7492262,-0.5109888,-0.26053402,84.602356,-31.176126,6.783287
2248634266000.0,4.2425256,6.553862194943872,6.636735875999629,0.7556403,-0.5006041,-0.23243423,84.586334,-31.527872,7.040901
2248639405000.0,4.254852944536816,6.761426448733175,6.476353339350752,0.788627,-0.43371433,-0.21319197,84.5389,-31.907478,7.2869644
2248644274000.0,4.287157487351544,7.213691686559779,6.231760878424387,0.8072584,-0.39767328,-0.18142697,84.48409,-32.2771,7.5394173
2248649253000.0,4.149119635904963,7.492185077515825,6.143747578946886,0.83658,-0.34116822,-0.14630222,84.4008,-32.669495,7.7741113
2248654274000.0,3.646256882396111,7.381908238693698,6.399590029254197,0.83291477,-0.34300083,-0.12583824,84.31653,-33.05092,8.012461
2248659252000.0,3.1541674710729,7.281345908113917,6.646391201665772,0.87995136,-0.32711834,-0.09773844,84.174,-33.536324,8.238393
2248664298000.0,2.6954173811212607,7.233739840032241,6.85412710424503,0.9202685,-0.34055737,-0.07666359,84.03379,-34.010548,8.469012
2248669290000.0,2.241576626258284,7.1866432304674905,7.059639911552928,0.9611965,-0.3475823,-0.060170226,83.85574,-34.434666,8.604733
2248674245000.0,1.847788017530696,7.144582514392906,7.220900977704151,0.98440933,-0.37018433,-0.059253927,83.68214,-34.858437,8.745136
2248680503000.0,1.3684301968529868,7.091831524801025,7.396456694721435,1.0149527,-0.4266894,-0.04795292,83.51013,-35.287804,8.8964615
2248684271000.0,1.15385230037508,7.058819556637087,7.350239939291923,1.078788,-0.46731192,-0.058948494,83.27348,-35.680073,8.948297
2248689280000.0,0.8686026497758668,7.014935016155888,7.288801582618242,1.0894781,-0.49663344,-0.062308256,82.98183,-36.02317,8.932848
2248694294000.0,0.6889301286424128,6.953050426754235,7.355587539802973,1.14018,-0.5354234,-0.06688975,82.71086,-36.39128,8.930568
2248699297000.0,0.5605775626944348,6.882663595022468,7.483939911199447,1.1624765,-0.6188065,-0.089491755,82.4663,-36.75058,8.944626
2248704244000.0,0.4305172638291222,6.829054006017192,7.556891021307632,1.1554517,-0.6918049,-0.13164146,82.33496,-37.12685,8.955538
2248709233000.0,0.2936155733654597,6.804162851002865,7.531999909611878,1.1496484,-0.7247916,-0.13225232,82.20869,-37.50149,8.979994
2248714316000.0,0.1601782924848064,6.7811675276784165,7.506639944643167,1.1502593,-0.77396625,-0.15241088,82.13631,-37.847614,8.993614
2248719289000.0,0.1188295676966487,6.793572136047925,7.48183072790415,1.1438452,-0.7993172,-0.17470746,82.06669,-38.18341,9.008734
2248724237000.0,0.0776887090093766,6.805914384632748,7.4571462307345024,1.1511755,-0.84482664,-0.19425514,82.04039,-38.521317,9.019045
2248729346000.0,0.1208981856390977,6.856633669924812,7.387390306766917,1.1481212,-0.8888089,-0.21930063,82.02398,-38.849163,9.029183
2248734254000.0,0.1899544836842105,6.917565656442831,7.306147658076225,1.133155,-0.90010995,-0.23365596,82.01095,-39.169353,9.03991
2248739319000.0,0.2848853220219488,6.977619358713003,7.184646623860991,1.1224649,-0.9263771,-0.2415972,82.02479,-39.491566,9.05916
2248744408000.0,0.4104945349052211,7.034346096466578,7.014466410600266,1.1139128,-0.93523467,-0.26053402,82.041595,-39.80488,9.071375
2248749460000.0,0.5461245050091141,7.095219754939847,6.833521968662049,1.1026118,-0.958753,-0.27366763,82.058685,-40.128574,9.100748
2248754244000.0,0.81670789382428,7.212138412759752,6.506149482595698,1.1166617,-0.97402465,-0.27947086,82.076866,-40.450897,9.126844
2248759208000.0,1.0974720957637625,7.333456183959169,6.166459469879694,1.1325442,-0.9728029,-0.2742785,82.06713,-40.792473,9.167125
2248764237000.0,1.361725864400484,7.463869798462335,5.88592067800622,1.1527027,-0.9868528,-0.25473082,82.06013,-41.131855,9.214216
2248769483000.0,1.583066232973393,7.620110234571527,5.764400459657913,1.1759156,-0.99204516,-0.22999077,82.04783,-41.469147,9.259757
2248774612000.0,1.7968049053465664,7.771325082919801,5.646094045781975,1.2012665,-0.99387777,-0.183565,81.95794,-41.86808,9.371105
2248780435000.0,1.966414205018409,7.900763605674723,5.525582087882183,1.2156218,-0.9896017,-0.1301143,81.8623,-42.261612,9.485652
2248784262000.0,2.0778850602209062,7.985833368096686,5.446379054586202,1.2315043,-0.9602802,-0.10751228,81.71631,-42.68475,9.626098
2248789228000.0,2.183281086113572,8.097132004576322,5.378588436807401,1.2617421,-0.9251554,-0.0571159,81.55488,-43.104053,9.776459
2248794349000.0,2.246026515342978,8.212969871272513,5.349629108729456,1.2770138,-0.90041536,-0.029321533,81.39357,-43.516975,9.9193
2248799302000.0,2.290135840016201,8.306928746759823,5.340794949351965,1.318858,-0.8518516,0.002443461,81.19996,-43.965363,10.093779
2248804307000.0,2.314402690968003,8.379729806399352,5.355355161279871,1.3402383,-0.8185594,0.028405234,81.005066,-44.40374,10.266142
2248811213000.0,2.297897533973442,8.464003811644535,5.3002981442288055,1.3710871,-0.79412484,0.04917465,80.809105,-44.866398,10.446138
2248814290000.0,2.276827595750766,8.497113463125638,5.255148276608785,1.3973542,-0.7632761,0.06994407,80.604744,-45.324036,10.618944
2248819251000.0,2.170964049581144,8.482206035780207,5.21078670396138,1.4217888,-0.7498371,0.08674286,80.4094,-45.788906,10.796535
2248824421000.0,1.98818476660514,8.39784614084907,5.193211787022576,1.4410311,-0.7611381,0.08307768,80.21762,-46.251274,10.968569
2248829345000.0,1.814102524946756,8.317500275734773,5.1764731233849215,1.4523321,-0.73792523,0.09468412,80.03617,-46.727283,11.137476
2248834274000.0,1.6938779081902473,8.222415632898352,5.140192540298764,1.4535538,-0.73884153,0.10048734,79.86738,-47.19722,11.307032
2248839306000.0,1.594584296514423,8.118984877403845,5.094682748677885,1.4511104,-0.75655663,0.10140363,79.699135,-47.659546,11.472713
2248844373000.0,1.470727549668874,8.008419473889914,5.05421552606666,1.4465289,-0.7583892,0.10262536,79.59174,-48.11571,11.614229
2248849327000.0,1.3110545523178807,7.889952666377157,5.02331119294322,1.4379768,-0.77457714,0.095294975,79.493515,-48.561485,11.756421
2248854240000.0,1.196492787580122,7.833828,4.958636057295831,1.4230106,-0.8188649,0.08246681,79.42485,-48.995228,11.886769
2248859290000.0,1.1199057541738933,7.833828,4.860167074187467,1.3857478,-0.8356637,0.06047566,79.35654,-49.413387,12.008031
2248865243000.0,1.0309601270029571,7.832545318490172,4.743426342755262,1.3616186,-0.8949176,0.043982297,79.34546,-49.82464,12.125331
2248869287000.0,0.9871723646651592,7.815703876848147,4.655850670360063,1.3292428,-0.91782504,0.030543262,79.33205,-50.21718,12.231586
2248874233000.0,0.933617895693164,7.795106010784484,4.54874155174813,1.3069462,-0.93676186,0.016493361,79.36424,-50.625214,12.334229
2248879390000.0,0.9057407164881124,7.840699216234602,4.411868179210828,1.2681563,-0.9560041,0.01160644,79.40038,-51.012444,12.436393
2248884368000.0,0.8989126857805787,7.932877595137496,4.261651396698654,1.2333369,-1.0201449,-0.0070249503,79.4541,-51.389618,12.539743
2248889302000.0,0.8921450072930392,8.024241219385562,4.112762363971641,1.1856894,-1.0601566,-0.029932396,79.527824,-51.766644,12.635151
2248894404000.0,0.9519003176959916,8.071742961289464,4.045687753343384,1.1456778,-1.069625,-0.07238753,79.61321,-52.1328,12.723629
2248899373000.0,1.0278642092586023,8.105504707520396,4.00348566970557,1.1365148,-1.1026118,-0.099571034,79.71196,-52.48808,12.817162
2248904297000.0,1.1216026193392814,8.12315193794711,3.969812329651957,1.1194105,-1.1551461,-0.13103059,79.84429,-52.874313,12.91298
2248909286000.0,1.232974856185194,8.126992437344265,3.942929395289768,1.1120802,-1.2134838,-0.172264,79.98893,-53.25708,13.002175
2248914438000.0,1.3479055551780077,8.13150371698113,3.9166490906514126,1.1392636,-1.273654,-0.204029,80.15101,-53.647724,13.1103
2248919401000.0,1.457467688969521,8.143677113207547,3.9125912354136423,1.1456778,-1.3530666,-0.23060162,80.333954,-54.02702,13.217624
2248924207000.0,1.5635639241099633,8.15546541509434,3.908661746742936,1.1606439,-1.3927728,-0.26450464,80.51198,-54.411922,13.33321
2248929298000.0,1.646540216977191,8.21498456997243,3.743478537079121,1.1429288,-1.4474452,-0.2950479,80.71189,-54.784348,13.452797
2248935140000.0,1.7260047419500375,8.308472677082463,3.467689914554265,1.1151345,-1.452943,-0.3100141,80.90715,-55.151955,13.561225
2248939226000.0,1.7733565302120684,8.299064333674828,3.3352905838233786,1.0699304,-1.4474452,-0.32986724,81.09489,-55.497616,13.689284
2248944277000.0,1.8130020418912,8.115703615766826,3.310512016125397,1.0531317,-1.4147639,-0.3494149,81.273964,-55.83739,13.804949
2248949259000.0,1.8303457075251268,7.916822127626492,3.2972218413538354,1.0100657,-1.3921618,-0.36957347,81.47366,-56.203003,13.940252
2248954395000.0,1.804994047976978,7.675981229559316,3.305672526896315,0.9737192,-1.3448198,-0.39003745,81.65633,-56.560253,14.05624
2248959534000.0,1.7802388904320234,7.449970189406883,3.3201203399804737,0.9224065,-1.319469,-0.4184427,81.830185,-56.88153,14.173031
2248964311000.0,1.765350437734928,7.438803801301765,3.413172887560003,0.8723156,-1.278541,-0.45173484,81.98645,-57.19022,14.269426
2248969536000.0,1.7490657056138637,7.426590199072492,3.5149521551134977,0.8185594,-1.2663237,-0.50426924,82.14389,-57.456535,14.360412
2248974230000.0,1.7481193089200038,7.452868160873396,3.624962432233428,0.77824235,-1.273654,-0.56382865,82.2969,-57.71362,14.4343
2248981045000.0,1.7609002532066973,7.529554093508273,3.8038959191618527,0.7443393,-1.2895365,-0.6215554,82.4515,-57.960423,14.491684
2248984277000.0,1.8131939238611716,7.558830539242753,3.886796440001972,0.6957755,-1.325883,-0.6808093,82.61934,-58.17888,14.530877
2248989253000.0,1.9118666006507592,7.601118885367778,4.013661134933939,0.64476824,-1.3573426,-0.73823065,82.792854,-58.39112,14.555407
2248994298000.0,2.0145693706738768,7.574258374459235,4.069943540827787,0.5723807,-1.3790283,-0.7892379,82.98309,-58.575504,14.5664215
2248999312000.0,2.119434239850249,7.474386961231281,4.04996935203827,0.5009095,-1.4257594,-0.838718,83.190094,-58.750572,14.569765
2249004288000.0,2.172585996384901,7.35138284933546,3.981762283253589,0.45875978,-1.4883732,-0.89827734,83.39674,-58.893017,14.58227
2249011310000.0,2.193015339317992,7.152196542416648,3.833649440328093,0.43127087,-1.5442673,-0.9639453,83.61623,-59.025654,14.584741
2249015086000.0,2.200918133810376,7.04325294194991,3.747520928622541,0.43127087,-1.6123788,-1.0360274,83.893005,-59.15966,14.604119
2249019361000.0,2.184642713416816,6.904911911091235,3.5969732050089447,0.41141775,-1.6847663,-1.1267409,84.18951,-59.2901,14.608279
2249024213000.0,2.1661705871596104,6.747898886126019,3.426105940687736,0.3744604,-1.7357736,-1.2030991,84.52387,-59.43144,14.616311
2249029374000.0,2.0804198622883026,6.617631933467901,3.161945492044112,0.35460728,-1.8035797,-1.2660183,84.8823,-59.57858,14.614746
2249034238000.0,1.9932742811933832,6.498379977264671,2.905095449035053,0.3213151,-1.8069394,-1.2968669,85.23296,-59.71475,14.599208
2249039256000.0,1.8396721147018535,6.371631157063282,2.660880512811615,0.2773328,-1.7898352,-1.3573426,85.629166,-59.87293,14.576667
2249044270000.0,1.6774339367637658,6.244471703314766,2.4197157663227102,0.23762658,-1.7528778,-1.41904,86.01363,-60.023354,14.542899
2249049295000.0,1.5717745132794456,6.138935288232207,2.2267172343481,0.21594086,-1.7079792,-1.4834863,86.41263,-60.208015,14.498748
2249054287000.0,1.4914765215935333,6.043581223315138,2.0560839037581355,0.21074851,-1.702176,-1.5549575,86.83951,-60.431038,14.435839
2249059233000.0,1.436715016577243,6.061924447243293,1.8994369076595743,0.20372356,-1.709201,-1.6126842,87.25161,-60.64923,14.356422
2249064257000.0,1.3877555091581868,6.110883908186864,1.7436565638297874,0.20677789,-1.740966,-1.6713274,87.66541,-60.872528,14.261922
2249069480000.0,1.4787688781291422,6.356834264343874,1.515518339178186,0.22021692,-1.7715092,-1.7180585,88.128136,-61.1337,14.15745
2249074546000.0,1.6441333441393675,6.701343848324181,1.2582846827494794,0.21991149,-1.8255708,-1.7684549,88.599525,-61.394115,14.04517
2249079275000.0,1.786227835080567,6.988976507221898,1.058042854743739,0.25992316,-1.9043725,-1.8121318,89.127075,-61.720055,13.913955
2249084268000.0,1.9254736000388275,7.262826417938264,0.8816648971054164,0.3023783,-1.9850066,-1.8732183,89.6631,-62.04861,13.773163
2249089240000.0,2.046739685672854,7.524636945707656,0.7385529068271461,0.37110063,-2.051591,-1.9156734,90.21658,-62.458836,13.6678705
2249094503000.0,2.1527199137906035,7.787760081206497,0.6289181830843967,0.4166101,-2.0971005,-1.953547,90.77599,-62.87343,13.55362
2249099370000.0,2.2507259503190253,8.031085238051045,0.5275326234309745,0.41355577,-2.1459696,-1.9889772,91.377785,-63.34935,13.45894
2249104260000.0,2.374706954334431,8.29283205520385,0.46150718058327,0.40194935,-2.1951442,-2.026851,91.97804,-63.830307,13.355227
2249109323000.0,2.513862101164852,8.57114256254748,0.4083008114712586,0.39706242,-2.254398,-2.0744984,92.5808,-64.30886,13.242826
2249114243000.0,2.66886420887338,8.83124821684945,0.3543036540179461,0.40439278,-2.283109,-2.1138992,93.195595,-64.834694,13.138205
2249120126000.0,2.902913615777667,9.11678853726321,0.2840888563858424,0.4089743,-2.2568417,-2.1474967,93.795815,-65.353226,13.018333
2249124254000.0,3.067142062437687,9.317147273055832,0.2348203395363908,0.37568212,-2.2293527,-2.1484132,94.40563,-65.88633,12.922469
2249129294000.0,3.283042683073229,9.55884331452581,0.2519890099519808,0.35735616,-2.1615467,-2.1410828,94.9793,-66.41488,12.807468
2249134253000.0,3.496839282112845,9.796395091236494,0.2757442074669868,0.30879238,-2.0650299,-2.1343632,95.51793,-66.91585,12.682081
2249139244000.0,4.01584673838074,10.028098959286112,0.509971629682097,0.25900686,-1.9404135,-2.119397,96.019516,-67.41758,12.591107
2249144253000.0,4.564307328406767,10.259968446737313,0.764136223625209,0.21624629,-1.8139644,-2.0888536,96.47325,-67.89294,12.491185
2249149305000.0,4.842509209785844,10.474800014693171,0.8842685954940939,0.19639318,-1.7079792,-2.074193,96.91821,-68.36768,12.3839655
2249154282000.0,5.034757007106501,10.68077984874676,0.9620832663843272,0.1563815,-1.6389514,-2.094657,97.32212,-68.81615,12.262671
2249159226000.0,5.15282049816264,10.814176231030965,1.0084908827492345,0.12614368,-1.5195273,-2.0793853,97.7504,-69.22426,12.156893
2249164287000.0,5.239400492318816,10.917247396393332,1.0414736987155495,0.06658431,-1.3753631,-2.044566,98.137955,-69.604866,12.039903
2249169350000.0,5.279895597800956,10.99775227127336,1.080566017661886,-0.011301007,-1.2156218,-1.9996674,98.53818,-69.977844,11.907977
2249174232000.0,5.235193875627988,11.034326322729248,1.129331575193394,-0.10720685,-1.0772609,-1.9730947,98.89056,-70.319336,11.769383
2249179565000.0,5.183880463402646,11.07146291599244,1.1860461227750474,-0.20616703,-0.96486163,-1.951409,99.2358,-70.642784,11.61282
2249184265000.0,5.1158107809829865,11.078270008620038,1.2677295284461247,-0.2910773,-0.86132,-1.9263636,99.53305,-70.93284,11.455186
2249189989000.0,5.032910597542533,11.086560178449906,1.367209488884688,-0.35643986,-0.78893244,-1.9022343,99.82254,-71.20194,11.273176
2249194298000.0,4.911412808227466,11.068974967332124,1.4459123450090745,-0.40500367,-0.7244862,-1.8863518,100.07664,-71.44427,11.091251
2249199257000.0,4.691146308227466,11.016302467332125,1.5416804450090744,-0.44868052,-0.6792821,-1.8820758,100.3084,-71.66296,10.911678
2249204247000.0,4.348252522750662,10.909789748456337,1.6332017380035284,-0.48808134,-0.6383542,-1.8765781,100.540276,-71.85926,10.714548
2249211183000.0,3.620725010430756,10.651005161570126,1.750387405630697,-0.5308419,-0.61544675,-1.8762726,100.75927,-72.037674,10.51925
2249214283000.0,3.2955613298956186,10.53534307688915,1.802762776109968,-0.5907067,-0.6084218,-1.8851302,100.98773,-72.20188,10.286253
2249219252000.0,2.8246856741481774,10.351023892234547,1.88086360568542,-0.6133087,-0.6041457,-1.894904,101.20595,-72.35727,10.057284
2249224322000.0,2.3678048036053885,10.163462014263075,1.9578119538431065,-0.65148777,-0.63499445,-1.9019289,101.428246,-72.48869,9.834435
2249229297000.0,1.9778479851719135,10.021293569746607,2.020776524699258,-0.66645396,-0.66798115,-1.9147571,101.64681,-72.62627,9.531442
2249234289000.0,1.614836269994028,9.898930156385974,2.077879536114666,-0.69027776,-0.745561,-1.930945,101.88266,-72.74444,9.240143
2249239238000.0,1.2498738240134342,9.795119443324936,2.1333604453400503,-0.7101309,-0.79443026,-1.9312505,102.14465,-72.86667,8.885229
2249244297000.0,0.8656802716857915,9.727320631122303,2.187599495102156,-0.7324274,-0.8720101,-1.9300288,102.43244,-72.97247,8.544779
2249249335000.0,0.5102219491475503,9.673221196615687,2.238504027824979,-0.752586,-0.95356065,-1.9364429,102.770836,-73.086105,8.124155
2249254244000.0,0.277222930433305,9.67654982115548,2.275118202633815,-0.76052725,-1.040609,-1.9388863,103.12764,-73.18134,7.721969
2249260107000.0,-0.0010564027754177,9.680525320376663,2.318847863848768,-0.7635816,-1.1166617,-1.933083,103.52605,-73.27621,7.2542005
2249264254000.0,-0.2032441345468249,9.754702481439608,2.379325023704541,-0.7648033,-1.2043208,-1.9327776,103.94856,-73.352646,6.802271
2249269481000.0,-0.4673525269474279,9.971648343273037,2.5066629481345397,-0.7684685,-1.287093,-1.9278907,104.38593,-73.40937,6.3690953
2249274264000.0,-0.6907866636673688,10.16334733679406,2.608502613572073,-0.7696902,-1.3640621,-1.9303342,104.85871,-73.461845,5.8846564
2249279354000.0,-0.8668177450195607,10.34426852497743,2.667179606650617,-0.7501425,-1.4263704,-1.9388863,105.346634,-73.50003,5.415331
2249284254000.0,-0.9784299508999704,10.516532382610404,2.723404764689682,-0.7467828,-1.4895949,-1.9465221,105.86321,-73.51664,4.9092913
2249289256000.0,-0.9030438037769254,10.686151201337662,2.779944387331563,-0.7431176,-1.5164729,-1.9593502,106.38448,-73.51916,4.4120383
2249294404000.0,-0.8178391757813037,10.839160319802184,2.83270945710557,-0.7507534,-1.5244142,-1.9825631,106.92591,-73.50817,3.888633
2249299308000.0,-0.711387243753005,10.913353908922316,2.8649675979119444,-0.75869465,-1.5424347,-2.0195205,107.47621,-73.47838,3.3717802
2249304245000.0,-0.6042189753142386,10.98804676159077,2.897442810220482,-0.7583892,-1.5506815,-2.0595322,108.03158,-73.428,2.8638475
2249309234000.0,-0.4740795326855826,11.049172165637106,2.8967378219767563,-0.75594574,-1.5485435,-2.1120665,108.58938,-73.35846,2.3545988
2249314267000.0,-0.2873553486168987,11.07440514354518,2.810945644393257,-0.7498371,-1.5531249,-2.1685717,109.15118,-73.27232,1.8462702
2249319246000.0,-0.1120008383665417,11.056199356480567,2.720825721187611,-0.7348709,-1.5488489,-2.1902573,109.71546,-73.168724,1.3649752
2249324237000.0,0.048299679203985,10.966619817222332,2.6218165494574865,-0.72082096,-1.5280794,-2.2342396,110.27882,-73.05152,0.87337756
2249329859000.0,0.2013684594450373,10.859843482390607,2.528123606189968,-0.6936375,-1.5033394,-2.298075,110.842735,-72.94429,0.4063484
2249334267000.0,0.2914742488096762,10.769737752614729,2.474060199686944,-0.63621616,-1.4834863,-2.316401,111.39723,-72.835144,-0.04965207
2249339233000.0,0.3929863518007827,10.668225716755604,2.413153013504091,-0.63041294,-1.4465289,-2.3237314,111.94089,-72.71951,-0.48864275
2249344509000.0,0.4895767232531898,10.493165435639268,2.3282248203280966,-0.61941737,-1.3671165,-2.2996023,112.460335,-72.609375,-0.91784084
2249349273000.0,0.5687780185678326,10.287241835430953,2.237143309834216,-0.6047566,-1.2773192,-2.2809708,112.96205,-72.4903,-1.3431927
2249354229000.0,0.6640117067479994,10.02513042456457,2.1539986676761336,-0.6035349,-1.1902709,-2.2104158,113.43077,-72.37089,-1.7235081
2249359248000.0,0.8035411156237251,9.598999959281343,2.1087458421465555,-0.591623,-1.0943651,-2.1233675,113.86333,-72.25181,-2.0920668
2249364250000.0,0.9425979204048328,9.17431285281657,2.063646293770595,-0.60994893,-1.0268645,-2.0176878,114.27519,-72.127655,-2.4243915
2249369503000.0,0.9724914500790576,8.898524951616729,2.0160294750731285,-0.6087272,-0.9443977,-1.9022343,114.64246,-72.011536,-2.7305357
2249374236000.0,0.9545742069254488,8.715769561625425,1.97302813640604,-0.5873469,-0.8784242,-1.779756,114.98062,-71.89782,-3.0017195
2249379282000.0,0.9263581259683514,8.534444023145962,1.938165674350496,-0.55863625,-0.8304713,-1.6618589,115.325775,-71.758896,-3.249353
2249384330000.0,0.8502382641198236,8.42406999196977,1.9610016150212568,-0.539394,-0.79626286,-1.534799,115.64162,-71.629654,-3.458604
2249389252000.0,0.776018382975122,8.316450938592348,1.9832675619272555,-0.5235115,-0.7883216,-1.4138476,115.95525,-71.49938,-3.658472
2249394442000.0,0.5060464975506834,8.285834475369233,2.0522119200807265,-0.50946164,-0.76052725,-1.3051136,116.241135,-71.38109,-3.8260393
2249399553000.0,0.1288744176369139,8.30379494477571,2.146504970534813,-0.5027421,-0.729984,-1.2067643,116.51154,-71.27282,-3.959385
2249404282000.0,-0.1189981039989151,8.344152219947116,2.234590662444912,-0.46822822,-0.69974613,-1.1068878,116.775246,-71.16175,-4.088638
2249409679000.0,-0.2696862227839175,8.42124856071598,2.336217500745813,-0.44012842,-0.6740898,-1.0250319,117.02231,-71.05738,-4.194053
2249414366000.0,-0.400550631297037,8.488202525730559,2.424474864302665,-0.410196,-0.6603453,-0.95294976,117.259125,-70.93843,-4.342826
2249419320000.0,-0.5629973013038537,8.612158407583427,2.552216477910941,-0.39461896,-0.6114761,-0.9251554,117.473404,-70.82703,-4.4826636
2249424542000.0,-0.7593381781465027,8.798165518855255,2.722723005568757,-0.3830125,-0.60139686,-0.8533788,117.68139,-70.73212,-4.5849667
2249429326000.0,-0.8898359588471361,8.954335163443998,2.843504458847136,-0.3463606,-0.5891795,-0.8216137,117.89438,-70.61642,-4.738411
2249434252000.0,-0.9887992269609632,9.104931304268517,2.942467726960963,-0.35185838,-0.5821546,-0.7861836,118.0967,-70.49906,-4.867794
2249439306000.0,-1.0806513005221428,9.242414675497969,2.998616524134597,-0.3277292,-0.57848936,-0.7632761,118.30714,-70.36566,-5.035118
2249444533000.0,-1.1580954564204216,9.353740880197254,2.9744152412105977,-0.30634892,-0.5479461,-0.7351763,118.50223,-70.234764,-5.19004
2249449232000.0,-1.2093381824415534,9.410275587792231,2.920656290707229,-0.28924468,-0.539394,-0.71959925,118.71464,-70.0939,-5.362636
2249454298000.0,-1.2188297345886727,9.362817827056636,2.7830287350190748,-0.2501493,-0.52534413,-0.7012733,118.91208,-69.96911,-5.525576
2249459257000.0,-1.2160175793962265,9.309163868343814,2.6638412906163524,-0.20341812,-0.5290093,-0.68875057,119.11616,-69.85448,-5.7063336
2249464273000.0,-1.1757347458867924,9.232626228092242,2.5913321398238995,-0.1518,-0.5390886,-0.66431594,119.31315,-69.75533,-5.875054
2249469235000.0,-1.1358855792452829,9.15691255765199,2.519603589937107,-0.10629055,-0.5366451,-0.6386596,119.504814,-69.68318,-6.052243
2249474244000.0,-0.9814144922826088,8.867133891304348,2.5314205498913047,-0.047036625,-0.5335908,-0.60994893,119.69436,-69.63091,-6.217129
2249479419000.0,-0.8018493516576087,8.530449516304348,2.5583552530163045,0.004886922,-0.51923543,-0.57696223,119.87525,-69.59116,-6.371524
2249484266000.0,-0.7092752889231054,8.340553871904277,2.554979263704666,0.06658431,-0.5122105,-0.53786683,120.055824,-69.57867,-6.5150023
2249489497000.0,-0.6488679522595306,8.20115216153418,2.5363924983767743,0.11636983,-0.4783075,-0.49266282,120.21971,-69.57936,-6.648904
2249494460000.0,-0.593355638722899,8.074065604057402,2.5335745662296096,0.16554448,-0.43035457,-0.4596761,120.38795,-69.57068,-6.75333
2249499327000.0,-0.540422169836878,7.953762418707413,2.543198774829651,0.21624629,-0.39187005,-0.41874814,120.54311,-69.580124,-6.8438015
2249504236000.0,-0.4955548915280919,7.852881958997558,2.5714223706052657,0.25473082,-0.34238997,-0.37110063,120.6838,-69.59538,-6.923902
2249509294000.0,-0.456112632239211,7.765232534587895,2.6152471743327603,0.29901853,-0.29016098,-0.3210097,120.80805,-69.62902,-6.9947124
2249514287000.0,-0.417312103721024,7.673513532231405,2.655137365510986,0.33322698,-0.26083946,-0.29871312,120.929344,-69.66133,-7.0571423
2249519297000.0,-0.3786265217415844,7.571963730578513,2.688987232070147,0.34880406,-0.21594086,-0.23151793,121.02242,-69.70887,-7.099272
2249524228000.0,-0.3606054043486222,7.484728120955782,2.719631595266868,0.37598756,-0.16584991,-0.16249016,121.11104,-69.75125,-7.1362753
2249529384000.0,-0.3786876186047789,7.416919852897555,2.746754855287009,0.41447207,-0.11362094,-0.09254608,121.17992,-69.806656,-7.1585855
2249534274000.0,-0.3890236268480599,7.375440764503367,2.769509731623516,0.4456262,-0.06719518,-0.022602014,121.23796,-69.85936,-7.163863
2249539385000.0,-0.3686389282126744,7.436594888790172,2.7797021093218577,0.47739118,-0.027488936,0.032986723,121.27816,-69.92694,-7.1582246
2249544472000.0,-0.3483499511126536,7.497461848337613,2.789846626119248,0.50243664,0.0018325958,0.106901415,121.30751,-69.99394,-7.141218
2249549403000.0,-0.33518824,7.584003648299319,2.805535263945578,0.52320606,0.038179077,0.17592919,121.319405,-70.072014,-7.115067
2249554311000.0,-0.33518824,7.725606364334305,2.832942318172984,0.54519725,0.077579886,0.24465153,121.315735,-70.162964,-7.072527
2249559206000.0,-0.3490754707341291,7.885905074469209,2.866618451536918,0.54733527,0.12370021,0.3109304,121.292885,-70.263435,-7.0096836
2249564278000.0,-0.4106454307721559,8.116792243794233,2.923057537371924,0.5476407,0.15027285,0.38362336,121.25805,-70.37479,-6.9294667
2249569488000.0,-0.4745929214513423,8.348725725671141,3.043174970889262,0.56138515,0.1731803,0.4382958,121.20735,-70.498985,-6.837352
2249574256000.0,-0.534181948118009,8.553031059004475,3.2474801708892618,0.56779927,0.17898351,0.4990769,121.14746,-70.626625,-6.7265353
2249579294000.0,-0.5986649431706843,8.788181788297045,3.3783768077371694,0.57971114,0.21471913,0.55924714,121.06785,-70.76362,-6.614543
2249585210000.0,-0.6812704628985226,9.151646613335926,3.1470812190902024,0.5928447,0.22785273,0.6151413,120.98849,-70.90519,-6.487976
2249589292000.0,-0.7293055133606978,9.378564200410468,3.007150620820934,0.6224717,0.24037547,0.6762278,120.90288,-71.021645,-6.358846
2249594365000.0,-0.7392763920472037,9.528127380708057,2.9423399614161108,0.6542367,0.24678956,0.7275405,120.81185,-71.1439,-6.2205615
2249599252000.0,-0.7476034178910976,9.649357648228175,2.894033247277441,0.70952,0.2556471,0.77488256,120.691925,-71.34304,-6.077711
2249604265000.0,-0.7507952600824414,9.678084161292468,2.9036087405225715,0.7602218,0.24404067,0.8173377,120.57313,-71.54941,-5.923951
2249610664000.0,-0.7548695864703144,9.714753013695898,2.915831677142477,0.840856,0.20708331,0.8368854,120.45564,-71.7984,-5.765439
2249614257000.0,-0.763204278765201,9.738331712628623,2.9159485810851264,0.88147855,0.12644911,0.84116143,120.352776,-72.04712,-5.598155
2249619363000.0,-0.7997986320860617,9.784074594574369,2.8885028996819457,0.96852684,0.044898596,0.8390234,120.26105,-72.32548,-5.427573
2249624520000.0,-0.8425498222440027,9.826250086343697,2.8474065083636706,1.0277808,-0.016187929,0.8368854,120.1863,-72.60102,-5.2544703
2249634292000.0,-1.0259975267898815,9.834985869410996,2.5329245206478115,1.0454959,0.056199603,0.8426886,120.098404,-72.882866,-5.087604
2249639270000.0,-1.0411937170557408,9.721554196760362,2.260003166984278,1.0482447,0.15057829,0.83199847,120.02267,-73.17545,-4.9327455
2249644345000.0,-1.0489120771875495,9.59420167770367,1.9705660119898365,1.056186,0.26816985,0.8020661,119.92322,-73.46651,-4.7924314
2249649254000.0,-1.011300988380463,9.493003645244215,1.7670726806341046,1.0396926,0.39767328,0.766025,119.788765,-73.772514,-4.6882806
2249654926000.0,-0.8871772150128534,9.415426367894886,1.6688080213177188,1.0146471,0.5222898,0.7263188,119.62762,-74.06903,-4.603879
2249659218000.0,-0.7815538170300751,9.370437588345863,1.6224226293233084,1.0097603,0.6426302,0.68966687,119.4191,-74.41874,-4.542758
2249664273000.0,-0.628294588686189,9.351280298575386,1.6367906716660072,1.0387764,0.75716746,0.65393126,119.182556,-74.760864,-4.501653
2249669492000.0,-0.4467988252879071,9.354642278357876,1.6618113809192323,1.0693196,0.838718,0.6246097,118.92307,-75.115524,-4.451168
2249674233000.0,-0.2320381965370816,9.407319209906293,1.7063843546720214,1.104139,0.8741482,0.6053675,118.64844,-75.47042,-4.4126954
2249679535000.0,0.0064098081531619,9.468879145957484,1.759216691719292,1.1386528,0.8906415,0.5934556,118.361374,-75.83318,-4.350873
2249684309000.0,0.2016018816600551,9.554275700435827,1.840546747647425,1.1575897,0.8857546,0.6105598,118.071724,-76.195465,-4.2873683
2249689334000.0,0.4070564625926354,9.644162103086364,1.926152849666459,1.1847731,0.8686504,0.6395759,117.784256,-76.573074,-4.169916
2249694403000.0,0.5568796362826407,9.753085029062202,1.9908035205864487,1.2024882,0.8332202,0.68416905,117.503204,-76.94926,-4.042957
2249699240000.0,0.6854765160857118,9.861588754055695,2.047064624290796,1.1927143,0.8054258,0.7333437,117.224785,-77.321304,-3.9073224
2249704292000.0,0.7936794872321355,9.945694565305956,2.0911561541106494,1.1737776,0.7629707,0.7837401,116.96302,-77.696815,-3.7046778
2249709289000.0,0.8716641805874684,9.99638441342785,2.1184508568402185,1.1523973,0.7492262,0.82436264,116.7007,-78.06411,-3.494072
2249714472000.0,0.9474386863931764,10.052278207554831,2.148308896831844,1.1414018,0.7076874,0.88025683,116.45566,-78.42779,-3.2306626
2249719506000.0,0.9356897965800164,10.161934757839155,2.2031370492932574,1.0894781,0.63346726,0.90010995,116.2254,-78.76467,-2.9679968
2249724528000.0,0.9239689136555648,10.271329909910644,2.2578345029406988,1.0861185,0.5558874,0.9370673,116.00051,-79.10817,-2.6650677
2249729307000.0,0.8245428127153485,10.335294624706345,2.221327930892717,1.0916162,0.49663344,0.96974856,115.79236,-79.42895,-2.3604724
2249734411000.0,0.6522952779463587,10.373572126664056,2.1160655249412685,1.0897835,0.45173484,0.98654735,115.60264,-79.73575,-2.0525405
2249739282000.0,0.4992980504128039,10.369318546702816,2.0040384916827008,1.0760391,0.41722095,0.9914343,115.4286,-80.020874,-1.743552
2249744414000.0,0.3488532415060346,10.326333894962392,1.875085838088158,1.0720685,0.39767328,0.981355,115.2644,-80.295265,-1.4389201
2249749236000.0,0.2017093372579349,10.2730690031137,1.760335625733226,1.0687088,0.39614612,0.95569867,115.105835,-80.570366,-1.176844
2249754260000.0,0.0277338790980313,10.171583294797108,1.663682565387706,1.0919216,0.41538838,0.93218035,114.948906,-80.84034,-0.92241234
2249759226000.0,-0.1260711520722182,10.0710460074044,1.5788413315549243,1.1078042,0.441961,0.89827734,114.791466,-81.119156,-0.7167103
2249764310000.0,-0.2199022893964905,9.967337873516584,1.5294565034384826,1.1301007,0.48258355,0.86651236,114.627205,-81.39657,-0.52251333
2249769331000.0,-0.3002402121624732,9.866969016197997,1.488591809940799,1.1389582,0.4990769,0.850019,114.46643,-81.6799,-0.37108332
2249774236000.0,-0.3465887436868936,9.77427209833909,1.4692799755796744,1.1508701,0.5317582,0.8381071,114.29236,-81.96237,-0.23237734
2249779357000.0,-0.3949783114619306,9.677493114372636,1.449117711815491,1.1640037,0.53969944,0.8179486,114.1239,-82.24626,-0.120677575
2249784277000.0,-0.3939373540168802,9.580112826716682,1.4212323047410649,1.1725558,0.5497787,0.8063421,113.94725,-82.52543,-0.013296669
2249789267000.0,-0.3839783497655517,9.480522888194228,1.391355271188913,1.1841623,0.56382865,0.79168135,113.769585,-82.80249,0.08525274
2249794317000.0,-0.3333892622236855,9.52114514476531,1.37621625704073,1.1734722,0.59528816,0.7699956,113.58163,-83.07092,0.16695908
2249799253000.0,-0.2800308468573041,9.574503717994546,1.362876660163672,1.1502593,0.61269784,0.7495316,113.39551,-83.33306,0.24343893
2249804245000.0,-0.238876018099793,9.652917090156327,1.3465999819687344,1.1184943,0.6206391,0.72112644,113.20128,-83.587685,0.31401098
2249809234000.0,-0.2013597352587622,9.738181304589906,1.3295471390820186,1.1047498,0.63529986,0.7125743,113.001526,-83.83517,0.38236016
2249814654000.0,-0.1606856948291419,9.838826988235294,1.3189883911710738,1.0800097,0.6765333,0.6740898,112.78883,-84.07,0.44740587
2249819405000.0,-0.1263094505057744,10.04999496470588,1.4319388138801945,1.0372492,0.68203104,0.65270954,112.583145,-84.29009,0.51425874
2249824404000.0,-0.0994819290192403,10.269545261688764,1.5270895928820656,1.0158689,0.6759224,0.6010914,112.36813,-84.51243,0.5724681
2249829321000.0,-0.1229537468850563,10.47140303768318,1.4942290725750176,0.97066486,0.66523224,0.5580254,112.15439,-84.71124,0.6258404
2249834271000.0,-0.1464925279655422,10.663611129941229,1.4576769306980115,0.9251554,0.6740898,0.516792,111.94054,-84.88307,0.67068017
2249840339000.0,-0.1745637281201191,10.803967033008616,1.3828204490620724,0.88025683,0.6918049,0.4905248,111.7291,-85.03963,0.70687085
2249844389000.0,-0.1932994500426696,10.897645577409223,1.3328585587150792,0.82344633,0.69058317,0.47891834,111.518265,-85.18834,0.7321786
2249849290000.0,-0.2686508479974385,11.0155073474522,1.3429774823346443,0.75869465,0.6792821,0.4437936,111.30762,-85.32154,0.7429404
2249854241000.0,-0.3727542672051962,11.136961523739824,1.3906915615497208,0.7012733,0.64476824,0.3930918,111.105736,-85.439804,0.7463746
2249859271000.0,-0.4441158061962134,11.2311830810975,1.4392999683405892,0.64934975,0.59528816,0.32742378,110.91033,-85.559685,0.7319088
2249864389000.0,-0.4738904979345955,11.290732620026324,1.4889243595727446,0.59986967,0.52748215,0.27550024,110.73174,-85.66412,0.7085717
2249869340000.0,-0.48841715,11.386388370565816,1.5269152347112285,0.559858,0.4868596,0.2302962,110.55951,-85.752304,0.64783496
2249874397000.0,-0.48841715,11.523637020912734,1.5553115770643997,0.54550266,0.464563,0.19517145,110.40292,-85.83408,0.5780573
2249879297000.0,-0.461579912464847,11.635851885028949,1.58593185401158,0.5366451,0.43157628,0.17470746,110.26385,-85.89809,0.4962621
2249884256000.0,-0.4004752931182795,11.723144139784946,1.6208487559139786,0.5348125,0.410196,0.16676621,110.128914,-85.95911,0.41070962
2249889310000.0,-0.3320061464130435,11.79727798988006,1.6707219839205398,0.5183192,0.37598756,0.17348573,110.00727,-86.00884,0.3284485
2249894329000.0,-0.2464313780978261,11.82880569996252,1.7608007121626688,0.5018258,0.33628133,0.16523905,109.89435,-86.05696,0.2427849
2249899302000.0,-0.164638242014218,11.848938415876775,1.8357683336492887,0.5021312,0.27122417,0.14752395,109.80187,-86.09891,0.17448258
2249904253000.0,-0.103778051049763,11.792759622235389,1.8123605844391784,0.505491,0.22327125,0.13652839,109.71647,-86.136154,0.10821416
2249910146000.0,-0.0697774901268163,11.677917224570674,1.7434270811285149,0.50640726,0.13683382,0.12889257,109.65596,-86.15497,0.06217522
2249914280000.0,-0.1370193592919419,11.483662912813738,1.5977363863181733,0.51923543,0.124005646,0.12980886,109.5888,-86.17815,0.016382208
2249919681000.0,-0.2255543864799609,11.228409125518253,1.408113784204536,0.5155703,0.13041973,0.11362094,109.53318,-86.2004,-0.01899134
2249924320000.0,-0.312233797895293,10.986429140638974,1.256424782172181,0.49235737,0.1386664,0.10140363,109.48103,-86.220566,-0.051878713
2249929296000.0,-0.4052100322567271,10.726870527843266,1.093716337655475,0.43890667,0.1518,0.08979719,109.423744,-86.26086,-0.10328447
2249934256000.0,-0.5057697402075304,10.463585475738707,0.981261616404783,0.3943135,0.13775012,0.07513642,109.372284,-86.29561,-0.15744972
2249939243000.0,-0.6143248725911652,10.19455754946141,0.9151845810159108,0.35918877,0.118507855,0.061086524,109.31899,-86.31662,-0.21360955
2249944344000.0,-0.6974468171312309,9.971975241505596,0.8712224576602239,0.31764993,0.05375614,0.04337143,109.275734,-86.35102,-0.2937677
2249949271000.0,-0.7502478672126145,9.80877225096643,0.8520220940386573,0.2950479,-0.008857546,0.032986723,109.23727,-86.378395,-0.37386334
2249954247000.0,-0.7777289839030489,9.635678967494757,0.7745008789691886,0.2941316,-0.06719518,0.04062254,109.21361,-86.403015,-0.4724205
2249959293000.0,-0.7816267401072754,9.45248328222294,0.6419766470640426,0.28221974,-0.1160644,0.037873644,109.20471,-86.41422,-0.5738582
2249964331000.0,-0.7828984187451044,9.28014316361602,0.5145296299128767,0.2837469,-0.16249016,0.03268129,109.21152,-86.42522,-0.6816245
2249969489000.0,-0.7394671311214132,9.284091542322756,0.4671500501606586,0.30726522,-0.21135938,0.03145956,109.23169,-86.43563,-0.7859796
2249974293000.0,-0.6990165871616977,9.287768938853809,0.4230221903061306,0.32070425,-0.25259277,0.034208454,109.259315,-86.467545,-0.8881017
2249979917000.0,-0.5814929497991967,9.31719420883534,0.3560725916465863,0.35094208,-0.2874121,0.041233405,109.29708,-86.5066,-0.98678386
2249984270000.0,-0.4539340496729776,9.353070454388984,0.296279358253012,0.37415496,-0.30482176,0.04734206,109.339584,-86.543236,-1.0827603
2249989295000.0,-0.2948068875538366,9.419836459347806,0.2355429703515865,0.40317106,-0.29352075,0.05467244,109.38047,-86.60307,-1.1602755
2249994268000.0,-0.1231760670385866,9.516117358618263,0.1853095639254636,0.40775254,-0.2932153,0.07238753,109.42706,-86.66008,-1.2313098
2249999269000.0,0.051813577899868,9.62862089167419,0.1512338779668078,0.42119157,-0.28252518,0.103847094,109.47087,-86.755295,-1.2618512
2250004310000.0,0.2395431993585167,9.816350097979308,0.1948139723005347,0.42485678,-0.24251351,0.11789699,109.50442,-86.84578,-1.2923558
2250010724000.0,0.4784040983935837,10.055210468786887,0.250263828491077,0.43127087,-0.22113322,0.129198,109.532234,-86.9714,-1.2717863
2250014279000.0,0.5348214222245237,10.132261,0.2593077227112676,0.4260785,-0.20586158,0.12522738,109.54937,-87.09196,-1.252782
2250019334000.0,0.4646318363193869,10.132261,0.2292264678697183,0.39553526,-0.1777618,0.13958271,109.55544,-87.2085,-1.2265205
2250024256000.0,0.435556900015361,10.128716763338453,0.1876514733558628,0.36651915,-0.15699236,0.14569137,109.560486,-87.33723,-1.1504296
2250029287000.0,0.4750292295545315,10.118848996518178,0.1235089333466461,0.34666604,-0.12461651,0.14202617,109.55397,-87.45815,-1.0753909
2250034280000.0,0.4528570037294188,10.056196277921048,0.0469417395437413,0.3371976,-0.0693332,0.18784106,109.53212,-87.58,-0.9959855
2250039309000.0,0.342985898794882,9.917663339714345,-0.0485983564749057,0.3313944,-0.06505715,0.2049453,109.51604,-87.69113,-0.92730695
2250044300000.0,0.248058729889855,9.794586530434785,-0.1498478841971014,0.3213151,-0.05222898,0.21777347,109.48179,-87.81615,-0.84047294
2250049695000.0,0.1681872352570048,9.684763095652174,-0.2696551235400966,0.30909783,-0.028099801,0.22113322,109.44341,-87.936455,-0.7537724
2250054219000.0,0.1195119563364779,9.609731358656074,-0.3676007094637538,0.31429017,-0.008857546,0.21197024,109.398445,-88.06519,-0.687989
2250059287000.0,0.103445997908805,9.561533353359817,-0.4720294413406157,0.32620203,0.015577064,0.22540927,109.34527,-88.192345,-0.61680347
2250064269000.0,0.0876526662421383,9.514153230552797,-0.5746860992353526,0.33658674,0.057726767,0.24129178,109.27916,-88.3338,-0.56207716
2250069419000.0,0.176626559613332,9.57307404118417,-0.6022722819806666,0.37659842,0.057421334,0.2443461,109.21862,-88.48387,-0.5085108
2250074238000.0,0.2695691292095459,9.638134180545766,-0.6208607774604773,0.4184427,0.058643065,0.24404067,109.146065,-88.63578,-0.45324746
2250079294000.0,0.3708099471878122,9.736927107492509,-0.6801149486323677,0.45448375,0.021380283,0.22510384,109.08082,-88.81364,-0.40757784
2250084243000.0,0.4702413147752248,9.836358005394606,-0.7416676886953046,0.4654793,0.013439035,0.21227567,109.00712,-88.99307,-0.36188635
2250089251000.0,0.4754921147786259,9.818171341984732,-0.7704284941068702,0.47403142,0.0012217305,0.2434298,108.95222,-89.19362,-0.2899837
2250094311000.0,0.4717929728091603,9.788578453435116,-0.7963224299541984,0.49235737,0.013133603,0.24495697,108.89294,-89.39155,-0.23184967
2250099294000.0,0.4584800043979721,9.772964439585971,-0.761651481690959,0.49327368,0.032986723,0.23976462,108.8354,-89.60736,-0.14618328
2250104261000.0,0.4233114410392902,9.788036462188424,-0.5908327371335023,0.49846604,0.026572637,0.23732115,108.78224,-89.82527,-0.061459765
2250109254000.0,0.4215540712109374,9.78934176953125,-0.548334543359375,0.5030475,0.00030543262,0.21960606,108.734245,-90.04345,0.0138413785
2250114273000.0,0.4696970943810096,9.770084674879808,-0.6975779166947116,0.49632803,-0.003970624,0.23304509,108.68194,-90.25866,0.095337525
2250119346000.0,0.4700714628905892,9.762755007455366,-0.7919463810842979,0.48655418,0.009162978,0.23823744,108.63841,-90.43652,0.16246136
2250124239000.0,0.4057169035753057,9.771948701981556,-0.8072688949022301,0.49663344,-0.004886922,0.22907446,108.603874,-90.61425,0.22746636
2250129275000.0,0.3394815549728598,9.781411086129095,-0.8230392156843895,0.4813618,-0.03268129,0.22204952,108.56576,-90.81284,0.30493352
2250134258000.0,0.2759189246147905,9.808459011199073,-0.8573692305464375,0.47555858,-0.041233405,0.23762658,108.52624,-91.014084,0.3842624
2250139242000.0,0.2160134868854991,9.868364208341378,-0.9264908820621742,0.4746423,-0.034513887,0.23823744,108.49012,-91.206345,0.45536152
2250144274000.0,0.1582847849588408,9.916224258714823,-0.9768343,0.47067168,-0.012217305,0.25442538,108.44972,-91.391495,0.5129591
2250149275000.0,0.1079975004076018,9.931310223645529,-0.9768343,0.45906523,-0.0009162979,0.26236662,108.41033,-91.57006,0.5668688
2250154298000.0,0.0700904258719197,9.927676953008596,-0.972919879090258,0.42546764,0.02321288,0.2574797,108.364944,-91.74877,0.6093531
2250159284000.0,0.0529880051323782,9.89347213581662,-0.9626584160744984,0.40500367,0.026572637,0.2593123,108.322235,-91.92589,0.6546092
2250165308000.0,0.0323251526383954,9.85214646017192,-0.9502606918051576,0.36254853,0.03359759,0.2611449,108.28063,-92.081566,0.68671674
2250169437000.0,-0.0124259015403008,9.79498168815383,-0.9628025406495964,0.34880406,0.03970624,0.25717425,108.23808,-92.23612,0.7167121
2250174236000.0,-0.0765314474902859,9.71713958443758,-0.9856973853193184,0.3182608,0.05009095,0.24740042,108.19216,-92.37148,0.7446943
2250179283000.0,-0.1379092124149426,9.638732859888226,-1.0339796263457202,0.29901853,0.04184427,0.22968534,108.14287,-92.4983,0.76495093
2250184449000.0,-0.196119365098539,9.561119268947936,-1.1018914804294535,0.29260445,0.049785517,0.21319197,108.08596,-92.61733,0.7822791
2250189243000.0,-0.2402808309278675,9.484891635041388,-1.242143174867954,0.27947086,0.064446285,0.19608775,108.03788,-92.728226,0.7802058
2250194311000.0,-0.2785427606685061,9.40071549109184,-1.4564099846117462,0.269697,0.07544186,0.17898351,107.98813,-92.83542,0.77326745
2250199533000.0,-0.3136495893925944,9.31912788122454,-1.6651718839180398,0.258396,0.12186762,0.15027285,107.92563,-92.94568,0.74662054
2250204240000.0,-0.2697967024040858,9.335572617255426,-1.643245426114185,0.2657264,0.13133603,0.13225232,107.870094,-93.05719,0.71807826
2250211654000.0,-0.200723980047425,9.361474736000488,-1.6087090423967896,0.2779437,0.14935656,0.10995574,107.79219,-93.21432,0.67010623
2250214287000.0,-0.176193567589226,9.37067358664194,-1.5964438281631907,0.32162055,0.15027285,0.08246681,107.71547,-93.38084,0.6160932
2250219250000.0,-0.0983697843081249,9.440129817414885,-1.518531251270463,0.34605515,0.13927728,0.06414085,107.636185,-93.54447,0.55923915
2250224212000.0,-0.0076916467859797,9.53080778849051,-1.4183080706136386,0.36071593,0.1301143,0.042760566,107.55491,-93.7159,0.49469793
2250229283000.0,0.0713845883129205,9.676623533142664,-1.3422094682200538,0.35643986,0.13103059,0.01160644,107.47551,-93.882286,0.4399675
2250235220000.0,0.1574743424761103,9.872716829996635,-1.265685243850942,0.36682457,0.124311075,0.014966198,107.400536,-94.05604,0.38956627
2250239509000.0,0.1972504025856059,10.02839724297724,-1.2315985875948328,0.35277468,0.10262536,-0.002443461,107.33327,-94.20027,0.34482762
2250244338000.0,0.2114742285216321,10.222789989542752,-1.222116043571868,0.33964106,0.1020145,-0.015271631,107.26168,-94.34609,0.3033045
2250249251000.0,0.2137696886206896,10.378684617171007,-1.2195029289936663,0.32620203,0.101098195,-0.03176499,107.19354,-94.46791,0.27377042
2250254290000.0,0.1967895618103448,10.472074999912037,-1.2279929879662208,0.3231477,0.12736541,-0.05009095,107.11741,-94.58691,0.24114905
2250259275000.0,0.1796002218780976,10.558949007592537,-1.221253450036908,0.3268129,0.15363261,-0.06169739,107.04681,-94.69915,0.21205394
2250264281000.0,0.1593781409564484,10.60444881240114,-1.099920953949172,0.31948254,0.16310102,-0.06841691,106.97327,-94.805504,0.17995529
2250269285000.0,0.1369227612888264,10.635346300737876,-0.9734134171286016,0.30757064,0.17745635,-0.06872234,106.880554,-94.908905,0.14657259
2250274248000.0,0.1068618179732958,10.615305790442727,-0.8297889194771609,0.3051272,0.19883664,-0.07544186,106.78328,-95.01132,0.1105979
2250279309000.0,0.0762072876247364,10.594869557800422,-0.6833283950737878,0.28893927,0.19242255,-0.06719518,106.705894,-95.08341,0.07527383
2250284259000.0,0.0538193567454135,10.50225927067746,-0.6301768725458645,0.27275133,0.16523905,-0.056505036,106.62892,-95.153854,0.039594606
2250289353000.0,0.0438195100074818,10.282262374090395,-0.7301753399251819,0.26389378,0.22418754,-0.06719518,106.52957,-95.22094,0.0030155284
2250294297000.0,0.062234774995711,10.08721536368067,-0.7952679807105956,0.2434298,0.23487769,-0.07238753,106.45505,-95.23963,-0.035453808
2250299271000.0,0.1179536999632517,9.915415275173018,-0.8184841972248758,0.23732115,0.23273966,-0.08277224,106.36829,-95.260254,-0.076361544
2250305076000.0,0.1993702104086309,9.840648777926294,-0.8113257848004582,0.25411993,0.19394971,-0.076052725,106.28167,-95.303444,-0.11640357
2250309332000.0,0.2733074749188466,9.895128747374452,-0.7763028544204698,0.25534168,0.18081611,-0.0693332,106.18932,-95.34049,-0.15787317
2250314228000.0,0.3285509468412302,9.972583952826268,-0.7403536123857024,0.24129178,0.15241088,-0.04917465,106.11738,-95.38635,-0.18234585
2250319278000.0,0.3034247620947631,10.093189433915212,-0.7152274486284289,0.20586158,0.12705997,-0.035124753,106.04913,-95.42585,-0.20640874
2250324235000.0,0.2651965198953231,10.181621898588302,-0.7022651378949389,0.1826487,0.092240654,-0.017715093,106.00317,-95.4554,-0.20572232
2250329291000.0,0.2000966767915106,10.214171992509362,-0.711565109238452,0.15241088,0.06719518,-0.013133603,105.96232,-95.47239,-0.20521171
2250334212000.0,0.1187166116186074,10.235140786094645,-0.7182605,0.11484267,0.02076942,-0.011911872,105.936554,-95.47328,-0.2057633
2250339239000.0,-0.016719238469808,10.22546660162765,-0.7182605,0.10048734,-0.013133603,-0.00061086525,105.91536,-95.472046,-0.20256674
2250344282000.0,-0.1722594795117773,10.197428215417558,-0.7096598293747323,0.09193522,-0.0571159,-0.00030543262,105.90905,-95.46418,-0.21411324
2250349256000.0,-0.3762639249850107,10.122626853104926,-0.6790591600685225,0.087964594,-0.086437434,-0.013439035,105.90841,-95.453804,-0.22660233
2250354302000.0,-0.5832213901755889,10.046742720770878,-0.6480155377687367,0.074830994,-0.13744467,-0.028710667,105.93558,-95.44222,-0.26364112
2250359282000.0,-0.7433750429452055,9.990630428938356,-0.6198317548159247,0.08674286,-0.1853976,-0.038179077,105.96957,-95.43721,-0.3024678
2250364297000.0,-0.8564539327568493,9.954650594820206,-0.5941320320151969,0.09437868,-0.22999077,-0.04520403,106.01609,-95.42791,-0.34507
2250369497000.0,-0.9684334366600436,9.925221924697,-0.6089901799105901,0.1020145,-0.2864958,-0.044593163,106.076584,-95.42086,-0.43712607
2250374766000.0,-1.078717982662428,9.90015727180608,-0.6490936559427777,0.0870483,-0.33567044,-0.063224554,106.14563,-95.411766,-0.53515315
2250379277000.0,-1.1290858956771546,9.903227656087552,-0.6659929195896033,0.09407325,-0.37843102,-0.06291912,106.22352,-95.41061,-0.640557
2250384273000.0,-1.1596303871682627,9.920681989694485,-0.6747199041404469,0.096516706,-0.42577308,-0.079107046,106.314156,-95.40715,-0.7545818
2250389236000.0,-1.145967994690182,9.940032037300764,-0.6994961991125153,0.10751228,-0.45356745,-0.09193522,106.412796,-95.42222,-0.88295805
2250394314000.0,-1.063410337159295,9.962964453880977,-0.7499480759266246,0.11759156,-0.50579643,-0.101098195,106.5295,-95.44059,-1.0136682
