timestamp,acc_x,acc_y,acc_z,gyro_x,gyro_y,gyro_z,ori_azimuth,ori_pitch,ori_roll
2374300514000.0,-5.162616231333471,-0.6953939776152214,7.890443717922479,-1.1673635,0.73945236,0.032375857,105.29078,-6.348093,-21.165852
2374305409000.0,-5.163086784880074,-0.6960998116202503,7.893031775940918,-1.1673635,0.75228053,0.037873644,105.28624,-6.3484535,-21.16617
2374310449000.0,-5.163571277193634,-0.6968265538848766,7.895696497577881,-1.1829406,0.7623598,0.03726278,105.34737,-5.884489,-21.486746
2374315529000.0,-5.164059614684287,-0.6975590639452539,7.898382367799265,-1.1835514,0.7492262,0.03359759,105.40757,-5.4335966,-21.799763
2374321406000.0,-5.164624567328492,-0.6984064973359699,7.901489623565223,-1.1743884,0.732122,0.032070424,105.466644,-4.9902015,-22.109753
2374325482000.0,-5.1650163908741415,-0.6989942357229971,7.903644664317657,-1.1597277,0.7690793,0.029932396,105.52553,-4.5564914,-22.426765
2374330366000.0,-5.165485886997044,-0.6996984835841945,7.90622690647538,-1.2000448,0.7507534,0.03940081,105.583046,-4.120483,-22.718103
2374335406000.0,-5.165970379310605,-0.7004252258488208,7.908891628112343,-1.1704178,0.7162395,0.028710667,105.64657,-3.712939,-23.010937
2374340496000.0,-5.16645967809553,-0.701159177858136,7.911582785479832,-1.1429288,0.7476991,0.032986723,105.7014,-3.3055763,-23.31194
2374345482000.0,-5.166938979420016,-0.7018781335984984,7.914218956527828,-1.1728612,0.8002335,0.038789943,105.75945,-2.8983316,-23.604515
2374350373000.0,-5.16740914844891,-0.7025833908239523,7.9168048996878255,-1.2437216,0.7538077,0.02687807,105.82284,-2.494262,-23.87295
2374355400000.0,-5.167892391079916,-0.7033082585549595,7.919462748034852,-1.1930199,0.7684685,0.046731193,105.87261,-2.1268976,-24.167938
2374360374000.0,-5.168370538851275,-0.7040254839565966,7.922092574507521,-1.2403619,0.7602218,0.052839845,105.93158,-1.7209595,-24.438297
2374365365000.0,-5.168850320822899,-0.704745160671428,7.92473138912857,-1.2351695,0.7602218,0.056199603,105.98497,-1.3522383,-24.709747
2374370431000.0,-5.169337312501568,-0.7054756520032924,7.927409857345406,-1.237613,0.73975784,0.062308256,106.036,-0.9785814,-24.967684
2374375414000.0,-5.169816325437774,-0.7061941751589735,7.93004444224957,-1.2318097,0.72204274,0.07086037,106.08526,-0.6173466,-25.221163
2374380388000.0,-5.1702944732091325,-0.7069114005606107,7.93267426872224,-1.2321151,0.7134906,0.084910266,106.13102,-0.26340377,-25.466295
2374385440000.0,-5.170780119075821,-0.7076398731639624,7.935345334934529,-1.2339478,0.68233645,0.098043874,106.174576,0.08058857,-25.69494
2374390629000.0,-5.171278934674048,-0.7083881004677611,7.9380888350484575,-1.235475,0.6261369,0.09773844,106.21795,0.41675794,-25.909088
2374395388000.0,-5.171736414618539,-0.7090743239672367,7.940604987879868,-1.1658363,0.56169057,0.09560041,106.257645,0.72610945,-26.10731
2374400387000.0,-5.17221696562558,-0.7097951542412182,7.9432480322178,-1.0534371,0.48533243,0.09712757,106.29586,1.0170941,-26.281784
2374405452000.0,-5.172703861174823,-0.7105255013781889,7.945925971720026,-0.9300423,0.41263947,0.087964594,106.33608,1.2785571,-26.439915
2374411624000.0,-5.173297172000081,-0.7114154722625686,7.949189198296085,-0.7984009,0.3491095,0.08032878,106.37472,1.5027277,-26.575266
2374415415000.0,-5.173661598658951,-0.7119621151048698,7.951193555384523,-0.66889745,0.32345316,0.073303826,106.41563,1.6918166,-26.697577
2374420463000.0,-5.17414686000793,-0.7126900109286464,7.95386250673837,-0.61269784,0.15943582,0.047647487,106.46261,1.8651621,-26.75929
2374425421000.0,-5.174623469708452,-0.7134049292119832,7.956483873777271,-0.26908615,-0.030543262,-0.00061086525,106.51798,1.9323229,-26.803574
2374430414000.0,-5.17510344393893,-0.714124894316602,7.959123745827541,0.059864793,-0.027183503,0.0015271631,106.56544,1.9827334,-26.85531
2374435430000.0,-5.175585629146235,-0.7148481759037777,7.961775778313852,0.036957346,0.006414085,0.0076358155,106.62478,2.0399048,-26.860989
2374440491000.0,-5.176072140177769,-0.7155779462611733,7.964451602957635,-0.00030543262,-0.004886922,0.0021380284,106.68645,2.0186694,-26.85488
2374445397000.0,-5.176543751148072,-0.7162853664100338,7.96704547683679,-0.0015271631,-0.008857546,0.003970624,106.74413,1.9929749,-26.86062
2374450412000.0,-5.177025840225951,-0.7170085038023157,7.969696980608491,0.00061086525,-0.005497787,0.007941248,106.802605,1.9767971,-26.865227
2374455275000.0,-5.177493317630881,-0.7177097235707438,7.972268119759394,0.004886922,-0.0027488936,0.004276057,106.86261,1.9615489,-26.868517
2374460240000.0,-5.177970600237394,-0.718425651218337,7.9748931878005695,0.0009162979,0.0018325958,0.005497787,106.91956,1.947146,-26.873428
2374465217000.0,-5.178449036397035,-0.7191433092046555,7.977524600417071,0.01160644,0.005192355,-0.0021380284,106.98027,1.9299667,-26.878662
2374470246000.0,-5.178932471286895,-0.7198684653254503,7.980183506193318,0.0030543262,-0.0036651916,0.0067195175,107.03487,1.9168456,-26.881884
2374475220000.0,-5.179410619058254,-0.7205856907270874,7.982813332665987,0.00580322,0.00030543262,0.00580322,107.0949,1.9008214,-26.889505
2374480227000.0,-5.179891939100714,-0.7213076745602193,7.985460606720804,0.014049901,0.0012217305,0.0021380284,107.15251,1.885215,-26.893803
2374485249000.0,-5.180374701084584,-0.7220318213167576,7.988115811494778,0.0143553335,0.0076358155,0.009468411,107.206635,1.8700645,-26.9009
2374490232000.0,-5.180853714020788,-0.7227503444724387,7.990750396398942,0.0070249503,-0.005497787,0.007330383,107.26437,1.8569264,-26.902502
2374495225000.0,-5.181333688251266,-0.7234703095770576,7.993390268449211,0.015577064,0.00061086525,0.0076358155,107.31891,1.838866,-26.911499
2374500224000.0,-5.181814239258308,-0.7241911398510391,7.996033312787143,0.0061086523,-0.0033597588,0.0067195175,107.37388,1.8281466,-26.913828
2374505280000.0,-5.182300269642705,-0.7249201892339658,7.998706493857875,0.0018325958,-0.0009162979,0.008246681,107.42774,1.814029,-26.919754
2374510258000.0,-5.182778801931773,-0.7256379914151782,8.001338435188986,0.005192355,-0.009773844,0.005497787,107.482704,1.8014635,-26.921257
2374515258000.0,-5.183259449068242,-0.7263589658840535,8.003982008241529,0.0015271631,-0.010995574,0.009468411,107.53471,1.7910987,-26.925714
2374520299000.0,-5.18374403751123,-0.7270858523435736,8.006647258593103,0.009773844,-0.0015271631,0.005497787,107.58976,1.7786149,-26.930634
2374525263000.0,-5.184221223988316,-0.727801635796273,8.009271797919668,0.0036651916,0.0106901415,0.0106901415,107.640205,1.7694016,-26.936169
2374530285000.0,-5.1847039859721855,-0.7285257825528113,8.01192700269364,0.0076358155,0.0021380284,-0.00061086525,107.69663,1.7585716,-26.938244
2374535303000.0,-5.185186363438345,-0.7292493525297746,8.014580092609174,-0.0015271631,-0.0036651916,0.008552114,107.744576,1.7496986,-26.944754
2374540305000.0,-5.1856672028336686,-0.7299706153884374,8.017224723090937,0.002443461,-0.003970624,0.004276057,107.79996,1.7400413,-26.950096
2374545292000.0,-5.186146600287583,-0.7306897153236936,8.019861422853543,0.005192355,-0.00030543262,0.007941248,107.84938,1.7311434,-26.955076
2374550275000.0,-5.186625613223788,-0.7314082384793749,8.022496007757708,0.004276057,0.00030543262,0.0076358155,107.90096,1.7235814,-26.95901
2374555316000.0,-5.187110201666775,-0.7321351249388949,8.02516125810928,0.0030543262,0.00061086525,0.008246681,107.95065,1.7151551,-26.963919
2374560375000.0,-5.187596520439454,-0.7328646069065029,8.027836025323843,0.009468411,0.00580322,0.008857546,108.00004,1.7053956,-26.97036
2374565385000.0,-5.188078128870196,-0.733587023324316,8.030484885522492,0.014660766,0.005192355,0.009773844,108.04861,1.6964724,-26.975193
2374570407000.0,-5.188560890854066,-0.7343111700808543,8.033140090296467,0.009773844,0.0030543262,0.01282817,108.09589,1.6884896,-26.98103
2374576337000.0,-5.189130938357917,-0.7351662458009405,8.036275367936781,0.018325957,0.0033597588,0.0033597588,108.14642,1.677643,-26.987215
2374580390000.0,-5.189520550926739,-0.7357506677054109,8.038418248253173,0.014660766,-0.0012217305,0.015882496,108.18842,1.668263,-26.991571
2374585501000.0,-5.190011868429638,-0.7364876478074952,8.041120508627483,0.013744468,-0.00061086525,0.016187929,108.23697,1.6591985,-26.997238
2374590402000.0,-5.190482998752804,-0.7371943469818868,8.043711738933585,0.0070249503,0.0021380284,0.01160644,108.28259,1.6519359,-27.002262
2374595538000.0,-5.191320084979038,-0.7382773324857257,8.039510760704731,0.01038471,0.0067195175,0.00030543262,108.32987,1.6435268,-27.007902
2374600501000.0,-5.192268970153723,-0.7394634406880115,8.032631345665301,0.015271631,0.009162978,-0.00030543262,108.37471,1.635956,-27.013723
2374605416000.0,-5.193208678119385,-0.740638077362248,8.025818465367339,0.008857546,0.0027488936,-0.0015271631,108.42256,1.638532,-27.021372
2374611786000.0,-5.19442657023358,-0.7421604447304851,8.016988750718706,0.004276057,0.004276057,0.00580322,108.46738,1.6385849,-27.03184
2374615367000.0,-5.195111228265123,-0.7430162685210121,8.0120249817773,-0.0027488936,0.0015271631,-0.00030543262,108.51618,1.6429777,-27.038912
2374620453000.0,-5.196083630037932,-0.7442317725139249,8.004975071462866,-0.004581489,-0.00030543262,0.0027488936,108.55914,1.6452177,-27.046638
2374625428000.0,-5.197034809514873,-0.7454207485982232,7.998079022738071,0.0070249503,-0.00580322,0.0009162979,108.605034,1.6473596,-27.052279
2374630387000.0,-5.19798292992214,-0.7466059008398382,7.991205152260431,-0.0033597588,0.0021380284,0.011911872,108.64539,1.6536058,-27.061262
2374640566000.0,-5.1999290718107405,-0.7490385817568377,7.977095628648432,0.007330383,0.004886922,0.0076358155,108.6906,1.653904,-27.066954
2374646347000.0,-5.20103435192254,-0.7504201839163006,7.969082350723198,0.0106901415,-0.00061086525,0.0027488936,108.73196,1.6574707,-27.072514
2374650367000.0,-5.201802943178279,-0.7513809243904471,7.963510066125473,0.01282817,-0.0015271631,0.008857546,108.77073,1.6579045,-27.08009
2374655393000.0,-5.2027638734398085,-0.752582088973298,7.956543324237871,0.021991149,0.009162978,0.009468411,108.81238,1.6572082,-27.089207
2374660371000.0,-5.203715626492314,-0.7537717820280994,7.9496431170917345,0.013439035,-0.002443461,-0.0018325958,108.85514,1.6614237,-27.091541
2374665364000.0,-5.204670247422639,-0.7549650599354162,7.94272211783889,0.020158553,-0.0018325958,0.010995574,108.88972,1.6564035,-27.100492
2374670439000.0,-5.205640546085047,-0.7561779350364843,7.935687455069375,0.019547688,0.0021380284,0.011911872,108.931114,1.6586161,-27.106787
2374675438000.0,-5.2065963141665,-0.7573726468848073,7.928758138973847,0.018325957,0.0009162979,0.0009162979,108.97169,1.6593602,-27.111698
2374680365000.0,-5.207538316434418,-0.7585501514410561,7.921928624990516,0.023518313,-0.002443461,0.008552114,109.00555,1.6562706,-27.117218
2374685442000.0,-5.208508997480535,-0.7597635045224596,7.914891189940107,0.018325957,-0.00030543262,0.009468411,109.04463,1.6586224,-27.123693
2374690640000.0,-5.209502812741066,-0.7610057754141545,7.9076860318955875,0.012217305,-0.0067195175,0.0012217305,109.08365,1.6602907,-27.126678
2374695380000.0,-5.210409062132162,-0.7621385888090437,7.901115726175883,0.006414085,-0.0061086523,-0.002443461,109.1205,1.6626518,-27.132263
2374700359000.0,-5.2113610063765226,-0.7633285208540128,7.894214132889298,-0.002443461,-0.010079277,0.004581489,109.155975,1.6671522,-27.134686
2374705396000.0,-5.212324039748453,-0.7645323143287083,7.887232143456777,0.012217305,-0.0033597588,0.0033597588,109.19488,1.6687667,-27.140186
2374710372000.0,-5.213275410417249,-0.7657215294031743,7.880334708591535,0.009162978,0.0070249503,0.0070249503,109.22951,1.6756296,-27.145695
2374716257000.0,-5.214400574481933,-0.7671279865400779,7.872177272059792,0.00030543262,0.004276057,0.0021380284,109.26676,1.6816248,-27.14922
2374720407000.0,-5.215194020678778,-0.7681197957360252,7.866424789203933,0.010995574,-0.0027488936,-0.0015271631,109.30204,1.6828641,-27.154406
2374725413000.0,-5.216151127103214,-0.7693161805155221,7.859485770125274,0.006414085,-0.00030543262,0.0009162979,109.33653,1.6901236,-27.161411
2374730387000.0,-5.217102115388301,-0.7705049176096527,7.852591107540926,0.0067195175,0.0015271631,0.0018325958,109.372154,1.6941746,-27.16613
2374735412000.0,-5.218062854457976,-0.7717058432023358,7.84562575179377,0.006414085,-0.0015271631,0.004276057,109.40603,1.699091,-27.170109
2374740485000.0,-5.219032770736674,-0.7729182403230684,7.83859386130515,0.006414085,-0.0012217305,0.010079277,109.43811,1.7033464,-27.175535
2374745414000.0,-5.219975155388301,-0.7740962228596526,7.831761575040926,0.009162978,-0.0015271631,0.00061086525,109.47386,1.7087172,-27.17973
2374750387000.0,-5.220925952481533,-0.7752847209636154,7.824868298597025,0.011301007,0.004581489,0.004886922,109.50299,1.711748,-27.185978
2374755405000.0,-5.221885353208226,-0.7764839736251248,7.817912645833,0.017104227,0.0070249503,0.0036651916,109.53645,1.7151664,-27.190893
2374760373000.0,-5.222835194342184,-0.7776712767782492,7.811026300091335,0.011911872,0.009773844,0.008857546,109.56615,1.7195164,-27.19765
2374765375000.0,-5.223791535999202,-0.7788667055970753,7.8040928255744655,0.0015271631,0.0009162979,0.003970624,109.59894,1.7252932,-27.20157
2374770439000.0,-5.224759731551208,-0.7800769518062987,7.79707341034987,0.0070249503,-0.0018325958,0.0027488936,109.62858,1.7272604,-27.207983
2374780415000.0,-5.226667061493313,-0.7824611177192553,7.783245273248652,-0.0027488936,0.003970624,0.007330383,109.65753,1.7356542,-27.214254
2374785794000.0,-5.227695482479537,-0.7837466458313037,7.77578922378319,-0.0012217305,-0.005497787,0.0036651916,109.68891,1.7410476,-27.215237
2374790460000.0,-5.228587583673388,-0.7848617739537832,7.769321492456577,0.002443461,-0.003970624,0.0070249503,109.716385,1.7468514,-27.221058
2374795382000.0,-5.227161256778444,-0.7832268275053892,7.767974026754491,0.009162978,0.0009162979,0.008857546,109.74509,1.7521574,-27.225065
2374800366000.0,-5.224303114331337,-0.7798923407504991,7.769879451736527,0.00580322,-0.00061086525,0.004581489,109.77423,1.7594745,-27.22763
2374810618000.0,-5.218423965782435,-0.7730333603710579,7.773798877281437,-0.004581489,0.0021380284,0.0070249503,109.79605,1.7772988,-27.255089
2374815465000.0,-5.215644387844811,-0.7697905318596308,7.7756519260149695,0.003970624,0.006414085,0.004886922,109.8204,1.7920207,-27.281775
2374820430000.0,-5.212797141205589,-0.7664687568319362,7.777550087137724,0.014049901,0.009773844,0.01282817,109.84039,1.8069973,-27.308414
2374825368000.0,-5.209965378082835,-0.7631650458376248,7.779437925934132,0.005497787,0.0018325958,0.005497787,109.86557,1.826526,-27.332155
2374830391000.0,-5.207084870556387,-0.7598044665900698,7.781358260943113,0.008857546,-0.00061086525,0.0036651916,109.88623,1.838461,-27.357864
2374835437000.0,-5.204191173367764,-0.7564284994622256,7.78328738904491,0.008552114,-0.005497787,0.007330383,109.90704,1.8534677,-27.37995
2374840401000.0,-5.201344500192116,-0.7531073934728044,7.785185167859281,0.009773844,-0.0033597588,0.005497787,109.92994,1.8679411,-27.402681
2374845366000.0,-5.198497253552894,-0.7497856184451098,7.787083328982035,0.01282817,-0.0015271631,0.004276057,109.951096,1.8812141,-27.42343
2374850389000.0,-5.195616746026447,-0.7464250391975549,7.789003663991018,0.008552114,-0.011911872,0.0076358155,109.97093,1.8954432,-27.440777
2374855548000.0,-5.192658247454092,-0.7429734707448103,7.790975992940119,0.008246681,-0.0061086523,0.0070249503,109.99235,1.9083507,-27.46268
2374860382000.0,-5.189886124542914,-0.7397393397309382,7.79282407166467,0.004276057,0.00061086525,0.00580322,110.0125,1.9226849,-27.481451
2374865392000.0,-5.187013072042914,-0.7363874579809382,7.7947394366646705,-0.003970624,-0.0021380284,0.0021380284,110.03328,1.9383546,-27.498653
2374870405000.0,-5.184138299152195,-0.7330335691161178,7.79665594858982,0.004886922,0.0009162979,0.005192355,110.05214,1.9497038,-27.51898
2374875427000.0,-5.181258365089321,-0.7296736589068363,7.798575901290419,0.004276057,0.0033597588,0.006414085,110.072464,1.9659824,-27.537786
2374880387000.0,-5.178413985767964,-0.726355229070509,7.800472150871257,0.004581489,-0.0067195175,0.0070249503,110.09157,1.979213,-27.553413
2374885416000.0,-5.17553003746008,-0.7229906355933134,7.802394779730538,-0.0033597588,-0.0067195175,0.005497787,110.11085,1.9945745,-27.57211
2374890415000.0,-5.172663293059381,-0.7196461132643214,7.804305939338323,0.00061086525,-0.005497787,0.007330383,110.12848,2.0060775,-27.587898
2374895446000.0,-5.169778197824352,-0.7162801817105788,7.806229332814371,0.010995574,-0.002443461,0.013439035,110.14495,2.0173323,-27.603836
2374901418000.0,-5.166353473367265,-0.712284685141517,7.808512478479042,0.008552114,-0.003970624,0.008857546,110.16401,2.03177,-27.618305
2374905406000.0,-5.1640665006387225,-0.7096165605069861,7.810037124311377,0.002443461,0.00061086525,0.0106901415,110.178894,2.0426717,-27.63513
2374910564000.0,-5.161108575529941,-0.706165661092515,7.812009070952095,0.009162978,0.0009162979,0.0125227375,110.19493,2.0513597,-27.64985
2374915387000.0,-5.158342760718064,-0.7029388894996508,7.813852944284431,0.00580322,0.00030543262,0.0125227375,110.21079,2.0639377,-27.66521
2374920412000.0,-5.155461106264471,-0.6995769721755489,7.81577404391018,0.014966198,-0.01038471,0.016798794,110.22432,2.0706527,-27.67744
2374925468000.0,-5.15256167444012,-0.6961943146649701,7.817706995095808,0.018020526,-0.008552114,0.015577064,110.23957,2.0803158,-27.692633
2374930512000.0,-5.149669124178643,-0.6928196856136727,7.819635358580838,0.01740966,-0.0076358155,0.0143553335,110.25307,2.0878947,-27.70427
2374936528000.0,-5.146219167324351,-0.6887947513605789,7.821935325814371,0.03176499,-0.016798794,0.022907447,110.26351,2.0896676,-27.71335
2374940419000.0,-5.143987820562376,-0.6861915234385729,7.823422887733533,0.02107485,-0.013439035,0.024740042,110.27648,2.0988991,-27.725895
2374945346000.0,-5.141162365538922,-0.6828951718652695,7.825306521137724,0.025350908,-0.010995574,0.021685716,110.287994,2.1002054,-27.73539
2374950321000.0,-5.138309384263972,-0.6795667064548404,7.827208505344311,0.030848695,-0.009162978,0.024129177,110.29704,2.1028783,-27.745544
2374955408000.0,-5.135392175068862,-0.6761633087577845,7.82915330808982,0.032986723,-0.006414085,0.027488936,110.306656,2.1055617,-27.756392
2374960328000.0,-5.132570734290419,-0.6728716404523952,7.831034265335329,0.03573562,0.003970624,0.03634648,110.31367,2.105634,-27.76982
2374965318000.0,-5.129709151061876,-0.6695331394678643,7.832941984167665,0.03848451,-0.008246681,0.032986723,110.32317,2.1063607,-27.777212
2374971509000.0,-5.126158838082335,-0.6653911235169162,7.835308855368263,0.04428773,-0.008552114,0.03145956,110.32941,2.1042256,-27.79081
2374975452000.0,-5.1238976712145705,-0.6627531056046907,7.836816297323353,0.04153884,-0.005192355,0.032375857,110.33573,2.1037376,-27.801743
2374980386000.0,-5.121068201946108,-0.6594520707634731,7.838702606886227,0.051923547,-0.003970624,0.03268129,110.34259,2.0988257,-27.811764
2374985443000.0,-5.118168196658184,-0.6560687442146208,7.840635940380239,0.063224554,0.004276057,0.03634648,110.34813,2.0938735,-27.8246
2374990390000.0,-5.115331272363274,-0.6527590118758484,7.842527219952095,0.06688975,0.0070249503,0.034513887,110.35517,2.089049,-27.83595
2374995407000.0,-5.11963502193364,-0.6459946015107968,7.8461498504627185,0.062308256,0.011301007,0.03726278,110.35959,2.0825424,-27.849947
2375000364000.0,-5.129874063287939,-0.6364699136714068,7.851150300203145,0.069027774,0.004581489,0.04184427,110.36379,2.0724528,-27.861334
2375005412000.0,-5.140301071711685,-0.6267703727770673,7.856242547588593,0.0720821,0.0067195175,0.04062254,110.357796,2.0565684,-27.87121
2375011740000.0,-5.153372012540817,-0.6146113603405814,7.862626014596343,0.0852157,0.0143553335,0.043066,110.34919,2.035688,-27.880688
2375015373000.0,-5.160876236313294,-0.6076306883775989,7.866290859039951,0.090713486,0.02107485,0.04520403,110.341125,2.0165327,-27.890343
2375020478000.0,-5.171420982351967,-0.5978216241411481,7.871440606049206,0.08246681,0.023518313,0.05681047,110.329315,1.9963754,-27.900888
2375025389000.0,-5.181565007385449,-0.588385323560304,7.876394652584455,0.08277224,0.016798794,0.070249505,110.31622,1.9725846,-27.910532
2375030391000.0,-5.191896999488376,-0.5787741699245104,7.881440496764728,0.09407325,0.010995574,0.07849618,110.30122,1.9476706,-27.921015
2375035436000.0,-5.202317811195546,-0.5690803934165978,7.886529717854187,0.096516706,0.009162978,0.087964594,110.28165,1.9234095,-27.930742
2375040432000.0,-5.212637409865322,-0.5594807685536579,7.89156950944248,0.08735373,-0.0076358155,0.101098195,110.25818,1.8981516,-27.934591
2375045379000.0,-5.222855795497705,-0.5499752953356909,7.896559871529607,0.089491755,-0.024740042,0.112399206,110.23249,1.8689421,-27.937866
2375050391000.0,-5.233208443322549,-0.5403449270784741,7.901615803363177,0.09407325,-0.03268129,0.12644911,110.20193,1.8398209,-27.939228
2375055401000.0,-5.243556960003009,-0.5307184017455422,7.906669717666089,0.08032878,-0.03940081,0.129198,110.17163,1.8153435,-27.936272
2375060378000.0,-5.253837312801144,-0.5211552846633061,7.911690342713114,0.07574729,-0.04917465,0.1337795,110.13656,1.7858481,-27.930618
2375065369000.0,-5.2641465836099615,-0.5115652671110777,7.916725090474757,0.07880162,-0.049480084,0.13713925,110.10155,1.7582045,-27.926104
2375070326000.0,-5.274385624964261,-0.5020405792716877,7.921725540215183,0.0693332,-0.031154128,0.14080444,110.06562,1.7347138,-27.924564
2375075407000.0,-5.2848807972703336,-0.4922776301266521,7.926851076856519,0.07574729,-0.03573562,0.14049901,110.030174,1.7070128,-27.916765
2375080398000.0,-5.295190068079151,-0.4826876125744238,7.931885824618162,0.09162979,-0.026267206,0.14782938,109.99199,1.6782185,-27.91857
2375085430000.0,-5.305584027347829,-0.4730188150743611,7.936961931758332,0.08155051,-0.025961773,0.14538592,109.95747,1.6561867,-27.916613
2375090423000.0,-5.315897429301031,-0.4634249545978481,7.941998697050636,0.086437434,-0.041233405,0.15424347,109.9174,1.6243879,-27.913265
2375095376000.0,-5.326128208366564,-0.4539079526070273,7.946995111729741,0.09590584,-0.04550946,0.15271631,109.88214,1.5961764,-27.91321
2375100364000.0,-5.336431282458807,-0.4443236994412259,7.952026833195395,0.102319926,-0.0580322,0.16401732,109.84021,1.5651096,-27.906906
2375105401000.0,-5.346835569588444,-0.4346452946304517,7.9571079841622145,0.11789699,-0.06414085,0.16493362,109.802734,1.5314877,-27.901424
2375111236000.0,-5.358888183327063,-0.4234335630301207,7.962994129862312,0.13469578,-0.06383542,0.17195857,109.76021,1.494215,-27.89475
2375115371000.0,-5.367429324339779,-0.4154883170717026,7.967165374501542,0.13958271,-0.060170226,0.17440203,109.71945,1.4572054,-27.887705
2375120439000.0,-5.377897644207359,-0.4057503469345171,7.972277797193589,0.14935656,-0.07574729,0.16829337,109.679665,1.4157076,-27.875656
2375125378000.0,-5.388099505262208,-0.3962602454136885,7.977260089158077,0.15821409,-0.07941248,0.16920967,109.6376,1.3727423,-27.868544
2375130366000.0,-5.398402579354451,-0.386675992247887,7.98229181062373,0.16340645,-0.08827003,0.16126843,109.60082,1.3310888,-27.855873
2375135418000.0,-5.408837850066963,-0.3769687655049783,7.987388093070498,0.18081611,-0.087659165,0.15882497,109.56264,1.2841249,-27.845428
2375140590000.0,-5.41952098944248,-0.3670309633049933,7.992605427356858,0.19761491,-0.090713486,0.16768251,109.52382,1.2364447,-27.831991
2375145389000.0,-5.42943367039049,-0.3578098664840869,7.997446492175156,0.20097467,-0.09162979,0.16157386,109.49119,1.1910591,-27.819773
2375150388000.0,-5.4397594657768416,-0.3482044772347202,8.002489310059438,0.20647246,-0.09743301,0.15607607,109.45603,1.1406759,-27.805912
2375155395000.0,-5.450101785740727,-0.3385837162882151,8.00754019806636,0.2134974,-0.10140363,0.13591751,109.42813,1.0928787,-27.792744
2375160374000.0,-5.460386269683244,-0.3290167562816944,8.012562840644044,0.22021692,-0.10354166,0.118507855,109.40162,1.045187,-27.779013
2375165367000.0,-5.470699671636446,-0.3194228958051814,8.017599605936347,0.23487769,-0.09437868,0.103847094,109.38117,0.9970734,-27.767874
2375170428000.0,-5.481153532498683,-0.309698375902992,8.022704967271086,0.23487769,-0.09162979,0.08979719,109.36641,0.95424783,-27.75478
2375175589000.0,-5.491813950580092,-0.2997817097865723,8.027911205138816,0.2144137,-0.11484267,0.083383106,109.35405,0.9149024,-27.737345
2375180680000.0,-5.502329778608081,-0.2899995460201138,8.03304682943345,0.1853976,-0.124311075,0.074830994,109.34716,0.8809088,-27.725004
2375185428000.0,-5.512137115374314,-0.2808764437684649,8.037836447219922,0.15393804,-0.14080444,0.06627888,109.342316,0.8544617,-27.70459
2375190480000.0,-5.522572386086826,-0.2711692170255561,8.042932729666692,0.1423316,-0.14660765,0.062308256,109.33888,0.83155346,-27.685163
2375195372000.0,-5.521681548361751,-0.2751497413356074,8.043563072315555,0.1469131,-0.16218472,0.0571159,109.33858,0.814303,-27.65892
2375200363000.0,-5.515465939952686,-0.2856684749718664,8.042128700568172,0.14202617,-0.16462818,0.053450707,109.33917,0.80312246,-27.635536
2375205399000.0,-5.509194290193509,-0.2962820479216161,8.040681396196339,0.14446963,-0.19120082,0.05467244,109.307945,0.7533959,-27.635052
2375210590000.0,-5.502729609117281,-0.3072222896178334,8.039189546118065,0.15057829,-0.20463985,0.054367006,109.27885,0.7056421,-27.637442
2375215368000.0,-5.4967792630987455,-0.3172921171702369,8.03781638879308,0.160963,-0.21502456,0.049785517,109.251015,0.65757453,-27.633137
2375220393000.0,-5.490521312336263,-0.3278825071766889,8.036372245729448,0.16890424,-0.21991149,0.044898596,109.223755,0.6096674,-27.626713
2375225382000.0,-5.484308194653869,-0.3383970257323483,8.034938448765374,0.18936823,-0.22143865,0.03940081,109.198555,0.55767924,-27.6185
2375230375000.0,-5.478090095518133,-0.348919974449207,8.033503502234682,0.21380283,-0.22510384,0.030848695,109.17627,0.50479496,-27.60854
2375235421000.0,-5.471805992125598,-0.3595546228019546,8.032053323946304,0.226631,-0.22418754,0.022602014,109.156006,0.4515117,-27.599745
2375240431000.0,-5.465566721813153,-0.3701133997039097,8.030613491757485,0.24740042,-0.2125811,0.0061086523,109.14148,0.39351162,-27.59324
2375245371000.0,-5.459414626934215,-0.3805246487848794,8.02919377698448,0.27855456,-0.21288654,-0.020463986,109.13308,0.33335355,-27.583862
2375250386000.0,-5.453169129805091,-0.3910939633883334,8.02775250783739,0.31398472,-0.20555615,-0.033292156,109.12577,0.2685623,-27.580212
2375255399000.0,-5.446926123402638,-0.4016590629111879,8.02631181347361,0.33078352,-0.22815818,-0.0421497,109.125694,0.20507002,-27.568062
2375260369000.0,-5.440736667623625,-0.4121335382011514,8.02488347695097,0.3436117,-0.22357668,-0.06078109,109.13292,0.13822949,-27.565931
2375265389000.0,-5.4344849436778215,-0.4227133905061043,8.023440770845607,0.34208453,-0.21594086,-0.07238753,109.14057,0.072698,-27.558535
2375270432000.0,-5.428204576375294,-0.4333417162379526,8.021991454732193,0.3390302,-0.21991149,-0.09162979,109.156555,0.009479447,-27.549398
2375275418000.0,-5.421995194782909,-0.4438499121727127,8.020558519943082,0.32834008,-0.20158553,-0.106595986,109.17459,-0.048816223,-27.549051
2375280417000.0,-5.415769623467158,-0.4543855061313701,8.019121849062463,0.310625,-0.19120082,-0.13072516,109.20146,-0.09924869,-27.54552
2375285471000.0,-5.409475557167936,-0.465037014806516,8.017669371640851,0.2968805,-0.1881465,-0.15241088,109.231964,-0.14490946,-27.545212
2375290484000.0,-5.403232550765484,-0.4756021143293705,8.01622867727707,0.28130344,-0.18906279,-0.17623462,109.27036,-0.18090385,-27.546719
2375296234000.0,-5.396071711584534,-0.4877204710531712,8.014576175263956,0.2733622,-0.18845193,-0.18845193,109.31138,-0.2129393,-27.549456
2375300382000.0,-5.390905944467563,-0.4964625482167061,8.013384074681278,0.2669481,-0.17684549,-0.21166481,109.362885,-0.23587014,-27.555014
2375305413000.0,-5.384640521525065,-0.5070655834649569,8.011938207267717,0.26419923,-0.14477506,-0.22999077,109.41592,-0.2559144,-27.566504
2375310392000.0,-5.37843985747603,-0.5175590266176184,8.010507284220187,0.25686884,-0.12583824,-0.24648413,109.474976,-0.26960647,-27.577349
2375315364000.0,-5.372247910970346,-0.5280377169881814,8.009078372914239,0.2687807,-0.13439035,-0.25503623,109.536385,-0.28545782,-27.589035
2375320407000.0,-5.365967543667819,-0.5386660427200296,8.007629056800825,0.27122417,-0.14446963,-0.25534168,109.59936,-0.29539332,-27.60508
2375325400000.0,-5.359749444532082,-0.5491889914368883,8.006194110270132,0.2666427,-0.14844026,-0.25809056,109.664825,-0.30450916,-27.61989
2375330369000.0,-5.353561234116405,-0.5596613591865519,8.004766061139147,0.25625798,-0.16065755,-0.25534168,109.727554,-0.31287035,-27.628986
2375335422000.0,-5.34726841318052,-0.570310760321398,8.003313871109189,0.23457226,-0.16218472,-0.2574797,109.791725,-0.31563574,-27.639597
2375340504000.0,-5.340939476707896,-0.5810212801249381,8.00185334672125,0.2180789,-0.15790866,-0.25442538,109.8523,-0.31766605,-27.648045
2375345380000.0,-5.33486708508245,-0.5912976466267212,8.000452025014129,0.21899518,-0.15302174,-0.25686884,109.91437,-0.31727245,-27.655941
2375350389000.0,-5.32862906013334,-0.6018543159883765,7.999012480216966,0.19211712,-0.1469131,-0.2510656,109.97178,-0.30692884,-27.665045
2375355404000.0,-5.322383563004216,-0.6124236305918305,7.997571211069876,0.19517145,-0.14202617,-0.24648413,110.02943,-0.30371517,-27.674852
2375360368000.0,-5.316201579405218,-0.6228854606399952,7.996144598897164,0.19730948,-0.15668693,-0.23854288,110.08321,-0.29463345,-27.68038
2375366353000.0,-5.308748079840352,-0.6354990893342469,7.994424559845253,0.21380283,-0.1591304,-0.22876903,110.134,-0.29075646,-27.690374
2375370417000.0,-5.303686923243589,-0.6440641331125994,7.993256600161549,0.21930063,-0.16218472,-0.22021692,110.18186,-0.28544587,-27.695698
2375375427000.0,-5.297447652931144,-0.6546229100145544,7.991816767972732,0.21594086,-0.1600467,-0.21013765,110.22526,-0.28338656,-27.70155
2375380361000.0,-5.291303030232221,-0.6650215138537254,7.990398777549653,0.2144137,-0.18081611,-0.21074851,110.26872,-0.28266934,-27.69978
2375385417000.0,-5.285006473206328,-0.6756772376094708,7.98894572534473,0.22479841,-0.15210545,-0.19608775,110.3032,-0.28727728,-27.712564
2375390445000.0,-5.278744786353838,-0.6862739502368222,7.987500720106133,0.23365596,-0.19853121,-0.20708331,110.345764,-0.2874164,-27.697882
2375395411000.0,-5.269004266774194,-0.6851333557791143,7.995524509037725,0.23609942,-0.21899518,-0.21533,110.382,-0.29060188,-27.698606
2375400361000.0,-5.257694315161291,-0.6787715072279935,8.007776965844725,0.26328292,-0.22357668,-0.20952678,110.41673,-0.3023995,-27.690714
2375405411000.0,-5.24615587967742,-0.6722811364839207,8.020276947031661,0.28985557,-0.24587326,-0.21533,110.48115,-0.26286244,-27.661945
2375412550000.0,-5.2298444161290325,-0.663105937129082,8.037947712515532,0.32620203,-0.26145032,-0.22082779,110.5428,-0.23405243,-27.63418
2375415372000.0,-5.223396601290323,-0.6594790408439783,8.044932850517421,0.3643811,-0.27000242,-0.21563543,110.6021,-0.21347462,-27.602604
2375420401000.0,-5.211906147419355,-0.6530156597604255,8.057380851584572,0.37904188,-0.2910773,-0.2134974,110.663315,-0.19516963,-27.563696
2375425381000.0,-5.200527650645161,-0.6466152545514191,8.069707565705553,0.39553526,-0.2779437,-0.21960606,110.7247,-0.1865123,-27.532938
2375430361000.0,-5.189149153870968,-0.6402148493424127,8.082034279826532,0.39920044,-0.28527406,-0.22876903,110.78562,-0.17798221,-27.49134
2375435427000.0,-5.177574160967742,-0.6337039150474676,8.09457386491426,0.39767328,-0.27366763,-0.23793201,110.84765,-0.17119381,-27.459867
2375440401000.0,-5.166209373225806,-0.6273112211700383,8.106885727572443,0.39095375,-0.2669481,-0.23579398,110.908104,-0.16399223,-27.425861
2375445386000.0,-5.154819452258065,-0.6209043898513843,8.119224817912421,0.376293,-0.26328292,-0.24251351,110.97347,-0.15172684,-27.395136
2375450360000.0,-5.143454664516129,-0.6145116959739549,8.131536680570605,0.37690386,-0.2501493,-0.2443461,111.03568,-0.14233275,-27.369812
2375455410000.0,-5.131916229032258,-0.6080213252298823,8.144036661757543,0.3827071,-0.24404067,-0.2556471,111.1022,-0.12828895,-27.34422
2375460384000.0,-5.120551441290322,-0.6016286313524529,8.156348524415726,0.3839288,-0.23793201,-0.26725355,111.16847,-0.11284846,-27.32295
2375465362000.0,-5.109177514193549,-0.5952307965873056,8.168670288049109,0.3707952,-0.2321288,-0.2751948,111.23627,-0.09411236,-27.303837
2375470399000.0,-5.097668781612903,-0.5887571337283165,8.181138091066654,0.36285394,-0.2284636,-0.29046643,111.30914,-0.07442431,-27.286283
2375475355000.0,-5.086345120967742,-0.5823875738456186,8.193405399336449,0.35521814,-0.21135938,-0.28802297,111.37781,-0.052758098,-27.274582
2375480360000.0,-5.074909503225807,-0.5759550380883742,8.205793994552414,0.3323107,-0.19730948,-0.30085114,111.455246,-0.021247007,-27.263332
2375485560000.0,-5.063028341935484,-0.5692718840548735,8.21866526230926,0.32162055,-0.18906279,-0.30695978,111.528656,0.0077616554,-27.25546
2375490441000.0,-5.051876044193548,-0.5629987158168895,8.230746927294101,0.30390546,-0.16890424,-0.30573806,111.60272,0.044821415,-27.255003
2375495373000.0,-5.04060721967742,-0.5566600012605001,8.24295482971271,0.29443705,-0.15057829,-0.29932398,111.67598,0.08225171,-27.256298
2375500361000.0,-5.029210444193549,-0.5502493142760575,8.255301345784085,0.28008172,-0.13744467,-0.2742785,111.74174,0.12235096,-27.261637
2375505832000.0,-5.016710091612904,-0.5432178650996571,8.268843404610568,0.25137106,-0.13225232,-0.25717425,111.80694,0.16817997,-27.26957
2375510380000.0,-5.006318645161291,-0.537372675764203,8.28010081341021,0.22999077,-0.12339478,-0.24556783,111.86495,0.21263878,-27.281881
2375515385000.0,-4.994883027419355,-0.5309401400069587,8.292489408626174,0.22021692,-0.12736541,-0.22143865,111.912575,0.2568142,-27.291573
2375520405000.0,-4.983413137096775,-0.5244883259207714,8.304915132499131,0.21930063,-0.12675454,-0.20158553,111.95714,0.3023653,-27.304605
2375525422000.0,-4.971950101290322,-0.5180403675003729,8.317333430640689,0.2134974,-0.13652839,-0.18753563,111.99515,0.34837762,-27.313112
2375530366000.0,-4.960653858709677,-0.5116862302808292,8.32957103598489,0.22999077,-0.16401732,-0.16462818,112.02338,0.38434607,-27.316376
2375535501000.0,-4.948921211935484,-0.5050866156727472,8.342281412894776,0.2406809,-0.17501289,-0.15210545,112.05,0.42197114,-27.321276
2375540405000.0,-4.937716362903226,-0.4987838873303842,8.354420008487002,0.24465153,-0.19883664,-0.13439035,112.06716,0.4527557,-27.314663
2375545403000.0,-4.926296739032258,-0.4923603481266465,8.366791276996372,0.25473082,-0.21594086,-0.116980694,112.080124,0.4771079,-27.306948
2375550360000.0,-4.914970793548387,-0.485989503022019,8.379061060509965,0.26236662,-0.21868975,-0.096516706,112.08626,0.49787155,-27.296873
2375555405000.0,-4.903443782258065,-0.4795055583875938,8.391548665477906,0.2489276,-0.20769419,-0.07391469,112.08604,0.5184987,-27.286343
2375560393000.0,-4.8920470067741935,-0.4730948714031513,8.403895181549283,0.26450464,-0.21594086,-0.060170226,112.08208,0.5279879,-27.27004
2375565373000.0,-4.8806685100000005,-0.4666944661941449,8.416221895670262,0.27122417,-0.22204952,-0.03634648,112.06781,0.53852904,-27.258009
2375570429000.0,-4.869116365483872,-0.4601963841184949,8.428736728319997,0.27763826,-0.23243423,-0.02107485,112.05207,0.5442991,-27.242887
2375575422000.0,-4.857708165806452,-0.4537792710244048,8.441095620610369,0.29046643,-0.2302962,-0.005192355,112.02883,0.54339063,-27.23023
2375580405000.0,-4.846322814516129,-0.4473750101496098,8.453429760462747,0.29229903,-0.23365596,0.021991149,111.99739,0.54011124,-27.213736
2375585677000.0,-4.83427714483871,-0.4405993201371838,8.46647924577315,0.2950479,-0.26175576,0.04153884,111.96376,0.53230387,-27.191402
2375590393000.0,-4.823501845483872,-0.4345382135175705,8.47815249553109,0.2938262,-0.26267207,0.051618114,111.92511,0.522819,-27.176601
2375595399000.0,-4.817027803716882,-0.4238412926294512,8.492696977143028,0.29229903,-0.28069258,0.06414085,111.879974,0.50999993,-27.149792
2375600387000.0,-4.81678908940404,-0.4078477564580689,8.509884058706538,0.28771752,-0.29016098,0.08460484,111.82986,0.4960828,-27.12608
2375605434000.0,-4.8165475514856535,-0.391665042533256,8.527274435741628,0.28405234,-0.31031954,0.09407325,111.75128,0.47433475,-27.059076
2375610505000.0,-4.81630486498196,-0.3754053749460307,8.544747509239734,0.2837469,-0.3115413,0.11056661,111.66671,0.44908357,-26.99735
2375615327000.0,-4.816074095050821,-0.3599441016063344,8.561362606934049,0.2779437,-0.28955013,0.129198,111.58119,0.42451462,-26.939093
2375621257000.0,-4.815790298764704,-0.3409301341852644,8.581795524670937,0.29016098,-0.35124752,0.14385876,111.49413,0.39370376,-26.859003
2375625406000.0,-4.815591737079865,-0.3276267697957164,8.596091675714844,0.2724459,-0.37965274,0.13072516,111.41285,0.37309918,-26.796885
2375630368000.0,-4.815354267067772,-0.3117166000919475,8.613189169443418,0.28344148,-0.39706242,0.13225232,111.324776,0.33837634,-26.72301
2375635421000.0,-4.815112442003058,-0.2955146477515316,8.630600220594262,0.30970868,-0.41325033,0.1441642,111.240074,0.30470476,-26.644173
2375640424000.0,-4.8148730098244,-0.2794730155411415,8.647838987447155,0.33261612,-0.42852196,0.1441642,111.16118,0.27061564,-26.563461
2375645439000.0,-4.814633003353089,-0.2633929064995453,8.665119102531557,0.3494149,-0.44012842,0.14813483,111.07959,0.22975193,-26.482132
2375650378000.0,-4.814396634068581,-0.2475564840555883,8.682137345483074,0.35735616,-0.45845437,0.14966199,111.00106,0.18621518,-26.397469
2375655414000.0,-4.814155622585127,-0.2314090405593811,8.699489819972616,0.3631594,-0.45906523,0.1554652,110.92213,0.13861625,-26.317532
2375660367000.0,-4.813918583292524,-0.2155277284790169,8.71655630252756,0.36285394,-0.462425,0.1572978,110.846085,0.091681674,-26.234594
2375665327000.0,-4.813681208995873,-0.1996239715804491,8.733646904884216,0.3744604,-0.4541783,0.15974127,110.770134,0.040241767,-26.157734
2375670515000.0,-4.813432923138811,-0.1829891548889632,8.751523123639526,0.3830125,-0.46028697,0.16493362,110.694695,-0.01007026,-26.078648
2375675376000.0,-4.813200286756549,-0.1674028318478467,8.768272603086242,0.38606682,-0.46731192,0.15851954,110.62414,-0.05988796,-26.00432
2375680565000.0,-4.812951953041766,-0.1507648087537603,8.786152267527509,0.38056904,-0.4801401,0.15393804,110.553215,-0.109631434,-25.929218
2375685405000.0,-4.812720321671647,-0.1352458201672546,8.802829387569085,0.37812558,-0.46944994,0.1591304,110.482994,-0.16039693,-25.861431
2375691517000.0,-4.812427815280291,-0.1156482874728904,8.823889420150515,0.39461896,-0.4896085,0.16401732,110.416084,-0.21308358,-25.783741
2375695376000.0,-4.81224313233457,-0.1032747798374925,8.837186322266309,0.39920044,-0.49663344,0.15668693,110.35304,-0.2603139,-25.715305
2375700328000.0,-4.812006140899688,-0.0873966741597289,8.854249359135293,0.40866885,-0.4972443,0.14660765,110.29098,-0.31232128,-25.645468
2375705434000.0,-4.811761779375756,-0.0710247824814855,8.871843031641964,0.4129449,-0.5002986,0.1282817,110.23541,-0.3612195,-25.575455
2375710376000.0,-4.8115252665180845,-0.055178740829727,8.888871611651359,0.43279803,-0.50701815,0.11759156,110.18207,-0.415233,-25.506643
2375715363000.0,-4.811286600062965,-0.0391884110609452,8.906055247528908,0.4465425,-0.44715336,0.15515977,110.12032,-0.47141895,-25.45831
2375720357000.0,-4.811047598603796,-0.0231756364739597,8.923263003208172,0.4550946,-0.52106804,0.10934488,110.089905,-0.51863694,-25.372261
2375725378000.0,-4.810807304986158,-0.0070762890167603,8.940563792408327,0.45540005,-0.50732356,0.09101892,110.039696,-0.5741219,-25.330074
2375730552000.0,-4.810559689137192,0.0095136380383182,8.95839177156021,0.48197266,-0.48533243,0.099265605,109.99676,-0.63499004,-25.271444
2375735405000.0,-4.810327435616698,0.0250743098586306,8.975113685519254,0.49266282,-0.48899764,0.10140363,109.962425,-0.6876279,-25.211569
2375740437000.0,-4.810086615564129,0.0412089277444357,8.992452377264959,0.4868596,-0.48502702,0.09743301,109.928116,-0.74181163,-25.162024
2375745368000.0,-4.80985062914139,0.0570196989675885,9.009443054728804,0.49235737,-0.49510628,0.10842858,109.889244,-0.80240434,-25.109165
2375750361000.0,-4.809611675539943,0.0730292671519735,9.026647364722107,0.49663344,-0.47555858,0.11759156,109.85277,-0.85917175,-25.06767
2375755393000.0,-4.809370855487372,0.0891638850377785,9.043986056467814,0.47555858,-0.46578476,0.13103059,109.812325,-0.91132224,-25.0222
2375761325000.0,-4.8090869634858135,0.1081842652640496,9.064425865576622,0.47739118,-0.47433686,0.13652839,109.77229,-0.96937025,-24.97862
2375765367000.0,-4.808893522577131,0.1211445445753421,9.078353328222914,0.47219884,-0.49296826,0.13927728,109.72972,-1.0202929,-24.936316
2375770427000.0,-4.80865136250837,0.1373689417339617,9.09578849917547,0.48472157,-0.50793445,0.13713925,109.687874,-1.0752373,-24.894064
2375775399000.0,-4.808413413919066,0.1533111754637358,9.112920449763635,0.5039638,-0.5348125,0.13775012,109.64538,-1.1301537,-24.844614
2375780386000.0,-4.808174747463946,0.1693015052325175,9.130104085641184,0.51007247,-0.57360244,0.13041973,109.60712,-1.1825262,-24.7892
2375785476000.0,-4.807931151663552,0.1856220944691527,9.147642627172512,0.52290064,-0.59742624,0.13408493,109.56615,-1.241745,-24.732178
2375790408000.0,-4.807695117383092,0.201436072094906,9.164636750322316,0.5448918,-0.6243043,0.1328632,109.53015,-1.3021209,-24.665419
2375795424000.0,-4.772828170698925,0.2161732460483871,9.178236545698924,0.5647449,-0.65270954,0.12614368,109.49577,-1.3636343,-24.59374
2375800364000.0,-4.692283374103942,0.2288908378225806,9.186714665770609,0.5687156,-0.6762278,0.13194689,109.45882,-1.426525,-24.51819
2375805400000.0,-4.588542189133049,0.2728426141583126,9.190827718662282,0.5561928,-0.6966918,0.1301143,109.38885,-1.537566,-24.433126
2375810445000.0,-4.390926921348945,0.4510838195797578,9.175328575587455,0.56779927,-0.7104363,0.12858713,109.318596,-1.6539813,-24.346294
2375815380000.0,-4.197620410642393,0.6254386954479109,9.160167372203064,0.5720753,-0.7247916,0.14905111,109.24011,-1.7674388,-24.240435
2375820389000.0,-4.1371803,0.7513031969121495,9.17093783588785,0.56596667,-0.7339546,0.16768251,109.164406,-1.8781054,-24.135973
2375825387000.0,-4.1371803,0.8541903246579439,9.193304586542055,0.5531385,-0.76052725,0.19547687,109.08145,-1.9889289,-24.025963
2375830813000.0,-4.150307851821932,0.8975943880165005,9.21118730629082,0.55771995,-0.7812967,0.23640485,108.97309,-2.1464994,-23.886711
2375835448000.0,-4.169381896553799,0.8937796348367136,9.222631406497078,0.54458636,-0.79412484,0.25167647,108.86655,-2.2926767,-23.747234
2375840541000.0,-4.172585047097357,0.8913363883035916,9.232041,0.55771995,-0.80573124,0.25320363,108.748146,-2.4685595,-23.607317
2375845676000.0,-4.122597092218206,0.8941134872419245,9.232041,0.56413406,-0.8127562,0.27214047,108.62225,-2.638986,-23.469757
2375850363000.0,-4.076970306528123,0.8966482998463972,9.232041,0.5879578,-0.81214535,0.28069258,108.50519,-2.8126059,-23.338055
2375855337000.0,-4.028549646826293,0.8993383271334989,9.232041,0.6001751,-0.8240572,0.28710666,108.38572,-2.9827633,-23.205498
2375860402000.0,-3.976905699836868,0.9300334559216966,9.267817735997824,0.6044512,-0.8359691,0.28710666,108.26807,-3.1532884,-23.077913
2375865388000.0,-3.9249753846655793,0.973308736639478,9.319748683795542,0.62125,-0.84635377,0.2846632,108.151855,-3.3267322,-22.952051
2375870434000.0,-3.861131353264287,1.036926241057888,9.44607781440725,0.6374379,-0.83260936,0.28985557,108.04134,-3.5024543,-22.817026
2375875416000.0,-3.786126868744221,1.1207547717403366,9.649030968281856,0.6469063,-0.83199847,0.29718593,107.93368,-3.6765695,-22.680498
2375880315000.0,-3.7122113583613694,1.1751043799525036,9.807397306748468,0.64996064,-0.8524625,0.27458394,107.834335,-3.8564808,-22.53249
2375885487000.0,-3.633792661191372,1.1653019916287355,9.876013564417178,0.6658431,-0.86070913,0.29779682,107.72057,-4.043713,-22.392336
2375890465000.0,-3.5684688456275864,1.1679714873931035,9.934828890482756,0.67011917,-0.870483,0.29749137,107.62579,-4.2379637,-22.2208
2375895380000.0,-3.5262681132827587,1.1971873659793104,9.977029419448275,0.6740898,-0.88697636,0.30970868,107.52266,-4.435214,-22.050282
2375900518000.0,-3.4821526783310346,1.2277288073172414,10.021144641793104,0.6844745,-0.9077458,0.31612277,107.43214,-4.6307216,-21.860851
2375905454000.0,-3.4306684335886675,1.3001454804931794,10.054241892025184,0.70829827,-0.91904676,0.32253686,107.3403,-4.82715,-21.675703
2375910475000.0,-3.365074943105981,1.4363782766841553,10.074424415320042,0.71776664,-0.9379836,0.31337386,107.25425,-5.016582,-21.489271
2375915394000.0,-3.2548367363296795,1.488360164360536,9.920993563946409,0.7315111,-0.945314,0.3378085,107.16879,-5.233764,-21.26972
2375920382000.0,-3.0958002597076737,1.4573287288428745,9.587405115712546,0.73761976,-0.9602802,0.35155296,107.09241,-5.443602,-21.050682
2375925471000.0,-2.9372603750718027,1.4304269933603648,9.261435366700455,0.74128497,-0.9468411,0.35277468,107.0106,-5.688839,-20.807432
2375930377000.0,-2.869789116058456,1.5137737915357323,9.277310864419665,0.76174897,-0.95264435,0.36987892,106.92359,-5.936581,-20.56209
2375935427000.0,-2.800337453193107,1.5995669694374048,9.293652336796756,0.77121735,-0.958753,0.36896262,106.86609,-6.193082,-20.293089
2375940656000.0,-2.7317117262255555,1.5855322794267346,9.299079,0.7901542,-0.96974856,0.40011674,106.79621,-6.455654,-20.028507
2375946399000.0,-2.6580450206268416,1.5167766362532369,9.299079,0.7974846,-0.9868528,0.43249258,106.728775,-6.7108297,-19.769264
2375950372000.0,-2.6056918540575915,1.4840067910289971,9.2871089225735,0.8185594,-1.0161743,0.4456262,106.66562,-7.003317,-19.466728
2375955397000.0,-2.537857642670157,1.459780391763995,9.258037081554573,0.8359691,-1.0290025,0.45051312,106.59794,-7.2915545,-19.172981
2375960355000.0,-2.478318776923077,1.4551954865571322,9.227971628080658,0.8436049,-1.0454959,0.45020768,106.56204,-7.5809526,-18.839281
2375965368000.0,-2.4281232223076925,1.4767078457132188,9.195703108065722,0.8570439,-1.0598512,0.46700647,106.52208,-7.8705077,-18.512913
2375971564000.0,-2.366082197692308,1.5032968298207618,9.155819655041077,0.8756753,-1.0607675,0.4709771,106.49918,-8.166538,-18.15442
2375975465000.0,-2.2739732343949046,1.5218582560509557,9.148107,0.8698721,-1.0668762,0.47952923,106.472694,-8.453136,-17.801605
2375980321000.0,-2.1582661791401274,1.544999696098726,9.13885025,0.88178396,-1.0769554,0.4813618,106.44901,-8.741089,-17.459303
2375985433000.0,-2.0858307193872667,1.5600613615605552,9.050086384394447,0.89766645,-1.0800097,0.49571714,106.42256,-9.040433,-17.093603
2375990426000.0,-2.03242091627573,1.5715063022977502,8.935636977022499,0.8918633,-1.0748174,0.4972443,106.40114,-9.327672,-16.740223
2375995308000.0,-1.990985375727973,1.5811635242720272,8.851940334867557,0.8875872,-1.0735956,0.48991394,106.379295,-9.620937,-16.368895
2376000393000.0,-1.9864110728912268,1.5857378271087732,8.865663529964307,0.8958339,-1.074512,0.50671273,106.35149,-9.9097185,-16.009605
2376005424000.0,-1.982399,1.5906458372163512,8.872772335954782,0.8979719,-1.0784826,0.5122105,106.32836,-10.200639,-15.6409025
2376011524000.0,-1.982399,1.6002171454821004,8.820130040550504,0.8924741,-1.0894781,0.51251596,106.303925,-10.484323,-15.28174
2376016446000.0,-1.982399,1.60794009290571,8.777653749078397,0.8900307,-1.0897835,0.5183192,106.27521,-10.768318,-14.918663
2376020438000.0,-1.9764175947305167,1.573015037154479,8.757401486826291,0.8933904,-1.078788,0.5119051,106.25147,-11.043342,-14.568687
2376025479000.0,-1.967491524877508,1.5194585714338542,8.735086312193769,0.8863655,-1.0775663,0.50946164,106.22694,-11.307625,-14.227374
2376030394000.0,-1.9690603257639112,1.4842902772997748,8.707026263187519,0.8903361,-1.0784826,0.49327368,106.208664,-11.578453,-13.883547
2376035467000.0,-1.9807802774525567,1.4647570652782245,8.671866489707302,0.88208944,-1.0775663,0.47616947,106.1924,-11.836014,-13.552555
2376040602000.0,-1.9905963862299751,1.4476743708223567,8.636703535350659,0.8729264,-1.0726794,0.45112398,106.18412,-12.084771,-13.209376
2376045382000.0,-1.9677811688572449,1.4737488709291564,8.610629137344251,0.8753699,-1.0558805,0.42485678,106.18112,-12.325916,-12.882706
2376050331000.0,-1.9441593046778207,1.5007452518974724,8.583632862086152,0.8738427,-1.061073,0.37048978,106.1944,-12.558614,-12.547246
2376055443000.0,-1.909618123977147,1.5342022520180612,8.567410941024697,0.86132,-1.0500773,0.35124752,106.203316,-12.782579,-12.231838
2376060397000.0,-1.8396682100442316,1.5866646646424625,8.59364175930704,0.8564331,-1.0396926,0.35521814,106.22134,-12.9995165,-11.927705
2376065603000.0,-1.764202068398231,1.6422034596999393,8.6263067449484,0.8579602,-1.0299188,0.34238997,106.24074,-13.222004,-11.613947
2376070437000.0,-1.671862439484867,1.6984102067470297,8.714631734975283,0.8732319,-1.0201449,0.33414328,106.25695,-13.44092,-11.313426
2376075469000.0,-1.5757405915965657,1.756919174711647,8.806574504899835,0.8680395,-1.0228939,0.32895094,106.265305,-13.663479,-10.988923
2376080388000.0,-1.5092353409667674,1.8320054901510572,8.875038170392749,0.8750645,-1.0247264,0.3295618,106.27377,-13.886856,-10.678685
2376085428000.0,-1.4509065530513594,1.915332417039275,8.937533300302116,0.8848383,-1.0290025,0.33200526,106.28361,-14.102819,-10.378011
2376090405000.0,-1.394120281328946,2.009739837342108,9.081250501114532,0.9034697,-1.0277808,0.33322698,106.28329,-14.328832,-10.052104
2376095381000.0,-1.338479030676149,2.121022338647702,9.339223433075045,0.9120218,-1.0647382,0.32650748,106.28802,-14.547734,-9.726259
2376100319000.0,-1.324349664609225,2.1883167753774293,9.474212107515225,0.906524,-1.0916162,0.33169982,106.27171,-14.779796,-9.384152
2376105445000.0,-1.3489175235465845,2.2169792774710158,9.4987800519643,0.8943067,-1.1239921,0.3390302,106.26067,-15.005038,-9.042758
2376110334000.0,-1.3777288643097103,2.261128370388738,9.538585413533836,0.904386,-1.1478158,0.3295618,106.249596,-15.241105,-8.676253
2376115344000.0,-1.446808757606783,2.429990256087026,9.69977180451128,0.92149025,-1.1829406,0.32925636,106.23834,-15.469245,-8.309691
2376120421000.0,-1.5168124738281874,2.6011103745880657,9.863113781954889,0.9129381,-1.2226468,0.3118467,106.22558,-15.695074,-7.9325776
2376125423000.0,-1.5695047061888363,2.673407794019572,9.87458603497644,0.91599244,-1.2476922,0.28955013,106.21711,-15.921565,-7.5638075
2376130370000.0,-1.6124336479521566,2.6905793886553098,9.80160657847046,0.9120218,-1.2476922,0.26939157,106.21496,-16.135994,-7.2055693
2376135436000.0,-1.6231505092535226,2.686176130858399,9.671865785150397,0.9166033,-1.2336423,0.24404067,106.19908,-16.375458,-6.854479
2376140402000.0,-1.589882924402918,2.6529085956330567,9.47226057379834,0.93676186,-1.2208142,0.21594086,106.19081,-16.610182,-6.5179224
2376145498000.0,-1.564679432828611,2.611926703669299,9.232286130376218,0.9755518,-1.1988231,0.20463985,106.16986,-16.85699,-6.1892548
2376150362000.0,-1.5516980878030655,2.5643281825359963,8.95967643896888,1.0161743,-1.1847731,0.19822577,106.15595,-17.102194,-5.875921
2376155798000.0,-1.545380550900712,2.5142187046501885,8.772531575827397,1.0864239,-1.131017,0.18692477,106.136116,-17.367348,-5.579739
2376160436000.0,-1.5546844818810222,2.477002737850859,8.823703317658149,1.1575897,-1.1096367,0.16982053,106.12205,-17.636875,-5.290897
2376165317000.0,-1.5483362963585705,2.545201054429285,9.097941520465028,1.2229522,-1.1093313,0.16035213,106.095276,-17.928284,-5.0096693
2376170406000.0,-1.510875574750192,2.821473662375096,9.805012793620293,1.2421945,-1.1575897,0.14660765,106.07759,-18.218826,-4.7331347
2376175403000.0,-1.5095149971459765,3.0459889930286965,10.313014948066126,1.2476922,-1.2330315,0.13775012,106.065025,-18.513168,-4.441182
2376180365000.0,-1.598448477401747,3.14974470709607,10.342659260917031,1.1398746,-1.2983941,0.122478485,106.06186,-18.772629,-4.150801
2376187031000.0,-1.7144381037394918,3.264925695468161,10.379551650497632,1.0604621,-1.3133603,0.1020145,106.053505,-19.043293,-3.836871
2376190671000.0,-1.717806501845589,2.911243683293072,10.349235786162916,1.0036516,-1.3078625,0.08735373,106.05246,-19.281874,-3.5239925
2376195392000.0,-1.7221752401584696,2.4525258867330177,10.309916776403515,0.98532563,-1.2983941,-0.0693332,106.09666,-19.528196,-3.2342608
2376200361000.0,-1.4940273962342685,2.2883509281339807,9.832447865523733,0.9615019,-1.3133603,-0.08002335,106.10743,-19.752518,-2.9377666
2376205423000.0,-1.1289186446140125,2.302763055633733,9.097426503716182,0.9443977,-1.0968086,-0.03145956,106.12034,-19.965258,-2.7251766
2376211555000.0,-0.4049817929038587,2.84912633672802,8.825978220592358,1.0283916,-1.1294898,-0.09193522,106.227615,-20.12136,-2.4405596
2376215483000.0,0.1362800370503598,3.3446972838643374,8.822463462487153,1.0751228,-1.1863003,-0.10842858,106.28954,-20.259512,-2.2058437
2376220499000.0,0.7288313196087446,4.004862274164879,8.958848057104914,1.1047498,-1.2030991,-0.09468412,106.31465,-20.452692,-1.9322323
2376225613000.0,1.2341490344621515,4.705302545816734,9.239024625498008,1.1172725,-1.1133019,-0.040011674,106.32744,-20.648773,-1.6792579
2376230359000.0,1.498836222557983,5.145321965932057,9.382909948513136,1.0821478,-0.95142263,0.02321288,106.28516,-20.942202,-1.3471926
2376235485000.0,1.6027718786257337,5.433507156000385,9.43487735723222,1.0381655,-0.81245077,0.118202426,106.21389,-21.229635,-1.0368493
2376240414000.0,1.664602931291659,5.6555698960547645,9.526361605566564,0.9984592,-0.6808093,0.19303341,106.141136,-21.606838,-0.70938265
2376245368000.0,1.681696596288957,5.813686475770131,9.667384609529815,1.0002918,-0.6762278,0.25259277,106.04763,-21.975433,-0.3858454
2376250399000.0,1.5768024974448074,5.867520907627322,9.72008813899737,1.0516045,-0.65576386,0.32711834,105.90577,-22.384348,-0.08674172
2376255397000.0,1.061798204613055,5.562333395712122,9.46830796365665,1.0980303,-0.6658431,0.40133846,105.75371,-22.783716,0.21749938
2376260311000.0,0.5554494461146091,5.262275085677851,9.22075938790149,1.1395692,-0.691194,0.4034765,105.59571,-23.20858,0.5240407
2376265380000.0,0.1347594728232093,4.938220251858568,9.130299638440617,1.1575897,-0.6927212,0.3662137,105.430664,-23.630274,0.8216111
2376270460000.0,-0.2445619533236627,4.60741645494107,9.10824608268359,1.2006557,-0.6423248,0.32559118,105.26626,-24.061352,1.1029472
2376275390000.0,-0.409073460228709,4.40152972753536,9.01674630815528,1.2260065,-0.6273586,0.28313604,105.062996,-24.433134,1.2938628
2376280363000.0,-0.3851866781121477,4.301205426221286,8.859093877420001,1.25319,-0.70402217,0.21044308,104.888306,-24.810905,1.4793861
2376285396000.0,-0.2748206443622123,4.283389489702185,8.745831482885322,1.2892311,-0.7174612,0.1414153,104.727196,-25.141273,1.5931515
2376290451000.0,-0.0829002161017211,4.344242217076001,8.675616741055888,1.2965615,-0.7318166,0.07819075,104.596275,-25.465332,1.713493
2376295402000.0,0.1863656674811817,4.500990174397817,8.632162468808806,1.2812898,-0.7165449,0.034513887,104.473625,-25.785614,1.8359011
2376300383000.0,0.5544095200617237,4.77477893797516,8.618697412307114,1.241889,-0.766025,-0.00580322,104.378654,-26.095203,1.9658409
2376305394000.0,0.8613414882028397,4.998712508569979,8.54001752636917,1.2333369,-0.7611381,-0.025045475,104.27928,-26.420708,2.1059518
2376310440000.0,1.0377800674969575,5.116338299746451,8.324370114604463,1.2076806,-0.7467828,-0.0720821,104.20401,-26.724419,2.2413776
2376315386000.0,1.1952954896892334,5.252067730643568,8.14849066470633,1.1930199,-0.729984,-0.105374254,104.12668,-27.069311,2.4165435
2376320404000.0,1.326746805698655,5.427336088443128,8.035296579712789,1.1624765,-0.6600399,-0.13408493,104.05213,-27.396078,2.5618312
2376325731000.0,1.4662926726540535,5.613397176924246,7.915132193351569,1.1242975,-0.5876524,-0.13836098,103.99142,-27.753792,2.7304418
2376330367000.0,1.6399076000500876,5.853467587002254,7.819756663410969,1.1151345,-0.5345071,-0.12767084,103.92726,-28.104416,2.878142
2376335440000.0,1.8467479419484096,6.141421764387679,7.718364506686702,1.1136073,-0.49418998,-0.10293079,103.85251,-28.439747,3.0066807
2376341336000.0,1.946433724266472,6.412475690518952,7.618472536493683,1.1175779,-0.46303585,-0.14294247,103.792435,-28.82435,3.1432614
2376345413000.0,1.8893568736765165,6.542937136274408,7.565472387908531,1.0995574,-0.42271876,-0.1301143,103.705765,-29.194141,3.2730927
2376350314000.0,1.7921739704365078,6.704106909027778,7.495551842063493,1.0690142,-0.3735441,-0.11881329,103.637924,-29.625696,3.4142945
2376355421000.0,1.646612209583333,6.878780849791667,7.413066901666666,1.0351112,-0.3222314,-0.10415252,103.559364,-30.043287,3.542961
2376360312000.0,1.4931987583345836,6.989630512228057,7.372702855573893,1.040609,-0.2941316,-0.0983493,103.453896,-30.484175,3.6543105
2376365328000.0,1.3130139912828207,7.011252745986497,7.394324938814703,1.0451905,-0.25961772,-0.077579886,103.332596,-30.907234,3.7521017
2376370337000.0,1.133080678252063,7.032844805176294,7.4159168476969235,1.0656544,-0.22296582,-0.04886922,103.16788,-31.359703,3.8231947
2376375409000.0,0.8365542970200903,6.779869257810248,7.455672220993944,1.102001,-0.21533,-0.027794369,102.99995,-31.810331,3.8918538
2376380405000.0,0.5008109275843508,6.425729072863597,7.501664427857347,1.135293,-0.19608775,0.032070424,102.80933,-32.257107,3.956219
2376385455000.0,0.2397479861714511,6.307770453388576,7.53960326579856,1.1911873,-0.22357668,0.016493361,102.6006,-32.70694,3.9748044
2376390417000.0,0.0241097063845318,6.317145975436519,7.572417862188024,1.2394456,-0.25350907,0.01160644,102.37515,-33.1557,3.998341
2376395367000.0,-0.1629245803697229,6.348987628957259,7.638848880902019,1.2757921,-0.30726522,0.01985312,102.14913,-33.54316,3.98091
2376400356000.0,-0.3341444309081374,6.39492462810069,7.726546962782973,1.3118331,-0.35155296,0.017715093,101.93411,-33.939117,3.9660282
2376405436000.0,-0.4983378480565371,6.39492254821889,7.779721078884538,1.3246613,-0.41538838,0.020463986,101.72881,-34.331608,3.9406426
2376410487000.0,-0.6415472625795053,6.302529478703085,7.76124255180976,1.352761,-0.45204028,0.00030543262,101.53593,-34.73316,3.9156377
2376415454000.0,-0.7335728110838947,6.330867634415187,7.661029264543784,1.3878858,-0.47983465,-0.016187929,101.34178,-35.130013,3.877885
2376420456000.0,-0.6797929386813636,6.7171047374158,7.31390435047969,1.4019357,-0.48808134,-0.034513887,101.15897,-35.522717,3.841296
2376425339000.0,-0.641646,6.92308824065846,7.10307027256173,1.3726143,-0.4868596,-0.0036651916,100.996346,-35.901287,3.8094492
2376430318000.0,-0.641646,6.669548015368927,7.235050220190836,1.3933836,-0.5491679,-0.053450707,100.8706,-36.29326,3.7781208
2376435400000.0,-0.641646,6.410762832617088,7.369760421807852,1.4401149,-0.58001655,-0.07849618,100.692894,-36.76663,3.7528644
2376440429000.0,-0.5674532808045978,6.395007497126437,7.425419276628352,1.4312572,-0.6020077,-0.08460484,100.53326,-37.222404,3.7344518
2376446253000.0,-0.4071793948275862,6.61761023275862,7.412063126436782,1.4285084,-0.6197228,-0.10415252,100.38847,-37.68557,3.715092
2376450528000.0,-0.2936025424264765,6.776744733808799,7.399593129273179,1.423316,-0.6432411,-0.11178834,100.2667,-38.06666,3.7111382
2376455390000.0,-0.2339023253385688,6.884951253578011,7.339893036861928,1.4312572,-0.65057147,-0.10934488,100.148506,-38.44386,3.7052033
2376460379000.0,-0.1726426825883484,6.995984229128937,7.278633522045036,1.4416419,-0.66767573,-0.108123146,99.99544,-38.840157,3.721599
2376465378000.0,-0.113329696335267,7.104120740228046,7.216793725845169,1.4563028,-0.6844745,-0.11759156,99.84802,-39.233185,3.7368426
2376470452000.0,-0.0550067713182636,7.211046231326265,7.153610550310062,1.4782939,-0.68844515,-0.116980694,99.70129,-39.62409,3.7537498
2376475442000.0,1.352947487386416e-05,7.269671992492432,7.057204194369324,1.5036448,-0.7021896,-0.10354166,99.5517,-40.041622,3.7865248
2376480372000.0,0.0524202125041372,7.2887290542482335,6.933333740686176,1.534799,-0.70829827,-0.10140363,99.40593,-40.459927,3.8147323
2376485422000.0,0.1270950163146314,7.334723124612461,6.740646790929094,1.5610662,-0.73456544,-0.08399397,99.25651,-40.89668,3.8548064
2376490427000.0,0.2181747619471946,7.401834373237324,6.496169484548455,1.5900823,-0.7348709,-0.06658431,99.10483,-41.335262,3.8890147
2376495429000.0,0.2610986696455648,7.469475376042456,6.359956217266869,1.6187929,-0.73884153,-0.058948494,98.94682,-41.79074,3.943933
2376500426000.0,0.265633868613533,7.537503147460197,6.31006923224981,1.6569719,-0.768163,-0.04520403,98.790855,-42.24858,4.0059776
2376505250000.0,0.2638810537408977,7.5880626632974675,6.21193783019237,1.6694947,-0.76144356,-0.03023783,98.61557,-42.737885,4.07501
2376510272000.0,0.2534268063916965,7.619425465384197,6.039442855363547,1.6801848,-0.75319684,-0.010995574,98.44384,-43.228497,4.1499314
2376515205000.0,0.2463784988088507,7.761020167657667,5.87994090578029,1.6933185,-0.75686204,-0.023518313,98.27306,-43.73013,4.213913
2376520247000.0,0.2416717851739935,7.991649278292232,5.724619095350424,1.7076738,-0.7339546,0.004581489,98.08509,-44.224964,4.279369
2376525204000.0,0.2764386635560956,8.11431748764682,5.605893792932362,1.7131716,-0.68966687,0.0009162979,97.89739,-44.740158,4.34146
2376530206000.0,0.3491956202349129,8.138569793033618,5.518585392243824,1.715615,-0.6957755,-0.03604105,97.71861,-45.250088,4.4047127
2376535249000.0,0.400426345881343,8.221757630675315,5.430829527680275,1.72264,-0.71959925,-0.053450707,97.517975,-45.805885,4.469849
2376540215000.0,0.432180358588325,8.353310210606638,5.344640201983975,1.7366899,-0.6960809,-0.02076942,97.30876,-46.354458,4.5267763
2376545204000.0,0.4521916359291683,8.40260944190211,5.260585147045364,1.704314,-0.6728681,-0.017104227,97.11855,-46.899673,4.5849347
2376550223000.0,0.4569733668483883,8.34522847115002,5.179295371906089,1.6939293,-0.66798115,-0.030848695,96.92638,-47.445248,4.6422048
2376555272000.0,0.4576167568290287,8.304388150545027,5.087628655082,1.7003434,-0.6627888,-0.034208454,96.718216,-48.006775,4.705679
2376560293000.0,0.4528946599224197,8.28549986153393,4.983742671059609,1.6865989,-0.6560693,-0.03634648,96.51349,-48.55054,4.762484
2376565258000.0,0.4631555087958827,8.251997076131289,4.894523892464556,1.6652187,-0.6762278,-0.03940081,96.31917,-49.090702,4.8263826
2376570296000.0,0.4959517293416197,8.195774796465335,4.824246287492717,1.6511687,-0.66156703,-0.04184427,96.11839,-49.620033,4.8794374
2376575297000.0,0.515416494215869,8.166363146985706,4.75632305058007,1.6190983,-0.6719518,-0.043066,95.92748,-50.143074,4.94517
2376580259000.0,0.5104941737683861,8.186052325978869,4.69233273056764,1.5824465,-0.677755,-0.043982297,95.73504,-50.65215,5.004116
2376585294000.0,0.4979143933822677,8.205471035348658,4.636946559551864,1.5586227,-0.6942484,-0.054061573,95.56497,-51.15762,5.0861316
2376590351000.0,0.4745273508315626,8.224180567799884,4.5948498429109526,1.525636,-0.70341134,-0.065973446,95.39711,-51.641743,5.1636767
2376595291000.0,0.4469715193029722,8.236053,4.522044119932886,1.4837917,-0.7141015,-0.07452556,95.2428,-52.122112,5.2387214
2376600276000.0,0.4103537692598274,8.236053,4.389304945100672,1.4416419,-0.71685034,-0.086132,95.09293,-52.585495,5.307234
2376605349000.0,0.3856791472889334,8.237356469504256,4.214809865898848,1.4071281,-0.7287622,-0.112704635,94.95453,-53.043194,5.3797984
2376610315000.0,0.3952051239459189,8.242119552328493,3.938556532899349,1.389413,-0.7199047,-0.13194689,94.81424,-53.486103,5.4448323
2376615358000.0,0.4130901277588407,8.229937260845789,3.70598327096245,1.3518448,-0.7119634,-0.13836098,94.696655,-53.93379,5.509593
2376620311000.0,0.4519987460882246,8.173736149471381,3.6022269493984687,1.3252722,-0.70646566,-0.1695151,94.58574,-54.3738,5.5599337
2376625310000.0,0.4995333967850661,8.119629805548353,3.500304180891885,1.3084733,-0.7150178,-0.19547687,94.48779,-54.847775,5.6249475
2376630302000.0,0.6524047575317604,8.09897152813067,3.434197736297641,1.2983941,-0.7144069,-0.21746802,94.391,-55.309456,5.6779056
2376636645000.0,0.8469694623222306,8.072679019086825,3.3523376835422902,1.3072516,-0.72051555,-0.24831672,94.30819,-55.77892,5.7326465
2376640462000.0,0.9735154047155689,8.055578230538922,3.3660182786676645,1.3041973,-0.7324274,-0.27397305,94.22887,-56.235344,5.7810926
2376645304000.0,1.134043424906437,8.033885273203593,3.3833725992327843,1.2993103,-0.73945236,-0.29077184,94.15228,-56.69706,5.8526287
2376650302000.0,1.2896250429787233,8.059009102978722,3.404208405106383,1.2794572,-0.7593055,-0.30207285,94.08415,-57.14709,5.919556
2376655311000.0,1.4393193040189125,8.113443315130024,3.426889346572104,1.280679,-0.8155051,-0.33475417,94.031715,-57.59621,5.9804006
2376660324000.0,1.5572499604049015,8.166235074054342,3.4873781023122,1.2904528,-0.88086766,-0.35643986,94.00535,-58.033836,6.067808
2376665331000.0,1.6441086328183272,8.21732808124667,3.584455429515184,1.2684617,-0.93767816,-0.37904188,93.99388,-58.457214,6.1498446
2376670305000.0,1.6861819001192302,8.238613228495998,3.699398479390223,1.2428054,-1.0002918,-0.41172317,94.0161,-58.881744,6.259118
2376675313000.0,1.7025200416283428,8.242697849173906,3.826019161386476,1.2217305,-1.0607675,-0.4361578,94.05104,-59.294323,6.3672423
2376680313000.0,1.6836236152907098,8.241453955100353,3.973987437306021,1.1921035,-1.1527027,-0.46303585,94.131805,-59.686085,6.4869585
2376686378000.0,1.551424811545624,8.223427113594042,4.2203578268156425,1.1582005,-1.2800682,-0.50335294,94.237915,-60.065323,6.604771
2376690398000.0,1.4489673235155305,8.214671739524205,4.292851360533197,1.067487,-1.4022411,-0.514654,94.380325,-60.39255,6.733847
2376695303000.0,1.3021634796798265,8.208679624593406,4.247911343217042,1.0106765,-1.4758505,-0.52626044,94.54261,-60.71495,6.8573837
2376701383000.0,1.1201925580649277,8.201252089674087,4.1922058783277,0.8949176,-1.5140295,-0.5497787,94.74745,-60.96221,6.9643717
2376705459000.0,1.0129481498842816,8.159692804050145,4.118576178833173,0.77121735,-1.5671748,-0.5861252,94.97113,-61.187,7.0715985
2376710430000.0,0.9249583579893924,8.002841695371263,3.9234684634763743,0.66981375,-1.6514742,-0.6420194,95.21136,-61.38348,7.172012
2376715308000.0,0.8386147239392479,7.848925037126325,3.732010922637416,0.5696318,-1.7424932,-0.7110472,95.479935,-61.56361,7.2392573
2376720504000.0,0.7939778272758937,7.724894613272228,3.473644792144821,0.4801401,-1.8011361,-0.7816021,95.76153,-61.718056,7.2952065
2376725466000.0,0.7678439329294225,7.620358963116407,3.2079503406141154,0.4111123,-1.8170186,-0.86070913,96.05733,-61.85182,7.334745
2376730363000.0,0.7496655920502092,7.526939196304045,2.9897769846582984,0.35430184,-1.8118263,-0.94989544,96.39027,-62.00023,7.3571544
2376736499000.0,0.7342986347280335,7.419370388075314,2.759272410878661,0.31490102,-1.8139644,-1.0433578,96.73051,-62.136143,7.3594365
2376740322000.0,0.7413130343521663,7.347189595255737,2.6231501881239065,0.27366763,-1.8161024,-1.1456778,97.1157,-62.3136,7.3447967
2376745388000.0,0.7962350538437789,7.237345816949676,2.463377140043223,0.22602014,-1.8145752,-1.2318097,97.50007,-62.47924,7.309214
2376750308000.0,0.8429538130261255,7.13832467383592,2.336351362286706,0.19333886,-1.7928895,-1.2733486,97.89486,-62.671875,7.255513
2376755457000.0,0.8762302915125807,7.052756513968959,2.269798365603008,0.17073683,-1.779756,-1.378112,98.299576,-62.8601,7.1647797
2376760312000.0,0.9077250284024684,6.969491642312308,2.18992222155468,0.1301143,-1.7486018,-1.459968,98.68378,-63.047157,7.0736732
2376765378000.0,0.940989405591361,6.873856564406926,2.0485485620586217,0.10323623,-1.7033978,-1.5384641,99.062225,-63.233566,6.954544
2376771328000.0,0.9882871483472512,6.760167703096729,1.8569407950417536,0.06352998,-1.6554449,-1.6441438,99.46288,-63.421543,6.822919
2376775444000.0,1.0842951397877525,6.671017348608212,1.5277705693632568,0.05497787,-1.6423112,-1.6835446,99.85062,-63.6055,6.689356
2376780400000.0,1.199896598869172,6.563673044224077,1.1314227466075155,0.056505036,-1.638646,-1.752267,100.26271,-63.814735,6.5293097
2376785496000.0,1.2909227821453846,6.561618199413608,0.8420831769083005,0.05681047,-1.6404786,-1.806634,100.663506,-64.01659,6.365154
2376790486000.0,1.3633951286219794,6.624427673986452,0.6294976238802952,0.070249505,-1.6062702,-1.8035797,101.04309,-64.21664,6.1970844
2376795412000.0,1.4141601887644206,6.773920077077412,0.4686758942384217,0.09040806,-1.5815301,-1.8500054,101.4459,-64.50498,6.035741
2376800332000.0,1.453549802541381,6.970868351613443,0.3347511086841665,0.16493362,-1.6053538,-1.8985692,101.839424,-64.80587,5.878376
2376805317000.0,1.4898217637527504,7.205312637477496,0.2125097040002,0.22632557,-1.6187929,-1.9388863,102.27127,-65.168915,5.7053213
2376810362000.0,1.513984074214843,7.562914983696739,0.1351902570338067,0.29535335,-1.6933185,-1.983174,102.71822,-65.55146,5.5298233
2376815303000.0,1.5289909575707838,7.889894744255232,0.0711177127150184,0.37934732,-1.7119498,-2.0247128,103.17542,-66.013916,5.3322043
2376820441000.0,1.5138476671317194,8.147330787135823,0.0458788773957734,0.41263947,-1.6969837,-2.042428,103.63147,-66.47419,5.1344156
2376825399000.0,1.5021010664799257,8.418442242763772,0.0622537137908496,0.45142943,-1.6655241,-2.0427334,104.108025,-67.01116,4.927048
2376830367000.0,1.4971651247432307,8.744214500466853,0.1757804510457516,0.4783075,-1.6447546,-2.0332649,104.56968,-67.54369,4.7167373
2376835427000.0,1.4859426589778382,9.032025780491482,0.299911567581788,0.49357912,-1.645671,-2.021964,105.030945,-68.10676,4.503009
2376840445000.0,1.4642075244685662,9.242132307703905,0.4375675216041007,0.50488013,-1.6362026,-2.021353,105.46956,-68.66385,4.284934
2376845368000.0,1.4428838761646314,9.448261130634704,0.5726173943924318,0.49357912,-1.6313156,-2.019215,105.922226,-69.21374,4.0512404
2376850424000.0,1.463776365744322,9.697149639492215,0.7832618039710404,0.47708577,-1.6209309,-2.0222695,106.35733,-69.75138,3.814645
2376855435000.0,1.5018518153525735,9.958918355548944,1.0212335429336503,0.4428773,-1.6120734,-2.0109684,106.77623,-70.26606,3.582375
2376860401000.0,1.5744101708158889,10.16244704707444,1.244942820402328,0.3753767,-1.5971072,-2.0030272,107.206116,-70.74326,3.3348165
2376865326000.0,1.6611031459001329,10.340649770958848,1.461675107239865,0.2837469,-1.568702,-1.9953914,107.61602,-71.18876,3.0894575
2376870388000.0,1.6911361243515046,10.368363326602283,1.562039129124431,0.16523905,-1.5222762,-1.996613,108.049515,-71.5679,2.8269975
2376875334000.0,1.6986972789209034,10.3381184714662,1.6149672900630536,0.0571159,-1.4251486,-1.9947804,108.44919,-71.90918,2.5633166
2376880452000.0,1.7282311633652825,10.31309921086262,1.6534219397231096,-0.05100725,-1.3524556,-1.9819523,108.88099,-72.17688,2.2971559
2376885407000.0,1.824708548881789,10.308505437990124,1.6396394218123729,-0.14355333,-1.3274102,-1.9685133,109.29005,-72.40553,2.0318809
2376890426000.0,1.9082686218424512,10.302988864394782,1.5667845223126706,-0.22143865,-1.3063353,-1.9633209,109.70536,-72.58533,1.7579293
2376895370000.0,1.9226323691980989,10.293412332895135,1.2124785292294469,-0.2910773,-1.2944235,-1.9624046,110.107895,-72.73005,1.4906296
2376900419000.0,1.9088205493880048,10.30315503488372,0.9217823023867808,-0.33292156,-1.2647965,-1.9703459,110.52719,-72.854904,1.2190725
2376905398000.0,1.7754183913096695,10.39486953820598,0.9342887424637174,-0.34330627,-1.2263119,-1.9950858,110.93571,-72.95952,0.9471068
2376910457000.0,1.6398727962668298,10.488057662790698,0.9469961295593636,-0.33108896,-1.1655309,-2.012801,111.330086,-73.122734,0.6615799
2376915360000.0,1.5316976365134432,10.570303411188204,0.988871340624458,-0.31764993,-1.1010846,-2.022575,111.70824,-73.27252,0.37317
2376920421000.0,1.42240242254987,10.654376365698178,1.0351116521552473,-0.3115413,-1.0360274,-2.0250182,112.064415,-73.41287,0.08224915
2376925589000.0,1.3539613537775936,10.794386408954296,1.188354802549487,-0.32375857,-0.96486163,-2.0265455,112.40497,-73.545944,-0.23760585
2376930362000.0,1.316063120395896,10.95545425945694,1.3920581717898228,-0.34972036,-0.9053023,-2.0234911,112.7248,-73.6649,-0.5551186
2376935410000.0,1.1450279191843702,10.998191678679818,1.6014783867128226,-0.36865717,-0.89461213,-2.0045543,113.04596,-73.76289,-0.8929997
2376940535000.0,0.9029737220106222,10.97491725720789,1.8109483257776933,-0.39920044,-0.90194255,-2.010663,113.35223,-73.83765,-1.2333778
2376945371000.0,0.6894180089698367,10.963273507994066,1.9244235294873908,-0.41599923,-0.93309665,-2.0216584,113.67507,-73.86198,-1.5776057
2376950366000.0,0.4804748866441403,10.95933110524147,1.975673736138124,-0.43066,-0.9263771,-2.0463986,113.98654,-73.867,-1.9222836
2376956359000.0,0.2549913223933269,10.928761870067373,2.042883108116779,-0.4783075,-0.90377516,-2.0405953,114.31206,-73.79511,-2.2965064
2376960330000.0,0.1512855934680782,10.861658085178057,2.09778616430863,-0.5177083,-0.88025683,-2.0216584,114.63193,-73.71196,-2.6654983
2376965319000.0,0.0209940090792428,10.777351667949953,2.16676409111325,-0.5458081,-0.86193085,-2.0091357,114.94908,-73.5816,-3.0790741
2376970461000.0,-0.176285245792944,10.658752268574537,2.254218634640745,-0.5751296,-0.8539896,-1.9981402,115.257164,-73.43268,-3.4787002
2376975446000.0,-0.4034504115056759,10.525698752158249,2.34832988407994,-0.59986967,-0.87017757,-2.0076087,115.563576,-73.26987,-3.87004
2376980306000.0,-0.6249193594222011,10.395981582693222,2.4400812727007,-0.6123924,-0.8866709,-2.0622811,115.87687,-73.059784,-4.294454
2376985453000.0,-0.7538440154641819,10.358290617968883,2.473697029312703,-0.636827,-0.89675015,-2.0775528,116.18672,-72.83682,-4.6991005
2376990423000.0,-0.8311510526500256,10.366427941442982,2.477765860993332,-0.64812803,-0.8854492,-2.0631974,116.49343,-72.60823,-5.1002197
2376995362000.0,-0.8921994566477873,10.349415370452146,2.5026595132955745,-0.6591236,-0.8530733,-2.0610592,116.80625,-72.31105,-5.556633
2377000402000.0,-0.9246339153211096,10.284546114428338,2.5675284306422195,-0.66737026,-0.84513205,-2.0555615,117.117256,-72.0112,-5.99449
2377005395000.0,-0.9348883696534754,10.237606,2.6329699628255074,-0.6795876,-0.84604836,-2.0500638,117.42874,-71.69231,-6.4486523
2377011444000.0,-0.8754972547826533,10.237606,2.71611748023375,-0.6945538,-0.87995136,-2.0314324,117.74185,-71.37182,-6.883052
2377015361000.0,-0.8429974101947149,10.219966850556329,2.75995709596662,-0.7058548,-0.91507614,-2.0143282,118.08074,-71.01882,-7.3286157
2377020438000.0,-0.8125667265994436,10.162486772426982,2.797150181154381,-0.7199047,-0.9651671,-1.9905044,118.427666,-70.66533,-7.750866
2377026120000.0,-0.7785097748191934,10.098157088769124,2.8387753751738525,-0.73364913,-0.99082345,-1.9556851,118.79324,-70.29689,-8.156523
2377030329000.0,-0.7516138325320372,10.034841183429076,2.872051834334953,-0.745561,-1.033584,-1.9193386,119.17215,-69.93173,-8.538068
2377035419000.0,-0.7171492018647813,9.940063494078656,2.915132622669024,-0.75777835,-1.0519099,-1.8790215,119.54487,-69.57183,-8.898075
2377040481000.0,-0.693333221896041,9.84572925740641,2.94902264635066,-0.768163,-1.0564915,-1.8322903,119.943535,-69.198364,-9.240435
2377045370000.0,-0.7122482401562079,9.754306734985189,2.9458701433072987,-0.7657196,-1.0598512,-1.8081611,120.34252,-68.832695,-9.566434
2377050320000.0,-0.7313992608941557,9.661743534742795,2.942678306517641,-0.77488256,-1.0555751,-1.7559321,120.74878,-68.45625,-9.867679
2377055319000.0,-0.7498776538884281,9.559441047438822,2.934306222366238,-0.7733554,-1.0516045,-1.7009543,121.15093,-68.09303,-10.152041
2377060514000.0,-0.7653541104935712,9.414994568021568,2.903353470759021,-0.7635816,-1.031446,-1.6575829,121.540924,-67.7415,-10.418567
2377065299000.0,-0.7709684976896748,9.298033606246436,2.864795625641757,-0.7476991,-0.9957104,-1.6114625,121.927956,-67.38834,-10.67887
2377070419000.0,-0.7523210955219624,9.21878191581099,2.794867904021677,-0.7257079,-0.95569867,-1.5726726,122.30217,-67.05061,-10.923783
2377075386000.0,-0.7380582033628318,9.14576544955752,2.7389667,-0.69058317,-0.8732319,-1.5265522,122.65664,-66.72042,-11.168918
2377080391000.0,-0.7417466900115429,9.090438149826856,2.7389667,-0.67011917,-0.79351395,-1.488984,122.99549,-66.4024,-11.402365
2377087197000.0,-0.7467624422854945,9.015201865717584,2.7389667,-0.6206391,-0.66859204,-1.4306464,123.298706,-66.1174,-11.631526
2377090509000.0,-0.7683919057616079,9.003749740857915,2.8299209311901,-0.5644395,-0.6215554,-1.4037683,123.598724,-65.84523,-11.852804
2377096486000.0,-0.8110014365534568,8.987771401786546,3.0110113508514003,-0.54092115,-0.5335908,-1.35551,123.84316,-65.59339,-12.063855
2377100389000.0,-0.8293439220170268,8.977306326129666,3.100922215455141,-0.4990769,-0.45845437,-1.3051136,124.08449,-65.35646,-12.2749815
2377105418000.0,-0.8428611250070165,8.963788859668819,3.186531142632613,-0.46273044,-0.3894266,-1.2516629,124.29631,-65.13565,-12.475546
2377110320000.0,-0.8618121297535211,8.943890022923254,3.2683329668439205,-0.43676865,-0.31703907,-1.1933253,124.50184,-64.89718,-12.674929
2377115363000.0,-0.8965173809859155,8.90571419402127,3.34815507548146,-0.38789943,-0.25503623,-1.1328496,124.68387,-64.68582,-12.860696
2377120423000.0,-0.931339623943662,8.867409674044266,3.428246265191147,-0.39187005,-0.22907446,-1.0659598,124.86173,-64.46023,-13.03369
2377125480000.0,-0.9897304128057628,8.833359271558873,3.508430576388889,-0.37018433,-0.2144137,-1.0085385,125.01886,-64.264595,-13.194112
2377130412000.0,-1.0680601372460614,8.803986062603649,3.5867603263888888,-0.35827246,-0.21563543,-0.95142263,125.16464,-64.07962,-13.333848
2377136544000.0,-1.179588213552759,8.750679983543078,3.620033,-0.34208453,-0.2125811,-0.8750645,125.315674,-63.883812,-13.465904
2377140439000.0,-1.2550910215260054,8.711287112822317,3.620033,-0.3100141,-0.21685717,-0.84207773,125.46629,-63.700947,-13.589738
2377145316000.0,-1.3529395050920687,8.640973244213559,3.595815616315194,-0.29443705,-0.21930063,-0.77121735,125.61137,-63.511345,-13.699453
2377150322000.0,-1.461437821890752,8.517679702396872,3.5119759048863286,-0.26175576,-0.19975294,-0.6783658,125.74405,-63.34601,-13.793444
2377155430000.0,-1.5502485134050246,8.422472900713823,3.452329155539075,-0.22052236,-0.16401732,-0.6087272,125.87355,-63.180157,-13.899802
2377160436000.0,-1.5991366722443685,8.382473628812459,3.438996033966812,-0.16493362,-0.15668693,-0.5555819,125.99545,-63.04074,-13.982442
2377165326000.0,-1.6599335024720705,8.332273036367958,3.429216141288329,-0.09865474,-0.14019357,-0.49327368,126.097244,-62.917507,-14.078678
2377170511000.0,-1.7818991552333412,8.22997887346486,3.433150513208145,-0.03726278,-0.11911872,-0.43982297,126.18964,-62.815804,-14.162342
2377175413000.0,-1.897207859155376,8.133267979240948,3.436870145059821,0.040011674,-0.093462385,-0.3811799,126.27328,-62.736343,-14.244885
2377180330000.0,-1.9763858612797371,8.054873451845776,3.443307450828548,0.12217305,-0.0720821,-0.3203988,126.34505,-62.68298,-14.312949
2377185435000.0,-2.0405560044298605,7.982682302543068,3.4513287082526665,0.1908954,-0.056505036,-0.26358834,126.40435,-62.654408,-14.367456
2377190418000.0,-2.1080456596808967,7.908025486589047,3.4623026149202243,0.24404067,-0.047647487,-0.20555615,126.46097,-62.620544,-14.44498
2377195362000.0,-2.1897148260457096,7.821251997326433,3.482719906511427,0.2950479,-0.042455133,-0.14477506,126.50689,-62.612213,-14.506804
2377200381000.0,-2.248302198362293,7.753963991132414,3.4937020504094267,0.3399465,-0.023518313,-0.098043874,126.547066,-62.60025,-14.580994
2377205468000.0,-2.26776182752147,7.719909741701618,3.4888371431196323,0.3830125,-0.025350908,-0.039095376,126.58258,-62.611267,-14.633108
2377210313000.0,-2.281888027247754,7.694536891038681,3.4794374978394838,0.41386122,-0.01740966,0.01038471,126.617546,-62.61438,-14.699448
2377215408000.0,-2.28913333740441,7.680046119414953,3.4613241278788327,0.45265114,-0.021991149,0.06780604,126.64843,-62.63959,-14.745683
2377220414000.0,-2.2962520857153463,7.665808474125771,3.4435271641844234,0.4990769,-0.015271631,0.12370021,126.67218,-62.67376,-14.788862
2377225381000.0,-2.2885227822347267,7.671356317765274,3.4281628822347265,0.5366451,-0.013439035,0.17745635,126.69212,-62.722702,-14.815999
2377230413000.0,-2.2739959159967844,7.685883184003216,3.4136360159967847,0.59528816,-0.020158553,0.23579398,126.705696,-62.79587,-14.826862
2377235473000.0,-2.2697031,7.73609280005751,3.3896645762963677,0.64934975,-0.03359759,0.28038713,126.71648,-62.881187,-14.831577
2377240461000.0,-2.2697031,7.800193835234353,3.362192710907697,0.6927212,-0.073303826,0.30543262,126.73223,-62.98186,-14.822758
2377245374000.0,-2.2572211061803533,7.8841646433224755,3.369357301774387,0.7247916,-0.1432479,0.34972036,126.753914,-63.10566,-14.790096
2377250470000.0,-2.2363042234099093,7.984565802931596,3.398640955126007,0.75869465,-0.22999077,0.39064834,126.78922,-63.240753,-14.746344
2377255402000.0,-2.2122890995301003,8.058859087552086,3.407007374412625,0.7770206,-0.31337386,0.4266894,126.83879,-63.394577,-14.684297
2377260394000.0,-2.1783801461831724,8.07581369700328,3.3646211827289654,0.7883216,-0.3463606,0.46273044,126.89439,-63.557816,-14.609043
2377265609000.0,-2.1413757268852462,8.0872049113805,3.324246022113891,0.81214535,-0.31429017,0.505491,126.94835,-63.738663,-14.511787
2377270398000.0,-2.085975632786885,8.012019222864538,3.340074638136324,0.85062987,-0.23060162,0.5488624,126.993706,-63.9277,-14.409032
2377275326000.0,-2.0289675593442627,7.934651281121656,3.356362677342537,0.8793405,-0.14110987,0.5833763,127.02403,-64.13802,-14.294419
2377280385000.0,-1.9735557624709488,7.869737661429767,3.3645904010411827,0.91782504,-0.042455133,0.6243043,127.0246,-64.36325,-14.17894
2377285479000.0,-1.919134349456168,7.810781181965232,3.369125467490936,0.95630956,0.043676864,0.6612616,127.00205,-64.5955,-14.065862
2377290457000.0,-1.8828919608012569,7.788607203456402,3.34440446598586,1.0030408,0.106901415,0.7098254,126.96503,-64.83747,-13.940517
2377295337000.0,-1.8599467604870383,7.793196339355852,3.2985139695208168,1.0418307,0.16340645,0.7583892,126.903885,-65.08768,-13.816019
2377300326000.0,-1.8600205194875776,7.8329507490780275,3.2074262225446426,1.0607675,0.2434298,0.8023715,126.82292,-65.34615,-13.682627
2377305406000.0,-1.883627926319876,7.908494303037655,3.0705032136160715,1.0534371,0.30970868,0.84757555,126.726906,-65.61022,-13.542896
2377310388000.0,-1.8824139551440329,8.006223436899862,2.9354686001371744,1.0412198,0.35369098,0.8784242,126.608925,-65.88923,-13.398145
2377315448000.0,-1.851734241310541,8.134055577872745,2.7974097811016145,1.0048733,0.34269542,0.89675015,126.48678,-66.160385,-13.248555
2377320435000.0,-1.8240577117530776,8.24692658531764,2.6385905547488546,1.0005972,0.30848694,0.88300574,126.34839,-66.45984,-13.106476
2377325394000.0,-1.798453604717405,8.349343592730703,2.463629112112499,1.010982,0.30176744,0.8689558,126.20622,-66.75112,-12.96393
2377330382000.0,-1.7876661574461692,8.416418952328492,2.252211869394092,1.0558805,0.31429017,0.8585711,126.05567,-67.079445,-12.813843
2377335400000.0,-1.806917587551327,8.411605994291437,1.9682530240660991,1.0968086,0.37568212,0.8573494,125.89674,-67.40211,-12.671604
2377340535000.0,-1.7932431702564615,8.373303334702465,1.6829122773993188,1.1316279,0.45998153,0.8530733,125.711075,-67.77548,-12.52639
2377345378000.0,-1.7235470051292323,8.28037469404929,1.422713247986375,1.1972959,0.5665775,0.8378017,125.50672,-68.156235,-12.394138
2377351172000.0,-1.6150093864947337,8.212212841421401,1.207488389969485,1.2739595,0.66614854,0.81092364,125.26005,-68.5838,-12.280681
2377355389000.0,-1.5116507953637168,8.20426201771828,1.1438830871542474,1.3634512,0.75686204,0.79229224,124.990715,-69.01965,-12.178509
2377360315000.0,-1.3986229142061282,8.22062108356546,1.091756,1.4566082,0.82741696,0.7620544,124.68552,-69.50651,-12.08375
2377365321000.0,-1.3021760725162488,8.298520857938719,1.091756,1.5500705,0.8762862,0.73761976,124.36631,-70.00119,-11.997928
2377370421000.0,-1.203918203435469,8.377883392757662,1.091756,1.59558,0.8979719,0.71593404,124.03369,-70.52175,-11.893871
2377375421000.0,-1.0773012487309352,8.650474917985612,1.195756902829736,1.6349808,0.88056225,0.6795876,123.70568,-71.043175,-11.80071
2377380351000.0,-0.9414345913496404,8.990141277697841,1.336152426091127,1.6930131,0.86345804,0.6563747,123.376236,-71.56478,-11.710862
2377385444000.0,-0.849729071743055,9.149850983261764,1.4050026055560425,1.7394388,0.84116143,0.6236934,123.05597,-72.09666,-11.598874
2377390400000.0,-0.7873383868810797,9.199763214968014,1.429958895136272,1.781894,0.81000733,0.602924,122.7477,-72.62474,-11.487881
2377395543000.0,-0.7089291695308895,9.23838474980774,1.4080361629069469,1.7974709,0.79198676,0.591623,122.44957,-73.16275,-11.332744
2377400364000.0,-0.6142461960574211,9.25416556395796,1.3133531729556525,1.8185458,0.8060367,0.57910025,122.15628,-73.69271,-11.184398
2377405554000.0,-0.5113524912237547,9.279662465343057,1.21977292024071,1.8255708,0.83016586,0.5720753,121.869644,-74.21955,-11.01837
2377411527000.0,-0.3706458800834578,9.505797947026268,1.305201879987701,1.8161024,0.83291477,0.5833763,121.58823,-74.7346,-10.85137
2377415308000.0,-0.2815764515347447,9.648945152156724,1.359279713036985,1.7736472,0.83260936,0.57879484,121.295006,-75.26284,-10.667279
2377421290000.0,-0.2741672194666159,10.028518659205638,1.3706700679493284,1.7482964,0.829555,0.5662721,121.005005,-75.77876,-10.483714
2377425587000.0,-0.2976846280245737,10.334245359272312,1.3628309795123346,1.7498235,0.8707884,0.54702985,120.706184,-76.27486,-10.306965
2377430346000.0,-0.3014225159833402,10.710132482882132,1.3523536518617243,1.7140878,0.9056077,0.5317582,120.4116,-76.76641,-10.095176
2377435428000.0,-0.2933143363215327,11.131757300374844,1.3401913950687214,1.6801848,0.9599747,0.5296202,120.10283,-77.24366,-9.890113
2377440313000.0,-0.2960168427377939,11.52657001301989,1.329240058517179,1.6129897,1.0091494,0.54244834,119.78698,-77.71135,-9.68014
2377445540000.0,-0.3367511751084991,11.911282884267631,1.3201879909584089,1.5619824,1.0720685,0.57818395,119.45406,-78.16664,-9.469582
2377450650000.0,-0.4100019582333255,12.255662342828236,1.300835121888863,1.5296066,1.1313224,0.60139686,119.1022,-78.62544,-9.244041
2377455434000.0,-0.8521464836718811,12.223571305082109,1.1653391844618255,1.5039502,1.1640037,0.5897904,118.74351,-79.06228,-9.023459
2377460377000.0,-1.3089860299182816,12.190413696474437,1.0253399330609383,1.4669929,1.1817188,0.5412266,118.36812,-79.48614,-8.806047
2377465393000.0,-1.6610870067877346,12.19169936647812,0.8632640082762727,1.4071281,1.1743884,0.48380527,117.99492,-79.8824,-8.5991745
2377470441000.0,-1.881768865356753,12.234876122258608,0.676164173841421,1.3329079,1.1414018,0.44593164,117.62837,-80.24977,-8.404406
2377475347000.0,-2.065239242507676,12.319944428444092,0.512976143171239,1.2742649,1.1044444,0.42424592,117.27255,-80.49622,-8.346764
2377480363000.0,-2.21272409884124,12.462672157472516,0.3702488115677924,1.2229522,1.0494665,0.41599923,116.93494,-80.71374,-8.294339
2377485474000.0,-2.309803001365049,12.593937161913772,0.2588805377040141,1.2073752,0.96852684,0.41447207,116.614136,-80.89015,-8.285504
2377491122000.0,-2.339044779010677,12.71821415393972,0.1857763279372888,1.2070698,0.8918633,0.4129449,116.31067,-81.04567,-8.276275
2377495438000.0,-2.361390301729964,12.813182195296662,0.1299127002189485,1.1844677,0.8023715,0.44440445,116.032715,-81.18012,-8.278641
2377500387000.0,-2.365685118117398,12.920384228767848,0.0817234321325224,1.1652255,0.71868294,0.46639562,115.777695,-81.29747,-8.280728
2377505415000.0,-2.34531403386568,13.027332527445797,0.0511667860790058,1.1255192,0.6414085,0.4990769,115.54816,-81.40894,-8.267828
2377510424000.0,-2.36782332708822,12.950837360428352,0.1032976511610402,1.0910053,0.5891795,0.5448918,115.3313,-81.52077,-8.243308
2377515366000.0,-2.4209200642019377,12.743277392656807,0.2143182789535951,1.0485502,0.5525276,0.5815437,115.13401,-81.623245,-8.2102375
2377520536000.0,-2.449262692974239,12.493075580796251,0.3327360881889148,0.9822713,0.52656585,0.6059783,114.95037,-81.72951,-8.158601
2377525415000.0,-2.4602053644496484,12.23774619882904,0.4458104477025761,0.9202685,0.5119051,0.6310238,114.77573,-81.83373,-8.096048
2377530515000.0,-2.469128981122888,11.940223260097394,0.5517431360040104,0.8539896,0.47250426,0.64965516,114.62543,-81.91152,-8.045629
2377535477000.0,-2.4464420329704955,11.268689310512746,0.5018318169034661,0.83077675,0.45478916,0.64996064,114.474365,-81.98368,-7.9935083
2377540889000.0,-2.421058783547055,10.563803078678548,0.4502972614496848,0.7657196,0.38637227,0.6450737,114.36107,-82.036545,-7.9510956
2377545368000.0,-2.389982545055423,10.414637094979351,0.4534048820539013,0.7012733,0.3717115,0.63407815,114.23813,-82.083824,-7.910828
2377550404000.0,-2.355041724103456,10.246921110628124,0.4568989605006158,0.6750061,0.33536503,0.61666846,114.14272,-82.109215,-7.889461
2377555399000.0,-2.292625282816537,10.087203975636768,0.4760926184080841,0.65148777,0.34574974,0.6056729,114.03843,-82.12991,-7.8700714
2377560681000.0,-2.1058970288113694,9.947157858250277,0.5647885268743079,0.636827,0.3286455,0.6072,113.95285,-97.853195,-7.852543
2377565662000.0,-1.9254770395987928,9.815707854521731,0.6413304968539509,0.6114761,0.29138273,0.6123924,113.870895,-97.837364,-7.834653
2377570600000.0,-1.6979530622196852,9.6923049674631,0.637474173747044,0.5897904,0.22785273,0.5888741,113.80171,-97.831276,-7.825348
2377575431000.0,-1.475359231778521,9.571576059528663,0.6337014121169372,0.54550266,0.14508049,0.5833763,113.74774,-97.78482,-7.775962
2377580388000.0,-1.246657333956127,9.412904558717852,0.5541852367388427,0.5186246,0.059864793,0.59131753,113.71313,-97.743004,-7.73092
2377585430000.0,-1.013809497753404,9.22571315762103,0.417215898049357,0.47067168,0.00061086525,0.6020077,113.69496,-97.70247,-7.688024
2377590564000.0,-0.8001585473795606,9.031450212658738,0.2376123296492642,0.43860126,-0.058948494,0.6017023,113.69306,-97.61026,-7.5932975
2377595378000.0,-0.6235908766236646,8.84558963938722,0.0285190391634751,0.4184427,-0.09285152,0.5873469,113.70097,-97.52065,-7.5018477
2377600361000.0,-0.4426776763638713,8.752319361028556,-0.1948723616281173,0.40225476,-0.11209377,0.5674938,113.71488,-97.38843,-7.3658795
2377605390000.0,-0.2622033069505103,8.77098884933454,-0.4282443770370849,0.40378192,-0.116980694,0.54733527,113.73467,-97.26336,-7.236906
2377611513000.0,-0.042468853994056,8.793719665977516,-0.7123837388086316,0.41630468,-0.11911872,0.5183192,113.74612,-97.11766,-7.0829186
2377615395000.0,0.0459288021993271,8.89854247119428,-0.8254720102312868,0.4196644,-0.10170906,0.4896085,113.75375,-96.98142,-6.9374714
2377620474000.0,0.0919512380214465,9.159336199432296,-0.8817216682527333,0.43096542,-0.07391469,0.4541783,113.759315,-96.85986,-6.8049307
2377625366000.0,0.060702488926787,9.387096701095311,-0.9336530961913913,0.42271876,-0.053145275,0.4361578,113.74321,-96.6953,-6.6176624
2377630432000.0,-0.055833116494043,9.596861128651035,-0.9849287456379708,0.43066,-0.017715093,0.3915646,113.71558,-96.556984,-6.451079
2377635398000.0,-0.1856396445393806,9.745810256563434,-1.0166327467222134,0.43035457,0.05222898,0.3378085,113.66686,-96.41893,-6.2784586
2377640558000.0,-0.3448967659039459,9.81184381732432,-1.0205170642823456,0.44532076,0.12889257,0.27122417,113.60672,-96.30677,-6.125178
2377645313000.0,-0.4916540550683854,9.87269451139758,-1.0240965080804905,0.44623706,0.20463985,0.1966986,113.52933,-96.24008,-6.011573
2377650387000.0,-0.6716580135418182,9.893127225454544,-0.8866451286254545,0.45112398,0.28588495,0.10873401,113.42838,-96.20433,-5.922492
2377655417000.0,-0.8546117993034343,9.904804954747474,-0.7231545325769697,0.45356745,0.33414328,0.030848695,113.31524,-96.192726,-5.853284
2377660373000.0,-1.050886627528949,9.92560901709635,-0.542753013228097,0.45081854,0.38545597,-0.057421334,113.17616,-96.24718,-5.8493605
2377665586000.0,-1.285399076054184,9.96378538671619,-0.3191480752873061,0.43982297,0.43310347,-0.12370021,113.02384,-96.31919,-5.861105
2377670503000.0,-1.587017454730612,10.049926870484812,-0.1211383929140917,0.42241332,0.45875978,-0.1777618,112.873,-96.43936,-5.940437
2377676207000.0,-2.005426185377317,10.1925658437636,0.0975752339846809,0.3933972,0.47525316,-0.23396139,112.71041,-96.57393,-6.0372634
2377680317000.0,-2.273050750151976,10.261678613981765,0.2293194047112462,0.34147367,0.48349985,-0.28008172,112.55008,-96.737236,-6.18815
2377685550000.0,-2.504166872518604,10.240668182056387,0.3133616315249974,0.3005457,0.46700647,-0.30543262,112.39216,-96.9048,-6.3461013
2377690432000.0,-2.6848425732926526,10.22664084335033,0.3847405865000418,0.2687807,0.4392121,-0.33414328,112.246574,-97.14017,-6.6038823
2377695375000.0,-2.803554029858731,10.2226837162919,0.4440962858597342,0.23732115,0.376293,-0.36071593,112.1163,-97.37378,-6.8626823
2377700787000.0,-2.934081081779141,10.215614217177912,0.5074473580429448,0.19272798,0.28710666,-0.36865717,112.0003,-97.64063,-7.167519
2377705388000.0,-3.0647378616666665,10.1119901,0.5029419581666666,0.15118915,0.23304509,-0.3491095,111.89297,-97.9008,-7.46422
2377710782000.0,-3.1971113881934707,9.995569799919888,0.5006101654466253,0.11453723,0.17134771,-0.32345316,111.8312,-98.17029,-7.7743545
2377715365000.0,-3.0476745177848987,9.96040837772882,0.5357717941618266,0.09254608,0.06780604,-0.30787608,111.79706,-98.431175,-8.074391
2377720886000.0,-2.8765357445613065,9.916299830888455,0.5640641058178799,0.07422013,-0.093767814,-0.28130344,111.80882,-98.694084,-8.373749
2377725380000.0,-2.816975505037365,9.86468081566565,0.4608265065707169,0.095294975,-0.18448131,-0.26328292,111.8288,-98.952484,-8.663656
2377730319000.0,-2.7515175559922502,9.807950438232307,0.3473662256001476,0.11056661,-0.36865717,-0.19333886,111.92328,-99.1577,-8.902116
2377735568000.0,-2.6978122412822376,9.744694626407554,0.20588917633745,0.15699236,-0.45081854,-0.12705997,112.01271,-99.35864,-9.129433
2377740477000.0,-2.650851005148928,9.684925812840538,0.0692744407913185,0.17959438,-0.5305365,-0.064446285,112.15279,-99.53676,-9.333235
2377746236000.0,-2.5557465910853057,9.6663839549799,-0.0587217786513622,0.18051068,-0.6740898,0.005192355,112.33049,-99.683304,-9.497191
2377750364000.0,-2.4745263566234925,9.669915340062529,-0.1399419961513175,0.23793201,-0.7165449,0.026572637,112.498505,-99.82647,-9.652051
2377755391000.0,-2.37995844779798,9.685562766060606,-0.2066790961171717,0.25625798,-0.7770206,0.0729984,112.706276,-99.93283,-9.766201
2377760392000.0,-2.292879116222222,9.719427113333332,-0.2211923113111111,0.2941316,-0.83260936,0.09407325,112.920265,-100.04097,-9.878316
2377765412000.0,-2.2132132688405157,9.77084240008885,-0.2454581071470457,0.3145956,-0.87598073,0.11026118,113.13058,-100.11675,-9.954092
2377770436000.0,-2.144815091035096,9.847790171568192,-0.2839321089453576,0.34666604,-0.8863655,0.13194689,113.34264,-100.18515,-10.020184
2377775388000.0,-2.080724554650664,9.924474001285898,-0.31603462,0.34300083,-0.89858276,0.14660765,113.55141,-100.23064,-10.06416
2377780397000.0,-2.034460868131162,10.006720471603089,-0.31603462,0.34055737,-0.89919364,0.14844026,113.75516,-100.27378,-10.104209
2377785670000.0,-2.000337197892237,10.072516374573253,-0.3415580794923556,0.344528,-0.90285885,0.14110987,113.968346,-100.299034,-10.1243
2377790385000.0,-1.9969859575775568,10.092623711481371,-0.4119341680926228,0.3472769,-0.89736104,0.12675454,114.1746,-100.324684,-10.145078
2377795381000.0,-1.9934349932907824,10.113929385965564,-0.48650446260947,0.3390302,-0.872621,0.1151481,114.37432,-100.33838,-10.153908
2377800386000.0,-2.0084218230366493,10.1226845,-0.5472986079930192,0.3585779,-0.8426886,0.08124508,114.56649,-100.36343,-10.172665
2377805398000.0,-2.036344406864456,10.1226845,-0.5984900554120612,0.34330627,-0.79320854,0.043066,114.74176,-100.38989,-10.19497
2377810374000.0,-2.063771825726772,10.086846560421812,-0.667887185897777,0.32070425,-0.74097955,0.0143553335,114.90941,-100.42475,-10.220574
2377815603000.0,-2.092316721128634,10.01548457030211,-0.7582791046294889,0.29901853,-0.70524395,-0.008552114,115.06356,-100.46704,-10.254386
2377820434000.0,-2.093187919257716,9.951613158966106,-0.8377466282446506,0.28955013,-0.68325275,-0.01863139,115.20649,-100.51541,-10.291806
2377825401000.0,-2.0616620006248816,9.888561368727515,-0.9143094109164932,0.28221974,-0.625526,-0.036651913,115.325035,-100.57021,-10.336293
2377830515000.0,-2.009088400704593,9.836564921016006,-0.9630613947851426,0.27275133,-0.57604593,-0.057726767,115.444115,-100.63917,-10.391431
2377835474000.0,-1.918203725835073,9.811778548364648,-0.9506680143441196,0.269697,-0.52290064,-0.07819075,115.54198,-100.711716,-10.449663
2377840633000.0,-1.822316408945687,9.787497,-0.9357427387220448,0.2761111,-0.47311515,-0.07880162,115.6267,-100.78362,-10.502521
2377845413000.0,-1.7134770626346685,9.787497,-0.8915267656036853,0.28221974,-0.43982297,-0.08552113,115.69788,-100.86171,-10.561403
2377850387000.0,-1.6002203872055871,9.787497,-0.845516252990564,0.2678644,-0.40103304,-0.07941248,115.755104,-100.91679,-10.597327
2377855418000.0,-1.4829716709855132,9.793855446133442,-0.7965427318812487,0.27091873,-0.36346483,-0.06566802,115.801186,-100.97268,-10.631919
2377860420000.0,-1.3607945805549888,9.813403662211794,-0.7427848263803306,0.24801129,-0.3222314,-0.057421334,115.833374,-101.02508,-10.665164
2377865321000.0,-1.2477233298570227,9.819618176619008,-0.6777543957779647,0.22693644,-0.26633725,-0.0580322,115.86406,-101.04897,-10.6710005
2377870454000.0,-1.1420670892066165,9.801243274179985,-0.5858793271600785,0.19333886,-0.21930063,-0.051923547,115.88464,-101.06617,-10.67216
2377875409000.0,-1.0452570238894516,9.78672443778035,-0.5101946219997106,0.16584991,-0.17287487,-0.053450707,115.909386,-101.06397,-10.656234
2377880391000.0,-0.9658641573578354,9.78327250506439,-0.4791278619302561,0.13072516,-0.108123146,-0.043066,115.91495,-101.05402,-10.634637
2377885646000.0,-0.8821207784691072,9.779631415858775,-0.4463587282158877,0.0983493,-0.049480084,-0.04062254,115.91528,-101.02095,-10.595765
2377890580000.0,-0.8548390986833214,9.785167949216753,-0.4333723167093273,0.058337633,0.00580322,-0.03940081,115.8981,-100.98278,-10.554206
2377895374000.0,-0.8783423426313095,9.799269681580832,-0.4380729596088871,0.0070249503,0.05009095,-0.043066,115.867485,-100.942665,-10.51353
2377900387000.0,-0.90943314052934,9.80456217064252,-0.4447086780532822,-0.014049901,0.10934488,-0.041233405,115.82078,-100.879486,-10.451122
2377905437000.0,-0.9473284706703814,9.80035149242556,-0.4531298718109002,-0.03848451,0.15760323,-0.03970624,115.76536,-100.81439,-10.390628
2377910379000.0,-0.9905154507936508,9.793272682539682,-0.4627269855555555,-0.06627888,0.1966986,-0.044593163,115.70038,-100.75317,-10.334641
2377915319000.0,-1.0574311784378438,9.77468499119912,-0.4775971463916392,-0.09468412,0.20677789,-0.044898596,115.63132,-100.68965,-10.277908
2377920447000.0,-1.1268934965267956,9.75538991403426,-0.4930332161826183,-0.102319926,0.24587326,-0.04550946,115.54189,-100.637115,-10.231524
2377925410000.0,-1.2115883562600465,9.763364340239328,-0.5235095890739419,-0.1151481,0.24740042,-0.046120327,115.46203,-100.58331,-10.186712
2377930386000.0,-1.3052115429719593,9.784642317020896,-0.5618099872736203,-0.12583824,0.24770586,-0.047647487,115.37284,-100.530785,-10.142858
2377935485000.0,-1.4216112666936955,9.801328581593353,-0.6161014487492399,-0.13836098,0.23273966,-0.03940081,115.28905,-100.49477,-10.116236
2377940616000.0,-1.5660486046523414,9.811289981755523,-0.6908104209629029,-0.12522738,0.20066923,-0.028710667,115.211754,-100.46054,-10.090223
2377945335000.0,-1.698610092109777,9.80781654373928,-0.7425556906689537,-0.10995574,0.16279559,-0.016187929,115.14586,-100.44351,-10.080012
2377950320000.0,-1.8383004954495008,9.788549023307436,-0.7762740626748057,-0.09101892,0.12492194,-0.0009162979,115.09071,-100.42454,-10.066711
2377955410000.0,-2.013140430269976,9.761623381510772,-0.7989490905890373,-0.0729984,0.079107046,0.0067195175,115.055984,-100.436134,-10.080192
2377960424000.0,-2.222654984874102,9.72670404599582,-0.8076788515434961,-0.058948494,0.023518313,0.0106901415,115.035805,-100.445496,-10.090805
2377965374000.0,-2.38481232826465,9.705644708224655,-0.8031795092105721,-0.02321288,-0.029321533,0.016798794,115.02715,-100.4836,-10.126848
2377970457000.0,-2.4229021701443227,9.722573900017387,-0.7608573870596418,0.0018325958,-0.08277224,0.026267206,115.03476,-100.51912,-10.160741
2377975829000.0,-2.4598835091957656,9.74116246942645,-0.7180668153104756,0.043982297,-0.13897185,0.029626964,115.06024,-100.60304,-10.240851
2377980372000.0,-2.4358235184784327,9.768659499130983,-0.7146296686522358,0.069027774,-0.1853976,0.028099801,115.09728,-100.68437,-10.318361
2377985510000.0,-2.4086123733528204,9.799757834729023,-0.7107423564070153,0.101098195,-0.24465153,0.03023783,115.1526,-100.77274,-10.40374
2377990643000.0,-2.359346242250485,9.841123789825392,-0.693745626104764,0.113926366,-0.2770274,0.030848695,115.21184,-100.86018,-10.488094
2377995427000.0,-2.290213162535029,9.890504487389522,-0.6641172075662859,0.13988814,-0.31490102,0.022602014,115.28782,-100.950615,-10.573164
2378001300000.0,-2.190233846895755,9.9294681200308,-0.6477282395033209,0.14905111,-0.33169982,0.031154128,115.36682,-101.02893,-10.647171
2378005405000.0,-2.114552250880739,9.948388499278083,-0.6439441241409183,0.16310102,-0.34330627,0.022296581,115.45287,-101.11455,-10.727033
2378011564000.0,-1.992448519591036,9.970756226066303,-0.619891260130125,0.15760323,-0.34697145,0.023518313,115.54297,-101.17566,-10.784169
2378015446000.0,-1.911820586326552,9.98227433615615,-0.5968547352597336,0.15210545,-0.344528,0.018325957,115.63246,-101.24041,-10.844274
2378020444000.0,-1.814810391212063,9.975442279677296,-0.5973519575729928,0.15363261,-0.35216382,0.021685716,115.732254,-101.28386,-10.882811
2378025433000.0,-1.7230342096043028,9.952498246254322,-0.6202959862043796,0.13255776,-0.3481932,0.018325957,115.82596,-101.32734,-10.923538
2378030333000.0,-1.6335386732261117,9.923764095553452,-0.6490302384957427,0.122478485,-0.33200526,0.020158553,115.92176,-101.34697,-10.940024
2378035677000.0,-1.5367014496877958,9.885029448817408,-0.6877651228552507,0.10415252,-0.30390546,0.01282817,116.01114,-101.367226,-10.959337
2378040429000.0,-1.4742830641744549,9.853989011328236,-0.7221796502520532,0.08093964,-0.29535335,0.005497787,116.10554,-101.3703,-10.960453
2378045437000.0,-1.4471176544132918,9.826823459737565,-0.7584002927291608,0.06811147,-0.26511553,-0.0030543262,116.18401,-101.37494,-10.963166
2378050335000.0,-1.4154664664263932,9.805606539783753,-0.7873850457610202,0.06291912,-0.23793201,0.0021380284,116.253456,-101.36165,-10.946334
2378055432000.0,-1.3658460103410035,9.801095499306902,-0.7964069335930136,0.04917465,-0.19914207,0.0012217305,116.30959,-101.350914,-10.933278
2378060462000.0,-1.3140276095171557,9.795991331780778,-0.8048123210929979,0.03726278,-0.18051068,-0.0076358155,116.364265,-101.340385,-10.9185
2378065444000.0,-1.2362489287222482,9.784880257413445,-0.8085160641142679,0.025350908,-0.14905111,-0.0076358155,116.403404,-101.326866,-10.901009
2378071324000.0,-1.1444507265797237,9.77176642415774,-0.8128874027262848,0.018020526,-0.12705997,-0.018020526,116.447945,-101.31024,-10.879901
2378075425000.0,-1.115718439425689,9.76119115871168,-0.8283324516802484,-0.004886922,-0.10445796,-0.018325957,116.48281,-101.289085,-10.855884
2378080413000.0,-1.1064500889406286,9.74728882654249,-0.8561375224912688,-0.011301007,-0.08124508,-0.016493361,116.5106,-101.27124,-10.8342905
2378085564000.0,-1.1164980332496532,9.751745110589946,-0.876038974725507,-0.020158553,-0.04917465,-0.025045475,116.52946,-101.237915,-10.798049
2378090390000.0,-1.14703095592918,9.77617129569928,-0.885198861094008,-0.024740042,-0.037873644,-0.016798794,116.5478,-101.19998,-10.757191
2378095687000.0,-1.1805437805113297,9.802981387395125,-0.8952527189667702,-0.03848451,-0.019242255,-0.019242255,116.55445,-101.167244,-10.720834
2378100682000.0,-1.2070337886271942,9.81871027401592,-0.8952534001286664,-0.044898596,-0.0143553335,-0.017715093,116.56206,-101.132065,-10.681788
2378105264000.0,-1.226172769152764,9.823495119070984,-0.8856838798887798,-0.053145275,-0.016493361,-0.011301007,116.56645,-101.09564,-10.642604
2378110227000.0,-1.2635655557886558,9.82068436052836,-0.8989845773115773,-0.05100725,-0.017715093,-0.01038471,116.57246,-101.06871,-10.611746
2378115226000.0,-1.31471349237568,9.8113845503108,-0.9315332576097514,-0.051923547,-0.015271631,-0.013744468,116.57813,-101.040886,-10.580916
2378120244000.0,-1.3938657041896023,9.796993199694189,-0.9553465006472986,-0.053450707,-0.021685716,-0.0033597588,116.59847,-101.01343,-10.550685
2378125211000.0,-1.500542130275229,9.777597596330274,-0.9698933044342508,-0.056505036,-0.027488936,-0.007941248,116.617584,-100.991264,-10.526184
2378130205000.0,-1.586248158024007,9.766022589289012,-0.9861157490120036,-0.046120327,-0.04337143,-0.0125227375,116.63451,-100.98088,-10.511609
2378135521000.0,-1.65676104478301,9.761321635272392,-1.004919172391505,-0.03726278,-0.053145275,-0.007941248,116.65133,-100.969124,-10.496044
2378140475000.0,-1.7087740492733563,9.768536892338112,-1.009278964597133,-0.01985312,-0.07238753,-0.006414085,116.677444,-100.981155,-10.502674
2378145207000.0,-1.7401355839446366,9.790937988531883,-0.99583830688087,-0.012217305,-0.09132435,-0.0036651916,116.70607,-100.99134,-10.5077
2378150233000.0,-1.7707500234791778,9.808373557090142,-0.9898581421929362,0.004276057,-0.11026118,-0.0036651916,116.74069,-101.01795,-10.526518
2378155362000.0,-1.79664328113864,9.813552305956774,-1.0002154236267793,0.01160644,-0.12675454,0.00030543262,116.77958,-101.04212,-10.5433235
2378160308000.0,-1.807870153078349,9.816227,-1.0055647,0.02565634,-0.13561209,0.007941248,116.824776,-101.0715,-10.564765
2378165257000.0,-1.803245742579764,9.816227,-1.0055647,0.023518313,-0.14263703,0.011301007,116.87338,-101.099594,-10.586053
2378170324000.0,-1.789322405511811,9.819932835770528,-1.0092704583802026,0.02565634,-0.14660765,0.010079277,116.93373,-101.13133,-10.608198
2378175274000.0,-1.762660289370079,9.828820377952756,-1.0181578149606298,0.023518313,-0.15027285,0.007330383,116.99493,-101.1614,-10.629483
2378180249000.0,-1.7378455263948065,9.837947556400891,-1.0195850263948063,0.035124753,-0.1518,0.0143553335,117.053696,-101.18998,-10.648319
2378185417000.0,-1.7177631963481437,9.847988406877665,-0.9995026963481436,0.02443461,-0.15057829,0.018936822,117.11156,-101.2172,-10.6681795
2378190287000.0,-1.69470689533571,9.855957556842938,-0.9750228771400276,0.016798794,-0.14813483,0.016798794,117.16273,-101.23963,-10.681523
2378195261000.0,-1.6616859486333928,9.860674926421073,-0.9372846889285008,0.024129177,-0.13744467,0.01863139,117.21042,-101.25973,-10.692033
2378200275000.0,-1.62925336321823,9.862248619600168,-0.9023472881378444,0.020463986,-0.13225232,0.007330383,117.265785,-101.27764,-10.703339
2378205441000.0,-1.598129097930938,9.8553319717601,-0.8746812528827066,0.004886922,-0.122783914,0.00030543262,117.31605,-101.29316,-10.712482
2378212600000.0,-1.554997348958479,9.845746938487348,-0.8363418904375786,0.0015271631,-0.11759156,0.008246681,117.370804,-101.30009,-10.714595
2378215409000.0,-1.5514427,9.831607220919276,-0.8265072082336928,-0.006414085,-0.11881329,0.006414085,117.423546,-101.3095,-10.721291
2378220502000.0,-1.5514427,9.800967101560046,-0.8111869139273374,-0.004276057,-0.10567969,0.005192355,117.46999,-101.317,-10.725092
2378225317000.0,-1.5471962131078405,9.783250446596092,-0.7768497260074017,-0.012217305,-0.10048734,-0.002443461,117.5191,-101.31245,-10.720313
2378230436000.0,-1.5387576391944229,9.77481174051123,-0.7219992555073587,-0.013133603,-0.09987647,-0.008552114,117.56506,-101.30869,-10.715404
2378235540000.0,-1.5331189691539366,9.770002938307872,-0.6824431554641598,-0.016187929,-0.09560041,0.0021380284,117.60643,-101.301575,-10.708757
2378240386000.0,-1.5365274695945943,9.776819939189188,-0.6926684432432433,-0.029932396,-0.09010262,0.0009162979,117.64635,-101.29828,-10.707229
2378245371000.0,-1.5400337375881317,9.783832475176265,-0.7031870275558167,-0.029321533,-0.07941248,-0.006414085,117.687965,-101.29022,-10.70382
2378250391000.0,-1.524049323547034,9.79343579568604,-0.7106633261234272,-0.027488936,-0.07452556,-0.009468411,117.72921,-101.280334,-10.699564
2378255408000.0,-1.4870363770606865,9.80577324411538,-0.7147758661901908,-0.03940081,-0.073303826,-0.013133603,117.767784,-101.27152,-10.697437
2378260446000.0,-1.4556746,9.816227,-0.7150067693835261,-0.043982297,-0.070249505,-0.01038471,117.80732,-101.26492,-10.695533
2378265367000.0,-1.4556746,9.816227,-0.6946616507511656,-0.042760566,-0.062002823,-0.007330383,117.844444,-101.2587,-10.694379
2378270489000.0,-1.4556746,9.816227,-0.6734855284924883,-0.03726278,-0.06078109,0.0012217305,117.885635,-101.24078,-10.680212
2378275398000.0,-1.4556746,9.826731935350514,-0.6773798877385874,-0.032375857,-0.06658431,-0.0018325958,117.92585,-101.22552,-10.668672
2378280440000.0,-1.4556746,9.83947330750286,-0.6858742541032633,-0.034208454,-0.073303826,0.00580322,117.96584,-101.20521,-10.651888
2378285572000.0,-1.4531917828971554,9.842474364376368,-0.6944957860568928,-0.03145956,-0.0720821,0.014049901,118.00331,-101.18629,-10.637645
2378290443000.0,-1.449108797715536,9.838391677636762,-0.7026618416892779,-0.02321288,-0.073303826,0.005497787,118.04281,-101.17051,-10.626408
2378295388000.0,-1.4395338508865247,9.839757002279637,-0.7108717125633233,-0.022296581,-0.07544186,0.009468411,118.076965,-101.150475,-10.611076
2378300330000.0,-1.4155578488770686,9.855740892350555,-0.7188636993245525,-0.02107485,-0.08032878,0.01740966,118.111786,-101.132706,-10.597332
2378305426000.0,-1.3908347193262411,9.872222863981763,-0.7271047281661601,-0.02565634,-0.08399397,0.020158553,118.14639,-101.11377,-10.581774
2378310404000.0,-1.3754839182517198,9.90876270153784,-0.71029985766896,-0.022907447,-0.08093964,0.0290161,118.18032,-101.09209,-10.562487
2378315330000.0,-1.3611652263860785,9.946945680493728,-0.6912082685147714,-0.027488936,-0.0870483,0.03634648,118.21757,-101.0694,-10.543391
2378320455000.0,-1.340576674163297,9.94643593409619,-0.6972620703346812,-0.021380283,-0.07788532,0.02687807,118.245285,-101.045944,-10.521813
2378325362000.0,-1.3203609993805383,9.942392714703605,-0.7053483402477846,-0.01985312,-0.06872234,0.02565634,118.27471,-101.01799,-10.496411
2378330582000.0,-1.3148076275523202,9.915659810191084,-0.6891884780527753,-0.022296581,-0.06078109,0.034513887,118.30465,-100.98707,-10.469285
2378335647000.0,-1.3192213210919017,9.875936660509554,-0.6582925771883531,-0.028710667,-0.05681047,0.030848695,118.33257,-100.96022,-10.446486
2378340477000.0,-1.3298668296045195,9.848333514124294,-0.6313117216271187,-0.03023783,-0.053450707,0.028405234,118.36205,-100.9264,-10.4148035
2378345374000.0,-1.3491365120287622,9.833881453518233,-0.6072246387180278,-0.034513887,-0.04642576,0.027488936,118.38902,-100.89304,-10.384256
2378350333000.0,-1.3618973989147722,9.825804,-0.599734434665544,-0.043066,-0.036651913,0.024740042,118.406876,-100.8631,-10.360519
2378355411000.0,-1.3664470284778745,9.825804,-0.6133833186041725,-0.049785517,-0.03145956,0.021991149,118.4239,-100.833786,-10.337481
2378360389000.0,-1.3719918538366438,9.82956662836891,-0.6162212914794363,-0.053450707,-0.023823744,0.023823744,118.44021,-100.80659,-10.318114
2378365321000.0,-1.3797776904145718,9.84124522063793,-0.5967566878397759,-0.0571159,-0.023823744,0.018325957,118.45699,-100.782104,-10.302008
2378371210000.0,-1.3884003962450944,9.854534,-0.5743717987156618,-0.055588737,-0.027488936,0.009468411,118.4753,-100.760414,-10.287281
2378375559000.0,-1.3846856318765608,9.854534,-0.5706570731359258,-0.05375614,-0.027488936,0.01863139,118.492645,-100.735466,-10.269205
2378380322000.0,-1.3806172431234391,9.854534,-0.5665887268640741,-0.06047566,-0.034208454,0.008246681,118.50648,-100.718735,-10.262386
2378385678000.0,-1.3728853289898713,9.842184457979744,-0.543419772511178,-0.06688975,-0.038789943,0.01160644,118.52001,-100.696365,-10.249202
2378390529000.0,-1.3644070345743224,9.825227869148645,-0.5137455649968062,-0.054061573,-0.029626964,0.011301007,118.531235,-100.67925,-10.240058
2378396243000.0,-1.3461760915501964,9.818973159039006,-0.5007400488225084,-0.065973446,-0.029626964,0.014049901,118.545135,-100.65571,-10.226871
2378400388000.0,-1.3280451716634694,9.82259941874486,-0.5043662290134283,-0.073303826,-0.030543262,0.01863139,118.55665,-100.63359,-10.213336
2378405317000.0,-1.3082947185200369,9.825804,-0.50757074,-0.06047566,-0.024129177,0.013133603,118.57618,-100.61217,-10.201085
2378411705000.0,-1.289484523501076,9.825804,-0.50757074,-0.06505715,-0.025045475,0.022296581,118.598274,-100.584015,-10.183681
2378415438000.0,-1.28929306314272,9.824303710716002,-0.5165722971167708,-0.07544186,-0.023823744,0.02321288,118.61657,-100.55652,-10.165824
2378420449000.0,-1.307741730264296,9.8196914716963,-0.5442451822162422,-0.0720821,-0.0143553335,0.019242255,118.6327,-100.52916,-10.147
2378425380000.0,-1.3215994,9.817812974031504,-0.561859718177948,-0.07574729,-0.0036651916,0.016493361,118.64086,-100.49727,-10.124809
2378430494000.0,-1.3215994,9.82476299219526,-0.5479599721299844,-0.08246681,0.003970624,0.016798794,118.64719,-100.46632,-10.103189
2378437430000.0,-1.3215994,9.834189141194834,-0.5291080678302824,-0.092240654,0.017715093,0.018936822,118.642746,-100.441246,-10.086256
2378440718000.0,-1.312035442104173,9.849726662213936,-0.5052055821165994,-0.09010262,0.01985312,0.022296581,118.63964,-100.41665,-10.069228
2378445393000.0,-1.2934906461012738,9.877543323703014,-0.4634799605467536,-0.09162979,0.04428773,0.018936822,118.62621,-100.39288,-10.053344
2378450328000.0,-1.2895732483492093,9.897028557199668,-0.4405331,-0.09437868,0.05467244,0.020158553,118.612114,-100.367485,-10.0371475
2378455425000.0,-1.3031161937112734,9.906057313141588,-0.4405331,-0.09193522,0.058643065,0.026267206,118.59316,-100.3425,-10.020569
2378460338000.0,-1.313320177015884,9.900316833955385,-0.4379379459682319,-0.10476339,0.05681047,0.020463986,118.57959,-100.31247,-10.001833
2378466201000.0,-1.3181937798628591,9.85645451011197,-0.4281907402742818,-0.102319926,0.05589417,0.035430185,118.56529,-100.27699,-9.975797
2378470614000.0,-1.323931482164569,9.822953668636012,-0.4198247756708622,-0.103847094,0.053450707,0.035124753,118.55617,-100.248024,-9.956937
2378475404000.0,-1.3592817149755971,9.779747696378116,-0.3962579100488055,-0.1001819,0.060170226,0.035124753,118.545135,-100.21612,-9.934085
2378480307000.0,-1.3954658885606643,9.735522460056512,-0.3721350828786711,-0.093462385,0.057421334,0.028099801,118.54035,-100.19059,-9.918002
2378485693000.0,-1.4302735409025271,9.710823559566789,-0.36391866,-0.095294975,0.04550946,0.02565634,118.53659,-100.164116,-9.900965
2378490535000.0,-1.4595692578158843,9.698268445848376,-0.36391866,-0.08032878,0.03604105,0.027183503,118.53314,-100.14058,-9.885076
2378495325000.0,-1.4712478517926315,9.734693141102778,-0.3603383080540674,-0.08032878,0.039095376,0.035124753,118.53216,-100.12337,-9.877475
2378500330000.0,-1.463346774730075,9.82950598335119,-0.3524372227412841,-0.06841691,0.040011674,0.039095376,118.53466,-100.10889,-9.8707485
2378505485000.0,-1.4535002880451513,9.919639263126388,-0.3450066307217376,-0.067500606,0.03634648,0.035430185,118.54113,-100.10092,-9.870906
2378510381000.0,-1.4174140801436634,9.887562382674876,-0.3490162177509834,-0.05497787,0.032070424,0.037873644,118.54768,-100.09178,-9.868144
2378515302000.0,-1.3811436085171884,9.855321710962889,-0.3530462785702069,-0.05100725,0.026572637,0.029321533,118.54881,-100.081856,-9.865986
2378520486000.0,-1.3694834,9.835459435756242,-0.3416782514757709,-0.051923547,0.027488936,0.035124753,118.54963,-100.068,-9.8590765
2378525472000.0,-1.3694834,9.822312613069016,-0.3241488922026431,-0.044898596,0.02443461,0.04062254,118.553185,-100.05757,-9.854814
2378530395000.0,-1.3607131909297847,9.80526423866223,-0.3226122813815444,-0.03756821,0.016493361,0.041233405,118.56565,-100.040596,-9.843289
2378536890000.0,-1.33893020511294,9.778035506391175,-0.3389495321169672,-0.030848695,0.007330383,0.03726278,118.57936,-100.02412,-9.831777
2378540422000.0,-1.3311762,9.765996827309236,-0.3377266640160642,-0.028405234,0.02321288,0.04642576,118.59243,-100.0035,-9.816148
2378545365000.0,-1.3311762,9.756490981726907,-0.3092097029598393,-0.03481932,0.01038471,0.036957346,118.61613,-99.989456,-9.807532
2378550387000.0,-1.3283992755878176,9.751965982404922,-0.2891554848745463,-0.028405234,0.007330383,0.03970624,118.62525,-99.96758,-9.789241
2378555407000.0,-1.3170195526905475,9.76334594295408,-0.2967419747277892,-0.02565634,0.014966198,0.04886922,118.63494,-99.94639,-9.772101
2378560333000.0,-1.3058529162379675,9.77451281260849,-0.3041864068029036,-0.03756821,0.013133603,0.04520403,118.65438,-99.92711,-9.758274
2378565327000.0,-1.299392035951772,9.790134992418707,-0.3125653544738765,-0.0290161,0.020158553,0.04886922,118.66908,-99.90483,-9.739881
2378570434000.0,-1.29492467044209,9.808004361161856,-0.3215000948227987,-0.030848695,0.0106901415,0.040927973,118.68888,-99.88613,-9.7263
2378575805000.0,-1.2983682421212697,9.821726356966357,-0.3173625710758411,-0.027488936,0.010995574,0.043676864,118.70413,-99.86263,-9.70662
2378580332000.0,-1.30660891378065,9.829967200722296,-0.3050015549819426,-0.02565634,0.014966198,0.0421497,118.72086,-99.842804,-9.690774
2378585444000.0,-1.305807278457958,9.837452586360415,-0.2865222120570677,-0.02321288,0.016493361,0.042455133,118.72942,-99.821365,-9.67294
2378590477000.0,-1.2911759813012245,9.842329244055447,-0.2621368610857027,-0.0290161,0.022296581,0.043066,118.73559,-99.800385,-9.655719
2378595409000.0,-1.284884579775281,9.846549579775282,-0.2426267806067416,-0.03573562,0.021380283,0.04917465,118.74762,-99.7813,-9.640915
2378600476000.0,-1.288519535505618,9.850184535505615,-0.2280872537348314,-0.04184427,0.02076942,0.03940081,118.75773,-99.766655,-9.63066
2378605580000.0,-1.2921810342322098,9.853846034232207,-0.2134415570397003,-0.035430185,0.032070424,0.039095376,118.77047,-99.745735,-9.614401
2378610936000.0,-1.2968393177069584,9.862474801244575,-0.2226007155581746,-0.038789943,0.038789943,0.043066,118.784615,-99.72602,-9.599963
2378615467000.0,-1.3009306321327552,9.870657600980577,-0.2348746716518951,-0.050396383,0.041233405,0.03756821,118.796616,-99.7094,-9.588491
2378620453000.0,-1.3024458,9.86375855665256,-0.2369378010186491,-0.04642576,0.03634648,0.046120327,118.80689,-99.68901,-9.573199
2378625407000.0,-1.3024458,9.848888404795488,-0.2332202358815232,-0.053450707,0.050701816,0.045814894,118.810814,-99.672104,-9.562036
2378630355000.0,-1.3020448274392524,9.83618292,-0.2302443333981308,-0.047647487,0.052534413,0.042760566,118.819695,-99.65684,-9.551355
2378635416000.0,-1.297515090542056,9.84524211,-0.2347740797551402,-0.05222898,0.049480084,0.04642576,118.825966,-99.63941,-9.538953
2378640795000.0,-1.2917947514982764,9.854295285865817,-0.2390620972076372,-0.05497787,0.05009095,0.05131268,118.82704,-99.62391,-9.528173
2378645439000.0,-1.2652585278705917,9.84839853884911,-0.2302166903579952,-0.05100725,0.056505036,0.047036625,118.82741,-99.6104,-9.519106
2378650330000.0,-1.2373109245624505,9.842188162092285,-0.220900823669451,-0.055588737,0.05467244,0.054061573,118.82323,-99.59124,-9.504652
2378655828000.0,-1.2065361353042727,9.835381,-0.2105481851564523,-0.051923547,0.06811147,0.04184427,118.81284,-99.579605,-9.496993
2378660419000.0,-1.20179216801899,9.835381,-0.2058042129175658,-0.054367006,0.06078109,0.05467244,118.80948,-99.55888,-9.480527
2378665506000.0,-1.1971009,9.835381,-0.200686593856108,-0.05222898,0.06627888,0.049480084,118.79678,-99.538246,-9.463906
2378670458000.0,-1.1971009,9.835381,-0.1968268752006185,-0.057421334,0.064446285,0.047647487,118.78877,-99.51327,-9.443161
2378675322000.0,-1.1971009,9.835381,-0.1930357460527386,-0.05589417,0.059253927,0.04184427,118.78473,-99.491875,-9.425642
2378680414000.0,-1.2114851700549971,9.838257613692395,-0.2001666980409634,-0.05681047,0.06841691,0.04153884,118.77733,-99.46972,-9.407359
