timestamp,acc_x,acc_y,acc_z,gyro_x,gyro_y,gyro_z,ori_azimuth,ori_pitch,ori_roll
2098934233000.0,0.6446106546869554,-9.543895450710536,-1.4535093367173884,-1.0894781,9.961685,1.831374,206.62228,11.330732,26.398258
2098939236000.0,0.6431792407703876,-9.544372598315029,-1.449930801925969,-9.93664,0.7538077,0.036651913,205.5957,15.07835,28.346096
2098944214000.0,0.6417549796317358,-9.544847361612078,-1.446370149079339,-1.1933253,0.7464773,0.03481932,205.387,14.026056,25.30253
2098949265000.0,0.6403098323815689,-9.545329087086849,-1.442757280953922,-1.1893547,0.7476991,0.032986723,205.04306,17.180681,24.929014
2098954399000.0,0.6388409379087208,-9.545818728462311,-1.4390850447718015,-1.1780536,0.72692966,0.03359759,204.70576,18.094831,24.563929
2098959289000.0,0.6374418545483336,-9.54628509899718,-1.4355873363708336,-1.1588113,0.72051555,0.02321288,204.38823,19.009357,24.197683
2098964201000.0,0.6360364767433802,-9.546753567722597,-1.43207389185845,-1.1398746,0.7171558,0.025961773,204.07849,19.927616,23.836716
2098969192000.0,0.634608496160212,-9.547229570859516,-1.4285039404005295,-1.1377366,0.786489,0.05467244,203.78566,20.851686,23.458387
2098974220000.0,0.633169929465728,-9.547709102771442,-1.4249075236643196,-1.541213,0.7699956,0.053450707,203.50339,21.876865,23.108774
2098979232000.0,0.6317359405491103,-9.54818710872661,-1.4213225513727754,-1.244027,0.7635816,0.06078109,203.23293,22.72809,22.736242
2098984183000.0,0.6303194044106079,-9.548659296971628,-1.417781211026519,-1.244027,0.754724,0.062002823,202.97632,23.763184,22.371563
2098989174000.0,0.6288914238274397,-9.549135300108547,-1.414211259568599,-1.2437216,0.73731434,0.06719518,202.72714,24.72513,22.011621
2098994174000.0,0.6274608682442216,-9.549612161596144,-1.4106348706105538,-1.246776,0.72112644,0.07696902,202.48773,25.691023,21.65519
2098999168000.0,0.6260320293277035,-9.550088450849955,-1.4070627733192589,-1.2428054,0.69974613,0.09560041,202.25333,26.658602,21.304884
2099004176000.0,0.6245991848555524,-9.550566075315931,-1.403480662138881,-1.2464706,0.657291,0.09285152,202.02815,27.629118,20.967783
2099009247000.0,0.6231483153830527,-9.551049708236652,-1.3998534884576317,-1.2165382,0.6310238,0.09193522,201.80789,28.593235,20.631353
2099014178000.0,0.6217375014668831,-9.551519989035722,-1.3963264536672075,-1.1160508,0.56169057,0.08582657,201.587,29.53946,20.319204
2099019171000.0,0.6203089486614817,-9.551996182917236,-1.392755071653704,-1.0558805,0.4877759,0.08827003,201.36911,30.489462,20.015274
2099024170000.0,0.6188786791893803,-9.552472949032534,-1.3891793979734506,-0.9288206,0.419359,0.07971791,201.15428,31.393454,19.731092
2099029191000.0,0.6174421152727129,-9.552951813338378,-1.385587988181782,-0.7846564,0.3576616,0.07544186,200.93486,32.277473,19.463404
2099034211000.0,0.616005837467162,-9.553430582271924,-1.3819972936679048,-0.6600399,0.2828306,0.061391957,200.71358,33.130535,19.2192
2099039177000.0,0.6145850096619099,-9.553904201101409,-1.3784452241547744,-0.49357912,0.023823744,0.009773844,200.46548,33.929184,19.04017
2099044175000.0,0.6131550263009252,-9.554380871844408,-1.3748702657523129,-0.0125227375,-0.035430185,-0.004276057,200.23926,34.613983,18.828808
2099049170000.0,0.6117259012732904,-9.554857256470518,-1.3712974531832258,0.076358154,-0.007330383,0.0076358155,199.99298,35.35467,18.661257
2099054191000.0,0.6102893373566229,-9.555336120776362,-1.367706043391557,0.021991149,0.0027488936,0.012217305,199.74117,36.00395,18.515085
2099059511000.0,0.608767226216079,-9.555843501399163,-1.3639007655401971,0.007941248,-0.0021380284,0.009468411,199.49402,36.61957,18.365368
2099064233000.0,0.6074162095232879,-9.556293849388052,-1.3605232238082197,0.012217305,-0.0033597588,0.008552114,199.25142,37.244854,18.211647
2099069216000.0,0.6059905178290529,-9.556769089546592,-1.356958994572632,0.019547688,-0.0015271631,0.009468411,199.01215,37.872063,18.058697
2099074223000.0,0.6045579594680184,-9.55724661864027,-1.3533775986700458,0.014049901,-0.004581489,0.0030543262,198.77701,38.499447,17.908815
2099079239000.0,0.6031228261069341,-9.557725006084627,-1.3497897652673352,0.013133603,-0.006414085,0.0143553335,198.54163,39.12439,17.754978
2099084246000.0,0.6016902677458996,-9.558202535178308,-1.3462083693647489,0.015271631,-0.002443461,-0.0009162979,198.31763,39.744583,17.607038
2099089257000.0,0.6002565649403986,-9.558680445761176,-1.3426241123509963,0.0021380284,-0.0012217305,0.0036651916,198.08905,40.374744,17.466566
2099094247000.0,0.598828870468347,-9.559156353525797,-1.3390548761708674,0.007330383,-0.004581489,0.003970624,197.86768,40.99536,17.329948
2099099247000.0,0.5973983148851291,-9.559633215013394,-1.3354784872128225,0.0143553335,-0.0021380284,0.0027488936,197.6501,41.61704,17.19128
2099104244000.0,0.595968617635261,-9.560109790384098,-1.3319042440881523,-0.004276057,0.0027488936,-0.0009162979,197.43582,42.24138,17.05327
2099109355000.0,0.5945063037180955,-9.56059723819672,-1.3282484592952388,-0.005497787,0.0061086523,-0.0036651916,197.22482,42.856533,16.915218
2099119332000.0,0.5916517731073424,-9.56154876760907,-1.321112132768356,0.004581489,-0.004276057,0.004276057,197.01347,43.471436,16.777565
2099124326000.0,0.5902229341908243,-9.562025056862884,-1.3175400354770606,0.0067195175,0.00061086525,-0.005192355,196.81332,44.083225,16.640463
2099129320000.0,0.5887940952743062,-9.562501346116694,-1.3139679381857652,0.0012217305,0.0030543262,-0.0009162979,196.60893,44.69344,16.501566
2099134300000.0,0.5873692619134211,-9.56297630015834,-1.3104058547835524,0.0018325958,-0.004886922,0.0067195175,196.40756,45.2972,16.365139
2099139357000.0,0.5859223979965544,-9.563458597866894,-1.3067886949913858,0.0076358155,-0.004886922,0.005192355,196.21243,45.896664,16.22794
2099144337000.0,0.5844975646356693,-9.563933551908542,-1.303226611589173,0.004276057,0.002443461,0.008246681,196.01773,46.49577,16.088505
2099149331000.0,0.5830687257191511,-9.564409841162352,-1.2996545142978777,0.0076358155,-0.004581489,0.004886922,195.8243,47.08652,15.95374
2099154438000.0,0.5816075562464523,-9.564896907485783,-1.2960015906161306,0.004886922,-0.008552114,0.0067195175,195.63455,47.676353,15.815544
2099159296000.0,0.5802176284417977,-9.565360226107131,-1.292526771104494,0.0106901415,-0.010079277,0.00580322,195.44786,48.257877,15.679856
2099164296000.0,0.5787870728585798,-9.56583708759473,-1.2889503821464492,0.020463986,-0.010995574,0.0033597588,195.2632,48.83447,15.545062
2099169279000.0,0.5773613811643447,-9.56631232775327,-1.2853861529108617,0.013439035,-0.009773844,0.013439035,195.07939,49.41052,15.40792
2099174267000.0,0.5759342589145264,-9.566788044773295,-1.281818347286316,0.01863139,-0.0143553335,0.005192355,194.90063,49.973522,15.277042
2099179311000.0,0.5744911144421762,-9.567269102641983,-1.2782104861054402,0.02687807,-0.013744468,0.0036651916,194.72313,50.534504,15.141709
2099184292000.0,0.5730659949701744,-9.567744152055926,-1.2746476874254358,0.010079277,-0.022602014,0.0076358155,194.54555,51.095234,15.009851
2099189343000.0,0.5716208477200075,-9.568225877530695,-1.271034819300019,0.020158553,-0.025961773,0.01038471,194.3726,51.64127,14.87805
2099194337000.0,0.5701920088034894,-9.56870216678451,-1.2674627220087236,0.019547688,-0.026572637,0.0076358155,194.20116,52.188953,14.748124
2099199267000.0,0.5687814809984365,-9.56917235221128,-1.2639364024960913,0.014966198,-0.032070424,0.00030543262,194.03065,52.729393,14.620513
2099204344000.0,0.567328894859237,-9.569656557365786,-1.2603049371480923,0.02443461,-0.02443461,0.0021380284,193.86475,53.261604,14.489899
2099209300000.0,0.5659109281651513,-9.570129222472293,-1.2567600204128782,0.014660766,-0.03268129,0.003970624,193.69739,53.793545,14.364971
2099214360000.0,0.5644632059149347,-9.57061180629774,-1.2531407147873368,0.017715093,-0.026572637,0.007941248,193.53732,54.314537,14.236186
2099219335000.0,0.5630398031096329,-9.571086283477898,-1.249582207774082,0.020463986,-0.027183503,0.004581489,193.37694,54.831764,14.111684
2099224336000.0,0.5616089614152981,-9.571563240337792,-1.2460051035382456,0.027183503,-0.03176499,0.00030543262,193.21907,55.341747,13.986768
2099229353000.0,0.5601735419430973,-9.572041723154449,-1.2424165548577433,0.027794369,-0.03145956,-0.004276057,193.06525,55.846348,13.862776
2099234354000.0,0.5587427002487626,-9.57251868001434,-1.2388394506219067,0.020158553,-0.02687807,0.0018325958,192.91277,56.346287,13.737962
2099239280000.0,0.5573333168881763,-9.57298848395192,-1.2353159922204406,0.017104227,-0.027488936,-0.00580322,192.76414,56.836777,13.619074
2099244268000.0,0.555906194638358,-9.573464200971948,-1.231748186595895,0.03756821,-0.026267206,-0.004276057,192.61716,57.3191,13.496254
2099249283000.0,0.5544713473883904,-9.573942493044006,-1.228161068470976,0.021380283,-0.031154128,-0.004276057,192.47208,57.804596,13.377412
2099254347000.0,0.5530224806937072,-9.574425458358643,-1.224538901734268,0.017715093,-0.03634648,-0.004581489,192.32924,58.27583,13.258929
2099259307000.0,0.551603369555155,-9.57489850495434,-1.2209911238878874,0.023823744,-0.022907447,-0.0021380284,192.19173,58.74306,13.138664
2099264341000.0,0.5501630861939711,-9.575378609100053,-1.2173904154849278,0.012217305,-0.027488936,0.004276057,192.04988,59.210247,13.021473
2099269585000.0,0.548662719498292,-9.575878741428244,-1.2136394987457302,0.022602014,-0.027488936,0.0070249503,191.91498,59.664063,12.903003
2099274337000.0,0.5473031194720017,-9.576331950586056,-1.2102404986800044,0.017715093,-0.037873644,-0.002443461,191.77904,60.117996,12.7888975
2099279632000.0,0.545982657258006,-9.576762147540656,-1.2068272104354874,0.0067195175,-0.040317107,0.004276057,191.64468,60.567207,12.669842
2099284364000.0,0.5475598488022234,-9.576086218121524,-1.2090803422212388,0.010079277,-0.037873644,0.0027488936,191.51328,61.005714,12.556901
2099289351000.0,0.5492220327056495,-9.575373863934452,-1.2114548917173384,0.020158553,-0.038179077,0.0030543262,191.38585,61.44514,12.434607
2099294344000.0,0.5508862164292924,-9.574660652694016,-1.2138322981007403,0.017104227,-0.03756821,-0.005192355,191.26237,61.879734,12.315734
2099299328000.0,0.5525474004226101,-9.573948727033626,-1.2162054191531888,0.0030543262,-0.049480084,0.0030543262,191.13512,62.31077,12.195331
2099304348000.0,0.5542205833372279,-9.573231659053056,-1.218595681529451,0.0143553335,-0.053145275,0.003970624,191.01385,62.728134,12.079081
2099309298000.0,0.5558704350159845,-9.57252459002839,-1.2209526135538529,0.014966198,-0.045814894,0.0015271631,190.89342,63.146435,11.962908
2099314377000.0,0.5575632828293997,-9.571799094356416,-1.2233709686552543,0.014660766,-0.046120327,0.0027488936,190.77104,63.556744,11.8480835
2099319345000.0,0.5592191339688064,-9.57108945417166,-1.2257364713415635,0.006414085,-0.05222898,0.0012217305,190.65128,63.962322,11.735639
2099324333000.0,0.560881651175602,-9.57037695714236,-1.228111496985547,0.01282817,-0.04886922,0.014049901,190.53375,64.36044,11.619273
2099329317000.0,0.5625428351689198,-9.56966503148197,-1.2304846180379951,0.015577064,-0.0421497,0.009162978,190.41924,64.75313,11.509498
2099334517000.0,0.5642760126900378,-9.568922251900505,-1.2329605870333264,0.008552114,-0.041233405,0.0106901415,190.3034,65.14337,11.39618
2099339371000.0,0.5658938672453276,-9.568228895729648,-1.2352718088608916,0.009773844,-0.0421497,0.01160644,190.19101,65.52431,11.285042
2099344337000.0,0.5675490517779954,-9.567519541229348,-1.2376363592514332,0.009162978,-0.045814894,0.0009162979,190.08063,65.90032,11.1780405
2099349323000.0,0.569210902378052,-9.566807329884504,-1.240010432599649,0.004276057,-0.034513887,0.02107485,189.97212,66.27568,11.062374
2099354311000.0,0.5708734195848477,-9.566094832855203,-1.2423854582436322,0.0076358155,-0.032986723,0.011911872,189.86557,66.637985,10.960012
2099359352000.0,0.5725536018702239,-9.565374765187862,-1.2447857197254526,0.005192355,-0.040317107,0.009773844,189.7582,67.00098,10.851435
2099364333000.0,0.5742137859534333,-9.564663268054154,-1.24715741233425,0.004276057,-0.036651913,0.004886922,189.65678,67.35549,10.746086
2099369338000.0,0.5758819693175095,-9.563948342706992,-1.2495405324922564,-0.011301007,-0.029626964,0.013744468,189.55444,67.710304,10.639279
2099374328000.0,0.5775451531310439,-9.563235559993238,-1.2519165104320071,0.0027488936,-0.03481932,-0.0030543262,189.454,68.048134,10.542774
2099379319000.0,0.5792086702479479,-9.562522634437258,-1.2542929645196417,-0.01038471,-0.03176499,0.004276057,189.35577,68.3957,10.437182
2099384331000.0,0.5808791867356101,-9.561806709194505,-1.256679417712834,-0.0030543262,-0.034208454,-0.00030543262,189.25853,68.72519,10.341567
2099389349000.0,0.582551703043489,-9.56108992689839,-1.2590687277933288,-0.0076358155,-0.030543262,0.010079277,189.16289,69.058624,10.240285
2099394338000.0,0.584214553553654,-9.560377287026864,-1.2614442295851958,-0.0036651916,-0.027794369,0.0015271631,189.06961,69.37941,10.146911
2099399330000.0,0.5858784039739274,-9.559664218628654,-1.263821159820714,-0.005497787,-0.02321288,0.0027488936,188.97713,69.700325,10.048818
2099404352000.0,0.5875522534952842,-9.55894686496363,-1.2662123744927436,-0.00061086525,-0.025350908,0.003970624,188.88538,70.012115,9.954614
2099409297000.0,0.5892004386571935,-9.5582405101501,-1.268566925777727,-0.005192355,-0.027488936,0.004276057,188.79591,70.32154,9.861143
2099414346000.0,0.5908832873695253,-9.557519299744945,-1.270970996442617,-0.01160644,-0.024740042,0.004886922,188.70808,70.62531,9.768245
2099419340000.0,0.5925478043965375,-9.55680594566228,-1.2733488789739027,-0.0067195175,-0.02076942,0.005497787,188.62097,70.92238,9.67655
2099424322000.0,0.5942083217831164,-9.556094305686344,-1.2757210477305836,-0.008857546,-0.022602014,-0.0018325958,188.53458,71.216606,9.588323
2099429349000.0,0.5958838378213204,-9.555376237810185,-1.2781146431420318,-0.007941248,-0.018936822,0.0061086523,188.45049,71.50626,9.496175
2099434289000.0,0.5975303564663825,-9.554670597207789,-1.2804668136875967,-0.0027488936,-0.023823744,0.0018325958,188.36595,71.787575,9.411384
2099439405000.0,0.5992355365044673,-9.553939816373408,-1.282902786260696,-0.0125227375,-0.02565634,0.016187929,188.28215,72.071434,9.319898
2099444340000.0,0.6008803886326821,-9.55323488998215,-1.285252576066842,0.01282817,-0.018325957,0.014660766,188.202,72.33765,9.234842
2099449329000.0,0.6025432391428471,-9.552522250110624,-1.287628077858709,0.0030543262,-0.016493361,0.011911872,188.11964,72.612015,9.1479
2099454312000.0,0.6042040898327955,-9.55181046729246,-1.2900007227632737,0.004886922,-0.019242255,0.002443461,188.03954,72.87152,9.064243
2099459289000.0,0.6058629407025272,-9.55109954152766,-1.292370510780536,0.0030543262,-0.019242255,0.005497787,187.96078,73.1312,8.978735
2099464521000.0,0.6076067839314675,-9.550352190994923,-1.2948617165081466,-0.005192355,-0.022602014,0.010995574,187.88164,73.38643,8.896734
2099469310000.0,0.6092029737677433,-9.549668119568835,-1.29714198872327,0.0036651916,-0.0125227375,0.01282817,187.80705,73.63343,8.815104
2099474322000.0,0.6108734902554056,-9.548952194326086,-1.2995284419164626,0.0015271631,-0.017104227,0.012217305,187.72792,73.88111,8.735007
2099479282000.0,0.6125266749678567,-9.548243696879148,-1.3018901354197017,0.004276057,-0.022907447,0.009468411,187.65204,74.1211,8.655536
2099484302000.0,0.620305124556924,-9.551771435566236,-1.3356984978672275,0.0012217305,-0.02076942,0.0076358155,187.57777,74.358765,8.576895
2099489256000.0,0.6298061643947132,-9.556521561129468,-1.378453199459297,0.003970624,-0.01863139,-0.0018325958,187.50323,74.58851,8.502638
2099494285000.0,0.6259384883858629,-9.554587883659044,-1.394767712806653,-0.0030543262,-0.015577064,0.0036651916,187.42041,74.83329,8.4379015
2099499244000.0,0.6180397230794179,-9.550638828856547,-1.402666440997921,0.004886922,-0.02107485,0.0030543262,187.33751,75.06698,8.378599
2099504319000.0,0.6226008766078815,-9.550013883082952,-1.4039164304376224,-0.00061086525,-0.02687807,0.0021380284,187.24818,75.31641,8.324325
2099509345000.0,0.6488000150315698,-9.555253266492487,-1.3934368429131283,0.0106901415,-0.02687807,0.0070249503,187.15941,75.55619,8.26909
2099514341000.0,0.6607997,-9.56531801426025,-1.3784171944147354,0.0067195175,-0.023823744,0.0030543262,187.0661,75.80538,8.218619
2099519280000.0,0.6607997,-9.57937054040404,-1.359680884175084,0.005192355,-0.025350908,-0.004886922,186.97218,76.04664,8.168615
2099525079000.0,0.6515457741010531,-9.574045526615786,-1.304060251028886,0.004886922,-0.026572637,-0.0021380284,186.86862,76.28725,8.127525
2099529314000.0,0.6397910121988214,-9.558372630760312,-1.2452865438025311,0.004276057,-0.029321533,-0.00061086525,186.76553,76.52165,8.089277
2099534288000.0,0.6300153854055377,-9.55013067302612,-1.2066777,0.0021380284,-0.024129177,0.0015271631,186.65154,76.75673,8.056526
2099539304000.0,0.6253155293444869,-9.55483013648371,-1.2066777,0.002443461,-0.033292156,0.005497787,186.53345,76.986595,8.023597
2099544284000.0,0.6241840217385057,-9.561036254130748,-1.2032945165229885,0.0036651916,-0.033292156,0.010079277,186.40114,77.21181,7.996944
2099549345000.0,0.6285364090229886,-9.569741210488504,-1.194589741954023,0.0061086523,-0.04062254,0.0076358155,186.26544,77.43061,7.971507
2099554290000.0,0.6312755882574258,-9.57363244960396,-1.1875241,0.00580322,-0.027794369,0.008552114,186.10211,77.66241,7.9580073
2099559271000.0,0.6265526139207921,-9.55474065089109,-1.1875241,0.0070249503,-0.029626964,0.010079277,185.93459,77.88647,7.9447255
2099564191000.0,0.6204593788886424,-9.541210721606037,-1.1827803053460515,0.007941248,-0.022296581,0.004886922,185.71248,78.13042,7.9613447
2099569188000.0,0.60453593625,-9.562441875,-1.1456255375000002,0.005192355,-0.023518313,0.007330383,185.49133,78.367645,7.9723115
2099574185000.0,0.5907098476876048,-9.585963589685436,-1.1235385859382705,-0.0061086523,-0.023518313,0.012217305,185.15604,78.663414,8.035031
2099579225000.0,0.5811906340400355,-9.614521270387536,-1.1330577797061434,0.00580322,-0.020463986,0.0070249503,184.83328,78.936806,8.090193
2099584199000.0,0.5703513032142502,-9.631429876206589,-1.1410590322619163,-0.004276057,-0.019242255,0.014049901,184.5644,79.24137,8.112594
2099589192000.0,0.556076162682854,-9.62191291710618,-1.1458174124390488,0.0033597588,-0.01740966,0.00580322,184.30415,79.518394,8.134615
2099594209000.0,0.5432425169861453,-9.61379623097362,-1.1531700382805086,-0.003970624,-0.015271631,0.014660766,184.07526,79.8176,8.132746
2099599189000.0,0.534190996014424,-9.60927037597267,-1.166747366995635,0.0012217305,-0.011301007,0.0143553335,183.85255,80.090485,8.131566
2099604206000.0,0.5301375782787688,-9.604683776710448,-1.1822137728484612,-0.0033597588,-0.018936822,0.012217305,183.63998,80.377144,8.119917
2099609343000.0,0.5494263536561458,-9.59986198568908,-1.2063247420701824,-0.009162978,-0.013133603,0.01160644,183.43605,80.64164,8.104157
2099614294000.0,0.5619353999186661,-9.599057183916226,-1.224283199959333,-0.01160644,-0.008552114,0.010079277,183.22498,80.90933,8.087851
2099619278000.0,0.5425247568930459,-9.61846772559984,-1.2145778784465229,-0.014049901,-0.0125227375,0.002443461,183.01685,81.149216,8.070221
2099624256000.0,0.5241115092673052,-9.635138980250815,-1.2092905861854448,-0.01282817,-0.005497787,0.004276057,182.79865,81.38462,8.056472
2099629276000.0,0.5098696944159179,-9.639886342747111,-1.2235323762516046,-0.0021380284,-0.00061086525,-0.0012217305,182.58324,81.58022,8.043202
2099634324000.0,0.5012565574004545,-9.645476250469322,-1.2411176640154131,-0.01038471,-0.0061086523,0.004276057,182.36893,81.74913,8.019148
2099639294000.0,0.5200676464726806,-9.654881488094064,-1.2740370760300366,-0.0106901415,-0.010995574,0.003970624,182.16026,81.88075,7.995005
2099644276000.0,0.539061213284538,-9.662998,-1.3029978021957915,-0.014966198,-0.009468411,0.004886922,181.95517,81.98725,7.9630833
2099649274000.0,0.5589667636396907,-9.662998,-1.306978908941196,-0.016798794,0.003970624,0.00580322,181.75586,82.06226,7.9285
2099654330000.0,0.5791033107776762,-9.662998,-1.3110062150045745,-0.020463986,-0.002443461,0.0061086523,181.5523,97.89597,7.8950963
2099659356000.0,0.58418524,-9.647072057649668,-1.3120226,-0.01863139,-0.003970624,0.0015271631,181.35779,97.88333,7.8603535
2099664406000.0,0.58418524,-9.62562512195122,-1.3120226,-0.01740966,-0.010079277,0.0033597588,181.1638,97.89466,7.821374
2099669334000.0,0.5908565454903446,-9.612890185062476,-1.3231414424839076,-0.0018325958,0.00580322,0.01282817,180.98398,97.93111,7.7829833
2099674336000.0,0.6044602430291556,-9.60835552451723,-1.3458142717152592,0.0012217305,-0.0061086523,0.01160644,180.79787,97.99144,7.744902
2099679312000.0,0.61291564,-9.605537,-1.3631735088708203,0.0027488936,0.003970624,0.018020526,180.62404,98.06611,7.7015834
2099684304000.0,0.61291564,-9.605537,-1.371908596756806,0.0070249503,-0.0033597588,0.017715093,180.44502,98.15874,7.658547
2099689303000.0,0.6143215212136821,-9.611160571830986,-1.374842461496982,0.011911872,-0.003970624,0.023518313,180.27208,98.266716,7.613722
2099694283000.0,0.6219983725778672,-9.641868233802818,-1.3518119354607645,0.0106901415,-0.014049901,0.014049901,180.09741,98.39144,7.5716166
2099699237000.0,0.6296351439951711,-9.672415574647887,-1.3289016491187122,0.01985312,-0.009773844,0.014966198,179.92545,98.52191,7.5246224
2099704286000.0,0.6177304791111495,-9.682152,-1.3244671507766654,0.023823744,-0.027488936,0.014966198,179.74739,98.66464,7.4786005
2099710306000.0,0.592854605811184,-9.682152,-1.3294423264756643,0.026267206,-0.03604105,0.01985312,179.57657,98.81214,7.429962
2099714367000.0,0.5822766778761421,-9.684060594010152,-1.3292676458477155,0.02443461,-0.025045475,0.015577064,179.41231,98.96684,7.383331
2099719304000.0,0.5774765906598985,-9.68886076142132,-1.3244675786802032,0.03756821,-0.03145956,0.01282817,179.24393,99.121605,7.3331933
2099724289000.0,0.56644726599665,-9.694993351340036,-1.3069093417504187,0.03848451,-0.03756821,0.004581489,179.07883,99.28437,7.2808795
2099729363000.0,0.5460985711892797,-9.703132574288109,-1.27028164860134,0.04184427,-0.040927973,-0.0033597588,178.91559,99.44761,7.228315
2099734415000.0,0.5267244,-9.710882,-1.2338799607942237,0.03940081,-0.049785517,-0.002443461,178.75415,99.61013,7.173249
2099739296000.0,0.5267244,-9.710882,-1.2001295197833934,0.04428773,-0.05589417,-0.01282817,178.5946,99.77584,7.1229095
2099744367000.0,0.5240673513880597,-9.710122867827527,-1.1660930281757875,0.054061573,-0.052839845,-0.021685716,178.44218,99.927505,7.066523
2099749337000.0,0.496440716238806,-9.702229799004977,-1.1424130387064677,0.04886922,-0.058643065,-0.024740042,178.28763,100.08213,7.010402
2099754344000.0,0.4686084099626865,-9.694277968905473,-1.1185567595771144,0.058337633,-0.06658431,-0.021991149,178.13937,100.222595,6.954761
2099759301000.0,0.4624550466678164,-9.683423867885478,-1.0804580559503278,0.0571159,-0.07238753,-0.016798794,177.99208,100.36572,6.898729
2099764364000.0,0.4666364271240082,-9.670879451448776,-1.0344627792428425,0.054367006,-0.07819075,-0.01863139,177.84433,100.507034,6.8432326
2099769239000.0,0.4667821662633833,-9.659276019271948,-0.9981206284261244,0.06658431,-0.08246681,-0.022602014,177.69476,100.63586,6.780711
2099774337000.0,0.4593146684184765,-9.648074922606302,-0.9757181037014376,0.061391957,-0.08307768,-0.028099801,177.54626,100.76856,6.7188416
2099780962000.0,0.4513300646926956,-9.634268,-0.9484088851064824,0.06780604,-0.089491755,-0.02687807,177.39952,100.88773,6.65683
2099784312000.0,0.4633167251634597,-9.634268,-0.9514055643050626,0.06536258,-0.09468412,-0.028710667,177.2543,101.010056,6.5970483
2099789310000.0,0.4812001069643191,-9.634268,-0.9558764307631236,0.060170226,-0.099265605,-0.02687807,177.11015,101.12348,6.534088
2099794284000.0,0.4907768364927923,-9.627188792683944,-0.955321001187401,0.061086524,-0.10354166,-0.022602014,176.96628,101.23439,6.4705935
2099799275000.0,0.4947596553245563,-9.615240086659446,-0.9513381615615364,0.049785517,-0.10262536,-0.023823744,176.82402,101.348335,6.4080596
2099804279000.0,0.5027002058443572,-9.608360809528731,-0.9546926062164116,0.04917465,-0.10995574,-0.023518313,176.68774,101.45631,6.346568
2099809365000.0,0.5278695194346837,-9.62346269729227,-0.9899296347302604,0.04734206,-0.122783914,-0.017715093,176.55191,101.564835,6.2836227
2099814345000.0,0.5484319403002883,-9.634268,-1.021526364084717,0.038789943,-0.13958271,-0.023518313,176.41263,101.675064,6.2246957
2099819280000.0,0.5578306691458685,-9.634268,-1.0450232352689668,0.028710667,-0.14477506,-0.0290161,176.27486,101.78339,6.1639876
2099824290000.0,0.5661459615981821,-9.63538238487029,-1.0730548543836396,0.031154128,-0.14660765,-0.029321533,176.1374,101.89711,6.106672
2099829335000.0,0.5707203751562204,-9.63995689395948,-1.1142245764059835,0.027488936,-0.14874569,-0.023823744,176.00012,102.01264,6.04893
2099834306000.0,0.575282102927181,-9.641150143269131,-1.161343416108765,0.022907447,-0.15027285,-0.020463986,175.85887,102.134575,5.9934916
2099839294000.0,0.5802022057101659,-9.62146940333711,-1.2499049990524256,0.016798794,-0.14813483,-0.021380283,175.72002,102.25527,5.937747
2099844310000.0,0.5868036661671793,-9.597681739726028,-1.328581860665362,0.01038471,-0.13622294,-0.016493361,175.57771,102.38471,5.8805914
2099850115000.0,0.6023455515459882,-9.55105619178082,-1.3700268342465751,0.01038471,-0.1337795,-0.020158553,175.43492,102.512726,5.825678
2099854353000.0,0.6126683096945409,-9.519346,-1.3979663722771394,0.018936822,-0.124005646,-0.010995574,175.29826,102.65597,5.7672744
2099859319000.0,0.6084329914293348,-9.519346,-1.3937310982367084,0.021685716,-0.10995574,-0.012217305,175.16498,102.79944,5.713248
2099864288000.0,0.6041951145747618,-9.519346,-1.3894932656336272,0.018020526,-0.10781772,-0.012217305,175.03146,102.94978,5.6596704
2099869345000.0,0.5997010920712278,-9.50115726035614,-1.3995502817713217,0.013744468,-0.10140363,-0.010995574,174.90538,103.09641,5.6072373
2099874253000.0,0.5952959435801312,-9.479131517900656,-1.4127657732427366,0.022907447,-0.09162979,-0.003970624,174.78337,103.23665,5.5536346
2099879318000.0,0.5825927005178106,-9.465877511033884,-1.431329130616855,0.015271631,-0.08460484,0.0030543262,174.669,103.37844,5.498878
2099884398000.0,0.565685595461338,-9.45742423214596,-1.4524629457341445,0.020463986,-0.08277224,0.004581489,174.55788,103.51141,5.4442577
2099889254000.0,0.5538457242315671,-9.460354378842164,-1.4604241726947012,0.018020526,-0.086437434,0.0015271631,174.44814,103.64699,5.3890095
2099894336000.0,0.5492568785215916,-9.483298607392042,-1.446657635564775,0.013439035,-0.0842994,0.0033597588,174.34271,103.7782,5.3328114
2099899303000.0,0.5427982998337416,-9.500193,-1.4313881771088557,0.006414085,-0.08979719,0.007330383,174.22908,103.9109,5.273007
2099904299000.0,0.5302381512373119,-9.500193,-1.4104546398319917,0.007941248,-0.0870483,0.007941248,174.12007,104.039925,5.214697
2099909697000.0,0.5172990500024849,-9.500647520831608,-1.388637,-0.0036651916,-0.087659165,-0.0027488936,174.00961,104.16762,5.157053
2099914540000.0,0.5211407407984759,-9.512172360556614,-1.388637,-0.00030543262,-0.09315695,0.003970624,173.90146,104.28635,5.0947285
2099919314000.0,0.5249276976145117,-9.52353300165659,-1.388637,-0.01038471,-0.09590584,0.007941248,173.79411,104.40464,5.033986
2099924338000.0,0.5243206011699417,-9.540941918850072,-1.3958483764101164,-0.015271631,-0.09040806,0.0106901415,173.6895,104.51757,4.972414
2099929392000.0,0.5199172668868267,-9.562958452328967,-1.4090583424763463,-0.022296581,-0.093462385,0.005192355,173.58302,104.63168,4.9118066
2099934277000.0,0.5156263090130353,-9.578328262756052,-1.4143250062569832,-0.03023783,-0.10598512,0.0033597588,173.47336,104.741974,4.850809
2099939323000.0,0.5111268180633147,-9.582827847672254,-1.4053259303910612,-0.032375857,-0.092240654,0.004886922,173.37164,104.850266,4.792527
2099944299000.0,0.5069131634818265,-9.586384,-1.3936106664326915,-0.04550946,-0.09773844,0.005192355,173.26373,104.96135,4.7320657
2099949336000.0,0.5035607212530405,-9.586384,-1.3701435813329623,-0.034208454,-0.09560041,0.0061086523,173.16345,105.06368,4.673076
2099954388000.0,0.5001982955750921,-9.586384,-1.3466066121203697,-0.04642576,-0.10415252,0.0021380284,173.05974,105.169815,4.613997
2099959291000.0,0.493444321839355,-9.586384,-1.323593462645566,-0.056199603,-0.106901415,-0.0036651916,172.95961,105.27,4.5563254
2099964361000.0,0.4789461353060615,-9.586384,-1.299429742729173,-0.043066,-0.10445796,0.00061086525,172.86046,105.36438,4.497295
2099969351000.0,0.464548966107573,-9.588741201872171,-1.2868279381876775,-0.041233405,-0.10476339,-0.0009162979,172.75876,105.45613,4.4408774
2099974328000.0,0.4499203284999616,-9.596055287731144,-1.2977994870405891,-0.04062254,-0.10140363,-0.004276057,172.66032,105.54232,4.3847938
2099979334000.0,0.4352064526985345,-9.603411991329702,-1.3088349649505102,-0.035124753,-0.10567969,-0.0033597588,172.55627,105.61989,4.3250003
2099984303000.0,0.4155938127110463,-9.605537,-1.3089501051088244,-0.03848451,-0.10751228,-0.0033597588,172.45488,105.69816,4.267376
2099989539000.0,0.392761572164648,-9.605537,-1.3043836608141337,-0.03573562,-0.10323623,-0.008552114,172.35501,105.771736,4.2116385
2099994276000.0,0.3856375707146661,-9.608102358930664,-1.2947498571413356,-0.032375857,-0.10293079,-0.01160644,172.25044,105.84636,4.1511087
2099999272000.0,0.3907335119991479,-9.613198395995314,-1.2794620120034084,-0.03145956,-0.11453723,-0.008246681,172.14525,105.91894,4.090262
2100004297000.0,0.3950862617564289,-9.624862676128092,-1.2883384159873847,-0.03481932,-0.11362094,-0.01038471,172.0397,105.988205,4.028394
2100009304000.0,0.3989639131877729,-9.640373200873364,-1.3116043650655025,-0.022296581,-0.1133155,-0.010079277,171.93266,106.05067,3.964667
2100014302000.0,0.4006540753100855,-9.65970826143245,-1.329604396951347,-0.021380283,-0.116675265,-0.010079277,171.82486,106.11156,3.9033196
2100019284000.0,0.3906913132679056,-9.699559580079349,-1.3196416453121738,-0.01985312,-0.124311075,-0.013744468,171.71709,106.16755,3.843223
2100024246000.0,0.3863453458227848,-9.731127050632912,-1.3174777392405062,-0.017715093,-0.13316862,-0.017715093,171.60916,106.22682,3.784064
2100029328000.0,0.400784427551424,-9.735940175039556,-1.3415428587025315,-0.024129177,-0.1255328,-0.014660766,171.50537,106.286285,3.7252948
2100034301000.0,0.414526708911594,-9.733256899038878,-1.3653546635119924,-0.023518313,-0.12156218,-0.008857546,171.3984,106.33408,3.6645095
2100039357000.0,0.4271045081600138,-9.703908546107888,-1.3905102882760412,-0.026572637,-0.13103059,-0.014049901,171.29059,106.38392,3.6061025
2100044298000.0,0.4393962221802753,-9.675227728894276,-1.415093741986319,-0.014049901,-0.13439035,-0.029626964,171.18149,106.43667,3.5528624
2100049334000.0,0.420553062859486,-9.664582821578277,-1.425359469792236,-0.012217305,-0.13194689,-0.020158553,171.07451,106.49049,3.494468
2100054268000.0,0.3990240165062876,-9.655971026790596,-1.4339710397758336,-0.018020526,-0.13041973,-0.02076942,170.96585,106.54314,3.4433093
2100059371000.0,0.4017242048603642,-9.641320905117086,-1.442571079028621,-0.015882496,-0.12767084,-0.01985312,170.85977,106.599,3.3934433
2100064355000.0,0.4141433213633998,-9.624762181092802,-1.4508504842671293,-0.017715093,-0.12644911,-0.016187929,170.75548,106.655876,3.3435
2100069330000.0,0.4162633607205503,-9.604881692949268,-1.453969239234738,-0.027488936,-0.13072516,-0.01740966,170.6466,106.71511,3.2897978
2100074326000.0,0.4039213849406707,-9.580197672656922,-1.4498552931298367,-0.03756821,-0.13408493,-0.025350908,170.53966,106.77353,3.2377172
2100079330000.0,0.3914083717141598,-9.557342849001175,-1.4451673692714453,-0.040927973,-0.13988814,-0.025961773,170.43445,106.8343,3.1873407
2100084388000.0,0.3771782072928907,-9.55378560693302,-1.4344947515276143,-0.040317107,-0.14110987,-0.020158553,170.33104,106.895134,3.1379855
2100089354000.0,0.3632068754391891,-9.550293067567567,-1.424016258108108,-0.057726767,-0.14263703,-0.016493361,170.22792,106.95818,3.0870655
2100094329000.0,0.3559125895387106,-9.541793950633934,-1.407943106366334,-0.06780604,-0.14844026,-0.020158553,170.12465,107.0175,3.0366793
2100099333000.0,0.3602217620231993,-9.524556900728353,-1.3820880264634474,-0.0729984,-0.14813483,-0.01740966,170.02498,107.0782,2.9844851
2100105508000.0,0.3665925770091239,-9.50308420747719,-1.357232682990876,-0.077579886,-0.15454891,-0.022602014,169.91399,107.13969,2.930537
2100109325000.0,0.372015712622209,-9.489526368444478,-1.351809547377791,-0.08032878,-0.16187929,-0.02443461,169.80489,107.20017,2.875468
2100114292000.0,0.3790727507647801,-9.47188377308805,-1.34475250923522,-0.087964594,-0.17562376,-0.027183503,169.69443,107.2592,2.8226001
2100119271000.0,0.3891055108995633,-9.455851786899563,-1.331703101601165,-0.09560041,-0.17898351,-0.02107485,169.58694,107.31713,2.7685938
2100124267000.0,0.4030344025327511,-9.44192298253275,-1.3108097132459973,-0.099571034,-0.19425514,-0.023823744,169.47302,107.375175,2.7161238
2100129795000.0,0.4184465148122271,-9.426510966812229,-1.287691488500728,-0.100792766,-0.20677789,-0.021380283,169.35863,107.43346,2.6632633
2100134299000.0,0.4213795,-9.404865391886792,-1.2521041895471698,-0.10842858,-0.2171626,-0.021380283,169.24184,107.493324,2.6111827
2100139321000.0,0.4213795,-9.37764212481132,-1.206731888245283,-0.110872045,-0.23915374,-0.022296581,169.12025,107.55046,2.5571194
2100144275000.0,0.4299615399619748,-9.330072821756763,-1.1926733218264782,-0.11759156,-0.25411993,-0.02076942,168.99637,107.60545,2.5071278
2100149276000.0,0.4451379126104315,-9.26633186139806,-1.2017791416122696,-0.106901415,-0.2611449,-0.01282817,168.87093,107.65451,2.4548335
2100154326000.0,0.4604629839711008,-9.201966364535142,-1.2109741805881236,-0.118507855,-0.2761111,-0.017715093,168.73819,107.7013,2.404843
2100159431000.0,0.4648847054898911,-9.125594511664074,-1.2228227251944013,-0.14049901,-0.2846632,-0.005497787,168.60916,107.74591,2.3483815
2100164281000.0,0.4552532994245723,-9.038911510108864,-1.2372698418351478,-0.16065755,-0.30451632,-0.0070249503,168.47308,107.79284,2.2951438
2100169331000.0,0.4482246065524968,-8.9643412368758,-1.265723412644046,-0.16523905,-0.30543262,-0.002443461,168.34465,107.846924,2.245113
2100175187000.0,0.4437366170774648,-8.897021605633803,-1.315091189084507,-0.18295415,-0.312763,-0.0009162979,168.2105,107.909096,2.194395
2100179659000.0,0.4398524279805273,-8.844204318133874,-1.3530524861825557,-0.20616703,-0.3191771,0.0076358155,168.08023,107.981735,2.1391306
2100184296000.0,0.4290432630685598,-8.768540517403652,-1.3962891157322517,-0.22143865,-0.3304781,0.015577064,167.94856,108.05535,2.0829377
2100189460000.0,0.4170056250255577,-8.68427744494929,-1.4444396343853956,-0.24740042,-0.3295618,0.02321288,167.82465,108.15252,2.0246425
2100194271000.0,0.4182373958645245,-8.641422154233608,-1.4845555565523232,-0.25900686,-0.3417791,0.024129177,167.69609,108.24765,1.964364
2100199289000.0,0.4307575215753365,-8.628901775770734,-1.5221159511159357,-0.2779437,-0.35124752,0.040011674,167.5724,108.349174,1.8988018
2100204291000.0,0.4405331,-8.628285061464561,-1.5606017295853347,-0.29749137,-0.3567453,0.047647487,167.44637,108.47148,1.832149
2100209291000.0,0.4405331,-8.67053165493579,-1.6028481760121556,-0.3191771,-0.36377025,0.055588737,167.3208,108.59646,1.760784
2100214307000.0,0.4379745415473006,-8.720668848935116,-1.6444567266963843,-0.3323107,-0.37873647,0.062308256,167.1878,108.73289,1.6903294
2100219279000.0,0.4238242049212481,-8.80557085884101,-1.6821909806835067,-0.33200526,-0.3933972,0.069027774,167.05595,108.86817,1.617823
2100224290000.0,0.4110828880412567,-8.892815646165602,-1.7250452868971444,-0.34513888,-0.41325033,0.05955936,166.92207,109.01687,1.5456558
2100229297000.0,0.4065034746518957,-8.988983422977748,-1.7937365355553434,-0.33169982,-0.4334089,0.056199603,166.78758,109.15403,1.4694833
2100234403000.0,0.4025770893691229,-9.086890800820653,-1.860007759882031,-0.32620203,-0.45020768,0.053145275,166.64684,109.29535,1.3911102
2100239342000.0,0.4066204997982561,-9.179889071807146,-1.884268264677723,-0.30909783,-0.4465425,0.04642576,166.50789,109.42619,1.3155671
2100244738000.0,0.4110380423525389,-9.281492366045478,-1.9107735661309624,-0.2764165,-0.43188173,0.036651913,166.36354,109.55943,1.239239
2100249340000.0,0.404577730925545,-9.389391240641713,-1.9117489254627729,-0.27763826,-0.42332962,0.02687807,166.22038,109.694,1.1654185
2100254275000.0,0.3948571410448375,-9.510899121657754,-1.9068886305224189,-0.25167647,-0.41813725,0.01038471,166.08107,109.80847,1.0980113
2100264308000.0,0.486316991946523,-9.683258870597625,-1.8461776976354385,-0.19303341,-0.3662137,-0.019547688,165.95242,109.91142,1.0429976
2100269293000.0,0.5288982049487714,-9.756932800249896,-1.7893001062807163,-0.15851954,-0.3436117,-0.04337143,165.81856,110.01092,0.9891924
2100274279000.0,0.568673273398584,-9.828528105372762,-1.725660015035402,-0.12675454,-0.33383787,-0.062002823,165.69284,110.08521,0.94272894
2100279416000.0,0.6115470781514284,-9.933394940134514,-1.6804365495371911,-0.09437868,-0.31123585,-0.07574729,165.57909,110.140274,0.9160831
2100284297000.0,0.6551257785616301,-10.079694927482189,-1.6679854653459414,-0.05131268,-0.28924468,-0.102319926,165.46649,110.182,0.8989285
2100289293000.0,0.6997312256522608,-10.229441851634814,-1.6552410243257645,-0.01863139,-0.24617869,-0.11148291,165.3696,110.19437,0.896109
2100294241000.0,0.7433346823793827,-10.335420999700329,-1.6149244878333833,0.0030543262,-0.18997909,-0.13958271,165.27913,110.197815,0.90861446
2100299272000.0,0.7866498661297573,-10.36790728386275,-1.5246845248276897,0.02321288,-0.16340645,-0.17501289,165.19194,110.192505,0.9264163
2100304301000.0,0.829947830566377,-10.40038065358106,-1.4344804353910698,0.053145275,-0.1563815,-0.19181168,165.11343,110.16324,0.9631651
2100309299000.0,0.8515763213255224,-10.401171801433945,-1.3783994596047917,0.10415252,-0.15302174,-0.20372356,165.03911,110.123405,1.0091372
2100314323000.0,0.8641968974906007,-10.388551400979278,-1.3363309163154673,0.14385876,-0.15790866,-0.2275473,164.96265,110.07967,1.0613885
2100319278000.0,0.8795137422294814,-10.35397603029808,-1.323256650632911,0.20005837,-0.1572978,-0.24740042,164.89352,109.9943,1.1277276
2100324335000.0,0.8992891314373214,-10.286739199020008,-1.3509421253164555,0.2593123,-0.15149458,-0.2666427,164.8232,109.89938,1.1986264
2100329308000.0,0.91873603879951,-10.220619214454878,-1.3781677265822785,0.3100141,-0.11026118,-0.28221974,164.76001,109.787025,1.2785908
2100334359000.0,0.9239592061128526,-9.90203492398119,-1.4707753180250784,0.36193767,-0.07574729,-0.30451632,164.69508,109.66103,1.3635172
2100339864000.0,0.9290877409203788,-9.55201586939314,-1.5740335758808008,0.39920044,-0.03023783,-0.3182608,164.64447,109.52842,1.4533327
2100344345000.0,0.9324179939702002,-9.41547542480211,-1.6572899716746856,0.42271876,-0.004886922,-0.3313944,164.59677,109.40208,1.5540862
2100349329000.0,0.936122073684619,-9.263608079155672,-1.7498920418904236,0.45662177,0.014966198,-0.34666604,164.56207,109.30692,1.6641034
2100354291000.0,0.93852705,-9.126278583450471,-1.8456438994002435,0.47647488,0.06169739,-0.3491095,164.5421,109.21208,1.7767227
2100359301000.0,0.93852705,-9.013871667510074,-1.9490583090150877,0.46975538,0.094989546,-0.34391713,164.52374,109.11847,1.8894987
2100364319000.0,0.9331341255854826,-8.912640933652247,-2.044304628930948,0.462425,0.1151481,-0.32467487,164.51527,109.05866,2.002337
2100369281000.0,0.9084252696807404,-8.853339460690517,-2.1085477709026623,0.45723262,0.118507855,-0.30115658,164.51248,109.00223,2.1117165
2100374268000.0,0.8761062522082695,-8.813777091577336,-2.174510123001532,0.44868052,0.10415252,-0.2666427,164.50803,108.98076,2.2112947
2100379350000.0,0.8239338954303216,-8.82495710245023,-2.245315457672282,0.44684792,0.056505036,-0.2415972,164.49707,108.95972,2.302242
2100384283000.0,0.7732911886248085,-8.835809324732006,-2.3140448390045942,0.44318274,0.028710667,-0.22235495,164.48439,108.95762,2.378977
2100389291000.0,0.6717733772855201,-8.851955049010092,-2.3901299542410714,0.44012842,-0.01038471,-0.21044308,164.45798,108.95579,2.4440026
2100394279000.0,0.5466020006356755,-8.870498849087733,-2.4689414676339285,0.4202753,-0.05131268,-0.18967366,164.42679,108.95915,2.4973872
2100399269000.0,0.3436585123803938,-8.90219767105153,-2.5509916603686635,0.40958515,-0.100792766,-0.17562376,164.38087,108.98184,2.5263364
2100404315000.0,0.0885728201994135,-8.942687434604107,-2.636020248387097,0.39675698,-0.14569137,-0.17440203,164.32687,109.00984,2.5491555
2100409305000.0,-0.1218300144331742,-8.978963041368338,-2.7083525464399365,0.3839288,-0.16126843,-0.15790866,164.24677,109.05629,2.530184
2100414317000.0,-0.1934274960441527,-9.00282885361973,-2.7417646337509947,0.36346483,-0.15943582,-0.1432479,164.16109,109.106964,2.5090039
2100419280000.0,-0.2540977641036732,-9.022809323003829,-2.76405357835768,0.3222314,-0.13591751,-0.12522738,164.03636,109.18566,2.4107695
2100424341000.0,-0.2781565888554815,-9.029683052474828,-2.7468687163522905,0.2941316,-0.10170906,-0.10751228,163.91917,109.26321,2.3117344
2100430531000.0,-0.3075824187732237,-9.038090162813784,-2.725850282087647,0.23823744,-0.049480084,-0.09285152,163.8059,109.36332,2.1971467
2100434369000.0,-0.3120353887005879,-9.038505551388608,-2.6978172487330223,0.15241088,0.015882496,-0.08552113,163.70898,109.4764,2.0867214
2100439380000.0,-0.302307161496047,-9.033641844111088,-2.644312049898642,0.118202426,0.07513642,-0.076358154,163.62834,109.586784,1.9787422
2100444333000.0,-0.2660188675263528,-9.029113542691498,-2.5708982155481377,0.067500606,0.1469131,-0.076052725,163.56642,109.712975,1.8747185
2100449337000.0,-0.1944552850527055,-9.024903835382991,-2.469867306096276,0.019242255,0.20158553,-0.08277224,163.5175,109.844505,1.7767545
2100454332000.0,-0.1208394440547263,-9.012719926305971,-2.364483470677861,-0.034513887,0.24862215,-0.08582657,163.47311,109.97796,1.6889632
2100459383000.0,-0.0343526285572139,-8.95631552238806,-2.232873037810945,-0.08827003,0.2724459,-0.07574729,163.43896,110.12124,1.6047516
2100464359000.0,0.0508499835820895,-8.900748641791045,-2.103216828358209,-0.124005646,0.2855795,-0.0720821,163.42561,110.239456,1.5505435
2100469343000.0,0.1793020591675915,-8.846663049389567,-1.9466267947835736,-0.13164146,0.2929099,-0.07086037,163.41824,110.3616,1.4975691
2100474339000.0,0.338610810072142,-8.793560102386238,-1.7707234431187568,-0.15699236,0.301462,-0.055588737,163.41682,110.495255,1.4427822
2100479345000.0,0.4982384335765815,-8.74035086445616,-1.5944680030799112,-0.17470746,0.29565877,-0.050701816,163.42357,110.58923,1.4199045
2100484293000.0,0.589202547310319,-8.708997958929741,-1.4892575634203389,-0.17195857,0.28802297,-0.04062254,163.43413,110.682,1.3929292
2100489305000.0,0.6520695511086163,-8.686545474319393,-1.4129189750771822,-0.17654006,0.26297748,-0.029626964,163.43903,110.77953,1.3628012
2100494270000.0,0.6863747832735572,-8.663743988751222,-1.357655133403978,-0.16829337,0.23487769,-0.03176499,163.46872,110.823006,1.387858
2100500341000.0,0.7005924437235084,-8.635308568878383,-1.310262882417672,-0.17287487,0.19853121,-0.031154128,163.49055,110.87025,1.4056457
2100504309000.0,0.7070804044464388,-8.615919425634331,-1.2804862369666314,-0.15668693,0.17959438,-0.036651913,163.51082,110.893425,1.440488
2100509296000.0,0.6914943714530473,-8.584747522395366,-1.2532107199151503,-0.15485434,0.1600467,-0.043676864,163.52098,110.921455,1.471368
2100514281000.0,0.6759145891245819,-8.553588120420985,-1.2259461415109734,-0.14355333,0.14782938,-0.05100725,163.52621,110.931625,1.5066618
2100519271000.0,0.6285121185328935,-8.401967114593441,-1.2431673278090434,-0.15424347,0.12370021,-0.06994407,163.52116,110.947685,1.5431602
2100524311000.0,0.56294453537745,-8.181847095187269,-1.285317934445954,-0.15149458,0.0983493,-0.07269296,163.5135,110.95626,1.5753151
2100529333000.0,0.5042545862353494,-7.9935912214252225,-1.310457446469761,-0.15851954,0.094989546,-0.08460484,163.50089,110.967224,1.6097943
2100534325000.0,0.4504628256727614,-7.827733484153773,-1.3239053749085796,-0.16920967,0.09010262,-0.0852157,163.48225,110.97803,1.6386466
2100539280000.0,0.4111681006011911,-7.640030562359391,-1.3475144040646565,-0.17165314,0.08124508,-0.09987647,163.45236,111.00857,1.6607094
2100544282000.0,0.3885274003384062,-7.4226798322714815,-1.383739446942055,-0.18051068,0.07422013,-0.112704635,163.42227,111.04323,1.681714
2100549285000.0,0.3386390918468341,-7.201082981691599,-1.404759529353655,-0.2049453,0.074830994,-0.11453723,163.38864,111.09597,1.6914588
2100554305000.0,0.2346087897488004,-6.970407062602314,-1.395713469517358,-0.23762658,0.0693332,-0.11362094,163.35112,111.15274,1.7021972
2100559303000.0,0.1260835762098941,-6.735665326750814,-1.3865488988599348,-0.27030787,0.041233405,-0.11942416,163.30702,111.240456,1.7088939
2100564299000.0,-0.0005439565775651,-6.482410234731271,-1.3768083262214983,-0.31429017,-0.018325957,-0.12522738,163.25395,111.338776,1.7112794
2100569988000.0,-0.1253245986709265,-6.240559367412141,-1.382334058146965,-0.33567044,-0.08155051,-0.13439035,163.17789,111.45434,1.6875638
2100574278000.0,-0.1909547921172385,-6.126419981386304,-1.4108689046534242,-0.35155296,-0.12583824,-0.12492194,163.09369,111.577805,1.6561699
2100579266000.0,-0.2672632781102931,-5.9937096649534665,-1.4440464837616336,-0.3857614,-0.13591751,-0.11301007,162.98358,111.72654,1.5946803
2100584299000.0,-0.3478624270251283,-5.853191272899217,-1.5098103351526615,-0.40591997,-0.14935656,-0.112399206,162.86267,111.87239,1.5288823
2100589292000.0,-0.4339958906980096,-5.702457536089345,-1.6303971986850403,-0.4266894,-0.13652839,-0.09621128,162.75104,112.02407,1.4577919
2100594354000.0,-0.5196826657587997,-5.546724847071553,-1.7669850586194462,-0.45478916,-0.09987647,-0.0729984,162.63506,112.20864,1.3581822
2100599274000.0,-0.594451391898442,-5.380194557977496,-1.9742982937608196,-0.5158757,-0.053145275,-0.03359759,162.53088,112.40357,1.2532015
2100604266000.0,-0.6703142945181766,-5.21122724026255,-2.1846453811237736,-0.55680364,0.0018325958,-0.0021380284,162.42422,112.65472,1.1214101
2100609307000.0,-0.709576085729397,-5.083595387614194,-2.334955982950284,-0.59315014,0.063224554,0.03359759,162.33899,112.91433,0.98581904
2100614299000.0,-0.6865895554861045,-5.028427667025675,-2.3809291874507164,-0.61391956,0.13652839,0.06627888,162.27669,113.17376,0.85232025
2100619303000.0,-0.6592567402279252,-4.979632088873423,-2.4133554,-0.6178902,0.22235495,0.09285152,162.20609,113.590195,0.6721401
2100624276000.0,-0.6219684291378861,-4.946486989795563,-2.4133554,-0.63163465,0.30451632,0.12522738,162.16295,113.994934,0.4970484
2100629604000.0,-0.5823325422759602,-4.909891367709815,-2.408955243812233,-0.6389651,0.3930918,0.15485434,162.14795,114.41087,0.3361429
2100634288000.0,-0.5523047355652247,-4.861096206300728,-2.3376392175717515,-0.66798115,0.44104472,0.183565,162.15053,114.816925,0.17970684
2100639432000.0,-0.5193279982210693,-4.80750903501799,-2.259319482520292,-0.70157874,0.43188173,0.20341812,162.18837,115.20742,0.041643668
2100644272000.0,-0.4949234037325367,-4.735284593120113,-2.165629812318777,-0.73426,0.41233405,0.22815818,162.23994,115.588684,-0.09354631
2100649268000.0,-0.4739034130498198,-4.647000475098849,-2.0563257958000176,-0.7696902,0.3726278,0.27885997,162.28946,115.96395,-0.23737364
2100654408000.0,-0.4868399876991489,-4.571774165859082,-2.004380217035958,-0.7974846,0.312763,0.3213151,162.33784,116.314354,-0.37311447
2100659295000.0,-0.5621937471402285,-4.528714911147742,-2.0653809028137697,-0.82650065,0.26511553,0.37110063,162.38611,116.66304,-0.5217935
2100664286000.0,-0.6391511061274247,-4.484739314613202,-2.127679741102507,-0.83077675,0.2312125,0.40622538,162.43117,116.986374,-0.6735898
2100669342000.0,-0.6709196287037037,-4.499355141319444,-2.229537609645062,-0.82833326,0.22449298,0.4166101,162.47375,117.30635,-0.8296332
2100674242000.0,-0.6844978462962963,-4.535563674305555,-2.342689517438272,-0.82833326,0.24495697,0.43035457,162.51923,117.618996,-0.9914813
2100679248000.0,-0.6694032674709709,-4.5540147304619945,-2.4299103114551595,-0.8518516,0.2510656,0.42821655,162.54129,117.97227,-1.1831948
2100684364000.0,-0.6371246232018447,-4.562084427340855,-2.502537162052211,-0.85918194,0.2648101,0.41355577,162.57034,118.30786,-1.3651947
2100689312000.0,-0.6010166786437576,-4.578953961213908,-2.564579381720212,-0.89369583,0.26206118,0.3998113,162.60117,118.66908,-1.5449269
2100694343000.0,-0.5471339832492883,-4.627938336701911,-2.598868439446929,-0.95233893,0.2144137,0.38148534,162.62122,119.025375,-1.7178899
2100699269000.0,-0.4980953170957144,-4.677687443454771,-2.6343819190990727,-0.98746365,0.1563815,0.36560285,162.65099,119.40212,-1.8747597
2100704322000.0,-0.4592322392261079,-4.734215598306198,-2.676777979900708,-1.0177015,0.090713486,0.34697145,162.66405,119.77913,-2.0282395
2100709297000.0,-0.420969066378039,-4.789871163393444,-2.718519599233409,-1.0445796,0.03268129,0.3491095,162.68245,120.15324,-2.1692462
2100714341000.0,-0.4098160912829347,-4.918336825912039,-2.8047485381637616,-1.0506883,-0.017715093,0.33628133,162.68211,120.51523,-2.3052113
2100719341000.0,-0.424373458530604,-5.112435072770571,-2.930912401155249,-1.0601566,-0.061391957,0.33444872,162.67177,120.87239,-2.4470682
2100724266000.0,-0.445997848016508,-5.440871045826666,-3.065320264709846,-1.0586295,-0.06566802,0.31612277,162.66734,121.233925,-2.565899
2100729309000.0,-0.4744717694306409,-5.89645374597827,-3.2117576355175608,-1.0656544,-0.04795292,0.31490102,162.66086,121.58741,-2.6872354
2100734310000.0,-0.4927130299281823,-6.309775037056299,-3.337349695154367,-1.0629056,-0.021685716,0.3042109,162.6495,121.929504,-2.7983043
2100739350000.0,-0.460837775842001,-6.53290179485719,-3.3652404826729403,-1.0656544,0.008857546,0.2959642,162.6447,122.26237,-2.9022937
2100744311000.0,-0.4294621537147103,-6.752531129271916,-3.392694093164933,-1.0571023,0.03726278,0.27885997,162.64603,122.57008,-3.0100722
2100749277000.0,-0.379151007933413,-6.981272004938839,-3.3997664,-1.0543534,0.06566802,0.27275133,162.65541,122.869675,-3.1100988
2100754332000.0,-0.321270035211993,-7.2172482661822865,-3.3997664,-1.0497719,0.086437434,0.2742785,162.66847,123.15593,-3.2011912
2100759292000.0,-0.2838722975751176,-7.485793696438514,-3.4283855594508976,-1.0213667,0.11209377,0.27672195,162.6989,123.41582,-3.2778602
2100764358000.0,-0.2605853054180666,-7.788524424268024,-3.4796168887011616,-0.9932669,0.10598512,0.26450464,162.72417,123.66588,-3.350305
2100769327000.0,-0.2118401118618618,-8.04868768018018,-3.54617932012012,-0.93859446,0.1151481,0.27030787,162.76717,123.88197,-3.406117
2100774285000.0,-0.1365853313680347,-8.270491304254254,-3.629355684317651,-0.88239485,0.1160644,0.2556471,162.80093,124.082245,-3.4543476
2100779361000.0,-0.0523669234801147,-8.502981592836655,-3.719794620125591,-0.82619524,0.13561209,0.25320363,162.84337,124.25372,-3.498003
2100784365000.0,0.096241002644391,-8.781621257926972,-3.8572569324908903,-0.8081747,0.16432275,0.24465153,162.88426,124.414635,-3.5333407
2100789254000.0,0.2414336786681138,-9.05385733359175,-3.991560138956508,-0.78893244,0.17195857,0.23182335,162.94167,124.55319,-3.5406756
2100794327000.0,0.3456103940742825,-9.213451167617976,-4.094085267304446,-0.76083267,0.14996742,0.21655174,162.99603,124.679855,-3.544883
2100799275000.0,0.4027524987675858,-9.251545874909558,-4.1588464288126055,-0.7351763,0.12858713,0.20738874,163.05028,124.7979,-3.5456333
2100804653000.0,0.4657479484829385,-9.286704507281026,-4.242488128841557,-0.7125743,0.10934488,0.20799962,163.1278,124.91407,-3.4920187
2100809349000.0,0.5292825065094545,-9.257380788958924,-4.442866122234297,-0.6918049,0.061086524,0.20189096,163.18948,125.01973,-3.4444602
2100814314000.0,0.5908464072814418,-9.23759202779908,-4.6509918621357365,-0.6453791,0.0143553335,0.20280726,163.26027,125.12378,-3.3813977
2100819349000.0,0.6278243314953988,-9.268407270322086,-4.845126152492331,-0.59040123,-0.014966198,0.21166481,163.32277,125.21635,-3.325929
2100824674000.0,0.6669320666372699,-9.300997372891104,-5.050441961062116,-0.5290093,-0.030543262,0.19914207,163.3895,125.33094,-3.2490451
2100829314000.0,0.6963488653502594,-9.330797883710154,-5.236138040159378,-0.44409904,-0.03481932,0.18997909,163.4525,125.42012,-3.1806798
2100834285000.0,0.6434137678836175,-9.38814448573017,-5.558159807079318,-0.36987892,-0.03023783,0.17440203,163.50945,125.49155,-3.111571
2100839741000.0,0.5853140109377317,-9.45108615956264,-5.911599911749445,-0.27947086,-0.0421497,0.15088372,163.57544,125.57675,-3.0195634
2100844342000.0,0.2877631408923553,-9.52187727360877,-6.272358278471051,-0.19761491,-0.037873644,0.14080444,163.64415,125.64042,-2.927489
2100849278000.0,-0.0377406369041596,-9.598270821669477,-6.660969919168072,-0.11942416,-0.03359759,0.12767084,163.71751,125.73048,-2.8442104
2100854486000.0,-0.3905865341855494,-9.68132371643865,-7.058533458529286,-0.054367006,-0.043982297,0.124005646,163.78624,125.79759,-2.7662766
2100859365000.0,-0.8250773581445062,-9.78620083561351,-7.2932584147071395,-0.009773844,-0.061086524,0.13133603,163.85208,125.8458,-2.6919076
2100864333000.0,-1.2420314718121923,-9.902376070719706,-7.519902691001584,0.01740966,-0.10293079,0.15607607,163.88538,125.95636,-2.7405624
2100869344000.0,-1.5461923183053958,-10.06246061679593,-7.691993661612877,0.029321533,-0.14538592,0.19853121,163.9173,126.053314,-2.7963362
2100874248000.0,-1.8438584111416896,-10.219126873822033,-7.860409969710616,0.018325957,-0.1441642,0.22204952,163.91045,126.17088,-2.9501138
2100879302000.0,-2.062436350886988,-10.393807053039172,-7.974402935830707,0.01038471,-0.11178834,0.23426682,163.90633,126.279144,-3.1058416
2100884313000.0,-2.2525789151013056,-10.570985273570464,-8.069474037442593,-0.02565634,-0.050396383,0.25289822,163.91425,126.393875,-3.2565408
2100889288000.0,-2.3627131007279165,-10.722131044757033,-8.057013642710997,-0.03940081,0.03604105,0.23793201,163.90242,126.50771,-3.466507
2100894280000.0,-2.409739842415896,-10.853806216112533,-7.958257583375959,-0.05009095,0.13103059,0.21044308,163.90823,126.62579,-3.655782
2100899302000.0,-2.393248495918167,-10.981358030884234,-7.797568444359201,-0.061086524,0.20463985,0.17287487,163.90527,126.74721,-3.8658822
2100904413000.0,-2.316219537621717,-11.10652952257303,-7.576110176689289,-0.087659165,0.22693644,0.12797627,163.90677,126.86992,-4.049995
2100909274000.0,-2.2215249707481237,-11.232277525584609,-7.344441247389766,-0.11362094,0.21746802,0.079107046,163.90686,126.98054,-4.226242
2100914350000.0,-2.0998799381827595,-11.370701784450771,-7.08017804728622,-0.1695151,0.1853976,0.036651913,163.90033,127.10144,-4.3849015
2100919350000.0,-1.973144288764317,-11.513078930391998,-6.825690256775286,-0.20433442,0.1151481,-0.022907447,163.87497,127.203094,-4.525878
2100924331000.0,-1.8153942349572512,-11.682371461364736,-6.598684134699145,-0.22449298,0.049480084,-0.09712757,163.83372,127.310104,-4.651994
2100931039000.0,-1.599982934271291,-11.9066639941105,-6.288915547817145,-0.2321288,-0.055588737,-0.17562376,163.75171,127.36278,-4.754089
2100934405000.0,-1.4402668478732354,-11.954880048237824,-6.062902036926241,-0.26939157,-0.09743301,-0.19425514,163.66826,127.427505,-4.84958
2100939337000.0,-1.2062443469477424,-12.02552817032813,-5.731737855193044,-0.2782491,-0.14874569,-0.2489276,163.54791,127.432465,-4.9051476
2100944329000.0,-1.0666661594334452,-12.018883828115364,-5.534014957909159,-0.25503623,-0.172264,-0.28955013,163.42549,127.43836,-4.959972
2100949324000.0,-1.0044008341440025,-11.950064417448791,-5.445532794930465,-0.23487769,-0.21960606,-0.33017266,163.27863,127.44502,-5.0134907
2100954313000.0,-0.94221030203809,-11.881327672740976,-5.357156916832225,-0.17592919,-0.25167647,-0.3659083,163.13702,127.38782,-5.020334
2100959364000.0,-0.9057905493170604,-11.774589681001055,-5.240490590236164,-0.095294975,-0.2874121,-0.39645153,162.9797,127.31804,-5.027448
2100964958000.0,-0.8821860925229115,-11.632963088121254,-5.094142913746916,-0.017715093,-0.31429017,-0.42943826,162.81279,127.23204,-5.029481
2100969306000.0,-0.8826674795962476,-11.511295576289893,-5.003870406833441,0.04550946,-0.33353242,-0.45906523,162.64268,127.12429,-5.017242
2100974334000.0,-0.9136676915156812,-11.35186547898464,-4.937441477080842,0.112399206,-0.34147367,-0.46639562,162.46965,126.995255,-5.005318
2100979326000.0,-0.9610892577264092,-11.19126543571881,-4.873982124445852,0.1423316,-0.3567453,-0.464563,162.28955,126.861046,-4.994396
2100984297000.0,-1.077919189609721,-11.02167374192527,-4.821220264154528,0.20861048,-0.36346483,-0.46792278,162.10999,126.69992,-4.980668
2100989295000.0,-1.1953836835853386,-10.85116091038632,-4.7681718276757445,0.28313604,-0.37110063,-0.4728097,161.92596,126.53885,-4.978553
2100994275000.0,-1.2784799052238804,-10.83074874875622,-4.7500963,0.3494149,-0.38973203,-0.4605924,161.74275,126.3651,-4.9826717
2100999266000.0,-1.344079960113227,-10.888148673700464,-4.7500963,0.40683624,-0.39920044,-0.43768495,161.56345,126.176636,-4.987922
2101004397000.0,-1.3873700256155015,-10.919534338905777,-4.756431105775076,0.44990227,-0.41508293,-0.43096542,161.36862,125.99261,-5.0266457
2101009300000.0,-1.3838019754103343,-10.898126559270516,-4.774271170516717,0.47219884,-0.4175264,-0.43401974,161.17947,125.802734,-5.0670834
2101014443000.0,-1.380059270493921,-10.875670876899695,-4.792984499696049,0.48349985,-0.40408736,-0.44318274,160.98477,125.60507,-5.1205163
2101019335000.0,-1.3477211574689325,-10.835487943697691,-4.772339317271113,0.5195409,-0.3979787,-0.45265114,160.7898,125.39834,-5.1737456
2101024342000.0,-1.3031306245751966,-10.78684355668273,-4.735856111666243,0.5235115,-0.39095375,-0.47800204,160.59659,125.20079,-5.217843
2101029316000.0,-1.2093248652292743,-10.67335478454297,-4.632819572297297,0.5360342,-0.40775254,-0.5030475,160.39706,125.00087,-5.260613
2101034402000.0,-1.0133405736410568,-10.425601098238689,-4.392461397972973,0.5403103,-0.4120286,-0.53023106,160.20027,124.80534,-5.2931576
2101039448000.0,-0.8188976449438202,-10.179795926966293,-4.153993574999999,0.52198434,-0.43463063,-0.54641896,159.99324,124.61165,-5.317464
2101044332000.0,-0.634415558621863,-9.984242807316036,-3.931794367928541,0.5015204,-0.4642576,-0.56138515,159.78206,124.42059,-5.3373966
2101049330000.0,-0.4471093711373883,-9.801008601616331,-3.7078414073330497,0.4810564,-0.48930305,-0.56169057,159.56918,124.23889,-5.359887
2101054399000.0,-0.2438074096041022,-9.617500365281654,-3.492642931143956,0.4615087,-0.52412236,-0.552833,159.35632,124.04414,-5.3469357
2101059368000.0,-0.021320147952643,-9.441663489027976,-3.3024521610587434,0.43249258,-0.5558874,-0.52778757,159.14337,123.86249,-5.3420835
2101064271000.0,0.1982119598914109,-9.26816213980846,-3.114787571457658,0.4202753,-0.58123827,-0.49388456,158.9381,123.65928,-5.3098764
2101069337000.0,0.4487193696617697,-9.098241238127777,-2.9116927878032115,0.43188173,-0.6001751,-0.46761733,158.7319,123.46191,-5.286759
2101074343000.0,0.7066894783737615,-8.934450801503244,-2.7069546565083704,0.44073927,-0.5907067,-0.4428773,158.53392,123.2737,-5.271694
2101079448000.0,1.041864714974777,-8.775548401769054,-2.468887744260936,0.45448375,-0.57787853,-0.4361578,158.34541,123.06052,-5.2107816
2101084378000.0,1.4823210877202682,-8.635255135235989,-2.1915633374473087,0.45937067,-0.5534439,-0.4184427,158.16962,122.85244,-5.1561465
2101089270000.0,1.9193824620551443,-8.496043236680256,-1.9163765224103384,0.47616947,-0.51159966,-0.40408736,158.01668,122.61541,-5.0463395
2101094332000.0,2.2865146591404746,-8.41190606267754,-1.6705152109594064,0.48808134,-0.46822822,-0.398895,157.87323,122.382454,-4.935849
2101099331000.0,2.549729805452213,-8.398745037386604,-1.4731038626775406,0.49174652,-0.42546764,-0.40194935,157.74255,122.151215,-4.8218656
2101104332000.0,2.785876456622312,-8.380943428206717,-1.2780118026303575,0.4810564,-0.38331795,-0.40744713,157.65227,121.87514,-4.589048
2101109342000.0,2.9529111976868325,-8.351248151245553,-1.0887057395017794,0.46609017,-0.35643986,-0.42149702,157.56868,121.60364,-4.3511305
2101115194000.0,3.14801844413585,-8.316562171050595,-0.8675841663623705,0.4447099,-0.34269542,-0.4288274,157.50328,121.31125,-4.0600414
2101119348000.0,3.285295555502392,-8.133199617511961,-0.5863755093433494,0.4196644,-0.3277292,-0.441961,157.44374,121.02931,-3.762315
2101124241000.0,3.446724755980861,-7.882087579904306,-0.2276439051732056,0.40469822,-0.2947425,-0.4633413,157.39177,120.75609,-3.458642
2101129289000.0,3.494855926567072,-7.679410150531341,0.0093245939217618,0.39645153,-0.26175576,-0.48472157,157.34866,120.460464,-3.1135533
2101134302000.0,3.46158344192207,-7.5167445928384415,0.1535054664892961,0.4147775,-0.21227567,-0.52656585,157.3141,120.16732,-2.753827
2101139580000.0,3.425152903830439,-7.344000521493021,0.3028522587419135,0.44501534,-0.16707164,-0.5662721,157.28761,119.84413,-2.3585207
2101144343000.0,3.3707946189989784,-7.165394873272047,0.3999205526932244,0.49480084,-0.11362094,-0.6273586,157.26949,119.51682,-1.9419587
2101149328000.0,3.3139027336567928,-6.978464544407559,0.5015131299233913,0.5571091,-0.06383542,-0.6969972,157.24646,119.17001,-1.517911
2101154394000.0,3.205072262399097,-6.858611307221595,0.8769449091919104,0.59742624,-0.015271631,-0.75625116,157.23293,118.823685,-1.0766231
2101159303000.0,3.074493245881434,-6.776999448528773,1.3747775880913116,0.5821546,-0.073303826,-0.7996226,157.20139,118.48501,-0.63280165
2101164273000.0,2.9399755802656737,-7.086966301901982,1.9876360510113715,0.5626069,-0.2406809,-0.8216137,157.14168,118.13849,-0.2004827
2101169301000.0,2.799448925621415,-8.153030569789674,2.816258799808795,0.6065892,-0.310625,-0.7651087,157.10056,117.788605,0.22547533
2101174287000.0,2.9911673164893617,-9.748764932624113,3.702777360933806,0.6404922,-0.33383787,-0.6395759,157.00937,117.36737,0.58874273
2101179324000.0,3.779935170478724,-12.328890781914891,4.714870870478723,0.6389651,-0.038789943,-0.070554934,157.05078,116.94718,0.85468733
2101185127000.0,6.051535066585018,-14.726274929985712,4.7514137368646665,0.52503866,0.71593404,1.0726794,157.25212,116.34888,0.9437843
2101189294000.0,8.992189093039396,-15.895205614615229,3.6924523427127984,0.5421429,0.78984874,1.2702943,157.30502,115.72491,1.0750425
2101194240000.0,11.85107099447232,-16.989312579045837,3.0692814692065653,0.7440339,0.6429357,1.0329732,157.58916,114.79029,1.1987319
2101199271000.0,13.633425214388978,-17.579332634237606,3.5650624958499875,0.8927795,0.26297748,-0.1731803,157.73306,113.90795,1.4972845
2101204615000.0,15.218853991185032,-18.193148014386693,3.93784172375052,0.40011674,-0.20372356,-1.5775595,158.03532,113.441025,2.5062354
2101209297000.0,13.388021842827444,-18.59585686029106,2.6551406404573807,-0.17654006,0.057421334,-1.9682078,158.40157,113.03654,3.548343
2101214400000.0,11.392563394927237,-19.034776817713094,1.2571005661205823,-0.4147775,1.0079277,-1.244027,158.89996,112.77714,4.9286637
2101219273000.0,8.258464630597471,-17.128454594417793,-0.0932446206628869,-0.43463063,1.0986412,-1.1979067,159.12158,112.7872,6.441814
2101224271000.0,4.288163417112953,-13.742635456170955,-1.4876510483296987,-0.2764165,0.89858276,-1.6368134,159.54282,112.903656,7.8928437
2101229346000.0,0.719543401144684,-10.748862372135711,-3.0170773510467157,0.0290161,0.9007208,-1.8078557,159.93936,112.9863,8.883179
2101234295000.0,-1.8269262460348563,-8.725371780055688,-4.737533022769929,0.48441613,1.1490375,-1.7525724,160.32852,113.05107,9.897067
2101239309000.0,-3.577302674323216,-7.422622276948319,-6.301468251025431,1.0451905,1.45783,-1.7171422,160.46165,113.11978,10.395869
2101244341000.0,-3.992397266611978,-7.32379032945037,-7.581342383921247,1.6520851,1.6484199,-1.6673567,160.6393,113.06195,10.879872
2101249292000.0,-4.122609092188934,-7.374282531611128,-8.51078407031489,2.3845124,1.8677205,-1.5488489,160.8062,113.13939,10.966437
2101254280000.0,-3.8889478257260777,-7.618896582971568,-9.014616292876797,3.1187725,2.1343632,-1.500285,161.02626,113.06288,11.079206
2101260643000.0,-3.532334534928129,-7.891962010827825,-9.614274009023188,3.6071594,2.1890357,-1.4996742,161.19658,112.77805,11.193799
2101264296000.0,-2.8496109882593643,-7.730457557129367,-9.60693313094114,3.7717874,1.9611828,-1.4984524,161.37297,112.39979,11.2915745
2101269250000.0,-1.923738431402791,-7.511433997418949,-9.59697783118246,3.7589593,1.7614299,-1.4874569,161.58626,112.03737,11.437106
2101274269000.0,-1.3587607377769948,-7.194634187377653,-9.152625450238824,3.7076466,1.2904528,-1.4813483,161.66621,111.66084,11.534392
2101279335000.0,-0.8307098117805966,-6.864127569884896,-8.654965823584684,3.5973854,0.7644979,-1.4318681,161.6845,111.308624,11.593064
2101284296000.0,-0.5795536626007326,-6.538860455855573,-7.9371464905285185,3.4468071,0.24862215,-1.3640621,161.62679,111.07802,11.743132
2101289287000.0,-0.8096636261904762,-6.208702436734694,-6.796601394557823,3.289204,-0.20830505,-1.3118331,161.44266,110.878494,11.838308
2101294275000.0,-1.213853192573651,-6.096424779298423,-5.950635989332277,3.1526756,-0.5348125,-1.2232577,161.19804,110.7221,11.975354
2101299295000.0,-1.844102730065548,-6.262644417272924,-5.476217351141684,3.018896,-0.75777835,-1.1026118,160.86354,110.5927,12.052855
2101304409000.0,-2.4861537529208384,-6.431976534524238,-4.992915176698119,2.9177978,-0.8060367,-1.0311406,160.48973,110.39206,12.064049
2101309363000.0,-2.647391640884399,-6.629259343752978,-5.3265665005146285,2.874121,-0.56199604,-1.0662653,160.14188,110.210144,12.071782
2101314476000.0,-2.59605946956066,-6.848587698846851,-6.0498832607357285,2.8683178,-0.06047566,-1.1343768,159.86153,110.038704,12.080812
2101319330000.0,-2.453320986677341,-6.94056120711216,-6.314045174273195,2.8793132,0.54092115,-1.1976013,159.64677,109.71267,11.983521
2101324503000.0,-2.2320633591640684,-6.953085211426646,-6.284822541130867,2.8680124,1.0027353,-1.2516629,159.53189,109.40977,11.927576
2101329328000.0,-2.022069590566038,-6.937139763121784,-6.192481671698113,2.8124237,1.2052372,-1.3139712,159.50244,109.15317,11.955462
2101334378000.0,-1.7878431921198668,-6.810267264383008,-5.836262182241954,2.7073548,1.3008375,-1.4004086,159.56763,108.934784,12.0288
2101339288000.0,-1.619389682706165,-6.684303029831866,-5.485074919519616,2.4749205,1.2089024,-1.4813483,159.6396,108.79381,12.158149
2101344343000.0,-1.6697771861088873,-6.544768355212169,-5.105230684891914,2.2360723,0.9468411,-1.5283848,159.68521,108.69577,12.292289
2101349273000.0,-1.7189187077261812,-6.408684092922337,-4.734779235492393,2.10046,0.65270954,-1.5238034,159.69992,108.63371,12.461201
2101354287000.0,-1.9448467362798936,-6.244730313542958,-4.54404034911426,2.1114557,0.38606682,-1.4850134,159.64575,108.59886,12.611707
2101359350000.0,-2.2454770928609387,-6.068646842037201,-4.4280830744907,2.164601,0.23487769,-1.4905112,159.53748,108.59436,12.755389
2101364338000.0,-2.366052643619227,-5.923530299151744,-4.616434375117813,2.2262983,0.20769419,-1.529912,159.40111,108.53261,12.884534
2101369311000.0,-2.2852554080113103,-5.811312046559849,-5.150593632422243,2.238821,0.19700404,-1.5497651,159.22893,108.470665,12.994907
2101374238000.0,-2.0891120214285714,-5.742435895238095,-5.619305502380953,2.2299635,0.16462818,-1.5537357,159.04825,108.33326,13.085826
2101379301000.0,-1.6422238182603688,-5.7610562248847925,-5.973092057315668,2.1994202,0.18081611,-1.5222762,158.88145,108.200386,13.169503
2101384270000.0,-1.1222222885950754,-5.82104802503621,-6.2515347356921165,2.1517727,0.24831672,-1.4840971,158.71625,108.126915,13.294128
2101389349000.0,-0.3372094371084212,-6.01226916979102,-6.321984501148355,2.1203132,0.3555236,-1.42973,158.57152,108.05133,13.403827
2101394358000.0,0.421890411377216,-6.228221198752462,-6.320590263952725,2.0830505,0.45540005,-1.3866642,158.44623,108.07403,13.589059
2101399275000.0,1.13688503388132,-6.494894839034799,-6.1775912805318445,2.0631974,0.5216789,-1.3267993,158.34624,108.08823,13.753797
2101404469000.0,1.8921589955014773,-6.776591582501641,-6.026536425968483,2.0668626,0.5708536,-1.2730432,158.28174,108.19806,14.027666
2101409314000.0,2.6874981532451168,-7.288752671203529,-5.738492521235035,2.1099286,0.627664,-1.2186762,158.2408,108.29519,14.283346
2101414702000.0,3.563579402524544,-7.879576370266479,-5.407416980364657,2.158187,0.6747007,-1.1707232,158.21266,108.38391,14.522668
2101419345000.0,4.042998211974053,-8.30832469786115,-5.196940445757363,2.2165246,0.6927212,-1.1438452,158.21011,108.55297,14.88077
2101424244000.0,4.548850623667601,-8.760712821248248,-4.974858915918653,2.2941043,0.70341134,-1.1435398,158.23593,108.77223,15.330469
2101429365000.0,4.803127645972084,-9.173680291525423,-4.774774256819541,2.4107797,0.7254025,-1.1417072,158.27356,108.97517,15.763494
2101434298000.0,4.930300533519442,-9.54577898983051,-4.59579011453639,2.536618,0.75900006,-1.1572843,158.31822,109.175026,16.192266
2101440184000.0,4.657414913211009,-9.819471959633027,-4.4971160883792045,2.6676486,0.7910705,-1.1890492,158.38477,109.4036,16.685865
2101444325000.0,4.358265147492355,-9.969046905810398,-4.456690472884811,2.792876,0.84299403,-1.2217305,158.47012,109.62815,17.172255
2101449264000.0,3.789584900019008,-9.928822270670976,-4.469865734784261,2.9107728,0.9221011,-1.2534955,158.59583,109.832886,17.66817
2101454312000.0,3.12797162497624,-9.80476966166128,-4.506622006519673,3.0311134,1.0170907,-1.294118,158.74248,110.04658,18.16237
2101459288000.0,2.405756590054141,-9.585903325045116,-4.529193832063365,3.150232,1.1074986,-1.3277156,158.91043,110.204666,18.61335
2101464295000.0,1.6365394229797472,-9.30706201914979,-4.543616592450371,3.2669072,1.142318,-1.3637567,159.08849,110.38252,19.063158
2101469267000.0,0.896361109662533,-8.918823911160805,-4.5520095189062815,3.3362405,1.1746938,-1.3854424,159.28307,110.49226,19.432055
2101474384000.0,0.1491890966497255,-8.450596045741005,-4.556990766009352,3.4712417,1.162782,-1.4291192,159.47203,110.62728,19.805407
2101479595000.0,-0.4398766173521742,-8.007386940280933,-4.631036546362184,3.5888333,1.144456,-1.4712689,159.66765,110.69586,20.087269
2101484298000.0,-0.9020556214164352,-7.620975105643873,-4.72574540925225,3.6764925,1.108415,-1.5134187,159.85324,110.79795,20.371704
2101489333000.0,-1.3558092869290357,-7.195375991861811,-4.778224621396135,3.7604864,1.073901,-1.5760323,160.0319,110.86006,20.587854
2101494281000.0,-1.7017851571810167,-6.748138955765293,-4.710716957216633,3.7953057,1.0250319,-1.629483,160.19637,110.958954,20.80468
2101499520000.0,-2.054077804553195,-6.220259214098772,-4.602097008066685,3.8319576,0.9789116,-1.6511687,160.34897,111.03564,20.965927
2101504301000.0,-2.2223359227928654,-5.145049166836963,-4.097322910459801,3.8166862,0.98349303,-1.6759088,160.50421,111.15521,21.135963
2101510550000.0,-2.4221754253385277,-3.765824898961232,-3.440231961880913,3.7797287,1.029308,-1.7229455,160.66772,111.28155,21.281399
2101514296000.0,-2.2824296828046746,-3.2767149390651085,-3.080885915692821,3.677714,1.1059716,-1.7400496,160.84573,68.570694,21.417479
2101519243000.0,-2.097880246521981,-2.630792095603784,-2.60633041903172,3.6407568,1.2073752,-1.781283,161.09076,68.33153,21.608566
2101524339000.0,-1.9532130817571247,-1.9260734002033035,-2.0300327735342165,3.5472944,1.3414601,-1.7974709,161.37404,68.07411,21.786615
2101529318000.0,-1.836364384153204,-1.2163257441168995,-1.419822928353603,3.4681873,1.4566082,-1.8099937,161.68752,67.78665,21.964012
2101534283000.0,-1.7126118170886078,-0.5320582682278481,-0.7985117496835442,3.3964107,1.5265522,-1.8124372,162.07161,67.3883,22.209509
2101539359000.0,-1.57687502267312,0.137576590521221,-0.1469751081422188,3.317609,1.5693128,-1.8057177,162.48827,66.97296,22.443039
2101544272000.0,-1.443199720305569,0.7253900312764909,0.4353765562986693,3.2479706,1.5778649,-1.8099937,162.97853,66.43768,22.737827
2101549332000.0,-1.29990163422047,1.183147856609167,0.9170173904369968,3.1780264,1.6154331,-1.785559,163.4979,65.894775,23.008152
2101554470000.0,-1.1543946053063907,1.647962027865944,1.4060827275521603,3.1154127,1.6303993,-1.779145,164.08022,65.21769,23.34143
2101559301000.0,-1.0260937000569152,2.2001801103775374,1.9646752563270728,3.0402763,1.6172657,-1.781283,164.6752,64.52729,23.65653
2101564308000.0,-0.8941850402390439,2.786946270252324,2.5559899399070387,2.9547553,1.5968018,-1.7788396,165.28181,63.825485,23.954851
2101569282000.0,-0.8511962265446225,3.398451755148741,3.1543196453089246,2.912911,1.5986344,-1.7763962,165.93288,62.98455,24.314205
2101574269000.0,-0.8369410773256393,4.0209271997811165,3.757788075465128,2.8286116,1.6288722,-1.7611245,166.59132,62.14738,24.652498
2101580299000.0,-0.9269538337859424,4.596217406190096,4.425444826677316,2.7623327,1.6920967,-1.750129,167.28429,61.143177,25.061834
2101584298000.0,-1.0064857030351435,4.94493394327476,4.856752308306709,2.6254988,1.7098118,-1.7318029,167.96776,60.1713,25.44182
2101589301000.0,-1.1060404272239264,5.427523183588957,5.436784271088957,2.5766296,1.7235563,-1.6829338,168.72237,59.042294,25.84691
2101594277000.0,-1.2052329641213848,6.054002346779141,6.141573234279141,2.4804184,1.7131716,-1.6053538,169.45955,57.975334,26.20937
2101599247000.0,-1.258633388170407,6.66826243127615,6.8757390840148345,2.3631322,1.6490307,-1.493871,170.30876,56.80547,26.521425
2101604327000.0,-1.2447544958158996,7.27893422625523,7.671462680439331,2.2452352,1.4746287,-1.3277156,171.09616,55.69453,26.782784
2101609248000.0,-1.2102785928997737,7.787737586746244,8.443836171434452,2.1474967,1.2183707,-1.1368202,171.94621,54.488693,26.996532
2101614285000.0,-1.1258937080572131,8.115349395040132,9.23804740111134,2.0653355,0.8888089,-0.95111716,172.69315,53.34219,27.172586
2101619296000.0,-0.79803534575,8.1367661735,9.92947306,1.9889772,0.5439755,-0.7648033,173.44685,52.08301,27.322742
2101624272000.0,-0.0514530168166667,7.6324259327,10.445726425333334,1.9107865,0.24129178,-0.6047566,174.08852,50.876945,27.448013
2101629723000.0,0.7563746427100458,7.094490280436099,10.97416171480488,1.8402315,0.029626964,-0.49174652,174.73154,49.58171,27.547258
2101634293000.0,1.2638285578264257,6.889993990914597,10.788600417755474,1.7143933,-0.029932396,-0.41996986,175.30812,48.34182,27.619053
2101639443000.0,1.8356858144674224,6.659544124167171,10.579488671627583,1.575116,0.013744468,-0.3491095,175.8937,47.041965,27.750778
2101644280000.0,2.5267943130020423,6.38257699679082,10.518367384129144,1.4437801,0.10842858,-0.26847526,176.4595,45.789616,27.846039
2101649276000.0,3.3177866081688223,6.066180020422055,10.523020373723622,1.3197744,0.20738874,-0.19181168,177.02039,44.586033,27.900711
2101654333000.0,4.28451438054027,5.7273447028514255,10.62400625787894,1.2021828,0.26939157,-0.13255776,177.57675,43.389244,28.048487
2101659284000.0,5.340020770185093,5.383415731532433,10.786087731865932,1.1087204,0.30207285,-0.10354166,178.1386,42.233486,28.157335
2101664279000.0,6.445726788246722,4.961457536726567,11.00863029820301,1.0928379,0.36468655,-0.09987647,178.72203,41.047295,28.375212
2101669343000.0,7.736466358912094,4.221873199630889,11.479702811073336,1.1163563,0.4269948,-0.12858713,179.31287,39.888126,28.569597
2101674309000.0,8.963996744131235,3.4996687994154807,11.96935949750165,1.2113458,0.44257188,-0.1731803,179.93091,38.63999,28.974182
2101679299000.0,9.968690222023191,2.792328607655322,12.627141419817102,1.3854424,0.45478916,-0.23060162,180.57417,37.387943,29.349983
2101684524000.0,11.00434628745445,2.056867886696512,13.304597277771991,1.5619824,0.45356745,-0.2855795,181.23586,36.08469,29.887068
2101689354000.0,11.731535599271211,1.4500741871441956,13.7717314443519,1.7308867,0.47219884,-0.3231477,181.91449,34.77841,30.38659
2101694347000.0,12.4286663861906,0.8336196989078499,14.221864367550538,1.8249599,0.52839845,-0.3371976,182.61116,33.460564,30.944729
2101699328000.0,12.674961950293165,0.3076319922411832,14.40136823934541,1.8500054,0.573297,-0.36651915,183.3155,32.166275,31.460747
2101704298000.0,12.920713597269623,-0.217194127440273,14.580475696245736,1.8414533,0.5137377,-0.46822822,184.01788,30.899475,32.011936
2101709296000.0,12.984979062869822,-0.6505198447559172,14.5278883733358,1.7892243,0.3726278,-0.6243043,184.7236,29.680319,32.53474
2101714375000.0,13.007464532174556,-1.068749893139793,14.419958214589498,1.7076738,0.22052236,-0.7812967,185.43236,28.504549,33.04485
2101719334000.0,12.828765721274287,-1.228391032518,14.058663688332183,1.5796975,0.09987647,-0.9596693,186.12764,27.413712,33.560387
2101724333000.0,12.545457170924154,-1.2614436967255154,13.562873232172798,1.4450017,0.047647487,-1.1618657,186.8488,26.357063,34.082245
2101729328000.0,11.70431374569658,-0.6366514196082932,12.84982886963507,1.3310753,0.10842858,-1.3454307,187.56793,25.387037,34.58081
2101734282000.0,10.54281734817535,0.3687689255527504,12.01500312072527,1.2782356,0.21074851,-1.5054774,188.32971,24.438858,35.07271
2101739592000.0,9.335427232017413,1.4341122894132778,11.183683035420996,1.241889,0.2959642,-1.6096299,189.11835,23.547783,35.536743
2101744344000.0,8.759078793905214,2.2220882053527258,11.291748602651628,1.2415836,0.39095375,-1.6865989,189.95953,22.665844,35.963966
2101749573000.0,8.125496781532227,3.0913587933616364,11.46441548707063,1.1869112,0.4841107,-1.7214183,190.87392,21.727,36.29006
2101754301000.0,7.56627953436897,3.925816213817059,12.805663869934389,1.073901,0.54183745,-1.6762142,191.79375,20.821083,36.58222
2101759293000.0,6.975836958683907,4.806867703434967,14.221804294480895,0.9104946,0.5213735,-1.6258179,192.7748,19.857546,36.796204
2101765270000.0,6.764446777737666,5.910832704191737,15.787638406438028,0.8151997,0.24862215,-1.5005904,193.68399,18.94292,37.03033
2101769247000.0,6.649865148375452,6.647975078098677,16.822693335740073,0.7257079,-0.11728613,-1.3222178,194.53975,18.098057,37.269287
2101774340000.0,7.07086332166286,7.9659286996254,17.493170339698494,0.75228053,-0.092240654,-1.0320568,195.38551,17.180454,37.25885
2101779313000.0,7.536457118455917,9.28873747606213,18.084952341708544,0.70707655,0.4886922,-0.6429357,196.15225,16.367258,37.157578
2101784296000.0,8.086486458150326,10.954987502938447,18.488755184658213,0.49327368,1.3219124,-0.23671028,196.90645,15.530033,36.84401
2101789257000.0,8.66450940148469,12.738040670997009,18.821853675636664,-0.004276057,2.042428,0.23579398,197.53337,14.871905,36.35853
2101794284000.0,9.182734248836306,13.433275901764937,19.019354821955005,-0.7189884,2.4932466,0.7770206,198.19731,14.218331,35.74463
2101799267000.0,9.677901994569432,13.817378124903026,19.176698169123352,-1.4288138,2.6688702,1.2302825,198.7275,13.773388,34.982548
2101804295000.0,10.319167972982155,13.152514786236194,19.270945881053528,-1.9285016,2.590374,1.5354098,199.28844,13.312489,34.249058
2101809301000.0,11.01161090773152,12.089411364316058,19.34018987680544,-2.121535,2.26631,1.7412714,199.66666,13.038878,33.51416
2101814303000.0,11.397789218480138,10.483614202828152,19.398955327936097,-2.1111503,1.7302758,1.7910569,199.9899,12.824458,32.92271
2101819273000.0,11.274481286701208,7.98663529037133,19.440058150690845,-1.9767599,1.0235047,1.6209309,200.23209,12.653873,32.474667
2101824329000.0,10.956354064597846,5.875495343029042,19.428096578304533,-1.7528778,0.22937989,1.2275337,200.41243,12.566551,32.288574
2101829314000.0,10.468281838505384,4.182359463855967,19.36762712566724,-1.4672983,-0.59437186,0.82253003,200.5719,12.421542,32.31953
2101835178000.0,9.697659842061856,2.478844764206185,18.55763969814433,-1.1679744,-1.3408492,0.5296202,200.56808,12.419703,32.490086
2101839353000.0,8.951582607525774,1.5555221657525773,17.238606984226806,-0.8793405,-2.0164661,0.32528573,200.60289,12.307891,32.88679
2101844241000.0,8.132450033145213,0.651277753198065,15.606941958344532,-0.5525276,-2.6251934,0.20005837,200.46603,12.278935,33.363884
2101849325000.0,7.377893893039506,0.0275696683284063,13.753264458747648,-0.17623462,-3.143818,0.10934488,200.33734,12.1447315,34.005207
2101854406000.0,6.5130358455034045,-0.7140399789725904,11.419389002570762,0.22235495,-3.5198054,-0.002443461,200.11829,12.042457,34.754635
2101859304000.0,5.105483668935865,-2.04176074422698,6.675728255508778,0.6075055,-3.6190712,-0.059253927,199.89337,11.851252,35.5579
2101864342000.0,3.657699294589753,-3.4074318784351485,1.7964790019974917,0.77366084,-3.5778377,-0.16279559,199.64468,11.701801,36.46713
2101869386000.0,2.9015794466909752,-4.156526953309025,0.3199203040747493,1.033584,-3.200934,-0.23487769,199.43091,11.441834,37.29541
2101874243000.0,2.235874422060164,-4.822231977939836,-0.7952416271649956,1.0916162,-2.699719,-0.2941316,199.26826,11.17944,38.067345
2101879359000.0,1.5619620644628098,-5.333532971750564,-1.562429797145004,0.9795224,-2.4452937,-0.3494149,199.0276,11.076304,39.006516
2101884321000.0,0.9193159134297522,-5.753038197145004,-2.1425965486476333,0.8894198,-2.3808472,-0.38026363,198.8148,10.955943,39.85577
2101889289000.0,0.1471050174023438,-5.9985115528906245,-2.4984580154882816,0.8677341,-2.312125,-0.37812558,198.49348,10.945885,40.617916
2101894290000.0,-0.7228375398339844,-6.1201165330859375,-2.694896562919922,0.81061816,-2.2427917,-0.4089743,198.17886,10.96115,41.36313
2101899277000.0,-1.4362298412744812,-5.942477430985091,-2.9103049954106988,0.7101309,-2.1887302,-0.42088616,197.73592,11.082239,42.041996
2101904260000.0,-2.012808969570301,-5.500743390470623,-3.1427965880152,0.59589905,-2.0708332,-0.3885103,197.27449,11.232534,42.679333
2101909347000.0,-2.435739632807815,-4.94005228308347,-3.3384003020601605,0.4428773,-1.8173242,-0.32589662,196.7151,11.4776325,43.157047
2101914285000.0,-2.673586027836348,-4.281400551271883,-3.484767417255054,0.28710666,-1.4022411,-0.23823744,196.14006,11.770298,43.548023
2101919270000.0,-2.790476425506177,-3.673957591240563,-3.4650359868822926,0.16615535,-0.88117313,-0.14660765,195.59595,12.07412,43.8038
2101924268000.0,-2.728879634480096,-3.148330889335964,-3.202222614490392,0.051923547,-0.33444872,-0.0729984,195.06067,12.432773,43.92814
2101929336000.0,-2.6595179674189,-2.627131533591913,-2.9062344343206394,-0.02076942,0.19456059,-0.022907447,194.65329,12.743378,43.93229
2101934336000.0,-2.5206909810531264,-2.233163229250901,-2.3134059591600065,-0.06352998,0.6881397,-0.01985312,194.2917,13.084758,43.79134
2101939251000.0,-2.384224053455571,-1.8458923860836856,-1.730655568077104,-0.081855945,1.1191051,-0.06291912,194.09119,13.349756,43.53176
2101944332000.0,-2.1036416603700023,-1.2917063365423131,-0.3645937109701094,-0.07849618,1.5018122,-0.122478485,193.95018,13.622669,43.1498
2101949299000.0,-1.7072720226817522,-0.6153323583273449,1.6390733188364803,-0.09468412,1.8463402,-0.17440203,193.8716,13.902479,42.661823
2101955238000.0,-1.261936734548655,0.1517110355586287,4.005370483362669,-0.13683382,2.1762075,-0.19272798,193.93805,14.097973,42.033638
2101959343000.0,-1.1663813764898163,0.3724768448830777,5.422225701156651,-0.22418754,2.346639,-0.1826487,194.03456,14.305687,41.35422
2101964587000.0,-1.044312607266784,0.6544977715815942,7.232210783278854,-0.28527406,2.581211,-0.092240654,194.32726,14.39261,40.34905
2101969270000.0,-0.9158088088366312,0.6730333060706516,8.866929471563244,-0.41722095,2.6035078,-0.06688975,194.61172,14.50569,39.36313
2101974649000.0,-0.7503760004868952,0.4809178046721227,10.761402071117788,-0.5421429,2.44285,-0.036651913,194.84686,14.651873,38.35799
2101979332000.0,-0.3585620817015657,0.1625654369552914,11.958772393133373,-0.6264423,2.204002,-0.034208454,195.07965,14.717307,37.143646
2101984309000.0,0.2034046161337483,-0.2645292552773062,12.965816845595173,-0.6640105,1.971873,-0.036957346,195.26595,14.802863,35.981144
2101989285000.0,0.9215653421657096,-0.7012359409351928,13.834644296964726,-0.63132924,1.7773124,-0.07269296,195.3743,14.883376,34.702618
2101994347000.0,1.827403275052411,-1.1563642551362685,14.563733324947588,-0.5458081,1.6545285,-0.12767084,195.45737,14.952869,33.497307
2101999264000.0,2.739772057469966,-1.6019256946093028,15.242906475613513,-0.4529566,1.5995506,-0.14905111,195.47964,15.039083,32.329273
2102004302000.0,3.760316080839922,-2.0676109148577884,15.862168186261425,-0.34330627,1.5500705,-0.14019357,195.48947,15.09331,31.232534
2102009263000.0,4.68643635241768,-2.42923909721151,16.354603078908337,-0.2321288,1.4654657,-0.129198,195.48703,15.146598,30.286219
2102014352000.0,5.471962727924454,-2.597910336299812,16.61483953307624,-0.172264,1.3613132,-0.101098195,195.46599,15.186988,29.394827
2102019245000.0,6.167018492068578,-2.6790798350745075,16.848148045345297,-0.15332718,1.2082914,-0.034208454,195.42586,15.241511,28.683445
2102024338000.0,6.749250970197084,-2.573574598461785,17.05134332190354,-0.14508049,0.9578367,0.04917465,195.35228,15.287954,28.055107
2102029373000.0,7.324852880147412,-2.4692708744592213,17.252224574106712,-0.13408493,0.6374379,0.17073683,195.25594,15.337545,27.617598
2102034291000.0,8.100037477695539,-2.1126561797759558,17.235480675535108,-0.099265605,0.28099802,0.31887165,195.09967,15.392297,27.267769
2102039262000.0,8.928552725145028,-1.6983984566113224,17.173579842468495,-0.04184427,-0.14355333,0.5164866,194.85625,15.459724,27.023804
2102044291000.0,9.765943961682243,-1.323416216728972,16.731791226168223,0.08979719,-0.6056729,0.75808376,194.58755,15.477341,26.98118
2102049295000.0,10.598986966168225,-0.9606396386728971,16.203301482616823,0.28099802,-0.84299403,0.9773844,194.24872,15.489492,26.979256
2102054348000.0,10.875366275769398,-1.4573284805461637,14.478079099956652,0.5207626,-1.2534955,1.0882565,193.91501,15.397662,27.280725
2102059292000.0,10.883575415951452,-2.343944036957087,12.236912252622451,0.6563747,-1.4813483,1.0974194,193.5416,15.305867,27.576134
2102064274000.0,10.70670951882845,-3.044296616338912,10.41472320083682,0.87995136,-1.5091426,1.0161743,193.24756,15.086762,28.095613
2102069288000.0,10.20442839748954,-3.410962097154812,9.344863573221758,0.9718866,-1.4813483,0.82253003,192.97006,14.863248,28.64932
2102074325000.0,9.670819160600413,-3.5692372993230648,8.376622135740215,0.98899084,-1.4611896,0.59498274,192.58545,14.870721,29.37596
2102079306000.0,9.109232789855785,-3.480319436927303,7.543602490925145,0.9263771,-1.4367551,0.37201694,192.28076,14.844282,30.086073
2102084264000.0,8.565545621495327,-3.318500430153931,6.877784443018141,0.7965683,-1.4193454,0.17684549,191.99281,14.905889,30.790949
2102089326000.0,8.03252963707165,-3.0475507346985524,6.433604517839472,0.6560693,-1.4798211,0.044898596,191.76683,14.952231,31.50384
2102094283000.0,7.53606851678487,-2.764473282222222,5.965961022931442,0.5354234,-1.6175711,-0.03726278,191.59035,15.013759,32.216022
2102099285000.0,7.119322215886525,-2.4202045186666665,5.386140061985816,0.44440445,-1.8164078,-0.099265605,191.44661,15.074663,32.95541
2102104323000.0,6.693026012782204,-2.0985894190903056,4.816468532793825,0.3839288,-1.9547688,-0.1160644,191.31473,15.127193,33.675648
2102109389000.0,6.217851527589641,-1.9536209178286847,4.345321071887451,0.3109304,-2.0002782,-0.10476339,191.19102,15.189009,34.413834
2102114256000.0,5.761342601527224,-1.814346994488712,3.892680982619522,0.25167647,-1.9685133,-0.07849618,191.09825,15.229708,35.160595
2102119338000.0,5.023652638535053,-1.804805133705343,3.471689774600731,0.20738874,-1.8839084,-0.053145275,191.01114,15.275719,35.89251
2102124300000.0,4.197666457469053,-1.850523959720352,3.0815560811622094,0.16676621,-1.7403551,-0.017715093,190.92993,15.330789,36.584675
2102129399000.0,3.3488749344429483,-1.8975050749663267,2.680650860919761,0.15393804,-1.559539,0.007941248,190.85603,15.383874,37.213707
2102134373000.0,2.7424538271571968,-1.9528466479233817,2.4774041635325537,0.14477506,-1.3674219,0.021685716,190.79816,15.44142,37.790306
2102139296000.0,2.282232664573165,-2.013630533143015,2.394911747877337,0.15821409,-1.1585059,0.008246681,190.76976,15.489009,38.306244
2102144303000.0,1.976282101606079,-2.028528231879803,2.409042922554184,0.18936823,-0.90224797,-0.03390302,190.66534,15.554356,38.634396
2102149332000.0,1.8931083647180729,-1.9786240158017443,2.558755614212935,0.2134974,-0.75594574,-0.084910266,190.58257,15.612786,38.933945
2102154379000.0,1.8438434724909565,-1.926269934668125,2.736673040691512,0.24862215,-0.464563,-0.10598512,190.49272,15.685867,39.060925
2102160262000.0,2.0808264704382937,-1.8456956500378563,3.182201237183478,0.24801129,-0.02565634,-0.1301143,190.46,15.751973,39.111332
2102164293000.0,2.243205947699167,-1.790486583006646,3.487474764305544,0.22143865,0.12156218,-0.14049901,190.4393,15.840167,39.12976
2102169272000.0,2.6599550637022134,-1.688281205472837,4.091870893843058,0.21105394,0.3979787,-0.16676621,190.50327,15.917735,38.999023
2102174236000.0,3.1573478137625752,-1.5734983438229375,4.780568513199195,0.16829337,0.6435465,-0.18570304,190.57986,16.007801,38.83723
2102179395000.0,3.689810813586861,-1.4653390081327946,5.624030619576673,0.11636983,0.8549059,-0.18203785,190.71254,16.110367,38.603474
2102184362000.0,4.20785333990866,-1.3650727014579307,6.48047181096083,0.05009095,1.0299188,-0.17195857,190.8666,16.222229,38.3184
2102189352000.0,4.659985286143331,-1.3916719258699253,7.432587838442419,-0.021685716,1.1523973,-0.1469131,191.05219,16.2643,38.00961
2102194450000.0,5.044255747514499,-1.5635822828914665,8.509556177299089,-0.092240654,1.2052372,-0.1432479,191.24681,16.319803,37.678696
2102199325000.0,5.243906400248271,-1.8219004276201451,9.36247504788083,-0.16126843,1.1847731,-0.15057829,191.47626,16.316164,37.338028
2102204335000.0,5.307720597801029,-2.166497405364426,10.089957433055506,-0.2275473,1.1029172,-0.1881465,191.70638,16.323877,37.00858
2102209284000.0,5.365442760704774,-2.489404769391518,10.745856238885477,-0.28160888,0.96852684,-0.22235495,191.90541,16.33536,36.64802
2102214347000.0,5.410145181622618,-2.7725209144130303,11.247518526736323,-0.32925636,0.8026769,-0.26939157,192.10138,16.35142,36.33089
2102219242000.0,5.514193689426957,-2.9760711791283296,11.54949500694108,-0.37659842,0.6453791,-0.31948254,192.21783,16.421139,35.96555
2102224275000.0,5.755388535754641,-3.030534576077482,11.456128997901532,-0.41263947,0.50488013,-0.37751472,192.3313,16.487562,35.655647
2102230239000.0,6.0405193392024366,-3.08840590604359,11.338710418292568,-0.44684792,0.3943135,-0.4184427,192.38794,16.591848,35.337807
2102234318000.0,6.218977821452365,-2.965715743171219,11.093330247834777,-0.4810564,0.31520647,-0.45478916,192.44818,16.691832,35.064682
2102239302000.0,6.437030548967355,-2.8158045463690877,10.793508043970686,-0.51343226,0.24740042,-0.48166725,192.5078,16.790224,34.88719
2102244338000.0,6.774180313727359,-2.4687437985700664,10.3667795386082,-0.5216789,0.23823744,-0.4746423,192.56523,16.88729,34.721687
2102249360000.0,7.150135276587226,-2.056110330772164,9.899128409151572,-0.47983465,0.25228736,-0.3998113,192.60347,16.983986,34.5694
2102254437000.0,7.398969241996435,-1.7459526386452764,9.561589940106952,-0.42424592,0.23976462,-0.34422258,192.67467,17.048454,34.50723
2102259280000.0,7.572585957629234,-1.5020624391087345,9.305298121122997,-0.33078352,0.12980886,-0.21930063,192.68785,17.116701,34.455276
2102264265000.0,7.712377029496189,-1.264342335674552,9.029954058992375,-0.23396139,-0.0027488936,-0.10170906,192.768,17.106342,34.53655
2102269347000.0,7.794271525388498,-1.0427458378541028,8.731281050776998,-0.14508049,-0.12797627,-0.0015271631,192.7992,17.094492,34.63268
2102274274000.0,7.785410693765878,-0.9080392601172562,8.39919502669533,-0.03634648,-0.23182335,0.093462385,192.83253,17.033388,34.81686
2102279298000.0,7.63026511627907,-0.9033378879069768,7.990175153488372,0.042760566,-0.2742785,0.15943582,192.83467,16.971962,35.006546
2102284240000.0,7.449965593070185,-0.90021986,7.649090625612757,0.09040806,-0.24801129,0.18295415,192.85847,16.874699,35.245438
2102289321000.0,7.205684977163107,-0.90021986,7.4287589798602225,0.12034045,-0.23396139,0.16584991,192.86794,16.769749,35.490967
2102294241000.0,6.95895385935085,-0.8763395144461618,7.258074935703245,0.15057829,-0.23976462,0.1563815,192.85782,16.67906,35.74391
2102299773000.0,6.654163744976816,-0.7853573714683153,7.180740226275116,0.20769419,-0.26939157,0.1414153,192.85536,16.573215,35.997192
2102304773000.0,6.379223426775738,-0.7022252780047885,7.110723870690343,0.27885997,-0.31306845,0.11942416,192.84123,16.467327,36.237514
2102309297000.0,6.137181754389465,-0.6157817836073424,7.045891078391859,0.32406402,-0.34574974,0.099265605,192.83104,16.353947,36.48019
2102314644000.0,5.855126425459496,-0.5136801041422736,6.970256863589176,0.38912117,-0.364992,0.0852157,192.82831,16.215723,36.6905
2102319283000.0,5.707692121170864,-0.4267318071477195,6.928672957590197,0.41722095,-0.37934732,0.06719518,192.83174,16.0739,36.90737
2102324282000.0,5.548816482641253,-0.3330360674029952,6.883862018575561,0.45112398,-0.36377025,0.06291912,192.84482,15.9114895,37.08716
2102329299000.0,5.412217047963207,-0.2361607903810775,6.9224330946123525,0.46120325,-0.33567044,0.0580322,192.8651,15.747819,37.266468
2102334297000.0,5.290353649556505,-0.1378836829862023,7.0128480064881735,0.45845437,-0.29779682,0.07544186,192.88338,15.585936,37.43442
2102339383000.0,5.187191276047581,-0.0703541887969721,7.110904585617734,0.46211955,-0.25167647,0.09682214,192.9155,15.4130335,37.571724
2102344301000.0,5.1702141822744885,-0.1340183347643507,7.229744330665946,0.4382958,-0.22632557,0.11484267,192.94543,15.252511,37.70101
2102349691000.0,5.1523223,-0.2045182879411042,7.359041582822086,0.39492437,-0.15607607,0.11759156,192.99677,15.083231,37.773766
2102354322000.0,5.1523223,-0.2807026662756646,7.449737208179959,0.35338554,-0.13683382,0.115453534,193.04054,14.924073,37.85082
2102359256000.0,5.1523223,-0.3618716843501022,7.546366924335379,0.32406402,-0.09712757,0.10354166,193.08757,14.784695,37.881374
2102364339000.0,5.190422820371118,-0.4631867523779749,7.640128330536506,0.2507602,-0.06872234,0.08246681,193.13893,14.664624,37.91008
2102369485000.0,5.264972355667608,-0.5824660866962486,7.729587980475998,0.172264,-0.04153884,0.056199603,193.20003,14.551409,37.929375
2102374326000.0,5.345296249251597,-0.6789251886547812,7.779120906625989,0.07574729,0.003970624,0.046120327,193.25197,14.474254,37.91761
2102379342000.0,5.436891546343789,-0.7659409193517018,7.8020197667651825,-0.020463986,0.030848695,0.045814894,193.30959,14.413066,37.905052
2102384309000.0,5.537043196755484,-0.8483207183559905,7.820389794870401,-0.108123146,0.043676864,0.048258353,193.35735,14.389181,37.881397
2102389325000.0,5.65023614205184,-0.9266849399111836,7.833450578774697,-0.1695151,0.054061573,0.057421334,193.40482,14.382411,37.851124
2102394255000.0,5.765929553555355,-1.0110621018226822,7.829091503285328,-0.2302962,0.06811147,0.056505036,193.44829,14.406088,37.8259
2102399270000.0,5.899219616861687,-1.1227375978847884,7.764247613471347,-0.27580565,0.06414085,0.06658431,193.48352,14.442908,37.80165
2102404321000.0,6.033466498169817,-1.2352147525427544,7.698938244089409,-0.3005457,0.07360926,0.058948494,193.52069,14.4972315,37.787155
2102409288000.0,6.122569641684058,-1.3150125142908993,7.663702287197169,-0.3115413,0.0888809,0.063224554,193.55049,14.560773,37.770744
2102414296000.0,6.179142637963887,-1.3715852833681157,7.650647043281009,-0.31306845,0.10323623,0.060170226,193.58636,14.623106,37.754
2102419275000.0,6.227051542237148,-1.4253459202876086,7.637903148747094,-0.30757064,0.12767084,0.06414085,193.61006,14.711436,37.761654
2102424332000.0,6.260413894600879,-1.4753897536553862,7.625392201291656,-0.28496864,0.1386664,0.061391957,193.63763,14.791647,37.77016
2102429588000.0,6.293665505037996,-1.525267455333521,7.617394485223754,-0.25870144,0.16218472,0.062002823,193.65855,14.878866,37.777615
2102434374000.0,6.310865874472277,-1.551067987034431,7.656095305225631,-0.22113322,0.19181168,0.06352998,193.68257,14.95529,37.78074
2102439333000.0,6.328687987306502,-1.5778011330237358,7.696195047471621,-0.18661933,0.20158553,0.060170226,193.694,15.034763,37.79015
2102444344000.0,6.307982252083157,-1.5727440710988545,7.718325572252864,-0.13683382,0.20158553,0.06658431,193.70447,15.101822,37.793297
2102449337000.0,6.283637638158677,-1.5646291856682224,7.738612785829444,-0.09896017,0.2098322,0.064446285,193.72153,15.159324,37.79291
2102454308000.0,6.23067351548414,-1.5445318765303284,7.758628697968837,-0.074830994,0.20066923,0.06078109,193.72395,15.209185,37.794643
2102459356000.0,6.153328822161937,-1.5142665953394543,7.778805458458541,-0.038179077,0.204029,0.06352998,193.7278,15.247066,37.790516
2102464451000.0,6.075264001940735,-1.4837195256747355,7.799170077058987,0.0030543262,0.19425514,0.06169739,193.72723,15.274638,37.787006
2102469324000.0,6.013237422558515,-1.4595431715496368,7.8050976,0.03848451,0.19058995,0.06627888,193.72495,15.296105,37.78026
2102474350000.0,5.954965063142319,-1.4368816514931395,7.8050976,0.05222898,0.18478674,0.0711658,193.72195,15.312344,37.776974
2102479485000.0,5.895428937873285,-1.4137286659200967,7.8050976,0.07422013,0.20219639,0.08674286,193.71278,15.316449,37.74817
2102485162000.0,5.839495094732182,-1.374519743382027,7.7977040899513055,0.07360926,0.21197024,0.09407325,193.70316,15.321871,37.723705
2102489348000.0,5.80045363100487,-1.3425767646657814,7.790605642000886,0.0983493,0.22357668,0.10262536,193.69012,15.319926,37.692936
2102494307000.0,5.757571054293629,-1.3181506908587255,7.780770936288088,0.10476339,0.23854288,0.11728613,193.67055,15.321403,37.645786
2102499336000.0,5.718332234674923,-1.3103029269349846,7.768999290402476,0.09101892,0.24495697,0.13041973,193.64886,15.323404,37.597958
2102504835000.0,5.672969298623815,-1.3013063050004274,7.753415296555262,0.095294975,0.26328292,0.14172074,193.6258,15.316822,37.53755
2102509301000.0,5.614475272878024,-1.290338665629541,7.716856625899649,0.093462385,0.27305678,0.14569137,193.60043,15.315933,37.47815
2102514335000.0,5.548541791999316,-1.2779761272074537,7.675648307923755,0.08368854,0.28130344,0.15302174,193.56882,15.319751,37.408443
2102519482000.0,5.5154233762385685,-1.2685183152524853,7.640657552477138,0.07666359,0.3042109,0.15363261,193.54109,15.322939,37.333576
2102524373000.0,5.500523853900597,-1.2610685929781311,7.610858507801192,0.05681047,0.3155119,0.16890424,193.50557,15.335108,37.258736
2102529292000.0,5.485144681020003,-1.2555078275919989,7.582938544816002,0.03970624,0.34147367,0.17073683,193.47856,15.345369,37.169125
2102534321000.0,5.466759535501604,-1.2628618857993588,7.568230428401283,0.004581489,0.37598756,0.17134771,193.4491,15.366512,37.07435
2102539477000.0,5.447910100167964,-1.2704016599328145,7.553150880134372,-0.016187929,0.39400807,0.16432275,193.42654,15.384084,36.979893
2102544291000.0,5.42191228262623,-1.2835562974834651,7.540618972737539,-0.06536258,0.40011674,0.16554448,193.40346,15.417154,36.88032
2102549332000.0,5.386867208340055,-1.3030258690353282,7.528937172882723,-0.086437434,0.4120286,0.1554652,193.3891,15.444924,36.777973
2102554326000.0,5.35056234819619,-1.3230357274017024,7.51922933490069,-0.1133155,0.43004912,0.1432479,193.36885,15.488769,36.67299
2102559291000.0,5.273466584920957,-1.3615836492906364,7.55777745804621,-0.16432275,0.43279803,0.13530666,193.35005,15.540905,36.57144
2102564284000.0,5.195936041913255,-1.4003489612728008,7.596542972419943,-0.19517145,0.43890667,0.12492194,193.33304,15.596981,36.460594
2102569277000.0,5.140396132765531,-1.3985526104509016,7.635064298837675,-0.22357668,0.4361578,0.10567969,193.32088,15.659731,36.355164
2102574274000.0,5.102034894789579,-1.36498674002004,7.673425236392785,-0.24617869,0.42638394,0.09437868,193.30933,15.726299,36.252373
2102579331000.0,5.0701152616211,-1.3503298,7.709137021968184,-0.2669481,0.41263947,0.07819075,193.29597,15.803297,36.130783
2102584305000.0,5.043872025204876,-1.3503298,7.741941238757661,-0.28130344,0.39736784,0.060170226,193.2855,15.87994,36.01593
2102589603000.0,5.015919337924386,-1.3503298,7.7768822802837265,-0.26389378,0.38606682,0.057726767,193.28244,15.943366,35.895004
2102594285000.0,4.983333524342697,-1.356663910646806,7.823948663880835,-0.2687807,0.36865717,0.04337143,193.28629,16.008408,35.78511
2102599361000.0,4.94445566749975,-1.3663833621713486,7.882265373028092,-0.26145032,0.34972036,0.03726278,193.28618,16.066425,35.680374
2102604327000.0,4.887432095005655,-1.4224737225528583,8.001268144748979,-0.23976462,0.32803464,0.035430185,193.29079,16.116663,35.570335
2102609286000.0,4.821316927582006,-1.5009855270164447,8.150027098860177,-0.24098633,0.31612277,0.02565634,193.29834,16.166924,35.46635
2102614274000.0,4.749771552684775,-1.5659702357338388,8.283765008843968,-0.22449298,0.28924468,0.021991149,193.2942,16.210539,35.36041
2102619276000.0,4.669075357864814,-1.6063182278163823,8.389679120025269,-0.20586158,0.28130344,0.022296581,193.29225,16.252005,35.255295
2102624779000.0,4.649334821694782,-1.654431837622597,8.459931355041194,-0.18173242,0.27152961,0.027794369,193.26768,16.303007,35.12235
2102629321000.0,4.687730446743821,-1.6970935392899176,8.481262183601412,-0.16401732,0.25534168,0.02443461,193.24394,16.34871,34.99665
2102634297000.0,4.69800342942653,-1.7454881307781425,8.512352158138636,-0.14813483,0.23548855,0.026572637,193.20995,16.397438,34.848194
2102639345000.0,4.665332274377293,-1.7968282596833367,8.554357580807105,-0.12950343,0.2312125,0.032986723,193.17531,16.440783,34.702686
2102644270000.0,4.640366708482729,-1.8320929711849585,8.585203322037604,-0.109650314,0.21319197,0.031154128,193.13997,16.485125,34.571655
2102649272000.0,4.627799243629209,-1.8404713102492347,8.597770874376913,-0.095294975,0.19394971,0.038789943,193.09871,16.528296,34.443203
2102654376000.0,4.613221508852977,-1.8507729959072543,8.60780002380116,-0.083383106,0.17104226,0.043066,193.05264,16.574638,34.309383
2102659357000.0,4.579705232162304,-1.8800997817583,8.586852569603021,-0.07086037,0.14782938,0.05681047,192.99883,16.619572,34.181778
2102664263000.0,4.54669361733708,-1.9089849878183736,8.56622052577727,-0.062002823,0.13530666,0.062308256,192.9471,16.663017,34.05502
2102669303000.0,4.516612075879699,-1.9495527361804512,8.554067766616543,-0.029626964,0.12339478,0.06047566,192.89096,16.698385,33.93609
2102674241000.0,4.488166819699249,-1.992220620451128,8.544585816541353,-0.01863139,0.10598512,0.063224554,192.82986,16.7376,33.823254
2102679331000.0,4.4860032945900254,-2.0218415729501267,8.522223027049874,-0.01863139,0.09285152,0.06352998,192.76733,16.78014,33.708763
2102684258000.0,4.490989018765849,-2.046770193829248,8.497294406170752,-0.008246681,0.076358154,0.06414085,192.70192,16.817484,33.601624
2102689281000.0,4.503376193585391,-2.073144469688905,8.451163641002111,0.007941248,0.074830994,0.06688975,192.63716,16.863516,33.48858
2102694503000.0,4.517144216784437,-2.100680611929889,8.400680793429386,0.009468411,0.061086524,0.06352998,192.57144,16.90873,33.38575
2102699335000.0,4.49922445544981,-2.110402313524344,8.364749858946103,0.014660766,0.06169739,0.06688975,192.50354,16.954626,33.28255
2102704275000.0,4.4707876834602285,-2.1151417837707878,8.331573369264676,0.0125227375,0.04886922,0.06536258,192.43587,16.99961,33.18919
2102709305000.0,4.451818775359278,-2.1128166711843077,8.28932513510962,0.013744468,0.055588737,0.056199603,192.37457,17.048906,33.099022
2102714253000.0,4.436906521714047,-2.107845937270534,8.24458811465436,0.020463986,0.05222898,0.051923547,192.31041,17.09679,33.01609
2102719343000.0,4.441186705114402,-2.0997723576850604,8.214677570659488,0.029321533,0.055283304,0.047036625,192.2472,17.146784,32.930897
2102724326000.0,4.449750356123823,-2.0912086619650068,8.188986841184388,0.021380283,0.04795292,0.046120327,192.18336,17.19789,32.850746
2102729323000.0,4.441197196695432,-2.063708205156809,8.14554380561987,0.01985312,0.05131268,0.049480084,192.1239,17.245005,32.77011
2102734323000.0,4.4210398613976,-2.02339321883814,8.090110738897074,0.0143553335,0.046120327,0.042455133,192.06694,17.29203,32.696083
2102739290000.0,4.39830423022741,-1.984563368363856,8.059965053531897,0.013133603,0.050396383,0.038789943,192.0183,17.338785,32.623596
2102744299000.0,4.374169499295633,-1.9459477988730127,8.040657369591466,0.00061086525,0.058337633,0.027794369,191.97466,17.386126,32.554092
2102749271000.0,4.38019049817752,-1.895015264870456,8.02835757905625,0.0036651916,0.052534413,0.03023783,191.9416,17.42833,32.489647
2102754434000.0,4.399674198404099,-1.836563808156832,8.018615474633041,0.008552114,0.07422013,0.025961773,191.91861,17.46926,32.418667
2102759300000.0,4.3990970865635575,-1.7790726185596906,8.022021076172063,0.004886922,0.063224554,0.019242255,191.90155,17.50692,32.357586
2102764297000.0,4.389845270275496,-1.7189354504108263,8.031273133977766,-0.006414085,0.06261369,0.021991149,191.88657,17.54537,32.288666
2102769337000.0,4.400932930240757,-1.662632822655384,8.03198985232195,0.0018325958,0.054061573,0.018020526,191.8817,17.568493,32.234894
2102774405000.0,4.425378997733454,-1.608851423118767,8.027100536718041,-0.0021380284,0.047036625,0.005192355,191.8787,17.595673,32.18256
2102779438000.0,4.447341844170885,-1.5685013215921764,8.038644344170883,0.0018325958,0.04062254,0.01160644,191.87724,17.609152,32.131798
2102784302000.0,4.467321922750279,-1.5365331541391438,8.05862442275028,0.0061086523,0.036957346,0.004581489,191.88326,17.619137,32.085796
2102789352000.0,4.495993289105229,-1.5053310727193174,8.07949142922774,-0.004886922,0.027488936,-0.009162978,191.90047,17.61994,32.05047
2102794269000.0,4.542350993152483,-1.479576792693065,8.100094745679282,-0.009773844,0.016798794,-0.007941248,191.91411,17.61966,32.016403
2102799264000.0,4.587294089653816,-1.4609942294649882,8.130712322974036,0.005192355,-0.016798794,-0.014660766,191.93312,17.605915,31.998335
2102804348000.0,4.630389739653816,-1.4514174794649883,8.173807822974036,0.0067195175,-0.04642576,-0.019242255,191.94983,17.597277,31.98227
2102809341000.0,4.674497088523157,-1.4460979,8.19371232129333,0.014049901,-0.047036625,-0.016493361,191.97034,17.578741,31.975187
2102814344000.0,4.721018964909215,-1.4460979,8.184408266627827,0.01282817,-0.04734206,-0.016798794,191.98944,17.56104,31.976757
2102819321000.0,4.76250430490239,-1.4414448981616037,8.178593,0.0030543262,-0.04917465,-0.016493361,192.01338,17.53793,31.981968
2102824271000.0,4.795704101803379,-1.428994974323733,8.178593,0.0143553335,-0.050396383,-0.009162978,192.03487,17.51168,31.986391
2102829344000.0,4.829231893447737,-1.4203088879680186,8.17901318574493,0.018325957,-0.04917465,-0.01038471,192.06033,17.488281,32.001762
2102834390000.0,4.857502875975039,-1.4532916517160686,8.183724868564743,0.026267206,-0.06352998,-0.009468411,192.0805,17.463219,32.02044
2102839463000.0,4.886107269066839,-1.485050256355613,8.188814752986762,0.03359759,-0.070554934,-0.008857546,192.11024,17.433004,32.043907
2102844444000.0,4.9169125908621245,-1.4953186969540415,8.199083139974169,0.037873644,-0.074830994,-0.0030543262,192.13638,17.403107,32.069424
2102849299000.0,4.9416323,-1.5067856740500738,8.206516218851252,0.040927973,-0.08277224,-0.009162978,192.15915,17.374653,32.102077
2102854296000.0,4.9416323,-1.525580183406971,8.201817517918508,0.051923547,-0.09254608,-0.005497787,192.17615,17.346222,32.134205
2102859300000.0,4.9416323,-1.5444491901350674,8.196454442021011,0.05100725,-0.10567969,-0.005497787,192.20192,17.315666,32.17216
2102864285000.0,4.9416323,-1.5635548323061532,8.186901895247624,0.058337633,-0.093462385,0.008246681,192.22385,17.283905,32.203487
2102869318000.0,4.94108534575549,-1.58072005424451,8.179139937110783,0.054061573,-0.08857546,0.0021380284,192.24142,17.256235,32.24197
2102874334000.0,4.937149158538184,-1.5846562414618155,8.183076001024254,0.047036625,-0.07849618,0.011301007,192.25189,17.232594,32.272156
2102880238000.0,4.9325161343493935,-1.5892892656506064,8.187708880080303,0.04184427,-0.076052725,0.0067195175,192.26602,17.208254,32.304127
2102884293000.0,4.9320555,-1.5897499,8.181078186025408,0.047036625,-0.07422013,0.015882496,192.27403,17.187136,32.33067
2102889253000.0,4.9320555,-1.5897499,8.17093605300523,0.027183503,-0.06047566,0.02107485,192.28645,17.172153,32.35366
2102894342000.0,4.9281529351924585,-1.5897499,8.176821088864886,0.036651913,-0.051923547,0.024129177,192.29695,17.15002,32.374264
2102899289000.0,4.923500889866458,-1.5897499,8.186125130940692,0.023518313,-0.04642576,0.02443461,192.30794,17.13855,32.391373
2102904349000.0,4.9224787,-1.6159464950722926,8.191911747909906,0.004276057,-0.029932396,0.030543262,192.31396,17.127922,32.403656
2102909301000.0,4.9224787,-1.648598279315432,8.196576135438184,0.0061086523,-0.017104227,0.022296581,192.3247,17.113317,32.416508
2102914283000.0,4.926044377650572,-1.6710503106022896,8.197746,0.0009162979,-0.018936822,0.018936822,192.32457,17.104578,32.426533
2102919331000.0,4.930857089089098,-1.690301156356396,8.197746,-0.00580322,-0.011301007,0.02321288,192.3273,17.095814,32.430466
2102924329000.0,4.9320555,-1.6950948,8.18030524019083,-0.002443461,0.0021380284,0.025045475,192.32823,17.092096,32.431667
2102929329000.0,4.9320555,-1.6950948,8.156994949079934,-0.011301007,-0.018325957,0.021991149,192.32637,17.09264,32.439888
2102934304000.0,4.935376292752894,-1.7083779710115752,8.139899760442878,-0.009468411,-0.00580322,0.02565634,192.33131,17.093445,32.43365
2102939315000.0,4.940206624388526,-1.7276992975541017,8.125408967287367,-0.010995574,0.0009162979,0.0290161,192.33429,17.096375,32.434715
2102944336000.0,4.9416323,-1.7398946836252274,8.108146700545506,-0.00580322,-0.0143553335,0.025961773,192.33995,17.09837,32.44077
2102949912000.0,4.9416323,-1.750115802737104,8.08770456904967,0.0036651916,-0.022907447,0.023823744,192.34584,17.1001,32.4428
2102954337000.0,4.936069431474702,-1.746992731474702,8.063354843987609,0.01282817,-0.036957346,0.025961773,192.34464,17.105055,32.452045
2102959312000.0,4.927124612174974,-1.7380479121749743,8.03204778963672,0.02443461,-0.034513887,0.016187929,192.34901,17.10461,32.46037
2102964338000.0,4.9224787,-1.7376931092844037,8.000768139908256,0.031154128,-0.05100725,0.008552114,192.34799,17.108248,32.478508
2102969293000.0,4.9224787,-1.7464000898348624,7.970293753440367,0.03573562,-0.06352998,0.008552114,192.34859,17.10902,32.494843
2102974273000.0,4.917937304366438,-1.7525556,7.947235701455479,0.03573562,-0.06872234,0.015882496,192.3539,17.10706,32.51451
2102979310000.0,4.902449823116439,-1.7525556,7.942073207705479,0.042455133,-0.07696902,0.013744468,192.36044,17.100845,32.538864
2102984291000.0,4.887919866981044,-1.750612782231444,7.943058335537112,0.043066,-0.08277224,0.010079277,192.3618,17.101341,32.56642
2102989306000.0,4.874331028491937,-1.7460831536357635,7.952117592728474,0.05222898,-0.090713486,0.002443461,192.3641,17.097094,32.596798
2102994249000.0,4.866164463449921,-1.739539373736089,7.951447459443561,0.053145275,-0.08857546,0.004581489,192.36528,17.093529,32.622177
2102999333000.0,4.870034729173291,-1.7279284553259142,7.928225663036566,0.058643065,-0.0842994,0.009162978,192.36758,17.085918,32.64904
2103004588000.0,4.8740351710254375,-1.7159270044515105,7.904222803060414,0.051923547,-0.08307768,0.013744468,192.36525,17.080795,32.672558
2103009305000.0,4.867171825703164,-1.6882684368467151,7.874885675600973,0.06261369,-0.06994407,0.010079277,192.36623,17.06977,32.6916
2103014249000.0,4.857955680418492,-1.6560120486423358,7.842629335513382,0.058948494,-0.06841691,0.008857546,192.36394,17.064913,32.712242
2103019313000.0,4.885832104736143,-1.6303267725132875,7.857465498481397,0.055588737,-0.0571159,0.01160644,192.36441,17.058199,32.7316
2103024278000.0,4.926449018602885,-1.6077618465451784,7.88905639483675,0.05131268,-0.04734206,0.016493361,192.36473,17.052803,32.750393
2103029405000.0,4.953262414275107,-1.6051417571375537,7.909588185706331,0.046731193,-0.03573562,0.024129177,192.3665,17.044785,32.76861
2103034293000.0,4.970641808520512,-1.6138314542602563,7.922622731390384,0.046731193,-0.024129177,0.02321288,192.37067,17.036259,32.784187
2103039345000.0,4.992143334375654,-1.6111579840828278,7.944240606348044,0.029932396,-0.019242255,0.022602014,192.37886,17.02584,32.802883
2103044281000.0,5.016861482294499,-1.596327064358921,7.973902394174859,0.04153884,-0.007941248,0.027183503,192.38776,17.009716,32.81599
2103049266000.0,5.03817789837587,-1.5819840262180973,7.99482254675174,0.041233405,0.0036651916,0.024740042,192.39911,17.001637,32.829983
2103054303000.0,5.056831549419954,-1.5679937879350347,8.008812736339907,0.04428773,0.023518313,0.029321533,192.409,16.992083,32.837326
2103059306000.0,5.074952524110526,-1.547786659892801,8.031225378708067,0.030543262,0.026572637,0.033292156,192.42154,16.981318,32.848423
2103064291000.0,5.092599912429535,-1.5213156695499492,8.06210833130025,0.026267206,0.021685716,0.034513887,192.43472,16.968117,32.85602
2103069320000.0,5.107294565675341,-1.4964171112409277,8.084253253009383,0.01863139,0.026267206,0.043066,192.4499,16.95827,32.861736
2103074333000.0,5.11579306047088,-1.4751706523986547,8.08850241166578,0.021685716,0.03390302,0.035430185,192.46948,16.944597,32.86927
2103079438000.0,5.124053529288103,-1.4561367389393216,8.096560764930722,0.03359759,0.03726278,0.03756821,192.48792,16.927574,32.87638
2103084305000.0,5.128507357496416,-1.4605906601624463,8.13664619546106,0.019242255,0.038179077,0.04734206,192.50667,16.916277,32.881996
2103089668000.0,5.133168,-1.4646062026282958,8.17837792971804,0.015882496,0.0290161,0.04062254,192.53117,16.89314,32.89354
2103094339000.0,5.133168,-1.4534442880978125,8.174657213840138,0.0290161,0.024129177,0.0421497,192.55025,16.87272,32.901775
2103099332000.0,5.133168,-1.441512915961075,8.170680006737086,0.018936822,0.032986723,0.040011674,192.5654,16.858343,32.907104
2103104324000.0,5.13536353273316,-1.4453029475321804,8.16462493453368,0.021991149,0.03359759,0.03634648,192.57877,16.83822,32.915787
2103109296000.0,5.139123845771144,-1.4603438855721391,8.157104308457711,0.010079277,0.02687807,0.0421497,192.58972,16.82558,32.92322
2103114458000.0,5.142426957201208,-1.4767364169419286,8.147953793020779,0.011301007,0.015271631,0.046120327,192.60269,16.806686,32.933674
2103119276000.0,5.138329817616764,-1.5013187410761857,8.123371597229621,0.016493361,0.011301007,0.043982297,192.61569,16.789919,32.943745
2103124241000.0,5.134107671905523,-1.526651086307938,8.098039384256792,0.020463986,0.009468411,0.03848451,192.63176,16.775265,32.955654
2103129320000.0,5.12377877138158,-1.5260294271052632,8.076752567763158,0.022602014,0.004886922,0.03756821,192.6461,16.760437,32.9689
2103135205000.0,5.109874490953947,-1.5167597777631578,8.053578444407893,0.015882496,-0.0070249503,0.040317107,192.65976,16.746733,32.984543
2103139277000.0,5.102683850967008,-1.518397773833902,8.051534004550625,0.01985312,-0.0036651916,0.040317107,192.67175,16.734297,32.997894
2103144339000.0,5.09767001561692,-1.5334390704726444,8.071589084186575,0.025350908,-0.008552114,0.032375857,192.68307,16.722284,33.016827
2103149326000.0,5.084641882627245,-1.5459536256076991,8.086912518900684,0.015271631,-0.018936822,0.035430185,192.6883,16.713638,33.035652
2103154394000.0,5.060564482885207,-1.555584535221748,8.096543177100903,0.018020526,-0.018020526,0.033292156,192.69849,16.698706,33.05366
2103159316000.0,5.043717552678055,-1.55613031199967,8.092199709086408,0.024740042,-0.0106901415,0.027794369,192.6985,16.689335,33.070198
2103164350000.0,5.035760201650573,-1.54419424391351,8.068327780638771,0.024740042,-0.014966198,0.036651913,192.69359,16.682915,33.087975
2103169675000.0,5.027331498876404,-1.5327809088282505,8.04353367977528,0.016493361,-0.01038471,0.027488936,192.69502,16.676458,33.097637
2103174339000.0,5.0197847000591365,-1.5403278258511448,8.028439806327617,0.02687807,-0.007941248,0.027488936,192.69016,16.66854,33.106968
2103179323000.0,5.011720110585452,-1.5483925416406183,8.012310332643406,0.040317107,-0.009162978,0.03023783,192.69061,16.657625,33.117973
2103184287000.0,4.991684360695085,-1.5542736300307218,8.017533808803762,0.03268129,-0.004581489,0.03390302,192.69185,16.649488,33.126423
2103189350000.0,4.963753769009217,-1.5589287124423965,8.036154284274193,0.025961773,0.006414085,0.03268129,192.69446,16.637821,33.133415
2103194281000.0,4.955106631990503,-1.5610195,8.0445175,0.025045475,0.005192355,0.03848451,192.6897,16.632677,33.141403
2103199274000.0,4.962431011564678,-1.5610195,8.0445175,0.017104227,0.019242255,0.027183503,192.69403,16.62777,33.14396
2103205164000.0,4.968382904417052,-1.5626033364663583,8.046101348870057,0.01282817,0.017715093,0.023823744,192.68466,16.628403,33.14313
2103209304000.0,4.951413227991782,-1.5761790776065745,8.059677196327684,0.0143553335,0.028710667,0.02443461,192.68092,16.628204,33.135887
2103214328000.0,4.930820074764595,-1.5926536001883238,8.076151847928436,0.0015271631,0.03268129,0.025961773,192.67802,16.633514,33.133152
2103224328000.0,4.9224787,-1.5993267,8.10613501833554,-0.0036651916,0.04520403,0.025045475,192.67813,16.636177,33.12538
2103229325000.0,4.9224787,-1.6016711411924962,8.111555,-0.010995574,0.044898596,0.022602014,192.6773,16.642088,33.120064
2103234343000.0,4.9224787,-1.605411810796295,8.111555,-0.009162978,0.04153884,0.019547688,192.67288,16.65066,33.10534
2103239313000.0,4.921809844126984,-1.609126451957672,8.112446803174603,-0.013439035,0.05589417,0.020463986,192.67007,16.661762,33.08453
2103244350000.0,4.91003002932845,-1.613053056890517,8.12815314090354,-0.005497787,0.04428773,0.015271631,192.66689,16.667692,33.072784
2103249359000.0,4.898315696923078,-1.6169578343589746,8.14377216923077,-0.0125227375,0.044593163,0.018020526,192.66405,16.680208,33.053127
2103254336000.0,4.891074964525062,-1.6318470052893936,8.12580203655497,-0.007941248,0.04337143,0.021685716,192.6611,16.68709,33.0377
2103259359000.0,4.8866344340718175,-1.6540497039231976,8.085837355210929,-0.010995574,0.055283304,0.022296581,192.65991,16.696993,33.018974
2103264334000.0,4.892950233333333,-1.6553909604166666,8.070255072916666,-0.009468411,0.039095376,0.016493361,192.65495,16.70278,33.003483
2103269343000.0,4.913038253098828,-1.6302808832705191,8.085321140180067,-0.014049901,0.051618114,0.028099801,192.649,16.713358,32.975727
2103275070000.0,4.925568670001913,-1.6277502100057395,8.0924015,-0.007330383,0.05497787,0.022602014,192.64253,16.723347,32.960217
2103279310000.0,4.929452889630763,-1.63940286889229,8.0924015,-0.004886922,0.051618114,0.01740966,192.63315,16.736832,32.94231
2103284280000.0,4.926293703230972,-1.6472107,8.098163296769027,-0.0015271631,0.058643065,0.02443461,192.63,16.742842,32.9231
2103289286000.0,4.912745767756217,-1.6472107,8.111711232243783,0.0021380284,0.05467244,0.029626964,192.62747,16.746832,32.90871
2103294325000.0,4.900507404588802,-1.6458018949390991,8.130993620715701,0.0018325958,0.056199603,0.02687807,192.62386,16.749771,32.89136
2103299335000.0,4.891446972618261,-1.6412716553016713,8.162705250873383,0.007941248,0.030848695,0.02076942,192.61615,16.750446,32.882404
2103304318000.0,4.885602200280112,-1.6354878383753502,8.186738799719889,0.002443461,0.022602014,0.014966198,192.60187,16.754902,32.86647
2103309317000.0,4.893052273926237,-1.6243126695611578,8.179288726073763,0.00580322,0.013133603,0.0143553335,192.58508,16.75554,32.857883
2103314252000.0,4.900406967553688,-1.613280571521942,8.17193403244631,0.0070249503,0.028405234,0.020463986,192.5692,16.758007,32.840103
2103319270000.0,4.8918080595401845,-1.6060242498526234,8.163257379445863,-0.0067195175,0.03726278,0.017104227,192.555,16.761465,32.827682
2103324276000.0,4.872966947140892,-1.6013139471605424,8.15383657732364,0.00061086525,0.043066,0.016798794,192.53957,16.761026,32.811256
2103329305000.0,4.867577812508018,-1.5916471822871805,8.154981785393568,0.0018325958,0.047647487,0.018936822,192.52882,16.762642,32.796513
2103334315000.0,4.871974336561899,-1.57845747239989,8.163775108952624,-0.0015271631,0.04520403,0.018325957,192.51907,16.76303,32.782608
2103339399000.0,4.8684308407914925,-1.5685416802638308,8.171070662644441,0.002443461,0.035124753,0.019242255,192.5072,16.758236,32.766685
2103344268000.0,4.8541258691584,-1.5637733563861336,8.175839086102872,0.00061086525,0.03726278,0.009162978,192.50034,16.753746,32.749546
2103349315000.0,4.843763176214783,-1.5631206237852164,8.161783878079905,-0.004581489,0.029932396,0.0076358155,192.49171,16.74784,32.73731
