timestamp,acc_x,acc_y,acc_z,gyro_x,gyro_y,gyro_z,ori_azimuth,ori_pitch,ori_roll
343595605000.0,1.0967881089100364,10.21608784725398,-0.3417440217390231,-9.44306,8.746063,9.911594,16.800446,-14.60555,32.583336
343600657000.0,1.0838857889625817,10.195778629118044,-0.3467615896095173,-9.44306,0.73731434,0.040011674,20.912046,-16.24437,33.775997
343605667000.0,1.0710907329576826,10.175638252463049,-0.3517374437328697,-1.1670581,0.74006325,0.03176499,16.928135,-14.817609,32.419003
343610713000.0,1.0582037364305927,10.155353154538677,-0.3567490524966295,-1.1722504,0.7415904,0.029321533,17.07207,-13.074606,32.261055
343615678000.0,1.0455236060784323,10.1353936794704,-0.3616802133194727,-1.1685852,0.7443393,0.03359759,17.21874,-13.320058,32.100918
343620704000.0,1.0326876876192264,10.115188982251238,-0.3666719583941173,-1.1722504,0.76174897,0.026267206,17.375519,-13.575883,31.932848
343625733000.0,1.019844107449838,10.094972224926291,-0.3716666830221291,-1.1881329,0.7812967,0.03634648,17.531414,-13.837063,31.762823
343630570000.0,1.007490876732134,10.07552731437136,-0.3764707162346352,-1.212262,0.78038037,0.032375857,17.70067,-14.109196,31.589579
343635654000.0,0.9945068318760648,10.05508945510709,-0.3815200660077138,-1.2202033,0.7287622,0.038179077,17.872316,-14.388464,31.42425
343640642000.0,0.981767961745838,10.035037519227824,-0.3864740700730396,-1.1456778,0.8142834,0.062308256,18.031136,-14.689357,31.220675
343645630000.0,0.9690290916156116,10.01498558334856,-0.3914280741383653,-1.5589281,0.7635816,0.069027774,18.217941,-14.881665,31.065025
343650830000.0,0.955748793965816,9.994081399994071,-0.3965926333083119,-1.248914,0.7556403,0.06811147,18.390503,-15.273349,30.87378
343655490000.0,0.9438476041488842,9.975348035680245,-0.4012208728721487,-1.2483032,0.74097955,0.07696902,18.568855,-15.496635,30.697569
343660493000.0,0.9310704254677448,9.955235799272073,-0.4061897747043108,-1.2556335,0.71929383,0.092240654,18.751024,-15.800661,30.523787
343665533000.0,0.91819875236102,9.934974821559264,-0.4111954243613359,-1.2583824,0.70280045,0.1142318,18.93321,-16.111603,30.351803
343670514000.0,0.9054777595545526,9.914951025926822,-0.4161424761354713,-1.2644911,0.6722572,0.13225232,19.119476,-16.425928,30.188297
343675514000.0,0.8927082425835955,9.894850849624431,-0.4211083984142661,-1.282817,0.63713247,0.15821409,19.302334,-16.73944,30.031054
343680473000.0,0.8800434356518003,9.87491549476772,-0.4260336001303749,-1.2886202,0.5558874,0.17195857,19.49551,-17.06068,29.892712
343685497000.0,0.8672126249993828,9.854718837619078,-0.4310233588361079,-1.2119566,0.4810564,0.183565,19.688164,-17.400753,29.761984
343690514000.0,0.8543996916707245,9.83455032071726,-0.4360061652506506,-1.1209377,0.38881573,0.19120082,19.892908,-17.747889,29.656052
343695480000.0,0.84171700741517,9.814586825613723,-0.4409383192579497,-0.9993755,0.31856623,0.18234327,20.10923,-18.12795,29.560785
343700589000.0,0.828669114974246,9.794048465467942,-0.4460124986424222,-0.88331115,0.24495697,0.18142697,20.336163,-18.532135,29.489265
343705543000.0,0.8160170775594219,9.774133210787532,-0.4509327344362521,-0.77366084,0.13836098,0.1563815,20.588282,-18.972065,29.492548
343710533000.0,0.8032730996224068,9.754073234837747,-0.4558887248704893,-0.552833,-0.09437868,0.09743301,20.881746,-19.476816,29.540022
343715560000.0,0.7904346272598065,9.733864517583324,-0.4608814631295896,-0.099571034,-0.10476339,0.08582657,21.159761,-20.065018,29.553818
343720574000.0,0.7776293556413308,9.713708060787289,-0.4658612899907651,-0.05100725,-0.059253927,0.09162979,21.479082,-20.616995,29.60322
343725578000.0,0.764849623056797,9.693591804343852,-0.4708311850073829,-0.10781772,-0.051618114,0.09315695,21.815643,-21.257454,29.656143
343730550000.0,0.7521516153808774,9.673604189028756,-0.4757692981214165,-0.10751228,-0.03970624,0.102319926,22.146778,-21.9224,29.69043
343735551000.0,0.7393795445065262,9.653499992691104,-0.4807362135846671,-0.09468412,-0.020463986,0.10293079,22.482544,-22.57827,29.712954
343740559000.0,0.7265895963084156,9.63336765610663,-0.485710081339108,-0.08124508,-0.0027488936,0.10415252,22.817959,-23.23316,29.727108
343745556000.0,0.7138277410476412,9.61327953991002,-0.4906730240645356,-0.08093964,0.016187929,0.105068825,23.153675,-23.887894,29.729311
343750546000.0,0.701083763110626,9.593219563960236,-0.4956290144987728,-0.08246681,0.035124753,0.10751228,23.488693,-24.544632,29.720787
343755528000.0,0.6883602164007645,9.573191748292531,-0.500577059457364,-0.06688975,0.0421497,0.10293079,23.826645,-25.205835,29.703207
343760519000.0,0.6756136845603552,9.553127752307487,-0.505534043076057,-0.06047566,0.05009095,0.109650314,24.159172,-25.861351,29.676348
343765637000.0,0.6625428069888836,9.53255321184436,-0.5106171611206314,-0.056505036,0.036957346,0.10873401,24.498802,-26.520645,29.64509
343770637000.0,0.6497732900179265,9.512453035541968,-0.5155830833994262,-0.048258353,0.023823744,0.10720685,24.83625,-27.179932,29.606724
343775609000.0,0.6370752823420069,9.492465420226871,-0.5205211965134597,-0.045814894,0.009773844,0.09315695,25.180395,-27.839033,29.563745
343780608000.0,0.6243083192744441,9.472369263959742,-0.5254861256077988,-0.03970624,-0.008857546,0.08124508,25.52768,-28.498693,29.519142
343785580000.0,0.6116103115985244,9.452381648644645,-0.5304242387218324,-0.03390302,-0.040011674,0.06505715,25.884703,-29.159319,29.47203
343790632000.0,0.5987079916510694,9.43207243050871,-0.5354418065923267,-0.033292156,-0.0711658,0.050396383,26.247585,-29.819067,29.42164
343795604000.0,0.5860099839751498,9.41208481519361,-0.5403799197063602,-0.03176499,-0.09101892,0.036651913,26.617598,-30.47982,29.367378
343800770000.0,0.572816519040757,9.391317313037982,-0.545510710604811,-0.050396383,-0.112704635,0.029932396,26.994959,-31.13388,29.313465
343805607000.0,0.5604632883230531,9.37187240248305,-0.5503147438173172,-0.047647487,-0.13713925,0.03481932,27.37612,-31.790094,29.258371
343810587000.0,0.5477448494199799,9.351852626885869,-0.5552608024069968,-0.06994407,-0.1469131,0.044898596,27.757626,-32.432526,29.198708
343815620000.0,0.5348910536370146,9.33161978941988,-0.5602594997728316,-0.08827003,-0.16890424,0.064751714,28.141142,-33.070118,29.144049
343820675000.0,0.521981071979377,9.311298511178164,-0.5652800471966932,-0.10720685,-0.17256944,0.0983493,28.515127,-33.694256,29.086092
343825990000.0,0.5084070754392498,9.289932023768722,-0.5705588225790521,-0.12308934,-0.1600467,0.13775012,28.882,-34.30628,29.028666
343830614000.0,0.4965978261445087,9.271343380724272,-0.5751513075024816,-0.15088372,-0.1563815,0.16554448,29.244156,-34.90311,28.972786
343835603000.0,0.4838564021108877,9.251287424809746,-0.5801063047522631,-0.16646078,-0.16279559,0.17959438,29.597519,-35.490368,28.916079
343840672000.0,0.4709106658057315,9.230909866074382,-0.5851407567585053,-0.19120082,-0.14782938,0.21563543,29.93128,-36.0562,28.858723
343845606000.0,0.4583097064587911,9.211075012099183,-0.59004112886322,-0.20250183,-0.14080444,0.22357668,30.269514,-36.61942,28.797207
343850640000.0,0.4454533567724316,9.190838154597936,-0.5950408194135106,-0.19975294,-0.14019357,0.23182335,30.594992,-37.16945,28.736609
343855629000.0,0.4327119327388107,9.170782198683412,-0.5999958166632922,-0.20677789,-0.15363261,0.23640485,30.918829,-37.70934,28.674187
343860604000.0,0.4200062633527084,9.150782523262531,-0.6049369093306929,-0.2098322,-0.15027285,0.22021692,31.23918,-38.248276,28.601694
343865629000.0,0.4071728987968966,9.13058184607863,-0.6099276612208817,-0.19364429,-0.1554652,0.19853121,31.562187,-38.78541,28.529573
343870636000.0,0.3943855045021803,9.110453529529416,-0.6149005357908669,-0.17592919,-0.16554448,0.183565,31.884943,-39.31897,28.452097
343875822000.0,0.3811409614999037,9.089605626668575,-0.6200511903784329,-0.15210545,-0.17501289,0.1563815,32.21338,-39.858486,28.364908
343880635000.0,0.3688490244636604,9.070257196959895,-0.6248313871640008,-0.12034045,-0.17654006,0.124005646,32.54344,-40.40213,28.270397
343885640000.0,0.3560667379757324,9.0501369204812,-0.6298022753650744,-0.11056661,-0.18173242,0.09743301,32.87772,-40.944546,28.170511
343890640000.0,0.3432972210047754,9.030036744178812,-0.6347681976438693,-0.089186326,-0.16982053,0.06505715,33.21254,-41.49782,28.056242
343895640000.0,0.3305277040338185,9.00993656787642,-0.639734119922664,-0.071776666,-0.14752395,0.040927973,33.545685,-42.04986,27.934
343900623000.0,0.3505698731328838,9.015188064680112,-0.6327427001117375,-0.06078109,-0.12492194,0.016187929,33.87816,-42.60515,27.799511
343905615000.0,0.3913130053105672,9.036393559409715,-0.6182086016675887,-0.057726767,-0.11026118,-0.008857546,34.207226,-43.1608,27.65448
343910630000.0,0.4322438562462808,9.05769675573763,-0.6036075392282045,-0.057726767,-0.086437434,-0.022296581,34.511906,-43.70791,27.471119
343915656000.0,0.4732644857184436,9.079046678916914,-0.5889744505302295,-0.06719518,-0.07819075,-0.04184427,34.81887,-44.25537,27.279282
343920701000.0,0.5144401872081097,9.100477312112195,-0.5742860437492338,-0.06169739,-0.06414085,-0.03268129,35.110924,-44.799217,27.084215
343925622000.0,0.554603839741439,9.1213812062557,-0.5599586602468989,-0.07238753,-0.055283304,-0.032375857,35.403286,-45.338383,26.881058
343930615000.0,0.5953551336042542,9.142590948880882,-0.5454216503246964,-0.07086037,-0.058948494,-0.0290161,35.688313,-45.874794,26.679413
343935618000.0,0.6361880443183868,9.16384317046185,-0.5308555256219568,-0.061391957,-0.054367006,-0.014660766,35.962254,-46.404015,26.476664
343940692000.0,0.6776004346768736,9.18539699262892,-0.5160826859774034,-0.04886922,-0.043982297,0.0015271631,36.230152,-46.92865,26.27418
343945630000.0,0.7179028358574426,9.206373100997263,-0.5017058073481553,-0.03970624,-0.032986723,0.027794369,36.487705,-47.44534,26.076065
343950699000.0,0.7592744177902706,9.227905683686435,-0.4869475250938704,-0.027488936,-0.025045475,0.04734206,36.737217,-47.95879,25.878637
343956220000.0,0.8043350814026484,9.25135831517725,-0.4708732547593061,-0.012217305,-0.006414085,0.08002335,36.969692,-48.4626,25.686838
343960652000.0,0.8405076699065532,9.270184988382695,-0.4579695840252381,-0.004886922,0.008246681,0.10903945,37.194168,-48.95931,25.498167
343970603000.0,0.9217245986525724,9.3124557972878,-0.4289974659127132,-0.005497787,-0.009773844,0.13897185,37.412537,-49.44619,25.319729
343975712000.0,0.9634226479906702,9.334158295800128,-0.4141227245362798,0.01282817,-0.03573562,0.14049901,37.62518,-49.933464,25.140406
343980593000.0,1.0032598331187297,9.35489227412048,-0.3999118001560935,0.018936822,-0.048258353,0.14263703,37.8301,-50.407036,24.969183
343985640000.0,1.0444518579786592,9.376331403106915,-0.3852175704189904,0.016187929,-0.059253927,0.110872045,38.043186,-50.883495,24.793736
343990661000.0,1.0854316790251637,9.397660086808306,-0.3705990391112839,0.023518313,-0.065973446,0.092240654,38.25219,-51.355156,24.623219
343995608000.0,1.125807535371918,9.41867442623686,-0.3561959571795524,0.035430185,-0.05955936,0.0729984,38.461987,-51.827892,24.444586
344000732000.0,1.1676280099869922,9.440440643182871,-0.3412775436323131,0.03176499,-0.03023783,0.059253927,38.665497,-52.295826,24.260658
344005637000.0,1.2076610755582136,9.461276570997114,-0.3269967437788377,0.017104227,-0.004886922,0.057726767,38.865387,-52.75961,24.075134
344010640000.0,1.2484939862723463,9.482528792578083,-0.312430619076098,-0.004581489,0.02687807,0.03940081,39.056152,-53.221325,23.87768
344015615000.0,1.2890983698027898,9.503662073082843,-0.2979460157588625,-0.021380283,0.07452556,0.03268129,39.22999,-53.673347,23.678015
344020634000.0,1.3300618674790303,9.524982260993076,-0.2833333074072634,-0.051923547,0.11728613,0.01985312,39.396034,-54.117004,23.469818
344025734000.0,1.3716864616509428,9.546646528445194,-0.2684847693333134,-0.076358154,0.14080444,0.013439035,39.55033,-54.5529,23.259228
344030607000.0,1.411458353297948,9.567346523600914,-0.2542971367775568,-0.09254608,0.16829337,0.0061086523,39.689827,-54.98126,23.040785
344035630000.0,1.4524544977147156,9.58868370309346,-0.2396727825137429,-0.099571034,0.20677789,-0.0106901415,39.8182,-55.404083,22.815825
344040625000.0,1.4932221149477942,9.6099019415098,-0.225129949635433,-0.12034045,0.24129178,-0.023823744,39.936806,-55.81596,22.589127
344045591000.0,1.5337530433120523,9.630996990954351,-0.2106715496206808,-0.12095132,0.25595254,-0.04642576,40.050175,-56.23031,22.355772
344050683000.0,1.5753123440029104,9.65262727524184,-0.1958463033711605,-0.10354166,0.2602286,-0.06963864,40.155075,-56.64141,22.11846
344055629000.0,1.6156800386645336,9.673637366774814,-0.1814461329174827,-0.08246681,0.26145032,-0.094989546,40.256435,-57.052578,21.876093
344060654000.0,1.6566925064515647,9.69498304205852,-0.1668159556975614,-0.0693332,0.2489276,-0.108123146,40.358273,-57.462353,21.634916
344065605000.0,1.6971010095388466,9.71601437306939,-0.1524012278536149,-0.053450707,0.22632557,-0.12583824,40.462833,-57.877304,21.390001
344070630000.0,1.7381134773258773,9.737360048353093,-0.1377710506336936,-0.035124753,0.21960606,-0.12980886,40.56272,-58.28967,21.147818
344075646000.0,1.7790524899467228,9.758667492576588,-0.1231670767162557,-0.018020526,0.22143865,-0.12339478,40.663845,-58.70071,20.90841
344080608000.0,1.8195507715704535,9.779745550438824,-0.1087203226137184,-0.019547688,0.23579398,-0.10751228,40.75906,-59.104748,20.6728
344085618000.0,1.8604408140805089,9.801027507288849,-0.0941338175646028,-0.022296581,0.269697,-0.07544186,40.84206,-59.501755,20.443777
344090653000.0,1.9015348987188572,9.82241566152834,-0.0794745255641443,-0.027794369,0.31031954,-0.030848695,40.912422,-59.88648,20.222977
344095578000.0,1.9417311979927137,9.84333654725416,-0.0651354961495945,-0.038179077,0.36743546,0.017715093,40.961327,-60.256824,20.00924
344100782000.0,1.9381250029664483,9.862577484069638,-0.0584508064550669,-0.055588737,0.42058071,0.062002823,40.99246,-60.61113,19.80529
344105621000.0,1.8907894884628056,9.877734189448525,-0.0603162455812619,-0.071776666,0.47525316,0.10720685,40.99894,-60.948483,19.611248
344110602000.0,1.8420649177369024,9.893335666921605,-0.0622364258432122,-0.08582657,0.50488013,0.124005646,41.03877,-61.16528,19.582699
344115627000.0,1.79290993522382,9.909074961099927,-0.0641735681472275,-0.09590584,0.50946164,0.13988814,41.061756,-61.365242,19.562376
344120608000.0,1.7441853644979168,9.924676438573009,-0.0660937484091778,-0.09743301,0.5027421,0.14202617,41.076,-61.558277,19.540617
344125666000.0,1.69470757314445,9.940519095280266,-0.0680436122447418,-0.08155051,0.4990769,0.13255776,41.084568,-61.746994,19.518902
344130625000.0,1.6461982083121365,9.956051664400723,-0.0699553114856596,-0.07147124,0.48808134,0.12370021,41.093903,-61.928875,19.499067
344135705000.0,1.59650521106508,9.9719632294606,-0.0719136563422562,-0.059864793,0.47525316,0.10476339,41.10404,-62.113525,19.474342
344140641000.0,1.5482208342124282,9.987423758030593,-0.0738164890611854,-0.035430185,0.45356745,0.08124508,41.11844,-62.300854,19.447826
344145617000.0,1.4995451739168864,10.00300957451444,-0.0757347418183556,-0.0070249503,0.43004912,0.06566802,41.13541,-62.488884,19.419727
344150636000.0,1.4504488839202374,10.018730075505683,-0.0776695711166348,0.02321288,0.40744713,0.03176499,41.15983,-62.686043,19.382408
344155648000.0,1.4014210685260942,10.034428651112004,-0.0796017019082218,0.046120327,0.3924809,0.0106901415,41.18619,-62.883167,19.34592
344160601000.0,1.3529703962102144,10.049942427045384,-0.0815110881434034,0.058643065,0.38331795,-0.0076358155,41.217606,-63.08579,19.302816
344165736000.0,1.302739384229184,10.066026262986815,-0.0834906355525812,0.08827003,0.37568212,-0.017715093,41.25123,-63.293938,19.257793
344170739000.0,1.253799607609691,10.081696648812516,-0.085419296835564,0.10262536,0.36651915,-0.021685716,41.28623,-63.499146,19.21082
344175642000.0,1.2058380395974235,10.097053814853576,-0.0873094080229445,0.08032878,0.35796702,-0.02565634,41.321346,-63.700146,19.162167
344180612000.0,1.1572210718183151,10.112620838150349,-0.0892253477743786,0.0580322,0.34422258,-0.03268129,41.358437,-63.900505,19.113333
344185627000.0,1.1081639101659553,10.128328810350206,-0.0911586350688336,0.032070424,0.35308012,-0.026267206,41.387863,-64.08916,19.066294
344190722000.0,1.0583241816278153,10.14428735837778,-0.0931227624397705,0.013133603,0.34269542,-0.025350908,41.425396,-64.2731,19.019255
344195615000.0,1.0104604344762704,10.159613202440374,-0.0950090186175908,-0.025045475,0.3371976,-0.01985312,41.455544,-64.441925,18.974506
344200747000.0,0.9602587687534568,10.175687641788263,-0.0969874095239005,-0.05375614,0.32925636,-0.021380283,41.48764,-64.60631,18.92969
344205646000.0,0.9123363290854783,10.19103227903794,-0.0988759787074569,-0.083383106,0.30390546,-0.021685716,41.523624,-64.758224,18.889114
344210681000.0,0.8630835257116733,10.206802895194729,-0.1008169760210325,-0.09285152,0.2837469,-0.023518313,41.558655,-64.905754,18.848392
344215624000.0,0.8147306742565159,10.222285349149642,-0.1027225072466539,-0.10262536,0.2602286,-0.022602014,41.599854,-65.043945,18.811138
344220605000.0,0.7660061035306127,10.237886826622722,-0.1046426875086042,-0.089491755,0.24709499,-0.018936822,41.6419,-65.181274,18.775345
344225651000.0,0.716645697210013,10.253691896955822,-0.1065879253326959,-0.0729984,0.2434298,-0.01985312,41.686462,-65.31519,18.740042
344230614000.0,0.6680972040334103,10.269236994867663,-0.1085011665774378,-0.062308256,0.22785273,-0.026267206,41.736584,-65.44787,18.706558
344235642000.0,0.6189128752621111,10.284985685639528,-0.1104394653843212,-0.038789943,0.21319197,-0.034513887,41.785873,-65.58348,18.672827
344240698000.0,0.5694546480807889,10.300822077951093,-0.1123885582179732,-0.018020526,0.20708331,-0.045814894,41.836132,-65.71961,18.63735
344245603000.0,0.521473515896377,10.316185508387845,-0.1142794404072657,0.004581489,0.19486602,-0.04917465,41.89057,-65.85729,18.603739
344250637000.0,0.4722304946086444,10.331952992346784,-0.1162200522198853,0.02443461,0.18173242,-0.06261369,41.94689,-65.99982,18.565125
344255625000.0,0.4234374492802353,10.34757639520479,-0.1181429309885277,0.06169739,0.1695151,-0.06505715,42.003952,-66.14453,18.529835
344260701000.0,0.3737835803774678,10.36347543147328,-0.1200997338413002,0.059253927,0.1328632,-0.070249505,42.07131,-66.286095,18.493282
344265618000.0,0.3256850631601891,10.37887644828419,-0.121995242042065,0.070249505,0.09682214,-0.079107046,42.140533,-66.43461,18.456236
344270592000.0,0.2770289670367916,10.394456000372346,-0.1239127237973231,0.08399397,0.049480084,-0.079107046,42.221443,-66.578995,18.42402
344275653000.0,0.227521829425108,10.41030805367314,-0.1258637441357552,0.08002335,0.0125227375,-0.07971791,42.308487,-66.721016,18.391285
344281262000.0,0.1726541086458286,10.42787655139378,-0.1280260189980879,0.09254608,-0.01740966,-0.09468412,42.406223,-66.868195,18.357605
344285657000.0,0.129661840358267,10.441642560928852,-0.1297202956998088,0.10170906,-0.04520403,-0.09101892,42.510582,-67.0067,18.33145
344290626000.0,0.0810546546652308,10.457206452027776,-0.1316358499502868,0.09193522,-0.06383542,-0.0983493,42.6207,-67.14678,18.299618
344295567000.0,0.0327213673822177,10.472682641586998,-0.1335406101739961,0.09743301,-0.07819075,-0.09712757,42.734524,-67.28491,18.272814
344300623000.0,0.0186255987190965,10.456258403104618,-0.1451636201454633,0.09987647,-0.083383106,-0.08979719,42.848976,-67.41795,18.246347
344305595000.0,0.017910065337616,10.428114095728269,-0.1601898201354451,0.10048734,-0.10567969,-0.09040806,42.97088,-67.55003,18.220121
344310697000.0,0.0171758233198539,10.399233915472005,-0.1756089014606437,0.09468412,-0.10567969,-0.08093964,43.038326,-67.87994,17.959717
344315613000.0,0.0164683490432332,10.371406599490076,-0.1904658602600707,0.07941248,-0.112399206,-0.08155051,43.114323,-68.20424,17.703539
344320600000.0,0.015750656972951,10.343177383704504,-0.2055373927118083,0.062002823,-0.12034045,-0.0720821,43.18865,-68.5162,17.458002
344325750000.0,0.0150095071510233,10.314025496538736,-0.2211015379146254,0.052534413,-0.11942416,-0.06963864,43.2622,-68.82251,17.215172
344330632000.0,0.0143069259023532,10.286390639617707,-0.2358557431340726,0.016798794,-0.13103059,-0.076358154,43.34105,-69.11556,16.978483
344335607000.0,0.0135909607831124,10.258229350559512,-0.2508910096164057,-0.013133603,-0.1337795,-0.058643065,43.414692,-69.39587,16.753376
344340624000.0,0.0128689513352267,10.2298303179555,-0.2660532069916549,-0.053450707,-0.14752395,-0.06414085,43.49625,-69.66998,16.525812
344345623000.0,0.0121495323139031,10.20153317544255,-0.2811610054127972,-0.08460484,-0.15057829,-0.06505715,43.57352,-69.930115,16.308365
344350827000.0,0.0114006112122892,10.172075618003586,-0.2968883474779351,-0.118507855,-0.15424347,-0.07452556,43.655327,-70.181305,16.092104
344355628000.0,0.0107096868831484,10.14489926649235,-0.3113977574039011,-0.1469131,-0.16982053,-0.086132,43.741146,-70.42401,15.880012
344360613000.0,0.0099922826380398,10.116681371828008,-0.3264632455274046,-0.17623462,-0.17287487,-0.09590584,43.82437,-70.65793,15.669378
344365607000.0,0.0092735831796501,10.088412532118134,-0.3415559331279616,-0.18387043,-0.17440203,-0.11789699,43.912575,-70.8916,15.456913
344370661000.0,0.0085462489660535,10.059804058771377,-0.3568299505755417,-0.172264,-0.15577064,-0.13439035,43.995564,-71.12002,15.246298
344375627000.0,0.0078315790600937,10.031693714758712,-0.3718380175808212,-0.16646078,-0.14110987,-0.14538592,44.080616,-71.34545,15.035416
344380617000.0,0.0071134552520512,10.003447517291296,-0.3869186165249101,-0.15332718,-0.129198,-0.1591304,44.16168,-71.57393,14.822302
344385587000.0,0.0063982096957442,9.975314531036176,-0.4019387721866578,-0.1328632,-0.10751228,-0.17623462,44.23596,-71.80337,14.60787
344390637000.0,0.0056714511324948,9.946728699931876,-0.4172007009777697,-0.09743301,-0.08857546,-0.18387043,44.307354,-72.03397,14.395801
344395622000.0,0.0049540468873861,9.918510805267534,-0.4322661891012733,-0.07880162,-0.061391957,-0.19517145,44.370743,-72.26541,14.180363
344400720000.0,0.0042203805199711,9.88965326725373,-0.4476731817700037,-0.06078109,-0.028405234,-0.20158553,44.426636,-72.49875,13.966916
344405613000.0,0.0035162162328464,9.86195614416594,-0.4624606307947385,-0.033292156,-0.00030543262,-0.20830505,44.476254,-72.73493,13.753116
344410620000.0,0.0027956459108285,9.833613717168074,-0.4775926065288171,-0.028710667,0.015577064,-0.22296582,44.520206,-72.96894,13.538273
344415628000.0,0.0020749316762239,9.805265629609591,-0.4927276044270129,-0.015882496,0.022907447,-0.22235495,44.55765,-73.20251,13.328899
344420618000.0,0.0013568078681814,9.777019432142176,-0.5078082033711017,-0.0076358155,0.025350908,-0.22571471,44.592552,-73.435715,13.117801
344425653000.0,0.0006322079937336,9.7485185094471,-0.5230247997004578,-0.017715093,0.01740966,-0.21563543,44.627254,-73.6602,12.914825
344430613000.0,-8.15984367054344e-05,9.720442128798124,-0.538014733721035,-0.02321288,-0.004886922,-0.19517145,44.664703,-73.88083,12.718364
344435617000.0,-0.0008017370209629,9.692116683482102,-0.5531376429627626,-0.01160644,-0.027794369,-0.17012598,44.70356,-74.09503,12.530262
344440636000.0,-0.0015240342940221,9.66370632975686,-0.5683058846662459,-0.004276057,-0.065973446,-0.12461651,44.750896,-74.29414,12.359124
344445660000.0,-0.0022470511300153,9.635267673228544,-0.5834892371903144,0.009162978,-0.10598512,-0.08857546,44.804237,-74.48892,12.196911
344450643000.0,-0.0029641675499504,9.607061099685431,-0.5985486809855839,0.036651913,-0.13591751,-0.07269296,44.864017,-74.678055,12.046183
344455624000.0,-0.0036809961447119,9.578865847263549,-0.6136020804526192,0.061391957,-0.16615535,-0.03268129,44.932064,-74.852,11.917033
344460638000.0,-0.0044025738548372,9.550483796341378,-0.6287552113355173,0.07971791,-0.1881465,0.003970624,45.005226,-75.02339,11.794924
344465655000.0,-0.0051245833027229,9.522084763737364,-0.6439174087107665,0.08246681,-0.21135938,0.025350908,45.085705,-75.187515,11.68344
344470591000.0,-0.0058349358310792,9.494144236543145,-0.6588348107925345,0.08368854,-0.23701571,0.0571159,45.17041,-75.34077,11.58827
344475768000.0,-0.00657997129285,9.464839514240776,-0.674480554426512,0.073303826,-0.26725355,0.084910266,45.261715,-75.48548,11.500998
344480625000.0,-0.0072789547268505,9.437346171335117,-0.6891592055430329,0.052839845,-0.29718593,0.105374254,45.358547,-75.62025,11.423241
344485641000.0,-0.0080008202621494,9.408952799291718,-0.704318380754165,0.03268129,-0.31764993,0.11942416,45.459732,-75.74575,11.353717
344490728000.0,-0.0087329035911099,9.380157527444675,-0.7196921296176079,0.008552114,-0.3313944,0.11728613,45.56668,-75.863625,11.287521
344495587000.0,-0.009432174850284,9.352652863417786,-0.7343768250623629,-0.014049901,-0.32559118,0.112704635,45.67264,-75.97341,11.225649
344500621000.0,-0.0234293654505382,9.335420189454943,-0.7439555872849029,-0.04550946,-0.30909783,0.106595986,45.778885,-76.076294,11.163875
344505635000.0,-0.0406685632839954,9.321054176530424,-0.7520963212750998,-0.057726767,-0.2706133,0.082161374,45.87735,-76.18189,11.09547
344510620000.0,-0.0578080529528793,9.30677125382824,-0.7601899708445318,-0.0729984,-0.22418754,0.058643065,45.99945,-76.304985,11.039164
344515647000.0,-0.0750919475497658,9.29236799356267,-0.7683518116440371,-0.07666359,-0.19486602,0.029932396,46.1155,-76.43305,10.973959
344520643000.0,-0.0922692575569362,9.2780535538796,-0.7764633208213454,-0.08735373,-0.12767084,0.02321288,46.206238,-76.55593,10.905551
344525651000.0,-0.1094878261149644,9.263704732035562,-0.784594313207246,-0.09010262,-0.06414085,0.007941248,46.290054,-76.68635,10.826362
344530620000.0,-0.1265723043827044,9.24946765221467,-0.7926619851652215,-0.09437868,-0.03604105,-0.013133603,46.364292,-76.81584,10.743283
344536571000.0,-0.1470331073956489,9.232416965554552,-0.8023240330263427,-0.09468412,0.01160644,-0.02076942,46.413826,-76.944115,10.657564
344540689000.0,-0.1611916667650499,9.220618153982318,-0.8090100207749726,-0.0888809,0.013439035,-0.022296581,46.468346,-77.07429,10.5694685
344545606000.0,-0.1780973579790724,9.20653006352562,-0.8169932654957143,-0.09254608,0.022602014,-0.017104227,46.506393,-77.20114,10.480336
344550612000.0,-0.1953090501119576,9.192186972041744,-0.8251210106801828,-0.07880162,0.01038471,-0.0067195175,46.549328,-77.32898,10.39426
344555610000.0,-0.2124932365442709,9.177866801998514,-0.8332357670589232,-0.06169739,-0.006414085,0.014966198,46.589775,-77.45096,10.313968
344560630000.0,-0.229753063653157,9.163483597993508,-0.8413862426534163,-0.051923547,-0.023518313,0.029626964,46.63312,-77.57124,10.236289
344565629000.0,-0.2469406882980418,9.149160562770197,-0.8495026226328728,-0.055283304,-0.055588737,0.048563786,46.68411,-77.684135,10.168176
344570605000.0,-0.2640492340537824,9.13490342668874,-0.8575816597958603,-0.0693332,-0.09682214,0.0580322,46.741882,-77.79378,10.10341
344575585000.0,-0.2811715326598088,9.12063482988696,-0.8656671913617121,-0.049480084,-0.13103059,0.074830994,46.805313,-77.900246,10.047799
344580584000.0,-0.2983591573046936,9.106311794663648,-0.8737835713411685,-0.063224554,-0.1731803,0.086132,46.882133,-77.99645,9.995716
344585653000.0,-0.3157874568295828,9.091788196834688,-0.8820136033707473,-0.0842994,-0.20341812,0.08857546,46.964355,-78.091064,9.947245
344590633000.0,-0.3329097554356092,9.07751960003291,-0.890099134936599,-0.10751228,-0.21166481,0.084910266,47.05144,-78.18036,9.901431
344595597000.0,-0.3499770426404918,9.06329684611242,-0.8981586888909943,-0.12156218,-0.1994475,0.090713486,47.14013,-78.263435,9.859823
344600623000.0,-0.3672574990248069,9.04889645102693,-0.9063189060897836,-0.14294247,-0.17715092,0.089491755,47.227806,-78.34294,9.815639
344605680000.0,-0.3846445399988382,9.03440723535894,-0.91452945491077,-0.16340645,-0.16707164,0.08277224,47.314705,-78.419075,9.7720375
344610645000.0,-0.4017152654162922,9.02018161625837,-0.9225906324658812,-0.19150625,-0.16187929,0.08735373,47.39555,-78.48713,9.731295
344615631000.0,-0.4188581932977477,9.005895828376108,-0.930685905636029,-0.204029,-0.15668693,0.08979719,47.473103,-78.55544,9.688296
344620588000.0,-0.4359014130146298,8.991693130716184,-0.938734094385412,-0.19975294,-0.15607607,0.108123146,47.54922,-78.61602,9.651683
344625878000.0,-0.4540895575178186,8.976536328089393,-0.9473229421732344,-0.19853121,-0.14019357,0.10720685,47.619354,-78.67733,9.610232
344630601000.0,-0.4703282354929718,8.96300408256835,-0.9549912083550652,-0.18906279,-0.1301143,0.118202426,47.689487,-78.73228,9.578028
344635647000.0,-0.4876774561287166,8.948546383881245,-0.9631838975681754,-0.17470746,-0.12705997,0.12797627,47.756588,-78.787735,9.545441
344640712000.0,-0.5050920028033199,8.934034246772608,-0.97140743519489,-0.16371189,-0.110872045,0.13439035,47.81624,-78.84135,9.514785
344645641000.0,-0.5220389525682002,8.919911774154944,-0.979410163124224,-0.16157386,-0.09743301,0.14446963,47.87487,-78.89159,9.48835
344650647000.0,-0.5392506447010855,8.905568682671067,-0.9875379083086926,-0.14966199,-0.10751228,0.15607607,47.934902,-78.94206,9.464757
344655652000.0,-0.5564588986213992,8.891228456367271,-0.9956640298924452,-0.14630222,-0.10567969,0.16310102,47.986988,-78.989365,9.44233
344660627000.0,-0.5735640061645683,8.876974185465896,-1.0037414434547167,-0.14508049,-0.10048734,0.17379116,48.040092,-79.033485,9.424716
344665639000.0,-0.5907963275728824,8.862613902901535,-1.0118789302434816,-0.14263703,-0.090713486,0.18173242,48.090755,-79.076385,9.408371
344670602000.0,-0.6078601765651935,8.848394014161126,-1.0199368605971608,-0.13836098,-0.07696902,0.17654006,48.13838,-79.11954,9.391261
344675566000.0,-0.6249274637700761,8.83417126024064,-1.027996414551556,-0.13652839,-0.06414085,0.16768251,48.1829,-79.16088,9.375281
344680592000.0,-0.6422079201543911,8.819770865155148,-1.0361566317503452,-0.15454891,-0.04153884,0.16523905,48.220165,-79.19893,9.359205
344685645000.0,-0.6595812082781365,8.80529311020748,-1.0443606861684676,-0.15821409,-0.014049901,0.15821409,48.252277,-79.24184,9.33907
344690649000.0,-0.6767860239858787,8.790955749083764,-1.0524851841515042,-0.15485434,0.012217305,0.14569137,48.278103,-79.28442,9.316392
344695592000.0,-0.69378110872676,8.776793163944971,-1.0605106424908626,-0.16920967,0.044593163,0.13713925,48.29401,-79.32402,9.292292
344700621000.0,-0.7266363506531599,8.741528604325051,-1.0038455156951294,-0.17684549,0.07849618,0.13439035,48.301846,-79.36595,9.265971
344705596000.0,-0.765992390020824,8.697459259933423,-0.9192418032190572,-0.17104226,0.12522738,0.13072516,48.29669,-79.40935,9.236269
344710633000.0,-0.8058388966127684,8.652840709641836,-0.8335837329191624,-0.17348573,0.15607607,0.12492194,48.29187,-79.53347,9.133022
344715627000.0,-0.8453452404523893,8.608603060216351,-0.7486569107874027,-0.16646078,0.20861048,0.11148291,48.267506,-79.66084,9.026294
344720607000.0,-0.884740833628463,8.564489425026338,-0.6639681694545706,-0.16462818,0.25228736,0.105068825,48.236755,-79.78513,8.920904
344725685000.0,-0.9249116814493672,8.519507690188009,-0.5776128625292449,-0.16584991,0.27122417,0.08032878,48.19884,-79.91615,8.80738
344730592000.0,-0.963729789022659,8.476040700654396,-0.494165542505107,-0.15149458,0.2846632,0.044898596,48.15046,-80.05206,8.689729
344735617000.0,-1.0034813664744202,8.431528448278932,-0.408711541461436,-0.12797627,0.28771752,0.015577064,48.100224,-80.19184,8.56836
344740621000.0,-1.0430668179308604,8.387202217256679,-0.3236146616161566,-0.119729586,0.26419923,-0.0036651916,48.054546,-80.33578,8.442038
344745695000.0,-1.0832060227050369,8.342255915057056,-0.2373273777762388,-0.1160644,0.23732115,-0.023518313,48.00978,-80.48759,8.309279
344750650000.0,-1.122403846839062,8.298363733858961,-0.153063780727206,-0.10842858,0.20066923,-0.035124753,47.974945,-80.64152,8.176318
344755611000.0,-1.1616491355431788,8.254418403702806,-0.0686981490500614,-0.09254608,0.16646078,-0.044898596,47.947594,-80.79921,8.040965
344760622000.0,-1.2012899623313928,8.210030165562815,0.0165177711946817,-0.080634214,0.1255328,-0.05589417,47.93297,-80.95817,7.9051394
344765638000.0,-1.2409703429280163,8.165597636624442,0.1018187202961851,-0.049785517,0.08827003,-0.06169739,47.92711,-81.120575,7.7708826
344770649000.0,-1.2806111697162303,8.121209398484451,0.1870346405409284,-0.018936822,0.06169739,-0.08155051,47.930298,-81.28833,7.632323
344775773000.0,-1.3211459125745038,8.075820188300993,0.2741722129484447,0.023823744,0.06872234,-0.105068825,47.93443,-81.46165,7.49334
344780590000.0,-1.3592520515964208,8.033150433138283,0.3560890135509051,0.07788532,0.08735373,-0.121256754,47.942715,-81.64099,7.35336
344785648000.0,-1.3992646841836862,7.988345861493488,0.4421042050491912,0.14049901,0.13194689,-0.1301143,47.941402,-81.828224,7.2104774
344790702000.0,-1.4392456737242236,7.943576722487399,0.5280513734620693,0.21135938,0.18997909,-0.15149458,47.93098,-82.02763,7.0612435
344795621000.0,-1.4781587104376988,7.900003435037666,0.6117027627424312,0.28313604,0.27855456,-0.1600467,47.89841,-82.23061,6.914323
344800633000.0,-1.5178074479875945,7.855606338737998,0.6969356887585263,0.36071593,0.3930918,-0.16584991,47.84163,-82.44394,6.763361
344805592000.0,-1.5570369151683474,7.811678724901197,0.7812673088929671,0.4392121,0.4615087,-0.1853976,47.772717,-82.667274,6.6081944
344810664000.0,-1.59716029841916,7.766750139020928,0.8675205811901807,0.514654,0.6072,-0.19058995,47.648285,-82.892,6.4554386
344815630000.0,-1.6364451409316865,7.722760518066389,0.9519712417240852,0.5925393,0.7648033,-0.2012801,47.50103,-83.12628,6.2977276
344820619000.0,-1.6759119309628976,7.678567159439286,1.036813034999085,0.63224554,0.89888823,-0.20830505,47.318726,-83.35786,6.141406
344825645000.0,-1.7156714191763407,7.634046048904145,1.1222840418141082,0.7031059,0.98837996,-0.21013765,47.104298,-83.59414,5.985847
344830634000.0,-1.7551382092075518,7.589852690277042,1.207125835089108,0.7648033,1.0363328,-0.21044308,46.86387,-83.82526,5.831496
344835584000.0,-1.7942964795331675,7.546004799877331,1.291304403281381,0.8393288,1.067487,-0.20066923,46.60308,-84.05076,5.682787
344840671000.0,-1.8345385242092087,7.500943341601911,1.3778127621488745,0.9388999,1.0858129,-0.17867808,46.33281,-84.266785,5.541315
344845598000.0,-1.87351484701614,7.457299188874765,1.4616001976000517,1.0442741,1.070236,-0.15515977,46.064003,-84.46926,5.407214
344850630000.0,-1.9133217997996743,7.412724929381563,1.5471732390431865,1.1679744,1.0115929,-0.13988814,45.802944,-84.65487,5.281234
344855609000.0,-1.9527094822140665,7.368620152351228,1.6318449746046668,1.2822062,0.906524,-0.12950343,45.560246,-84.81469,5.1647024
344861558000.0,-1.9997706034599425,7.3159229604344835,1.7330123083775617,1.393689,0.75777835,-0.1133155,45.34735,-84.94141,5.058135
344865638000.0,-2.032046511122268,7.279781668953509,1.802395855493617,1.5030339,0.57879484,-0.08460484,45.173607,-94.974266,4.961625
344870627000.0,-2.071513301153479,7.235588310326407,1.8872376487686169,1.602605,0.3866777,-0.065973446,45.04635,-94.93545,4.869672
344875872000.0,-2.1130052461752675,7.189127262822066,1.976432919509722,1.7162259,0.21074851,-0.04550946,44.965527,-94.95741,4.788458
344880639000.0,-2.150715847113087,7.146900415643193,2.057499431544584,1.8026633,0.05009095,-0.032070424,44.934788,-95.03665,4.7116537
344885637000.0,-2.190253833999436,7.102627333579,2.1424942767617514,1.8603901,-0.09193522,-0.014049901,44.948254,-95.17899,4.642354
344890610000.0,-2.229594051843736,7.058575705506724,2.22706397769512,1.9062049,-0.18600847,-0.009162978,44.992596,-95.37598,4.5731716
344895663000.0,-2.269567130622592,7.013815424660312,2.312994140336646,1.894904,-0.24465153,-0.029626964,45.065582,-95.61095,4.5014553
344900626000.0,-2.2841960636727023,7.005581236760361,2.3655777609470414,1.8203784,-0.29840767,-0.06536258,45.161865,-95.87293,4.4260616
344905599000.0,-2.230312676415738,7.09675001484961,2.329735680726065,1.6749926,-0.321926,-0.108123146,45.263565,-96.13862,4.342972
344910663000.0,-2.175443287099578,7.1895870734146525,2.2932377329603253,1.4566082,-0.3857614,-0.14202617,45.296223,-95.99891,4.0950427
344915617000.0,-2.1217657684044244,7.280407529206759,2.257532592116827,1.3362677,-0.4804455,-0.22602014,45.3467,-95.83883,3.8226795
344920597000.0,-2.067806534835215,7.371704636563376,2.2216400605462536,1.0421361,-0.61575216,-0.31642818,45.430286,-95.59333,3.540058
344925694000.0,-2.0125795843327525,7.4651466759603,2.184904270703841,0.7470882,-0.7367035,-0.40866885,45.53918,-95.31098,3.2350082
344931528000.0,-1.9493671006695457,7.572099953935904,2.1428566744824105,0.4251622,-0.97035944,-0.559858,45.7203,-94.93632,2.8866668
344935626000.0,-1.9049645024433164,7.647227573604061,2.113321012961083,-0.05131268,-1.056186,-0.61269784,45.898476,-94.46421,2.545841
344940685000.0,-1.8501492890644744,7.739972968406698,2.0768591018736267,-0.19120082,-1.2278391,-0.6988298,46.169353,-93.97244,2.1522925
344945606000.0,-1.7968293315556227,7.830188443366922,2.041391803106801,-0.5030475,-1.3631458,-0.7516697,46.459606,-93.33055,1.7599589
344950615000.0,-1.742555877549966,7.922017200545496,2.005290258802182,-0.7861836,-1.4318681,-0.7770206,46.78422,-92.66016,1.3570617
344955643000.0,-1.6880765549824983,8.014194280021215,1.969051775120085,-1.0268645,-1.4285084,-0.79504114,47.13174,-91.92557,0.9489531
344960659000.0,-1.6337272546645956,8.106151366467158,1.9328997794658689,-1.1951579,-1.3570372,-0.8045095,47.484657,-91.14566,0.54499745
344965641000.0,-1.5797463507204583,8.197485139328737,1.8969928332239816,-1.2864822,-1.2605205,-0.80573124,47.83475,-90.33362,0.14761592
344970600000.0,-1.5260146560879864,8.288397258883249,1.8612516557022,-1.2861768,-1.1343768,-0.8313876,48.161278,-89.50747,-0.25008476
344975598000.0,-1.47186038914443,8.38002435578453,1.8252293920898048,-1.1985176,-0.97005403,-0.8570439,48.454758,-88.69199,-0.63961774
344980633000.0,-1.417305220264717,8.472329764527617,1.7889404570581104,-1.0207558,-0.8078693,-0.89552844,48.718468,-87.904724,-1.0325243
344985609000.0,-1.363389327445362,8.56355354087431,1.7530767548301638,-0.74464476,-0.7119634,-0.93645644,48.960003,-87.17043,-1.4262209
344990681000.0,-1.308433256629492,8.656537261459203,1.71652114837917,-0.4370741,-0.6401868,-0.98899084,49.168392,-86.48998,-1.8279711
344995580000.0,-1.2553516732448418,8.746349415864838,1.6812124109967923,-0.0852157,-0.48930305,-1.0488557,49.33298,-85.88766,-2.238826
345001339000.0,-1.1929518286414122,8.851927737404349,1.6397053649496174,0.28069258,-0.21135938,-1.1123856,49.447,-85.35778,-2.6623924
345005618000.0,-1.146588061484254,8.930373585271612,1.6088651756744197,0.7357872,-0.025961773,-1.1575897,49.550236,-84.924255,-3.0920587
345010621000.0,-1.092379618603379,9.0220923459353,1.5728068753837412,0.98654735,0.28985557,-1.1618657,49.54246,-84.51952,-3.5294948
345015610000.0,-1.038322868346996,9.113554448064248,1.536849477792257,1.4880677,0.4361578,-1.1368202,49.535023,-84.25594,-3.9643922
345020602000.0,-0.9842336125282218,9.20507154845064,1.5008704581938024,1.8952094,0.48380527,-1.0836749,49.470043,-84.01237,-4.389684
345025748000.0,-0.9284757378400385,9.299411892719146,1.46378150890421,2.189341,0.48288897,-1.0180069,49.380497,-83.83108,-4.798616
345030588000.0,-0.8760334305157462,9.388142414728389,1.42889800432558,2.3408356,0.47952923,-0.9416488,49.28024,-83.68489,-5.1825624
345035642000.0,-0.8212723930742227,9.480796145768618,1.3924721299164078,2.368019,0.44837508,-0.88178396,49.190224,-83.54889,-5.5444636
345040634000.0,-0.7671831372554487,9.572313246155012,1.3564931103179534,2.2495112,0.3933972,-0.8503244,49.109726,-83.39769,-5.88529
345045580000.0,-0.7135923000600046,9.662987039927268,1.320845628159709,2.0387628,0.321926,-0.83291477,49.044476,-83.22704,-6.205877
345050634000.0,-0.6588312626184814,9.755640770967496,1.2844197537505366,1.7730364,0.31398472,-0.7816021,48.978058,-83.038124,-6.5019445
345055608000.0,-0.6049370401740537,9.84682788180923,1.2485704661939034,1.5103643,0.36896262,-0.73731434,48.916225,-82.822685,-6.789282
345060599000.0,-0.5508586195427432,9.93832664944314,1.2125986539311058,1.287704,0.47494772,-0.67164636,48.84333,-82.60344,-7.051265
345065639000.0,-0.4962492747257117,10.030723721948632,1.1762736822211275,1.1307116,0.57940567,-0.58032197,48.756565,-82.38732,-7.2892776
345070822000.0,-0.4400904981013713,10.125742378058945,1.1389180615122356,1.0280862,0.6649268,-0.4700608,48.646175,-82.18319,-7.500054
345075638000.0,-0.387908235276208,10.214032914008635,1.1042075329893677,0.93767816,0.7156286,-0.31520647,48.516483,-82.00778,-7.6693316
345080585000.0,-0.3343065628933002,10.304725040533372,1.0685528434954668,0.8222246,0.74097955,-0.12797627,48.36985,-81.86391,-7.7957673
345085609000.0,-0.2798705810756878,10.396828788999168,1.0323431891559964,0.7021896,0.7254025,0.0693332,48.220085,-81.75907,-7.8732347
345090636000.0,-0.2254020936956839,10.488987535722403,0.996111912809556,0.54275376,0.6731735,0.27000242,48.07227,-81.692986,-7.8951945
345095593000.0,-0.1716920694381394,10.579862989771954,0.9603851499590876,0.38056904,0.63163465,0.43890667,47.92402,-81.65829,-7.869958
345100616000.0,-0.0208239268122051,10.6974737007943,0.9822728758786554,0.21960606,0.61483586,0.6010914,47.780468,-81.65505,-7.7902737
345105586000.0,0.1774444571719288,10.826810052993054,1.0334389073992694,0.10354166,0.61361414,0.6774496,47.641975,-81.652885,-7.688813
345110657000.0,0.3797420376917564,10.95877476969323,1.0856447315121531,0.059864793,0.59742624,0.8042041,47.511696,-82.08627,-7.179711
345115710000.0,0.5813215435814605,11.090271064997117,1.1376652460541377,0.044898596,0.59498274,0.89949906,47.377632,-82.496605,-6.6742063
345120601000.0,0.7764383778000516,11.217551567734358,1.1880179744580257,0.0983493,0.60048056,0.9456194,47.245102,-82.903725,-6.1626363
345125747000.0,0.9817279359453944,11.351468040252424,1.2409959217829911,0.19517145,0.6188065,0.9447031,47.109158,-83.299644,-5.653543
345130634000.0,1.1766851980239583,11.478644449346048,1.2913074702822347,0.30390546,0.64996064,0.9108001,46.968098,-83.6813,-5.156551
345135598000.0,1.3747142237980512,11.60782466107937,1.3424117319458824,0.40530908,0.745561,0.84207773,46.804413,-84.04301,-4.685942
345140672000.0,1.577131483422899,11.739867448012264,1.3946484409872495,0.47952923,0.9089675,0.7519751,46.613945,-84.38214,-4.246551
345145606000.0,1.773963718146786,11.868266957418433,1.4454438533660643,0.5403103,1.0995574,0.65087694,46.390617,-84.698494,-3.8445158
345150653000.0,1.9753038658264488,11.999607112256884,1.497402598051082,0.5662721,1.217149,0.52839845,46.144733,-84.98029,-3.4869344
345155613000.0,2.173173319460514,12.128683230346583,1.548465679810085,0.5821546,1.1979067,0.3943135,45.88728,-85.233894,-3.172139
345160601000.0,2.372159778074771,12.258488003941633,1.5998170209015985,0.5815437,0.9947941,0.24190263,45.653427,-85.44951,-2.9047024
345165654000.0,2.5737392839644757,12.389984299245516,1.651837535443583,0.571159,0.6395759,0.06078109,45.47358,-85.62649,-2.6878881
345170732000.0,2.776316115729351,12.52213117982203,1.7041154243895946,0.5369505,0.24404067,-0.12308934,45.367714,-85.76309,-2.5171778
345175614000.0,2.9710739126328805,12.649177471861128,1.7543754980080326,0.45937067,-0.122478485,-0.23335053,45.357857,-85.86342,-2.3763626
345180670000.0,3.172773097627605,12.780751837397728,1.8064268974785005,0.2941316,-0.39858958,-0.22540927,45.43641,-85.91974,-2.252731
345186708000.0,3.4136472429990743,12.937881192443214,1.8685879635391576,0.04520403,-0.5152648,-0.124005646,45.573692,-85.93006,-2.133299
345190672000.0,3.5717832337662987,13.041037993271356,1.909397249041716,-0.25534168,-0.45081854,0.02107485,45.73592,-85.888985,-2.0004187
345195593000.0,3.768096859035096,13.169099198335756,1.960058826730436,-0.56138515,-0.25870144,0.18112154,45.89149,-85.79105,-1.8380013
345200638000.0,3.9693572206447456,13.300387306352398,2.011996981463132,-0.84238315,-0.14019357,0.31337386,46.046345,-85.62344,-1.6460989
345205610000.0,4.167705390698893,13.42977570537296,2.063183602936068,-1.0497719,0.14721853,0.376293,46.095745,-85.388565,-1.4405463
345210610000.0,4.3671705657332325,13.559892759898872,2.1146584837415148,-1.1301007,0.48563787,0.48716503,46.092716,-85.11106,-1.1935867
345215646000.0,4.56807189002782,13.690946657217369,2.1665039836887607,-1.2269229,0.82802784,0.59315014,46.005554,-84.759415,-0.94375443
345220609000.0,4.766061022766906,13.820100845539784,2.217597950376247,-1.2599095,1.1786644,0.7089091,45.817696,-84.39586,-0.67594653
345225658000.0,4.967480956516583,13.951493047200048,2.269577285013587,-1.2336423,1.563815,0.82986045,45.5213,-84.01442,-0.395454
345230610000.0,5.165031265870593,14.080360978002508,2.320558006963301,-1.1545353,1.9847012,0.95905846,45.11391,-83.63178,-0.10065143
345235609000.0,5.364456547869926,14.210452009117512,2.372022592792587,-1.071763,2.3866506,1.069625,44.602585,-83.25038,0.20138852
345240717000.0,5.568230170685007,14.34337959202118,2.424609331023431,-1.02717,2.6618452,1.1655309,44.008224,-82.872765,0.51554793
345245641000.0,5.764663475058826,14.471518867318297,2.475301793640635,-1.0598512,2.6804767,1.2305881,43.375,-82.489044,0.83674675
345250603000.0,5.962612714762905,14.600647032229809,2.52638546535196,-1.2302825,2.3564126,1.2464706,42.765007,-82.072815,1.1635224
345255640000.0,6.163553932092499,14.73172695295921,2.5782412602753677,-1.4746287,1.8332067,1.1841623,42.2125,-81.624985,1.4837359
345260720000.0,6.366210549927388,14.863925880357534,2.630539739173701,-1.6108516,1.1856894,0.96761054,41.79793,-81.168526,1.7731252
345265627000.0,6.56196567270609,14.991622757669262,2.681057187196166,-1.4669929,0.18845193,0.505491,41.648228,-80.74657,2.0038002
345270831000.0,6.769569026881831,15.127048588019829,2.734632243138475,-1.1090258,-1.0534371,-0.34513888,41.781754,-80.39429,2.0974817
345275634000.0,6.961175274019817,15.252039030597416,2.784079013640187,-1.0118983,-1.17897,-1.7287487,41.930637,-80.07654,1.9012966
345280625000.0,7.160281411739096,15.381921874425178,2.835461239660184,-1.0512991,0.25686884,-3.4593298,42.04774,-79.87206,1.3491793
345285626000.0,7.359786479808442,15.512064952361992,2.886946415441792,-1.3362677,2.0888536,-4.2626176,42.112465,-79.60755,0.65970325
345290665000.0,7.56080748320805,15.643196919913205,2.9388228003175207,-2.3176227,2.9025261,-4.5023823,42.12565,-79.084915,-0.3635478
345295596000.0,7.757520038826916,15.771518359086656,2.989587327767852,-3.876551,3.0579915,-4.937624,41.87694,-78.190926,-1.7057314
345300626000.0,9.301263905209083,14.903700301037707,3.625195587588616,-4.954728,2.8463266,-5.2473326,41.53538,-77.04333,-3.080128
345305615000.0,12.295716039330117,12.954852249255111,4.891701395047776,-5.073541,1.9269744,-5.7415223,41.425587,-75.61457,-4.5689936
345310607000.0,14.451158209066309,12.919453007055866,2.289961932630969,-4.889671,0.6224717,-5.6871552,42.036274,-74.20737,-4.9286537
345315675000.0,15.881976679972936,14.608288814904313,-3.836757766963077,-4.9018884,-0.31703907,-3.8609738,42.720436,-72.83681,-4.91707
345320584000.0,15.717317526537151,14.243719400961346,-8.445126564189867,-4.565607,0.018325957,-0.3549127,43.211693,-71.64595,-4.1784787
345325711000.0,13.67188223943521,11.445995696975766,-11.655871037652714,-2.8023443,-0.016187929,2.8386908,43.88723,-70.87113,-2.97727
345330693000.0,9.286007881198532,10.957398146343884,-14.018840889969242,-0.32620203,-0.22113322,3.8802161,44.22299,-71.48412,-1.2507666
345335664000.0,2.333286056454014,12.865618022323645,-15.563364966266494,1.7027869,-0.2733622,3.9871175,44.31446,-72.25677,0.93603027
345340665000.0,-3.3153802784060318,14.484711317716748,-15.380656053850297,3.1538973,-0.16523905,4.43702,44.075138,-73.65543,3.0575283
345345651000.0,-7.36097037985999,15.744673338718362,-13.152153464189553,3.8927388,0.27397305,5.37592,43.784153,-74.94847,5.277791
345350829000.0,-11.008084053348272,16.26017613565457,-9.968592972938032,3.5643988,0.79473567,6.379571,43.25877,-76.511925,6.5525136
345355487000.0,-12.822729732569163,14.626225368439195,-4.805309768939069,2.4220808,0.8915578,6.7164636,42.84887,-77.53718,7.9251504
345360467000.0,-14.762818930190466,12.879322229595791,0.7149028450400738,1.1078042,0.4700608,6.254649,42.49497,-78.143936,8.716053
345365506000.0,-15.946774207879924,10.00579763684803,5.012026200562852,-0.25442538,-0.1872302,5.3227744,42.264847,-78.281586,9.500488
345370474000.0,-17.000086678424015,7.0109989686303935,9.06013691988743,-1.5378532,-0.7467828,4.2366557,42.205456,-78.18093,10.140223
345375476000.0,-16.452610491184142,5.386195977276995,10.23722469687011,-2.7214046,-1.0329732,3.3576207,42.05886,-77.876045,10.249744
345380484000.0,-15.336780545226915,4.250351482253522,10.39234024741784,-3.8185186,-0.9117164,2.948952,41.983795,-77.50223,10.213047
345385489000.0,-13.019333196698522,4.037257055430061,9.17681756022589,-4.662429,-0.56382865,2.860682,41.71237,-76.74528,9.902674
345390488000.0,-10.448836973066898,4.020619636403128,7.671122104474369,-5.2308393,-0.3594942,2.8747318,41.470432,-75.73462,9.532579
345395478000.0,-7.934092177390098,3.6905888429897566,4.743362136619719,-5.4724364,-0.03359759,2.8695395,41.128036,-74.346214,9.278616
345400596000.0,-5.402847606903543,3.0577777959346992,0.4025917084507044,-5.4925947,0.04917465,2.77455,40.795242,-72.78659,9.005909
345405537000.0,-4.752402119961729,2.8443627868365398,-2.7391886345352,-5.328272,-0.040927973,2.590374,40.560913,-71.205826,9.061277
345410514000.0,-5.002025913385033,2.829961366905026,-5.374641263873502,-4.9629745,-0.18753563,2.3924537,40.314636,-69.67126,9.06838
345415563000.0,-5.450451215324927,2.7810861094374397,-7.459335961493696,-4.480391,-0.2959642,2.196977,40.20132,-68.50977,9.363279
345420580000.0,-5.991036614936954,2.7158430657807955,-9.244199161202715,-3.9468002,-0.3100141,2.005776,40.112663,-67.49055,9.598088
345425557000.0,-6.005758981602788,2.9283939548432056,-10.366896965156794,-3.381139,-0.24465153,1.822211,40.102608,-66.95347,9.771328
345430541000.0,-5.6968985417421605,3.3132814570034843,-11.089155222996515,-2.830444,-0.13622294,1.6569719,40.101482,-66.580696,9.889356
345435544000.0,-5.034251234843531,3.790474093461,-11.1911365843064,-2.3646593,0.06352998,1.5253305,40.116848,-66.60645,9.893721
345440591000.0,-4.13123133980383,4.332286021055582,-10.879594538533397,-2.0039434,0.31673363,1.4364496,40.1016,-66.763725,9.8479
345445558000.0,-3.16067396877309,4.923275528971417,-10.268547400933308,-1.7208074,0.49938235,1.3552046,40.09685,-67.13965,9.800862
345450630000.0,-2.0745452575928445,5.593842005969279,-9.291031580594984,-1.4471397,0.59498274,1.2980887,40.053623,-67.61017,9.7213545
345455548000.0,-1.183357468233052,6.145134212197114,-8.318962641491968,-1.1893547,0.59773165,1.2935071,40.004078,-68.09922,9.750309
345460616000.0,-0.5028331961448408,6.56798437206643,-7.28165859961884,-1.0051788,0.5476407,1.3646729,39.942657,-68.6312,9.781195
345465618000.0,0.1688286840811326,6.985327801361285,-6.257863252845086,-0.86926126,0.45875978,1.4886786,39.90594,-69.084305,9.961586
345470655000.0,0.8425524217254585,7.444633506299134,-4.927566423745213,-0.8210029,0.4147775,1.6441438,39.86476,-69.535576,10.170028
345475840000.0,1.5331886524853862,7.960108052005644,-3.231003487240476,-0.8744536,0.49266282,1.8371773,39.804634,-69.95708,10.419529
345480625000.0,1.666904760752351,8.673464498432603,-1.4732071178683384,-1.0525209,0.7483099,2.0305161,39.780773,-70.23553,10.784782
345485606000.0,1.323289467459481,9.643859675948775,0.5407603164543455,-1.3741413,1.1389582,2.185065,39.683933,-70.41804,11.171917
345490648000.0,0.9754660768185152,10.626138833755752,2.5793918771560063,-1.8338175,1.5424347,2.2437081,39.85286,-70.72559,11.520059
345495667000.0,0.8382466629076114,11.630503025900564,3.8255318224273096,-2.4336872,1.6722436,2.2602015,39.946007,-70.85468,11.88242
345500620000.0,0.9041467235774536,12.647246726406667,4.300953566160564,-3.0702088,1.7238617,2.2681427,39.91746,-70.8258,12.229101
345505602000.0,1.1115317452864746,13.434812291658028,4.304554390973806,-3.359148,1.536326,2.2855523,39.765816,-70.358894,12.488746
345511454000.0,1.5337266897470454,14.062294801575783,3.708058886377773,-3.857614,1.2006557,2.359467,39.63817,-69.705025,12.763514
345515642000.0,1.8358716705059093,14.511354396848436,3.2811752272444537,-4.274835,0.8414669,2.497828,39.643642,-69.002045,13.075532
345520685000.0,2.152347290283363,14.637411022631628,2.2352041488607504,-4.569883,0.52626044,2.6734517,39.718407,-68.209946,13.42476
345525842000.0,2.4433244924717106,14.480375959786777,0.7987932792308987,-4.7610836,0.28191432,2.823419,39.859035,-67.34614,13.809028
345530606000.0,2.43367981791402,14.061880780079168,-0.5618340672123723,-4.866458,0.00580322,2.9205468,40.102043,-66.44111,14.339754
345535609000.0,2.094060583549664,13.29884015005063,-2.030576684380005,-4.866153,-0.2489276,2.9642236,40.384865,-65.52268,14.889641
345540634000.0,1.5553059982381852,12.31432539395085,-3.627455523175803,-4.7876563,-0.43554693,2.9984322,40.723778,-64.63737,15.568571
345545595000.0,0.5206719637610586,10.787521656862005,-5.513507046147447,-4.6740355,-0.53878313,3.0363057,41.086006,-63.77237,16.245516
345550693000.0,-0.5425339035568997,9.218554623667297,-7.451642636574668,-4.5252895,-0.52106804,3.066849,41.236656,-62.81837,17.00065
345555586000.0,-1.2081872281715007,8.067197749054225,-8.285036708701135,-4.364632,-0.43249258,3.073263,41.39115,-61.911633,17.740557
345560628000.0,-1.6885465017094017,7.08618223076923,-8.548896076923077,-4.159992,-0.29535335,3.0531044,41.52365,-61.06702,18.452955
345565612000.0,-2.1633800239848675,6.116451698612863,-8.809720172761665,-3.8664715,-0.122478485,3.0356948,41.436462,-60.25764,19.166647
345570791000.0,-2.5136565061128526,4.790760086677116,-8.355103356426334,-3.5225544,0.00030543262,3.0158417,41.336777,-59.51847,19.85569
345575728000.0,-2.810087213959064,3.4437441543426157,-7.731727038355154,-3.1370986,0.071776666,3.0543263,41.208084,-58.852524,20.533426
345580936000.0,-3.111562988200465,1.7383858711144005,-6.576092794628885,-2.6688702,0.1020145,3.1410692,41.02969,-58.24306,21.191877
345585587000.0,-3.3752907193487,0.0759593398392892,-5.29983901956016,-2.1536055,0.10629055,3.2265902,40.845203,-57.7217,21.8499
345590664000.0,-3.66574360173762,-1.5949284533275412,-3.878874623214596,-1.6044376,0.10781772,3.3136384,40.590675,-57.15279,22.529846
345595671000.0,-3.9531999958731534,-3.1863539858470897,-2.4665885448653344,-1.1117748,0.13744467,3.3585372,40.331577,-56.670094,23.2144
345600633000.0,-4.124150559051987,-4.941927751376147,-0.8382283274617736,-0.8949176,0.28344148,3.35701,39.945557,-56.032738,23.898418
345605604000.0,-4.138709001590214,-6.946148300917431,1.1077583505810398,-0.56596667,0.4972443,3.297756,39.537895,-55.515842,24.566376
345610677000.0,-3.9029920207121016,-8.862252442647204,3.35402372206332,-0.35246924,0.8078693,3.1337388,38.94849,-54.80368,25.16903
345615661000.0,-3.380443781240753,-10.594666067659531,5.863198097445508,-0.34208453,1.2421945,2.8585439,38.27725,-54.14787,25.683228
345620637000.0,-1.9655488447067504,-12.000995147731464,9.09789043710808,-0.623388,1.5601498,2.4929411,37.437904,-53.22904,26.13519
345625624000.0,0.6329504075986723,-12.98313936102914,13.30393561877536,-1.1410962,1.5989398,2.0613647,36.58686,-52.32938,26.471573
345630612000.0,2.8470379985362286,-13.346015457103356,16.42385483158494,-1.668273,1.3701707,1.6349808,35.630486,-51.05715,26.772646
345635604000.0,3.9433781400341545,-11.907555048223143,16.384977556151906,-2.1181753,0.97310835,1.2174544,34.764915,-49.77359,26.965944
345640629000.0,5.04696572237131,-10.459585586159225,16.345843279499064,-2.4553728,0.50488013,0.852157,34.29428,-48.01505,27.414467
345645614000.0,5.949383393049404,-8.403502248381601,15.636403260817715,-2.6618452,0.13744467,0.61941737,33.94596,-46.35059,27.757698
345651459000.0,6.950665349948893,-5.809705332708688,14.60651376294719,-2.701246,-0.14477506,0.5158757,33.738155,-44.783997,28.034117
345655608000.0,7.6295167184407795,-3.899329042758621,13.844057409295353,-2.637716,-0.3930918,0.5335908,33.619728,-43.272324,28.422695
345660622000.0,8.416919939130434,-1.5191210000000002,12.89017397826087,-2.4584272,-0.64721173,0.66645396,33.565174,-41.847713,28.798357
345665617000.0,9.095221773809524,0.5967750952721089,12.064480000850342,-2.2311852,-0.88056225,0.89552844,33.377357,-40.49455,29.289207
345670615000.0,9.542937637445888,2.1582297779993818,11.509460523577614,-1.9614882,-1.0748174,1.2363913,33.17765,-39.17683,29.840937
345675571000.0,9.986891182900433,3.7065629928045767,10.959105075525663,-1.6389514,-1.1771374,1.6869044,32.982002,-38.055153,30.534136
345680649000.0,10.274955115623236,5.107929806824592,10.538397916807671,-1.359786,-1.2281445,2.1591032,32.721928,-36.939754,31.301926
345685627000.0,10.494544906185372,6.41202308356834,10.179884116281256,-1.1389582,-1.2348641,2.5189028,32.3797,-35.842297,32.12032
345690643000.0,9.959238082589286,6.771358147321429,10.05530471875,-1.0250319,-1.2137892,2.7608054,32.062984,-34.919075,33.022533
345695594000.0,8.939358404870129,6.505804752077922,10.08609375,-1.0387764,-1.1490375,2.8365529,31.680101,-34.0003,33.922062
345700629000.0,7.935241681192365,6.174886090499679,10.162069269568947,-1.07665,-0.97341377,2.9394836,31.308064,-33.223877,34.80006
345705589000.0,7.150859537508042,5.471998033883766,10.513513404246194,-1.1478158,-0.63255095,2.9342911,30.886482,-32.46361,35.589046
345710634000.0,6.531155633232925,4.737791702010694,10.89543728609082,-1.1863003,-0.21991149,2.8194485,30.426378,-31.745375,36.167755
345715629000.0,6.390662446735448,3.959675349122675,11.338531289027788,-1.2021828,0.10751228,2.6035078,29.938097,-31.059862,36.647636
345720580000.0,6.251406837856766,3.1884132744182545,11.777722161608557,-1.1759156,0.26908615,2.310598,29.393942,-30.361923,36.960274
345725666000.0,6.503452970390754,2.4080136076774905,12.297521141166758,-1.0961977,0.28680122,1.9761491,28.889885,-29.74379,37.170357
345730587000.0,6.987609676536415,1.6601643807741695,12.84219711961108,-0.9578367,0.17989981,1.6328428,28.474453,-29.221233,37.307064
345735620000.0,7.904014521166093,0.9106560487877547,13.25101594286382,-0.75961095,-0.05222898,1.349096,28.029541,-28.627804,37.417152
345740642000.0,9.370711258865455,0.1829272618507915,13.4645581778349,-0.5815437,-0.4538729,1.0986412,27.744638,-28.135,37.528084
345745610000.0,10.821637063901385,-0.5369764843664195,13.675804259741776,-0.47647488,-0.97005403,0.84635377,27.479145,-27.567175,37.73029
345750826000.0,12.340402718929251,-1.2804904946462716,13.833194007648183,-0.571159,-1.4724907,0.59559363,27.373503,-27.057297,37.972435
345755860000.0,13.72308842760299,-1.774905465287676,12.8192245171215,-0.870483,-1.6978999,0.3454443,27.39449,-26.588306,38.22003
345760686000.0,15.04864290318095,-2.2488916886320185,11.84715126299322,-1.3045027,-1.5079209,0.1337795,27.27727,-25.856659,38.753452
345765652000.0,16.10376750640791,-3.009884246283413,10.60732906810692,-1.8005253,-0.8900307,-0.04917465,27.183912,-25.116165,39.182716
345770621000.0,17.040351227206152,-3.876768508220432,9.274331136305385,-2.3582454,-0.07391469,-0.26206118,27.088905,-24.343359,39.462246
345775674000.0,17.758632541127678,-4.911800344682532,8.212183374345809,-2.908024,0.72784597,-0.50426924,26.875923,-23.443449,39.82936
345780624000.0,18.259506358645204,-6.058662457351635,7.425763427668609,-3.2711835,1.4156802,-0.6817256,26.590378,-22.521517,39.981102
345785686000.0,18.638699361145584,-6.965291708677805,7.059885683341289,-3.2947018,2.0131063,-0.6536258,26.122494,-21.493927,40.182507
345790675000.0,18.885005457661094,-7.603861180782816,7.119181674844869,-2.8383853,2.3130412,-0.42088616,25.608316,-20.512138,40.261707
345795571000.0,19.08351063694403,-8.227292188550756,8.231693832091935,-2.379931,2.8686233,-0.310625,24.921661,-19.45484,40.23232
345800745000.0,19.225866656948288,-8.881074820600128,11.05244984486061,-1.0910053,3.0717359,-0.42119157,24.28828,-18.691355,40.188606
345805500000.0,19.30749435364178,-8.654484343380668,13.11146236161246,0.1704314,2.6725354,-1.0622946,23.789125,-18.043396,40.12403
345810506000.0,19.34702409619789,-7.635480594961063,14.776127744480071,0.90041536,1.8255708,-1.6869044,23.399252,-17.595379,40.09808
345815503000.0,18.76223292632941,-6.374402619846834,16.14283227915004,1.1484267,0.8353582,-2.1481075,23.219011,-17.271622,39.989594
345820561000.0,16.823817576313235,-4.571832896278719,16.88998469765937,1.1261301,-0.10995574,-2.4211645,23.32279,-17.148586,40.035393
345825478000.0,15.185226705642354,-2.793103496009553,16.599255203502835,0.9984592,-0.83291477,-2.4825563,23.700241,-17.173014,40.102955
345830498000.0,13.797833384913922,-0.946435155995621,15.1209638650612,0.8304713,-1.310306,-2.3658812,24.21317,-17.216665,40.33328
345835503000.0,12.69746434353774,0.8143959409050033,13.383147884148093,0.6282749,-1.5922203,-2.1160371,24.918707,-17.375399,40.453133
345840517000.0,11.9349075177461,2.4819146561676075,11.32516278446379,0.43951756,-1.6520851,-1.715615,25.563396,-17.453587,40.663334
345845475000.0,11.259499898139582,4.01974479745092,9.337817586699558,0.28924468,-1.5296066,-1.1548407,26.222692,-17.641104,40.89484
345850484000.0,10.717129558741906,5.375671881591119,7.414866914431082,0.17928895,-1.3399329,-0.4251622,26.674805,-17.682453,41.18194
345855554000.0,9.552582867894516,5.923261361657597,5.712410833821682,0.16462818,-1.1820242,0.34208453,27.053139,-17.827864,41.571697
345860530000.0,7.585775064930933,5.35675677965676,4.36796020309753,0.22204952,-1.0757337,1.0262536,27.17928,-17.832434,41.99243
345865772000.0,5.563308529836066,4.747500483497268,3.0140668924590166,0.28527406,-1.0274754,1.5512923,27.197378,-17.898178,42.52366
345871000000.0,4.115751996780924,3.996362999582712,2.38231552828614,0.3390302,-1.0207558,1.9456058,27.013433,-17.857767,43.09455
345875802000.0,2.7997031942400934,3.317891399941583,1.797970638540551,0.36071593,-1.0381655,2.2473733,26.6601,-17.70655,43.655087
345880551000.0,1.6528444217758738,2.777672190078863,1.173618970470256,0.34605515,-1.006095,2.473088,26.190178,-17.494444,44.233578
345885903000.0,0.3762095725208926,2.17360625590045,0.4824453809293783,0.32070425,-0.8744536,2.6364944,25.592768,-17.1906,44.76227
345890594000.0,-0.4076743109743778,1.744532948994398,0.1400118714914134,0.32620203,-0.75900006,2.7073548,24.945908,-16.864183,45.2967
345895554000.0,-1.236509114243732,1.2908549267701348,-0.2220580937211864,0.34269542,-0.462425,2.8194485,24.127893,-16.452467,45.735455
345900764000.0,-1.7342528051240764,0.9161914954015912,-0.2475320692043947,0.39553526,-0.15271631,2.89825,23.2702,-16.041788,46.13819
345905614000.0,-2.1125902435593864,0.5906453514822884,-0.1903415288558439,0.4822781,0.11301007,2.935513,22.340809,-15.627759,46.475437
345910592000.0,-2.3424291227413527,0.2948209517681983,-0.0556554044562037,0.59864795,0.31520647,2.9535334,21.313328,-15.185743,46.71253
345915659000.0,-2.505266990449148,0.010898538905524,0.1155331033471003,0.73273283,0.43768495,2.9541442,20.244719,-14.761338,46.893684
345920606000.0,-2.601677498500954,-0.2945805583855728,0.2475857238321068,0.8695667,0.5342017,2.9092457,19.128052,-14.33429,46.97708
345925610000.0,-2.592969938402834,-0.651592627298083,0.3216004211011175,0.98624194,0.61666846,2.8264735,18.008326,-13.93911,47.01747
345930579000.0,-2.566284573280423,-1.0041754616732803,0.3956597666975309,1.1004738,0.7153232,2.6838365,16.880325,-13.555979,46.97459
345935619000.0,-2.4456876843915345,-1.3517780727843915,0.4736930185493827,1.2180653,0.83016586,2.4672847,15.802145,-13.231687,46.879623
345941427000.0,-2.3067141267195765,-1.7523487008267198,0.5636170516358024,1.3377949,0.9718866,2.1902573,14.747705,-12.926654,46.725094
345945619000.0,-2.1308941962332195,-2.1903265698557406,0.6002236434411942,1.4770721,1.2116512,1.8322903,13.788023,-12.713717,46.476913
345950653000.0,-1.841114724624324,-2.871308307964336,0.6147126018924063,1.6337591,1.8390098,1.3924674,12.908857,-12.6065645,46.045414
345955605000.0,-0.8051081675085483,-3.5281988293751945,1.9899731403613616,1.7357736,3.0998356,0.9279043,12.044155,-12.5430565,45.35789
345960594000.0,1.1479219144389186,-4.174258200808207,5.023481928263911,1.4972308,4.339281,0.46761733,11.292669,-12.537121,44.462105
345965667000.0,3.1338352449098545,-4.831195300683866,8.10806602949254,1.1368202,5.159673,-0.048563786,10.671069,-12.574845,43.352596
345970628000.0,4.719580713023992,-4.3436435946744005,10.592806930134458,0.816116,5.4388385,-0.59803706,10.190697,-12.670049,42.009167
345975553000.0,6.249079736444327,-3.717751014922225,12.992752418534142,0.4886922,5.221065,-1.1184943,9.892012,-12.77832,40.535248
345980666000.0,7.679891920053509,-3.019967715982928,14.804568612721368,0.093462385,4.4587054,-1.609019,9.716774,-12.615762,39.00491
345985607000.0,8.96098355994394,-2.314613778494076,16.115803405720474,-0.33017266,3.8970149,-1.806634,9.679493,-12.403313,37.478954
345990634000.0,10.26437309115811,-1.5969828852019363,17.449860743183844,-0.51159966,2.6535985,-2.0482311,10.080645,-12.25632,36.28684
345995682000.0,11.068624854879404,-1.1978450616611165,17.529403592491676,-0.7370089,1.4782939,-2.1988094,10.593657,-12.019366,35.254433
346000887000.0,11.315119871530932,-1.1576009933898477,16.156076240084772,-0.79168135,0.4810564,-2.3597724,11.304101,-11.824701,34.51913
346005607000.0,11.338030324533786,-1.1470528197384355,14.779638902155485,-0.7247916,-0.2602286,-2.5326474,12.214619,-11.747562,34.136486
346011196000.0,11.134940764591912,-1.1643370289658512,12.999368465003633,-0.5726862,-0.7672467,-2.731484,13.249464,-11.722593,33.9532
346015699000.0,10.973659401065138,-1.1740255558623516,11.56862015239656,-0.33841935,-1.0885619,-2.944676,14.315296,-11.806196,34.041584
346020647000.0,10.90765701351905,-0.9837825167144614,10.16703378041786,-0.065973446,-1.276403,-3.1905491,15.480807,-11.979892,34.200645
346025577000.0,10.841894731667349,-0.7942315500614503,8.770546146251535,0.20280726,-1.3420709,-3.43123,16.664797,-12.290703,34.51659
346030606000.0,10.999950988672566,-0.2880601761769911,7.460633989734513,0.43096542,-1.3381003,-3.6004398,17.905636,-12.68389,34.830517
346035605000.0,11.334648637522124,0.4618317623362832,6.248944296504424,0.60231316,-1.2476922,-3.6728272,19.17852,-13.1466055,35.105
346040831000.0,12.217508051855813,1.934839683480984,5.478457831907744,0.7076874,-1.0980303,-3.5619552,20.405447,-13.719488,35.480774
346045607000.0,14.009474996716056,4.554674798984268,5.691537682220864,0.75411314,-0.9101892,-3.2247577,21.550655,-14.282654,35.81317
346050698000.0,15.919630716205898,7.347300547105544,5.918671165877501,0.70096785,-0.79901177,-2.634662,22.601524,-14.936997,36.303566
346055611000.0,15.908217148887022,8.302939649727005,6.438783576333473,0.5717699,-0.8338311,-1.8237382,23.440756,-15.471893,36.814884
346060597000.0,15.070938753674929,8.498472099958,7.10058503097438,0.35888332,-0.90377516,-0.9923506,24.050795,-15.854626,37.348972
346065657000.0,13.605506181117022,7.924141405895391,7.413427574982269,0.10262536,-0.86651236,-0.35002577,24.606157,-16.475426,38.127224
346070648000.0,11.986820017021277,7.1402227787234045,7.62105998893617,-0.21563543,-0.7440339,0.080634214,24.955006,-16.88863,38.911446
346075754000.0,10.23837813895078,6.340754048187159,7.606719808547701,-0.5403103,-0.5830709,0.3839288,25.152159,-17.142515,39.525887
346080922000.0,8.388784226858416,5.53374954601985,7.396196822118696,-0.8472701,-0.4147775,0.5821546,25.224062,-17.253658,40.10956
346085634000.0,7.048872372305351,5.065817596779103,7.1044021945726605,-1.1007792,-0.32620203,0.6401868,25.210638,-17.201405,40.454967
346090661000.0,5.880816815631077,4.7687162446445175,6.717763593600473,-1.207986,-0.12797627,0.7058548,25.087059,-17.076164,40.73916
346095634000.0,4.764920148459516,4.492979573783581,6.318108862248732,-1.359786,0.07238753,0.7122689,24.952215,-16.862274,40.827003
346100644000.0,3.8139772062276913,4.294678681899305,5.8403839029212845,-1.4391985,0.24587326,0.6936375,24.783049,-16.63944,40.87065
346105673000.0,2.8821571189366417,4.093877303996456,5.363146517961896,-1.4495832,0.37934732,0.6267477,24.61869,-16.397457,40.774536
346110619000.0,2.2903333975188302,3.871418802658397,4.926624128577758,-1.3720033,0.46089783,0.53786683,24.458702,-16.172129,40.640743
346115648000.0,1.6885781417545414,3.645227172405849,4.482776353362871,-1.2308935,0.4905248,0.43188173,24.331516,-15.969917,40.4269
346120618000.0,1.2623330761656288,3.3343600936206026,4.119601841222017,-1.0393872,0.51159966,0.28099802,24.247557,-15.826006,40.179214
346125585000.0,0.8780099253661,3.0020806270577345,3.775312367640128,-0.77274454,0.50762904,0.10170906,24.215406,-15.758242,39.91684
346130615000.0,0.6155149027468213,2.6331024914827976,3.4405932526645477,-0.48747048,0.52839845,-0.07941248,24.232944,-15.752903,39.60839
346135663000.0,0.5296387854842932,2.217281467473822,3.1242076344895287,-0.1957823,0.5870415,-0.25686884,24.309385,-15.841769,39.272923
346140661000.0,0.7676449133506339,1.9033312646548528,2.9984892372358565,0.08979719,0.73731434,-0.37965274,24.397676,-15.982751,38.89039
346145592000.0,1.7830477088040333,1.8298020733595315,3.3276198316527026,0.31123585,0.90408057,-0.45570546,24.520765,-16.197739,38.473885
346150598000.0,2.813894675755913,1.7551545106695337,3.661756468369541,0.46761733,1.0308352,-0.49021935,24.632664,-16.446598,38.043625
346155608000.0,3.6667158366044847,1.82334111436793,4.222170750009923,0.573297,1.0830641,-0.4999932,24.748178,-16.739887,37.584248
346160677000.0,4.398886512145267,1.99674990430641,4.95434127465767,0.64965516,1.0986412,-0.4877759,24.853916,-17.060396,37.100956
346165621000.0,4.922219052245443,2.173547541574033,5.580612747443308,0.6585127,1.0769554,-0.47586402,24.969162,-17.437468,36.71486
346170595000.0,5.306998794041796,2.3571121748332597,6.145427145397955,0.65026605,1.054048,-0.4474588,25.066933,-17.805843,36.33997
346175595000.0,5.693789849325626,2.54163633371869,6.713193930635838,0.573297,1.0164797,-0.40775254,25.136786,-18.112146,36.01538
346180611000.0,5.960786057356608,2.7479702182044887,7.360026673316709,0.47739118,0.9993755,-0.3866777,25.199432,-18.399454,35.701775
346185619000.0,6.2085344221588885,2.957274868151051,8.017840943355896,0.42058071,0.9550878,-0.34483343,25.247734,-18.657692,35.42052
346190762000.0,6.301539,3.075418996688097,8.660496649035652,0.27855456,0.904386,-0.30482176,25.300982,-18.85973,35.14822
346195675000.0,6.301539,3.135000296298461,9.256309166569258,0.11881329,0.82802784,-0.2828306,25.35351,-19.032473,34.904617
346200587000.0,6.199463717423716,3.0958777787198093,9.743467680648047,-0.028710667,0.73548174,-0.28069258,25.431702,-19.172117,34.64816
346205606000.0,6.017920186860153,2.9812188459397677,10.159106829539809,-0.15760323,0.6563747,-0.30909783,25.519436,-19.274818,34.413925
346210583000.0,5.898681000491593,2.8526249196637496,10.353335678989284,-0.24404067,0.57940567,-0.33017266,25.62672,-19.329754,34.148483
346215704000.0,5.826353609674564,2.7079699869825977,10.372622882509097,-0.30695978,0.56291234,-0.35369098,25.745342,-19.362148,33.890617
346220590000.0,5.959020240030131,2.5705756960031905,9.976330706043957,-0.3475823,0.60139686,-0.3753767,25.869566,-19.35538,33.572582
346225731000.0,6.286260334898972,2.426590017812832,9.173501412087912,-0.3576616,0.6753115,-0.38698313,25.995829,-19.341558,33.254974
346230647000.0,6.546926191308487,2.3262743070321,8.521260702529924,-0.3622431,0.77732605,-0.36041048,26.097641,-19.291046,32.92015
346235591000.0,6.672508464975516,2.323054217695865,8.167054237894451,-0.3484986,0.8558222,-0.3182608,26.193186,-19.241056,32.5796
346240680000.0,6.801773875714091,2.3197396880372687,7.80245943641186,-0.31520647,0.9300423,-0.2657264,26.215626,-19.196766,32.35419
346245576000.0,6.900322724537702,2.3029883907061417,7.418229805949986,-0.26847526,0.9737192,-0.21624629,26.221636,-19.152784,32.124752
346250786000.0,6.948128730094855,2.255182435067548,6.935388900229951,-0.16187929,1.0146471,-0.15393804,26.200457,-19.120647,31.888288
346255577000.0,6.9445648795034085,2.209510151801364,6.589187917867576,-0.013133603,1.0464121,-0.089186326,26.146389,-19.119162,31.728603
346260633000.0,6.782916809173738,2.155627426526638,6.548775891493949,0.13561209,1.0595458,-0.050396383,26.080294,-19.13731,31.570684
346266551000.0,6.593709277486437,2.092558208137432,6.501473998282098,0.27152961,1.0635164,-0.00580322,25.979006,-19.193378,31.467445
346270876000.0,6.432780764667291,2.09136393945642,6.682250430865355,0.3933972,1.0412198,0.032375857,25.870817,-19.275162,31.375036
346275673000.0,6.227072336925961,2.143987074414245,7.141506409122149,0.4972443,0.9999864,0.089186326,25.746325,-19.373234,31.297506
346280602000.0,6.021025379269066,2.2021112946834727,7.59268944723611,0.5671884,0.97341377,0.1142318,25.616865,-19.482174,31.196941
346285583000.0,5.819481478240969,2.265933544623618,8.022649746046053,0.5897904,0.88514376,0.16310102,25.477398,-19.589361,31.136803
346290647000.0,5.614579186571368,2.3308192851771,8.459774611168227,0.61269784,0.7867944,0.2134974,25.34844,-19.697815,31.017025
346295737000.0,5.307257898150755,2.3981419859663946,8.935701120341689,0.5946773,0.6792821,0.25595254,25.221617,-19.792715,30.931913
346300752000.0,4.9420799374824,2.465767469726837,9.427113687693607,0.539394,0.5751296,0.27977628,25.099302,-19.876562,30.879026
346305607000.0,4.58890671216543,2.516435520678729,9.75514321896106,0.43554693,0.4905248,0.28710666,25.008184,-19.927692,30.753487
346310582000.0,4.227390847494372,2.5521899367964647,9.929941895272242,0.30604348,0.43096542,0.2669481,24.9309,-19.958319,30.651796
346315664000.0,3.863397066038567,2.5878326314871885,10.08522635361451,0.18478674,0.4175264,0.2275473,24.894756,-19.961092,30.453674
346320640000.0,3.56547969166153,2.6130086853042176,9.98032594681694,0.06841691,0.44593164,0.15974127,24.878595,-19.941277,30.259068
346325617000.0,3.2675024464295146,2.6381897986175926,9.875404458747909,-0.044898596,0.48197266,0.09896017,24.907473,-19.914211,29.976877
346330627000.0,2.9576571775453275,2.8364979423988843,9.478674278940028,-0.12339478,0.5375614,0.039095376,24.9533,-19.877222,29.680912
346335598000.0,2.64780668209205,3.075525438410042,9.013898489539748,-0.17256944,0.5739079,-0.014049901,25.016037,-19.82801,29.380772
346340748000.0,2.509230376814437,3.2843807336798747,8.72493466594743,-0.19181168,0.60048056,-0.06536258,25.11432,-19.800758,29.02389
346345889000.0,2.4657712792075324,3.472703540398196,8.536612010494311,-0.17928895,0.6038403,-0.10445796,25.225199,-19.773415,28.666655
346350728000.0,2.493469762923729,3.630319878389831,8.372563845338982,-0.15393804,0.57879484,-0.12705997,25.365242,-19.81049,28.30286
346355668000.0,2.5586205133474578,3.780667731779661,8.212192815677966,-0.1301143,0.54825157,-0.15057829,25.516544,-19.85071,27.942944
346360620000.0,2.670814166436238,3.8621623002364927,8.061742665271966,-0.09285152,0.5006041,-0.16798794,25.652325,-19.91309,27.606926
346365682000.0,2.8030984906494454,3.919485467491359,7.911820627615063,-0.04428773,0.462425,-0.17440203,25.793133,-19.981508,27.281733
346370609000.0,2.985236528676252,3.9456444,7.77133616747645,0.004581489,0.43554693,-0.16554448,25.923712,-20.074692,26.99221
346375623000.0,3.21854219951413,3.9456444,7.633257021021318,0.042455133,0.42546764,-0.15607607,26.056566,-20.17359,26.713156
346380610000.0,3.415766462855622,3.9290368912825193,7.556450606268067,0.0571159,0.44623706,-0.14813483,26.168558,-20.292316,26.469133
346385584000.0,3.578825617077438,3.896425068005477,7.538332926669709,0.07849618,0.4642576,-0.124005646,26.272327,-20.413815,26.236017
346390897000.0,3.752997970591815,3.861590605385668,7.518980447436482,0.105068825,0.48502702,-0.09987647,26.360937,-20.555883,26.043667
346395649000.0,3.865960158768458,3.785815000250941,7.607795310587781,0.13103059,0.4999932,-0.06536258,26.435427,-20.69264,25.856482
346400577000.0,3.979835437216485,3.703824704642409,7.70800574587395,0.1469131,0.50823987,-0.021380283,26.496218,-20.823385,25.673985
346405957000.0,4.04618631509104,3.5793672223022326,7.849110727239996,0.16401732,0.5158757,0.014049901,26.533314,-20.961855,25.522875
346410541000.0,4.091346330727292,3.466467088900319,7.975558818177142,0.18112154,0.51068336,0.04917465,26.556625,-21.09259,25.382412
346415673000.0,4.095075702832244,3.352716939869281,8.072580236383443,0.20097467,0.50701815,0.09162979,26.554588,-21.209518,25.252895
346420624000.0,4.0907715777687,3.2451126447440086,8.158663636528686,0.22296582,0.52595496,0.11942416,26.543875,-21.32378,25.125324
346425760000.0,4.0892963,3.1402771061505206,8.230235754814306,0.22937989,0.5174029,0.13591751,26.518255,-21.41454,25.004692
346430618000.0,4.0892963,3.0442850690115937,8.289659385488308,0.24770586,0.50885075,0.16401732,26.479565,-21.505077,24.887794
346435586000.0,4.078036098600267,2.9480013381832038,8.343633825747476,0.27977628,0.49296826,0.183565,26.430906,-21.576221,24.767973
346440646000.0,4.059579143924967,2.8511024827271,8.394390896781566,0.2950479,0.4868596,0.19853121,26.376925,-21.642227,24.654408
346445602000.0,4.020442842260165,2.784856901518725,8.481455974625035,0.31490102,0.47739118,0.21960606,26.3058,-21.699717,24.540771
346450633000.0,3.9613587516838034,2.7439524179511365,8.604168998207715,0.3210097,0.4465425,0.22510384,26.2404,-21.75585,24.437866
346455610000.0,3.879595185777218,2.7137619886721205,8.705329422278162,0.32375857,0.43371433,0.20952678,26.16614,-21.802313,24.32363
346460578000.0,3.7635705784770295,2.6987911598489616,8.776441152297043,0.32528573,0.40530908,0.17470746,26.103897,-21.850452,24.223194
346465980000.0,3.637410166110761,2.682512492920076,8.853765138923851,0.31123585,0.36468655,0.13713925,26.051378,-21.885874,24.107195
346470601000.0,3.53285916913804,2.789420160708783,8.959017924046044,0.2828306,0.34330627,0.09987647,26.01169,-21.921125,23.992804
346475569000.0,3.420739473751473,2.914476738828968,9.075450048762802,0.25259277,0.30665436,0.082161374,25.985672,-21.953295,23.893822
346480866000.0,3.4122865091165413,3.0577736050751883,9.099523530075189,0.23243423,0.26419923,0.04550946,25.988071,-21.981552,23.765476
346485703000.0,3.455823095446951,3.193221020718463,9.075336509607352,0.1572978,0.22327125,0.03634648,25.993214,-21.985611,23.65041
346490656000.0,3.5061135646741306,3.2917085573870453,9.022779106057577,0.13225232,0.16493362,0.035430185,26.025465,-22.015768,23.51696
346495655000.0,3.558754473810476,3.377848113314674,8.96056694082367,0.087964594,0.13316862,0.04184427,26.060524,-22.020712,23.390125
346500634000.0,3.5989777909314187,3.4299487897978462,8.877665197761194,0.04550946,0.07819075,0.054367006,26.106014,-22.04033,23.294931
346505586000.0,3.634817060608351,3.470267968184394,8.788067257462686,0.009773844,0.047036625,0.055283304,26.153702,-22.04969,23.203411
346510851000.0,3.6576350073265496,3.506658017095282,8.652656524329325,-0.03176499,0.014660766,0.064751714,26.190025,-22.055552,23.140966
346515629000.0,3.670333790971323,3.53628851226642,8.508736843755782,-0.056505036,-0.00061086525,0.071776666,26.228115,-22.05598,23.083279
346521430000.0,3.703864657548006,3.550065104716888,8.29280546399803,-0.06780604,-0.0030543262,0.07788532,26.259964,-22.064636,23.041407
346525666000.0,3.739817973471197,3.546070291836534,8.109043862934515,-0.06169739,0.028710667,0.08246681,26.287329,-22.070189,22.995857
346530610000.0,3.777563868673529,3.5275568831229367,7.917662625771994,-0.03940081,0.06566802,0.071776666,26.313396,-22.096682,22.960138
346535607000.0,3.810093280850651,3.490380522975335,7.755016195698193,0.013744468,0.10903945,0.06841691,26.330778,-22.130287,22.916521
346540625000.0,3.8568767076877633,3.4524193644265564,7.633561155379957,0.0720821,0.14966199,0.06566802,26.33463,-22.185843,22.883076
346545774000.0,3.929708763222805,3.4123617719075403,7.582578412303375,0.15302174,0.17684549,0.06047566,26.336027,-22.259743,22.842276
346550595000.0,3.997901293759693,3.374855915715236,7.534843356103686,0.24495697,0.19975294,0.048563786,26.329231,-22.359592,22.807493
346555745000.0,4.1139707939526735,3.345274787401402,7.580732664811569,0.32742378,0.21502456,0.054061573,26.316118,-22.47328,22.770721
346560590000.0,4.243592909092901,3.3224002356102105,7.669689104721735,0.39522982,0.22113322,0.06291912,26.303167,-22.604097,22.731367
346570868000.0,4.512384504500018,3.276976302401195,7.864438604126498,0.44929138,0.22632557,0.10415252,26.265356,-22.741241,22.714048
346571738000.0,4.517423144889901,3.2820149366013305,7.898227056974138,0.44929138,0.22632557,0.10415252,26.23616,-22.881187,22.694668
346575679000.0,4.540247606702003,3.3048393703745864,8.051284864643733,0.48197266,0.21655174,0.11636983,26.179323,-23.018368,22.711998
346580638000.0,4.568967856924336,3.333559585315357,8.24387904587528,0.4728097,0.19914207,0.15149458,26.117172,-23.13814,22.735321
346586021000.0,4.600143720394152,3.364735410486998,8.452940243207285,0.44348818,0.16707164,0.20341812,26.050226,-23.25377,22.769703
346591524000.0,4.632014568745331,3.396606219686244,8.666661916794137,0.36102137,0.07971791,0.24495697,25.986322,-23.346634,22.826868
346596271000.0,4.659507012343922,3.424098629511579,8.851022589975454,0.312763,0.05375614,0.27916542,25.90656,-23.432323,22.88247
346600836000.0,4.584986461044629,3.445327321526116,8.927328159228495,0.28191432,-0.014660766,0.2996294,25.836939,-23.495499,22.974731
346605630000.0,4.387845376587357,3.461486401914684,8.888546568773757,0.22204952,-0.06963864,0.34666604,25.752707,-23.529583,23.077065
346610502000.0,4.187496740067577,3.477908396001689,8.849133988737153,0.17501289,-0.13408493,0.37568212,25.679195,-23.541267,23.164627
346615543000.0,4.018733696158119,3.4624367238659506,8.787478398398443,0.15088372,-0.18845193,0.3894266,25.603882,-23.539412,23.266302
346620508000.0,3.886678163525273,3.418418197667098,8.708245005276801,0.11789699,-0.22082779,0.41599923,25.523537,-23.518335,23.382158
346625550000.0,3.739558312124757,3.364175390682261,8.614076635380117,0.10598512,-0.24740042,0.45448375,25.456812,-23.503328,23.464848
346630494000.0,3.5734258414814817,3.294953511851852,8.498707238888889,0.108123146,-0.26389378,0.48075095,25.38997,-23.482473,23.553507
346635464000.0,3.414487732231405,3.218044426446281,8.400918016528925,0.110872045,-0.28038713,0.47983465,25.321472,-23.462585,23.625942
346640505000.0,3.271994572825659,3.123049003374656,8.343920098091303,0.1301143,-0.29535335,0.46303585,25.253393,-23.44725,23.702246
346645443000.0,3.1486269293045663,3.0243882522308336,8.29111200366569,0.15699236,-0.3109304,0.44165558,25.191305,-23.432215,23.761702
346650477000.0,3.0678398758902388,2.9082570672496857,8.245669450879767,0.17959438,-0.30848694,0.42180246,25.134302,-23.423794,23.81746
346655532000.0,3.0150468887211126,2.798498121885645,8.22184131663751,0.22143865,-0.30970868,0.4034765,25.084776,-23.42062,23.854742
346660542000.0,3.010629315109106,2.7013103492127795,8.235093991345181,0.2611449,-0.31245756,0.38240165,25.042574,-23.426062,23.888384
346665518000.0,3.0182186037249283,2.6028517211397646,8.254712846545686,0.31306845,-0.30634892,0.36560285,24.997822,-23.43646,23.90682
346670549000.0,3.074462973352436,2.4954762034702327,8.300730773002229,0.36285394,-0.2950479,0.36254853,24.955706,-23.457422,23.923414
346675469000.0,3.1416282871281465,2.3951549825228837,8.341543189073226,0.37965274,-0.28802297,0.3585779,24.913074,-23.466457,23.937695
346680487000.0,3.2378511164569037,2.303514235974447,8.373618103451564,0.43127087,-0.28955013,0.3494149,24.873175,-23.49794,23.950094
346685487000.0,3.3435699964438266,2.2273967085328303,8.412857499254992,0.47891834,-0.2938262,0.35124752,24.822634,-23.516075,23.96755
346690515000.0,3.4870650808582497,2.2082640372702893,8.479821748783154,0.51893,-0.30634892,0.35308012,24.776634,-23.546167,23.986233
346695527000.0,3.629728144930379,2.1940504241616003,8.541589597372035,0.54428095,-0.3200934,0.355829,24.723726,-23.568779,24.02262
346700604000.0,3.772760447676015,2.1988181642675038,8.58449915875662,0.5720753,-0.3381139,0.3576616,24.673248,-23.60138,24.063026
346705547000.0,3.920050419425269,2.207217994043988,8.617825354792101,0.58276546,-0.3652974,0.3576616,24.620125,-23.631662,24.127182
346710531000.0,4.107785913533473,2.234037298908332,8.610162924867556,0.58093286,-0.42119157,0.3652974,24.57093,-23.66357,24.203773
346715524000.0,4.295860416358966,2.2609050334965484,8.60248665829186,0.5696318,-0.4642576,0.37110063,24.511074,-23.690454,24.303076
346720563000.0,4.490986188920316,2.298318711625866,8.545921344484542,0.5375614,-0.48624873,0.37568212,24.454144,-23.70967,24.410645
346725571000.0,4.687450424558666,2.3404182953574564,8.46639998995416,0.50518554,-0.52015173,0.36835176,24.406385,-23.725763,24.529814
346730596000.0,4.8934669542857145,2.3527831172244897,8.331376325714286,0.46792278,-0.5152648,0.36132678,24.339453,-23.736074,24.682287
346735552000.0,5.101721614285714,2.3479399926530613,8.166709685714284,0.40011674,-0.49693888,0.35033122,24.278229,-23.731068,24.835875
346740604000.0,5.2458821324680285,2.343217541782783,7.910038215880893,0.34269542,-0.44868052,0.3323107,24.202648,-23.730415,25.0155
346745584000.0,5.355122267990074,2.338665865508685,7.614179258064516,0.2782491,-0.35094208,0.3359759,24.114323,-23.70902,25.175812
346750582000.0,5.487835647403358,2.3340373018352207,7.391731842249121,0.204029,-0.21471913,0.34269542,24.001234,-23.679066,25.35773
346755621000.0,5.638581631589223,2.329326397598594,7.222142733014447,0.13683382,-0.099571034,0.36102137,23.873363,-23.632738,25.518707
346760642000.0,5.7738767288893245,2.3500447284776,7.129044163317322,0.07696902,-0.0030543262,0.38759398,23.710882,-23.584208,25.69382
346765621000.0,5.8954094283501615,2.392113837447309,7.100998058131556,-0.0061086523,0.029626964,0.42943826,23.533052,-23.509253,25.857553
346770597000.0,5.991038019745686,2.484025444069028,7.058997258564941,-0.07360926,0.07452556,0.4364632,23.330227,-23.43146,26.03191
346775685000.0,6.061848884922798,2.6300730412352404,7.001463300635786,-0.09193522,0.09896017,0.45845437,23.111856,-23.339317,26.207624
346780571000.0,6.082327395668328,2.825099825618509,6.881619262416618,-0.105068825,0.11911872,0.46731192,22.885174,-23.240805,26.392307
346785605000.0,5.984630007726083,3.162970275943596,6.596668253584396,-0.09712757,0.118507855,0.4596761,22.65934,-23.144712,26.57382
346791272000.0,5.875931248339061,3.533166171428572,6.287288780232368,-0.05955936,0.13164146,0.41508293,22.44226,-23.087149,26.75337
346795595000.0,5.811571038373425,3.668661342857143,6.216153818769432,0.0125227375,0.17195857,0.40042216,22.218088,-23.03893,26.926003
346800726000.0,5.735181439175258,3.829481542857143,6.1317232179676,0.04734206,0.23090707,0.3680463,22.03303,-23.09541,27.069838
346805607000.0,5.550498929638854,3.9621294707658783,6.109907339041096,0.108123146,0.3222314,0.35033122,21.839771,-23.1733,27.194578
346810609000.0,5.242280008509755,4.076468619022416,6.149677807077626,0.15974127,0.4279111,0.33017266,21.648226,-23.259224,27.296225
346815666000.0,4.836588729138167,4.12529445622435,6.225190022058824,0.21991149,0.5326745,0.27305678,21.471073,-23.390017,27.360746
346820624000.0,4.365667918878249,4.121234796990424,6.326681375735294,0.27977628,0.6386596,0.20769419,21.28907,-23.532475,27.396448
346825904000.0,3.869164202916433,4.109666097756589,6.476903867919237,0.32895094,0.7583892,0.13591751,21.142267,-23.70781,27.342203
346830647000.0,3.436080952720135,4.080551313292204,6.720740620078519,0.36468655,0.85918194,0.06414085,21.003166,-23.897205,27.262396
346835601000.0,2.9837312960740325,4.050141310712283,6.9754248431856425,0.40133846,0.93828905,0.006414085,20.913208,-24.101772,27.052633
346840629000.0,2.544960344085461,4.017417999583116,7.381452093694633,0.40530908,0.9502009,-0.045814894,20.838598,-24.30875,26.833952
346846528000.0,2.039589519975682,3.97816592857391,7.926074886347055,0.39278635,0.92485,-0.09101892,20.773464,-24.519814,26.60665
346850698000.0,1.7027009717919557,3.979777656043842,8.379049081377312,0.3631594,0.8060367,-0.12461651,20.770481,-24.716623,26.272623
346855631000.0,1.3265595432633646,4.013972308179092,8.98966837958846,0.3155119,0.6450737,-0.15241088,20.789785,-24.902832,25.960495
346860629000.0,1.0406326189002075,4.079990633270695,9.515034098308773,0.24801129,0.46822822,-0.18448131,20.877764,-25.048918,25.552011
346865640000.0,0.8555286775986548,4.179662203580259,9.942196696666995,0.18295415,0.37507126,-0.21044308,20.98319,-25.178827,25.170218
346870699000.0,0.8382451125913434,4.3098218126756604,10.14814680129286,0.1386664,0.21685717,-0.22815818,21.158733,-25.275146,24.733612
346875750000.0,1.0115865457841484,4.472966592854132,10.100562988406407,0.059864793,0.112399206,-0.25961772,21.349617,-25.344849,24.31302
346880610000.0,1.1783731950252951,4.629942168317875,10.05477852381956,-0.021380283,0.05375614,-0.28099802,21.579554,-25.389389,23.860764
346885598000.0,1.4173347631644622,4.729047416146743,9.944249580484152,-0.09407325,0.015271631,-0.30787608,21.828478,-25.415451,23.436863
346890662000.0,1.703773787471924,4.789562658472673,9.790944468430247,-0.15821409,-0.028099801,-0.30115658,22.079416,-25.416975,23.041754
346895623000.0,1.9919643083761231,4.8362875,9.63058272673299,-0.21380283,-0.077579886,-0.27947086,22.320532,-25.430647,22.709076
346900709000.0,2.3163171030487804,4.8362875,9.42737368597561,-0.24678956,-0.12370021,-0.25228736,22.559622,-25.428843,22.39691
346905554000.0,2.625300447560976,4.8362875,9.233793701219511,-0.26419923,-0.17348573,-0.21746802,22.761005,-25.421787,22.17912
346910617000.0,2.946865697258485,4.676391208457665,8.829205003590078,-0.26725355,-0.1957823,-0.1908954,22.95607,-25.406277,21.973654
346916525000.0,3.3214614345953,4.4125913507553145,8.259397299934726,-0.25686884,-0.20525073,-0.15607607,23.14094,-25.383806,21.787712
346920567000.0,3.6112382827495786,4.246676071380408,8.064759928984827,-0.23640485,-0.19547687,-0.1432479,23.288052,-25.374172,21.689245
346925705000.0,3.998321479602922,4.043918311762502,7.926516115705188,-0.19272798,-0.16462818,-0.13041973,23.421083,-25.368954,21.593832
346930607000.0,4.252170733934943,3.8597797504931792,7.826825781490031,-0.13897185,-0.12064589,-0.124311075,23.508863,-25.371572,21.587723
346935580000.0,4.362114005792235,3.68486989544596,7.766856724113326,-0.1133155,-0.06872234,-0.122783914,23.586784,-25.37706,21.572079
346940686000.0,4.436068940112458,3.5426866904003798,7.752167305683897,-0.080634214,-0.008246681,-0.12614368,23.617584,-25.387327,21.615686
346945632000.0,4.474575934150803,3.4367922306212315,7.777838657380936,-0.06414085,0.028405234,-0.13469578,23.644188,-25.40026,21.650358
346950737000.0,4.51432081982928,3.32749356156087,7.804335270889506,-0.051618114,0.073303826,-0.13194689,23.64362,-25.408335,21.686922
346955627000.0,4.531664203933364,3.204117607774178,7.862376663951874,-0.059253927,0.08979719,-0.12308934,23.642021,-25.415493,21.720358
346960579000.0,4.534799281185959,3.066174175923845,7.943888607047002,-0.049785517,0.09621128,-0.11759156,23.63535,-25.430126,21.744507
346965661000.0,4.538016660547365,2.92460945042639,8.027540403252463,-0.05467244,0.10170906,-0.11453723,23.616179,-25.416796,21.773464
346970846000.0,4.500674646998231,2.830692274300281,8.084526646654874,-0.058643065,0.080634214,-0.08735373,23.59191,-25.402948,21.81112
346975717000.0,4.43757702767662,2.777301836780772,8.118502517844137,-0.0711658,0.05100725,-0.07971791,23.57277,-25.387827,21.847034
346980605000.0,4.39664109512714,2.748986911143754,8.145931367743895,-0.069027774,0.010995574,-0.06719518,23.545197,-25.34184,21.887707
346985596000.0,4.367587518893728,2.734460224151555,8.170142597001316,-0.058643065,-0.027488936,-0.043982297,23.516893,-25.29354,21.93739
346990708000.0,4.32338662371678,2.738679178835268,8.181689306725511,-0.057421334,-0.07147124,-0.028405234,23.500484,-25.236814,21.986963
346995647000.0,4.273468463935528,2.752293200873069,8.186227187709873,-0.042455133,-0.09315695,0.00030543262,23.47652,-25.18322,22.044533
347000625000.0,4.218204730084746,2.7678053124293784,8.214803208333334,-0.028710667,-0.10903945,0.018936822,23.45854,-25.132368,22.102169
347005638000.0,4.158871971954449,2.784757465819209,8.261421497395833,-0.015271631,-0.12583824,0.04184427,23.434702,-25.08247,22.168741
347010590000.0,4.096893997584795,2.8054844107424133,8.319175378452169,0.004276057,-0.1518,0.06383542,23.40965,-25.038374,22.231907
347015661000.0,4.025498971637089,2.836082408327208,8.405870148692639,0.013439035,-0.18081611,0.08093964,23.382513,-24.99393,22.30134
347020599000.0,3.977096118922814,2.867599480050437,8.454607093938575,0.030543262,-0.19975294,0.096516706,23.353123,-24.957935,22.357267
347025669000.0,3.9596037741511294,2.902584215257137,8.450233916418986,0.03481932,-0.21074851,0.12461651,23.31859,-24.918318,22.421316
347030568000.0,3.9450378954042615,2.935355030432845,8.442498442497588,0.036957346,-0.2302962,0.13164146,23.29693,-24.879211,22.475178
347035583000.0,3.941472103437523,2.9638813289331054,8.417537749795828,0.025961773,-0.23640485,0.14630222,23.265228,-24.834547,22.531973
347040647000.0,3.937871471230232,2.992686348993986,8.392333173955008,0.00580322,-0.2510656,0.1591304,23.236053,-24.794168,22.590746
347045643000.0,3.9503673780791417,3.019033781732618,8.35348969041595,0.0009162979,-0.2510656,0.16432275,23.203924,-24.755049,22.64711
347050616000.0,3.979286774739399,3.0431332789494987,8.300470695880984,-0.009773844,-0.2660318,0.17715092,23.170496,-24.707834,22.71244
347055597000.0,4.020341078648975,3.072063971531966,8.223173010856454,-0.021685716,-0.28344148,0.17989981,23.143963,-24.66726,22.77913
347060584000.0,4.073151042480901,3.1056704260856454,8.122353697326096,-0.032070424,-0.2941316,0.18234327,23.115318,-24.623951,22.848114
347065635000.0,4.143420318563725,3.130948441385183,8.000190543428895,-0.035430185,-0.30024028,0.18936823,23.082476,-24.582714,22.929056
347070718000.0,4.229779594024979,3.148220253193301,7.858561614462106,-0.03176499,-0.30298916,0.1881465,23.052465,-24.542637,23.009336
347075564000.0,4.312112281195004,3.16468674936134,7.723536277107579,-0.026267206,-0.3042109,0.18600847,23.021204,-24.511911,23.10722
347080608000.0,4.368809814200525,3.159750952203356,7.663645527996766,-0.018020526,-0.2932153,0.18478674,22.988773,-24.48393,23.20055
347085573000.0,4.4120621703254495,3.1453335336163333,7.639616413381848,-0.014966198,-0.2733622,0.18600847,22.955254,-24.456959,23.28992
347090648000.0,4.4291019614388585,3.131958177122283,7.667344460791438,-0.009162978,-0.25167647,0.17379116,22.918219,-24.45293,23.406342
347095648000.0,4.435428710464425,3.11930467907115,7.714795078483187,-0.00061086525,-0.23151793,0.17501289,22.874517,-24.448917,23.517727
347100565000.0,4.441650435456167,3.106861229087666,7.761458015921252,0.008552114,-0.2134974,0.15760323,22.832737,-24.450294,23.627295
347105620000.0,4.440235733081787,3.11309320075464,7.847820976341016,0.0015271631,-0.19700404,0.15424347,22.784187,-24.44798,23.732096
347110603000.0,4.435369202957373,3.1276927911278807,7.950018210585355,0.0027488936,-0.19822577,0.13041973,22.746283,-24.454983,23.830132
347115660000.0,4.443391743668523,3.154941509171307,8.077780265574845,-0.014049901,-0.18509217,0.12308934,22.70287,-24.447655,23.917513
347120602000.0,4.455793589878808,3.1859461246970198,8.211100306583688,-0.024129177,-0.18600847,0.11453723,22.66867,-24.44569,24.003946
347125730000.0,4.468662199220439,3.218117648051097,8.349438058565346,-0.042760566,-0.18112154,0.094989546,22.642588,-24.439087,24.072052
347130616000.0,4.482540222764565,3.244336461543255,8.396064180392564,-0.05009095,-0.16310102,0.08552113,22.614384,-24.43286,24.13589
347135552000.0,4.497267895503168,3.268882616948801,8.40588286810676,-0.064446285,-0.15485434,0.06780604,22.59465,-24.42394,24.196089
347140671000.0,4.515558497588582,3.2933422002952755,8.408437,-0.063224554,-0.13530666,0.054061573,22.578382,-24.40846,24.236156
347145655000.0,4.534350188848425,3.316831851161417,8.408437,-0.0571159,-0.12003502,0.035430185,22.567953,-24.394112,24.27132
347150620000.0,4.548861346276789,3.32000035081729,8.424195410461314,-0.04184427,-0.095294975,0.029932396,22.555578,-24.388329,24.298443
347155609000.0,4.561877688957501,3.315661615228841,8.445889314929168,-0.021685716,-0.09132435,0.01160644,22.552778,-24.389677,24.32229
347160582000.0,4.589118013240022,3.301918955362209,8.44000212237564,-0.01863139,-0.09437868,0.008246681,22.545458,-24.387613,24.34816
347165656000.0,4.630477447342538,3.278941374673728,8.407833519008891,-0.01740966,-0.10170906,-0.0061086523,22.546286,-24.393938,24.369879
347171895000.0,4.686500011549382,3.2592566178462783,8.360328011559522,-0.013133603,-0.095294975,-0.018020526,22.54499,-24.39842,24.389753
347175623000.0,4.722702021527073,3.2520162385317377,8.327746002230786,-0.007330383,-0.11026118,-0.017104227,22.547997,-24.403723,24.41627
347180635000.0,4.760819786946047,3.2526650976856244,8.277048300832298,-0.008857546,-0.122478485,-0.015577064,22.54522,-24.40319,24.450743
347185604000.0,4.7851397352047895,3.2665621902460398,8.217985693728554,-0.010995574,-0.14110987,-0.007941248,22.543314,-24.40309,24.49083
347191154000.0,4.812303291823027,3.282084199445134,8.152017195152222,-0.015882496,-0.16218472,-0.0012217305,22.542772,-24.401834,24.547298
347195701000.0,4.8360344981982815,3.3131954624226188,8.061533320012934,-0.022296581,-0.1777618,0.00061086525,22.542997,-24.399393,24.60624
347200768000.0,4.8629358533585885,3.3535476590224524,7.949444191924605,-0.012217305,-0.18081611,0.012217305,22.539446,-24.397913,24.66814
347205607000.0,4.893268854384486,3.3923778907251267,7.83417219148398,-0.022296581,-0.18600847,0.01863139,22.537048,-24.394464,24.74603
347210582000.0,4.928419788195615,3.432550386509275,7.708633142158517,-0.024129177,-0.16371189,0.024740042,22.52751,-24.394249,24.817476
347215756000.0,4.927843329670672,3.44174084128743,7.578711695747993,-0.022907447,-0.16401732,0.03390302,22.51656,-24.40396,24.908384
347220941000.0,4.906204161644774,3.4324669121334743,7.448876558476001,-0.02565634,-0.14294247,0.03390302,22.4998,-24.412392,24.986069
347225917000.0,4.885437237807384,3.42356680191745,7.324274891539563,-0.008246681,-0.1133155,0.038179077,22.482828,-24.436148,25.078077
347230609000.0,4.860885499015587,3.4079526535274813,7.253735933921247,-0.008857546,-0.07666359,0.03726278,22.462708,-24.454784,25.16048
347235607000.0,4.828164110992617,3.381775577276456,7.240647412879409,-0.0061086523,-0.04550946,0.03756821,22.437153,-24.477312,25.235964
347242078000.0,4.785799144626743,3.3478836484208365,7.2237014705701394,-0.011911872,-0.013439035,0.034208454,22.40487,-24.500906,25.314087
347245855000.0,4.734331096654238,3.282105831976217,7.278494876700594,0.0009162979,0.028710667,0.031154128,22.366322,-24.529148,25.380661
347250630000.0,4.655987989730928,3.176112332782425,7.379879776680439,0.005497787,0.059253927,0.019242255,22.328314,-24.554869,25.439522
347255581000.0,4.620960333305988,3.1047502576394583,7.461239799835931,-0.010995574,0.07147124,0.0070249503,22.291977,-24.578924,25.484232
347260633000.0,4.630882809433962,3.070021539386792,7.520774656603774,-0.015271631,0.09040806,-0.00030543262,22.252468,-24.607397,25.518347
347265620000.0,4.644149021658863,3.042436794635451,7.566267935170569,-0.011301007,0.10751228,-0.009162978,22.21845,-24.610884,25.530659
347270643000.0,4.660237539464883,3.019913057859532,7.601662580267559,-0.015577064,0.13133603,-0.010079277,22.181118,-24.611189,25.536594
347275910000.0,4.677107581926421,2.9962951957056854,7.638776575036789,-0.027794369,0.14721853,-0.023518313,22.149633,-24.604036,25.536678
347280610000.0,4.704610500514699,2.979881764258141,7.692278678709294,-0.01740966,0.14813483,-0.026572637,22.114952,-24.60048,25.53601
347285597000.0,4.742428526259527,2.96569998609324,7.763187569533802,-0.025045475,0.15515977,-0.031154128,22.082054,-24.591606,25.528131
347290656000.0,4.767330610572782,2.964976492937123,7.810836101205857,-0.020463986,0.15577064,-0.041233405,22.050728,-24.580479,25.522247
347295602000.0,4.780930087015504,2.9751760736434107,7.838034841085271,-0.0061086523,0.14874569,-0.03359759,22.016603,-24.568552,25.518562
347300650000.0,4.79481002172696,2.9855859975021533,7.865794493109388,-0.0076358155,0.13958271,-0.01985312,21.980911,-24.549217,25.515064
347305609000.0,4.822144092612937,3.053551075300691,7.923914478359693,0.0067195175,0.12705997,-0.01282817,21.947218,-24.53775,25.51461
347311401000.0,4.858916737598258,3.153362446225968,8.002712885784637,0.012217305,0.10751228,-0.00030543262,21.911245,-24.521488,25.521004
347315707000.0,4.837992325224972,3.19094294488189,8.027798334364453,0.022602014,0.09682214,0.005192355,21.876226,-24.50569,25.530388
347320644000.0,4.798104206730408,3.221967001049869,8.045526273903262,0.03176499,0.090713486,0.01038471,21.840652,-24.489786,25.545092
347325594000.0,4.740022996502318,3.25248203817952,8.072202452591656,0.03970624,0.08307768,0.014660766,21.809254,-24.48581,25.560017
347330613000.0,4.664065200927096,3.282865071807838,8.107649536662452,0.04428773,0.06414085,0.026572637,21.777328,-24.481676,25.580948
347335585000.0,4.597915367483562,3.300996551509265,8.118940252316198,0.0580322,0.061391957,0.026572637,21.751728,-24.483253,25.59063
347340668000.0,4.536084758936043,3.3119079113269576,8.11530308173939,0.059864793,0.060170226,0.02443461,21.726366,-24.481745,25.605862
347346209000.0,4.468261040212336,3.32491243,8.113022022446915,0.053450707,0.06505715,0.026572637,21.708899,-24.487118,25.603819
347350683000.0,4.407608664337714,3.35090637,8.13468360141557,0.06078109,0.0571159,0.02687807,21.694855,-24.496685,25.605038
347355989000.0,4.336908512439634,3.3807667970108244,8.15990069746045,0.04795292,0.050396383,0.027183503,21.686369,-24.50268,25.591156
347360579000.0,4.303967829009159,3.384426834729392,8.17088096348876,0.039095376,0.056199603,0.027183503,21.677368,-24.511084,25.576586
347365663000.0,4.267481895553705,3.388480785004163,8.183042983638636,0.04184427,0.06963864,0.014049901,21.678934,-24.524336,25.546236
347370640000.0,4.209017322044661,3.404551252661657,8.185297259445445,0.035124753,0.069027774,0.008246681,21.679766,-24.531555,25.519672
347375742000.0,4.131452019388296,3.430406281553604,8.180126415652449,0.025350908,0.06566802,-0.0018325958,21.684038,-24.54055,25.488916
347380763000.0,4.091737526415282,3.4247036211322257,8.188620344542832,0.013133603,0.0729984,-0.004276057,21.688374,-24.552076,25.444778
347385604000.0,4.068674503432495,3.4062532027459955,8.202457965675057,0.011911872,0.062308256,-0.0125227375,21.700287,-24.56536,25.405067
347390632000.0,4.057934599586948,3.3839783547129283,8.202060336555142,0.007941248,0.070249505,-0.017104227,21.714706,-24.576923,25.348434
347395807000.0,4.053840343081371,3.359413371441553,8.193872037298638,-0.004276057,0.067500606,-0.028710667,21.736376,-24.587385,25.296455
347400801000.0,4.049676231360947,3.3396800941814595,8.189482254930967,-0.010079277,0.057421334,-0.028710667,21.75723,-24.60026,25.238354
347405483000.0,4.045254373254438,3.3308361471005914,8.193904066863906,-0.0027488936,0.055283304,-0.03176499,21.781256,-24.614532,25.178392
347410496000.0,4.044092306573882,3.31689884424045,8.197746,-0.00580322,0.053450707,-0.032986723,21.797749,-24.616446,25.122818
347415525000.0,4.058353946954891,3.2836214682459777,8.197746,-0.005497787,0.047647487,-0.03268129,21.815538,-24.620792,25.069817
347420533000.0,4.076141543070452,3.2509723434595164,8.195175103049422,-0.0067195175,0.041233405,-0.029321533,21.829401,-24.623646,25.015696
347425502000.0,4.1111688652996845,3.2209489766561514,8.18016360252366,-0.008857546,0.026572637,-0.02443461,21.844826,-24.625675,24.966589
347430495000.0,4.139606162276438,3.1913759511664077,8.160525475699844,-0.006414085,0.027183503,-0.020463986,21.853525,-24.616991,24.922293
347435493000.0,4.148911196549378,3.163460994090202,8.127957831454122,-0.008246681,0.02321288,-0.016187929,21.863674,-24.606045,24.884382
347440529000.0,4.1630397177457805,3.138318838113855,8.088566664537046,-0.014660766,0.015882496,-0.015577064,21.8677,-24.590721,24.854923
347445522000.0,4.194957400019072,3.1246399130447218,8.024731776103748,-0.017715093,0.012217305,-0.011301007,21.869785,-24.575024,24.827154
347450565000.0,4.223947235636802,3.114187970871836,7.969053453254319,-0.018325957,0.008552114,0.0012217305,21.867107,-24.555794,24.807373
347455537000.0,4.228729964041784,3.1285358564483725,7.978618760245078,-0.021685716,0.0012217305,0.005192355,21.866976,-24.536137,24.789242
347460542000.0,4.234693542868354,3.143518789542868,7.986475183686482,-0.017104227,-0.0061086523,0.008552114,21.858046,-24.5155,24.786493
347465529000.0,4.248748527172847,3.162259029527173,7.98179017261134,-0.010079277,-0.010079277,0.020158553,21.846622,-24.493685,24.786337
347470567000.0,4.262105698019802,3.1812066519801983,7.977906684653465,-0.027488936,-0.004581489,0.01985312,21.83798,-24.469767,24.78425
347475541000.0,4.266822133465347,3.200071950534653,7.9826229723564355,-0.02321288,-0.011911872,0.019547688,21.828838,-24.45219,24.787878
347480590000.0,4.2715225041032525,3.218872994151,7.9870567,-0.020158553,-0.016493361,0.023518313,21.818102,-24.432808,24.7925
347485545000.0,4.275062793196061,3.233033854789615,7.9870567,-0.01740966,-0.009773844,0.019242255,21.809486,-24.416132,24.794836
347490547000.0,4.278636663234855,3.2473290364070424,7.9870567,-0.015882496,-0.01282817,0.014660766,21.802883,-24.403238,24.800697
347495588000.0,4.280833,3.258144547661134,8.001269070025868,-0.006414085,-0.013133603,0.022602014,21.79284,-24.392345,24.805132
347500577000.0,4.280833,3.263294219486958,8.037316611489544,0.0015271631,-0.009468411,0.017104227,21.787895,-24.38415,24.806887
347505563000.0,4.286024235893784,3.2734779351510834,8.067072225251806,0.0070249503,-0.010079277,0.015882496,21.78667,-24.382212,24.811949
347510561000.0,4.295763649180995,3.288087207630481,8.091421012717468,0.005497787,-0.014966198,0.016493361,21.786526,-24.380959,24.816631
347515590000.0,4.315718939672821,3.2996656802831725,8.096733966134124,0.005192355,-0.013439035,0.023518313,21.780018,-24.377602,24.816975
347520551000.0,4.342989774514493,3.308756132583947,8.087643940973884,0.004276057,-0.0143553335,0.01863139,21.777771,-24.375132,24.817759
347525620000.0,4.366802312376088,3.315914097566837,8.08516374872334,0.015882496,-0.016493361,0.021685716,21.771671,-24.374166,24.819891
347530639000.0,4.386053773145089,3.3207268999399218,8.08997645058576,0.0125227375,-0.018020526,0.018020526,21.768925,-24.370646,24.820639
347535569000.0,4.397857250128041,3.3189460119078102,8.08819557778489,0.0143553335,-0.013744468,0.018020526,21.762678,-24.372126,24.827074
347540592000.0,4.402256716389245,3.3101468956283155,8.07939659932321,0.009162978,-0.025961773,0.0143553335,21.761057,-24.371773,24.837084
347545583000.0,4.40684213754528,3.300975988024718,8.067203607607073,0.002443461,-0.016798794,0.0143553335,21.756578,-24.372679,24.84393
347550600000.0,4.41196123076923,3.2907380153846155,8.046727769230769,0.005497787,-0.02321288,0.014966198,21.75678,-24.374956,24.857275
347555779000.0,4.416692918621868,3.2830596627399933,8.029586076391148,0.0036651916,-0.023518313,0.018020526,21.75381,-24.369455,24.870827
347560646000.0,4.420484799430524,3.279267742336479,8.018210077611455,-0.0015271631,-0.02443461,0.01863139,21.752237,-24.36411,24.885632
347566154000.0,4.422426235320197,3.2740915362233167,8.003563412643677,-0.00030543262,-0.027488936,0.023518313,21.74743,-24.35437,24.906487
347570599000.0,4.3979613275615765,3.2601116097865352,7.972108651149425,-0.008552114,-0.02565634,0.028099801,21.741909,-24.3411,24.925919
347575660000.0,4.370106007389162,3.24419430771757,7.936294804597701,-0.01863139,-0.025045475,0.02321288,21.733675,-24.329561,24.945757
347580593000.0,4.34953748341698,3.221141484242995,7.920019,-0.008552114,-0.027183503,0.029626964,21.721209,-24.319233,24.967476
347585651000.0,4.33434328103304,3.190752920817649,7.920019,-0.003970624,-0.022907447,0.02321288,21.712824,-24.307632,24.98468
347590674000.0,4.32657319735664,3.18164350264336,7.917875442123215,-0.006414085,-0.01740966,0.029321533,21.703396,-24.297924,25.001747
347595606000.0,4.323216928075037,3.184999771924963,7.9145192429332765,-0.00030543262,-0.015271631,0.027488936,21.69791,-24.29363,25.016378
347600701000.0,4.319749735863,3.188466964137,7.911052123129397,-0.008857546,-0.01282817,0.03481932,21.690264,-24.283554,25.028246
347605593000.0,4.322542889276187,3.192479589276187,7.927456810848302,-0.0036651916,-0.0143553335,0.03390302,21.68577,-24.279991,25.03905
347610628000.0,4.326830563827138,3.1967672638271383,7.948895138831585,-0.0030543262,-0.010995574,0.029321533,21.67931,-24.272842,25.048237
347615643000.0,4.324018128193447,3.1939548772560014,7.979470102347994,-0.00061086525,0.0012217305,0.025961773,21.675068,-24.269184,25.055454
347620620000.0,4.315666239057298,3.185603075328544,8.017053211021553,0.0012217305,-0.002443461,0.026572637,21.672794,-24.265703,25.065592
347625625000.0,4.313853302456064,3.1780697942036897,8.050237908252374,-0.0027488936,-0.005497787,0.02687807,21.670067,-24.26221,25.070095
347630636000.0,4.3295687305316015,3.172831299945421,8.07119183058618,-0.00580322,-0.019242255,0.018325957,21.671741,-24.260527,25.07712
347636399000.0,4.3382936,3.175478281153921,8.082825,-0.00580322,-0.017715093,0.027794369,21.66414,-24.255558,25.075617
347640648000.0,4.3382936,3.183396560128429,8.082825,0.0036651916,-0.021685716,0.027488936,21.66443,-24.254618,25.076672
347645598000.0,4.353679378714219,3.1890767,8.084534479399343,0.0012217305,-0.03359759,0.02107485,21.666386,-24.246088,25.082884
347650643000.0,4.394489711844204,3.1890767,8.089068824073205,-0.0036651916,-0.042760566,0.009468411,21.670025,-24.240107,25.088606
347655620000.0,4.4244847,3.187168996891924,8.096216916176123,-0.0067195175,-0.03145956,0.017104227,21.669104,-24.23351,25.093481
347666430000.0,4.4244847,3.17091819263794,8.128718609528294,0.014660766,-0.01160644,-0.0021380284,21.678871,-24.236977,25.093317
347670588000.0,4.440932181234034,3.137028037531932,8.17347231381411,0.027488936,-0.008857546,-0.0036651916,21.678625,-24.22707,25.108025
347675611000.0,4.464563673865199,3.0897650522696014,8.234913997248968,0.03176499,-0.0033597588,-0.018936822,21.684292,-24.224823,25.112505
347680609000.0,4.488086816004719,3.061580474370822,8.25835068885175,0.04734206,0.0015271631,-0.02076942,21.681438,-24.225025,25.11473
347685586000.0,4.511515705898545,3.04283731352733,8.263036564687377,0.044898596,-0.00030543262,-0.026572637,21.684092,-24.224165,25.114817
347690742000.0,4.56551263794157,3.0448996371777737,8.264784,0.050701816,0.0018325958,-0.038789943,21.687117,-24.22022,25.11233
347695662000.0,4.632991090872637,3.058395252606454,8.264784,0.03176499,-0.005497787,-0.041233405,21.690615,-24.208977,25.113228
347700667000.0,4.69535328376604,3.088164274395703,8.228094422262012,0.04062254,-0.018325957,-0.04337143,21.700535,-24.204376,25.119566
347705593000.0,4.751665259713518,3.130398366606983,8.162397272157564,0.026572637,-0.021685716,-0.03481932,21.707653,-24.188324,25.126215
347710614000.0,4.78631577494826,3.1732367769784173,8.09575978372918,0.023823744,-0.032070424,-0.02321288,21.713053,-24.175735,25.15157
347715708000.0,4.80073896881837,3.216506458992806,8.028451160786439,0.0070249503,-0.043982297,-0.020463986,21.719074,-24.156487,25.177486
347720614000.0,4.811715708613646,3.2619127865449804,7.959205296175575,0.002443461,-0.052534413,-0.015577064,21.711834,-24.14234,25.221094
347725695000.0,4.820174635141242,3.312666213220339,7.883075310734464,0.0067195175,-0.046731193,-0.007330383,21.702454,-24.125917,25.263803
347730563000.0,4.8195516121317326,3.357251806556889,7.813512386886222,0.0027488936,-0.03970624,0.00061086525,21.697748,-24.115894,25.316557
347735655000.0,4.780853018262077,3.3862757014482687,7.755464597103463,-0.009468411,-0.03573562,-0.0009162979,21.692757,-24.105337,25.367212
347740659000.0,4.739052051612903,3.414440529032258,7.703382716129033,-0.003970624,-0.03268129,0.013439035,21.679068,-24.104067,25.427279
347745724000.0,4.680599472636263,3.4414185557285872,7.671908351649981,0.0021380284,-0.019547688,0.017104227,21.666582,-24.101654,25.480906
347750796000.0,4.621806837177966,3.46522455578312,7.641028451223456,0.0021380284,-0.009162978,0.019242255,21.658484,-24.106571,25.533308
347755636000.0,4.5618499480974455,3.4402424969278864,7.6210429084833455,0.0033597588,0.010995574,0.021380283,21.64575,-24.112684,25.579277
347765633000.0,4.42702872662299,3.374308179094699,7.615137853325392,-0.0061086523,0.035124753,0.028405234,21.635021,-24.120232,25.613964
347770641000.0,4.357389765138325,3.3363769168698005,7.627584954459277,0.0012217305,0.059864793,0.023823744,21.623734,-24.133257,25.641499
347775850000.0,4.294658853395241,3.2977731277132905,7.65653758218224,0.0015271631,0.08277224,0.015577064,21.612837,-24.138567,25.656937
347780626000.0,4.2398728610147165,3.260717146862897,7.683583318807126,0.0018325958,0.08246681,0.012217305,21.60161,-24.140596,25.658358
347785590000.0,4.21041380883811,3.2054817845081334,7.716724613121611,0.003970624,0.09621128,0.003970624,21.58909,-24.144854,25.648909
347790672000.0,4.180254481045702,3.14893341394268,7.75065371419055,0.0070249503,0.109650314,0.0070249503,21.577106,-24.139235,25.629925
347795730000.0,4.168657621079496,3.09457119460252,7.783271008666377,0.0070249503,0.105374254,-0.0015271631,21.571737,-24.136196,25.609875
347800625000.0,4.17374894205039,3.043660589748045,7.813817233362294,0.008552114,0.10995574,0.00030543262,21.55985,-24.13258,25.586462
347805605000.0,4.194339630268769,3.001135480462164,7.852528412595458,0.003970624,0.09590584,0.0027488936,21.56116,-24.12106,25.560001
347810594000.0,4.222770943270851,2.963227195070912,7.89517533261926,0.005497787,0.093462385,0.0030543262,21.560595,-24.111746,25.529995
347815675000.0,4.257544086586835,2.960836106036987,7.957396698660809,0.011301007,0.08735373,0.004886922,21.56288,-24.096848,25.504555
347821714000.0,4.302621393991355,2.9813258301211647,8.043453454233685,0.004886922,0.06811147,0.007330383,21.567436,-24.079506,25.483673
347826090000.0,4.335285460426557,2.996173161234323,8.105812182895201,0.01282817,0.04795292,0.009162978,21.566067,-24.061367,25.46504
347830611000.0,4.342451412398524,3.047434856605166,8.12402861085925,0.0061086523,0.034513887,0.016798794,21.564486,-24.03732,25.45097
347835563000.0,4.347451287822879,3.107434092619926,8.139028445967316,-0.0012217305,0.014049901,0.02321288,21.566837,-24.015522,25.444098
347840626000.0,4.351865318991204,3.1843733510141803,8.144280435559144,-0.0036651916,-0.002443461,0.014660766,21.575102,-23.996126,25.437824
347845645000.0,4.356179217510321,3.262024290136421,8.148594243986718,-0.002443461,-0.02565634,0.023518313,21.580593,-23.973103,25.441534
347850596000.0,4.331022087914269,3.34430103159357,8.133346343718992,-0.003970624,-0.036957346,0.028710667,21.592234,-23.95645,25.443699
347855711000.0,4.292137328041278,3.431792299603096,8.10904324191308,-0.01038471,-0.059253927,0.037873644,21.604889,-23.937458,25.456007
347860581000.0,4.257591680792683,3.4775633012195124,8.10778843597561,-0.018020526,-0.07147124,0.037873644,21.621191,-23.92973,25.466206
347865684000.0,4.2225339060616935,3.508238774031564,8.116553039813486,-0.0106901415,-0.0693332,0.03848451,21.635454,-23.923075,25.479204
347875624000.0,4.126359993212762,3.48887481666328,8.099897936090224,0.012217305,-0.03848451,0.02076942,21.657354,-23.938282,25.476343
347880604000.0,4.096471357205241,3.442757474859638,8.12362320742358,0.027488936,-0.0009162979,0.0125227375,21.674465,-23.951656,25.472279
347885581000.0,4.09151572860262,3.3733780017155333,8.18804710371179,0.047647487,0.03726278,0.0033597588,21.694542,-23.98124,25.447609
347891447000.0,4.117114714489185,3.270441678409317,8.277173259633944,0.065973446,0.05375614,-0.03023783,21.725191,-24.01102,25.410965
347895630000.0,4.149109333078203,3.1877891619633942,8.346494965723794,0.06872234,0.07391469,-0.039095376,21.744944,-24.038612,25.366678
347900594000.0,4.187077606249584,3.089704750861897,8.428759596139766,0.079107046,0.07941248,-0.059864793,21.77152,-24.067566,25.310017
347905613000.0,4.261239302510717,3.048139783772198,8.468613056950398,0.07086037,0.0693332,-0.06566802,21.795424,-24.090519,25.254427
347910582000.0,4.363232414309043,3.052996603449684,8.47346947091243,0.058948494,0.05955936,-0.07147124,21.823948,-24.116638,25.196177
347915638000.0,4.463415637477064,3.094604498256881,8.43587058119266,0.0421497,0.04642576,-0.08032878,21.850763,-24.118006,25.141977
347920600000.0,4.559327774302752,3.1599991970091743,8.37047551825688,0.025045475,0.008857546,-0.07513642,21.879948,-24.114878,25.09867
347925714000.0,4.64304148642651,3.231909789083491,8.281936674893025,0.009773844,-0.01160644,-0.06658431,21.902754,-24.110222,25.070152
347930615000.0,4.703760823554583,3.3066411383719774,8.169839894815405,0.0012217305,-0.03604105,-0.06169739,21.93072,-24.10273,25.052814
347935542000.0,4.749770622720552,3.3685345015771317,8.05572246367669,-0.0021380284,-0.056199603,-0.04734206,21.946688,-24.098856,25.065866
347940643000.0,4.773847141596846,3.4118721852735336,7.935340070418926,-0.009773844,-0.070249505,-0.021380283,21.960152,-24.089626,25.085268
347945595000.0,4.769487409795252,3.456989690204749,7.83848334019033,-0.016493361,-0.0842994,-0.009468411,21.975262,-24.097284,25.128
347950623000.0,4.718571937873691,3.5079051621263098,7.773681733807555,-0.021380283,-0.089186326,0.00030543262,21.983757,-24.100164,25.173946
347955571000.0,4.66557055642937,3.539303552799105,7.7192246152814015,-0.0061086523,-0.086132,0.014049901,21.989082,-24.119627,25.234694
347961429000.0,4.594477187215803,3.5225757423183004,7.6815871290346625,-0.006414085,-0.0842994,0.04337143,21.987371,-24.130049,25.298872
347965734000.0,4.542231206597093,3.510282600611256,7.653927624375699,0.00061086525,-0.07849618,0.042760566,21.996077,-24.162857,25.352123
347970717000.0,4.468506984773351,3.4821131043437115,7.633667714128892,-0.00580322,-0.061391957,0.046120327,21.992731,-24.186792,25.405188
347975622000.0,4.388490360187376,3.446550160083278,7.620331610031229,-0.007330383,-0.04153884,0.05131268,21.987108,-24.212622,25.455177
347980606000.0,4.312841618018019,3.3859619513513515,7.6185656414414415,-0.013133603,-0.01863139,0.052534413,21.97736,-24.23314,25.488747
347985583000.0,4.24293875104756,3.301079857636706,7.628551653572177,-0.016798794,-0.0018325958,0.053450707,21.964005,-24.252436,25.518936
347990639000.0,4.178996066601032,3.2121543083919364,7.648776063384904,-0.016187929,0.021685716,0.04734206,21.947044,-24.267551,25.526352
347995695000.0,4.119974460675105,3.1213520565400845,7.676016833755274,-0.022907447,0.04337143,0.049480084,21.925571,-24.27821,25.531221
348000744000.0,4.076193506866346,3.05450075329189,7.705462618592823,-0.029321533,0.05131268,0.034513887,21.913565,-24.283333,25.520103
348005608000.0,4.049868853499105,3.015013658707733,7.736174767636809,-0.027183503,0.064751714,0.03176499,21.894087,-24.286892,25.504393
348010628000.0,4.038369133878954,2.9814301490653734,7.771914123714257,-0.02687807,0.07422013,0.030848695,21.87293,-24.278233,25.472431
348015648000.0,4.057799430130342,2.961999802091543,7.815632505850258,-0.02443461,0.07269296,0.028405234,21.853424,-24.271452,25.440096
348020680000.0,4.088232320170135,2.95508338605104,7.866921430665164,-0.020463986,0.07880162,0.021685716,21.843206,-24.26032,25.39897
348025833000.0,4.138810623337092,2.9702568770011277,7.932673013528748,-0.011301007,0.052534413,0.02321288,21.836857,-24.250643,25.368044
348030637000.0,4.186150813717242,3.014819042696552,7.986793705172413,-0.0125227375,0.0290161,0.03573562,21.8307,-24.234219,25.337402
348035582000.0,4.235141201544828,3.1030015907310347,8.032517903448277,-0.0009162979,0.017715093,0.041233405,21.828505,-24.224398,25.31022
348040631000.0,4.285161923110345,3.193038736337931,8.079203743103449,-0.003970624,-0.01038471,0.045814894,21.827274,-24.205276,25.299042
348045667000.0,4.314389434962295,3.265918982988933,8.116457204093626,0.002443461,-0.04062254,0.06169739,21.823528,-24.189642,25.29373
348050611000.0,4.323663393164234,3.321562296435217,8.144278885025953,0.012217305,-0.06658431,0.061086524,21.826763,-24.176134,25.293013
348055617000.0,4.3287168,3.3604004331230284,8.16114262575979,0.0018325958,-0.08368854,0.077579886,21.826729,-24.16674,25.307102
348060572000.0,4.3287168,3.378655778548896,8.164793778718165,-0.006414085,-0.10995574,0.08155051,21.835144,-24.162033,25.328129
348066477000.0,4.326826577504357,3.3999382384086947,8.169187841997333,-0.0030543262,-0.12064589,0.0888809,21.840374,-24.159784,25.350397
