timestamp,acc_x,acc_y,acc_z,gyro_x,gyro_y,gyro_z,ori_azimuth,ori_pitch,ori_roll
374053006000.0,2.095453778229629,9.980472965021706,-1.1192138878788485,-6.3951483,-2.7861564,-4.258036,22.119274,-20.499931,26.9213
374058060000.0,2.087966940849259,9.977574827264108,-1.1153497141212516,-6.3951483,0.7538077,0.035430185,20.404898,-19.902925,26.492868
374063014000.0,2.0806282403383065,9.974734032952448,-1.1115619980953046,-1.1863003,0.75502944,0.034513887,22.117785,-20.673906,26.871746
374068016000.0,2.073218434130033,9.971865713786736,-1.107737582358166,-1.1899655,0.7620544,0.03481932,22.128624,-19.555136,26.809935
374073089000.0,2.065703450744474,9.968956680774411,-1.1038588816315555,-1.1957687,0.7635816,0.03268129,22.147118,-19.75345,26.747496
374078001000.0,2.0584269677186766,9.966139970710044,-1.1001032778529016,-1.1942415,0.75228053,0.034208454,22.17368,-19.962048,26.684536
374082983000.0,2.051046788884287,9.96328312023352,-1.096294153662093,-1.1792754,0.7293731,0.029932396,22.211952,-20.18322,26.620966
374088073000.0,2.0435066222309266,9.960364338835388,-1.0924024551211018,-1.1624765,0.7128797,0.034208454,22.255642,-20.413116,26.557396
374093067000.0,2.036108666972207,9.957500607145352,-1.088584156002495,-1.142318,0.7174612,0.02565634,22.31204,-20.658844,26.48996
374098069000.0,2.028698860763934,9.954632287979642,-1.0847597402653562,-1.1374311,0.79076505,0.063224554,22.354034,-20.90654,26.41217
374103022000.0,2.0213616416216755,9.95179206710244,-1.0809727888167258,-1.5528195,0.77732605,0.05467244,22.429436,-21.069153,26.347263
374108074000.0,2.013877766978694,9.94889507621376,-1.0771101442137618,-1.2388347,0.7690793,0.05467244,22.486883,-21.418072,26.26522
374113067000.0,2.0064812930886684,9.946031917958186,-1.0732926096724715,-1.2336423,0.75716746,0.06688975,22.55202,-21.592268,26.185982
374118021000.0,1.999142592577716,9.943191123646525,-1.0695048936465248,-1.2370021,0.7440339,0.08002335,22.62349,-21.850534,26.107447
374123021000.0,1.991735749106831,9.940323951349733,-1.065682007064019,-1.2412782,0.7174612,0.089186326,22.701214,-22.115694,26.034515
374128079000.0,1.984242986251684,9.9374235198543,-1.0618147749971558,-1.2370021,0.7058548,0.10476339,22.778103,-22.386106,25.961498
374133076000.0,1.976840586886882,9.934558067860884,-1.0579941821465997,-1.239751,0.6649268,0.12095132,22.864677,-22.658642,25.902124
374138060000.0,1.969457445315104,9.931700070515443,-1.0541835288011576,-1.2293663,0.63438356,0.12644911,22.954735,-22.940851,25.841614
374143055000.0,1.9620580086876904,9.928835765390948,-1.0503644651052344,-1.1917981,0.56199604,0.12522738,23.058231,-23.233603,25.80143
374148961000.0,1.953309045179881,9.925449061473978,-1.0458488714739784,-1.0937542,0.47952923,0.129198,23.16899,-23.548061,25.77074
374153062000.0,1.9472339521650617,9.923097406756147,-1.0427133398990072,-0.9669997,0.39950588,0.12064589,23.29818,-23.885996,25.753656
374158067000.0,1.939819701850706,9.920227367287062,-1.0388866304299187,-0.8347474,0.32528573,0.116980694,23.440517,-24.253174,25.75439
374163059000.0,1.9324247093293747,9.917364782465944,-1.035069860465945,-0.70829827,0.26297748,0.1020145,23.603016,-24.657259,25.766584
374168017000.0,1.9250800833436452,9.914521694416448,-1.0312790861307322,-0.59437186,0.022602014,0.040317107,23.822018,-25.101563,25.832045
374173037000.0,1.9176436124988772,9.911643053430469,-1.0274409080018962,-0.172264,-0.10170906,-0.00580322,24.037899,-25.65733,25.879452
374178070000.0,1.9101878838610848,9.908756957796516,-1.0235927903679458,0.05375614,-0.07513642,-0.01863139,24.280296,-26.197962,25.940334
374183064000.0,1.902789928602365,9.905893226106482,-1.019774491249339,0.0061086523,-0.050701816,-0.01985312,24.556963,-26.78094,26.021862
374188018000.0,1.8954512280914129,9.90305243179482,-1.0159867752233922,-0.032375857,-0.044898596,-0.027183503,24.842257,-27.424805,26.092161
374193059000.0,1.8879836485040664,9.900161748685194,-1.0121325409709097,-0.027183503,-0.05009095,-0.0290161,25.12829,-28.066254,26.153408
374198016000.0,1.8806405038870315,9.897319234070157,-1.0083425312130134,-0.030543262,-0.04428773,-0.034208454,25.41796,-28.69652,26.20274
374203085000.0,1.8731314459762487,9.894412494795668,-1.004466888795669,-0.025961773,-0.03756821,-0.032375857,25.71001,-29.327963,26.24776
374208023000.0,1.865816447364403,9.891580875435356,-1.0006914060067862,-0.030848695,-0.03940081,-0.016798794,26.002932,-29.953352,26.288765
374213072000.0,1.8583370168275035,9.888685604850057,-0.9968310551357716,-0.021380283,-0.022296581,-0.0106901415,26.295502,-30.582582,26.316568
374223033000.0,1.843581103264807,9.882973624200387,-0.9892151004861036,-0.026572637,-0.019547688,0.0036651916,26.58657,-31.201317,26.346281
374228009000.0,1.8362098126425828,9.880120214330622,-0.9854105637591936,-0.015577064,-0.009468411,0.010079277,26.875082,-31.824123,26.364359
374233015000.0,1.8287940809595329,9.877249601427074,-0.9815830897127888,-0.0015271631,0.0009162979,0.018020526,27.159988,-32.44131,26.378946
374238000000.0,1.821409458019061,9.874391030647171,-0.9777716717900304,-0.0036651916,0.0033597588,0.028405234,27.443,-33.05289,26.389267
374243019000.0,1.8139744685429868,9.871512963095654,-0.9739342582385112,0.004581489,0.004581489,0.031154128,27.724592,-33.667103,26.39239
374248063000.0,1.8065024448495584,9.86862055968265,-0.9700777302540792,0.015577064,0.009773844,0.03390302,28.002419,-34.276367,26.390888
374253035000.0,1.799137079702111,9.86576944355072,-0.9662762518364354,0.025045475,0.015577064,0.029321533,28.297207,-34.900055,26.403494
374258011000.0,1.7917657890798862,9.862916033680952,-0.9624717151095256,0.0290161,0.01038471,0.026572637,28.591816,-35.519894,26.412786
374262997000.0,1.78437968477072,9.860056889466591,-0.9586595326094508,0.032375857,0.0067195175,0.030848695,28.883747,-36.13676,26.415682
374268014000.0,1.7769476580320342,9.857179968783992,-0.9548236482125644,0.01985312,-0.0012217305,0.026572637,29.179543,-36.747654,26.413357
374273005000.0,1.7695541468793972,9.854317957397337,-0.9510076428259068,0.029626964,0.020463986,0.02321288,29.467339,-37.35873,26.401508
374278022000.0,1.7621221201407116,9.851441036714734,-0.9471717584290206,0.021380283,0.00030543262,0.015271631,29.766619,-37.958748,26.39354
374283014000.0,1.7547271276193803,9.848578451893616,-0.9433549884650468,0.03390302,-0.005497787,0.0076358155,30.057072,-38.561096,26.37272
374288637000.0,1.7463973914520232,9.845354029928648,-0.9390557702143606,0.021380283,-0.009773844,0.01038471,30.34917,-39.14964,26.351685
374293014000.0,1.739913440677611,9.842844107300037,-0.9357092153000348,0.023823744,-0.02076942,0.0012217305,30.646395,-39.742115,26.324772
374298029000.0,1.7324843766763136,9.839968333486352,-0.9318748600577816,0.027183503,-0.022907447,-0.0033597588,30.938597,-40.324825,26.294077
374303030000.0,1.7250760518367347,9.8371005877551,-0.9280512088979592,0.02107485,-0.02107485,-0.0030543262,31.230814,-40.90063,26.259716
374308012000.0,1.717695873002345,9.834243737278578,-0.9242420847071504,0.006414085,-0.020158553,-0.009468411,31.523476,-41.471035,26.219543
374313012000.0,1.7102890295314606,9.831376564981786,-0.9204191981246445,-0.007941248,-0.0143553335,-0.022602014,31.812962,-42.03503,26.17281
374318008000.0,1.7028881115353525,9.828511686422832,-0.9165993698514048,-0.0070249503,-0.012217305,-0.010995574,32.09613,-42.589813,26.126871
374323010000.0,1.6954783053270794,9.825643367257122,-0.9127749541142658,-0.020158553,0.0012217305,0.0018325958,32.37447,-43.13381,26.07179
374327991000.0,1.688099607861384,9.822787090215058,-0.9089665945007734,-0.030543262,0.01160644,0.0012217305,32.650017,-43.67264,26.013268
374333015000.0,1.6806572115418392,9.819906155491244,-0.9051253580626716,-0.02565634,0.01282817,-0.00030543262,32.918625,-44.203556,25.953518
374338018000.0,1.673245923964872,9.817037262891072,-0.901300177748216,-0.022907447,0.02076942,0.007941248,33.177677,-44.723663,25.889917
374343064000.0,1.665770937534055,9.81414371260915,-0.8974421206091512,-0.019547688,0.031154128,0.004886922,33.434723,-45.24083,25.820204
374348093000.0,1.6583211343710391,9.811259910713035,-0.8935970612844668,-0.004886922,0.04520403,0.0027488936,33.683304,-45.753063,25.748075
374353088000.0,1.6509216977436254,9.808395605588544,-0.8897779975885435,-0.009773844,0.027488936,0.003970624,33.933506,-46.25506,25.677464
374358002000.0,1.64364225198044,9.805577748655256,-0.8860208646552568,0.0027488936,0.04642576,0.0125227375,34.16596,-46.756653,25.597317
374363029000.0,1.6361954115548123,9.802695093628062,-0.8821773344852053,0.01038471,0.04550946,0.013133603,34.405376,-47.250603,25.52006
374368065000.0,1.6287352388109375,9.799807277690734,-0.8783269231193054,0.0125227375,0.03970624,0.009773844,34.636414,-47.73858,25.439682
374373095000.0,1.6212839542792274,9.796922902360162,-0.8744810992173045,0.0106901415,0.048258353,0.0143553335,34.858433,-48.219032,25.357468
374378087000.0,1.6138889617578962,9.794060317539044,-0.8706643292533307,0.011301007,0.029626964,0.0106901415,35.087196,-48.69583,25.276283
374383083000.0,1.6064880437617883,9.79119543898009,-0.8668445009800908,0.0018325958,0.02443461,0.0018325958,35.306282,-49.163376,25.18996
374388028000.0,1.599162675569083,9.788359805578564,-0.8630636661499925,0.0015271631,0.0061086523,0.01160644,35.52721,-49.62345,25.110844
374393061000.0,1.5917069469312908,9.785473709944611,-0.8592155485160421,0.0125227375,0.006414085,0.009468411,35.744156,-50.081013,25.023388
374398084000.0,1.58426603198044,9.782593348655256,-0.8553750766552567,0.004886922,0.0036651916,0.0061086523,35.961353,-50.52613,24.940027
374403059000.0,1.57689622272691,9.779740512219949,-0.8515713045056633,0.003970624,-0.00061086525,0.008552114,36.1743,-50.96756,24.85658
374408081000.0,1.5694567891447533,9.77686072436505,-0.8477315972221945,-0.0030543262,-0.004581489,0.0021380284,36.385937,-51.401638,24.769453
374413026000.0,1.5621314209520485,9.774025090963525,-0.8439507623920961,-0.0021380284,-0.004276057,0.009468411,36.591015,-51.827366,24.685356
374418060000.0,1.5546742109455616,9.771138421895117,-0.8401018801808293,-0.0033597588,-0.00061086525,0.0009162979,36.79584,-52.24878,24.594995
374423020000.0,1.547326622222444,9.768294186976698,-0.8363095766909834,-0.010995574,-0.005497787,-0.0009162979,36.996803,-52.659683,24.508501
374428072000.0,1.539842747579462,9.76539719608802,-0.8324469320880195,-0.007330383,-0.00061086525,0.008246681,37.18981,-53.065586,24.420128
374433073000.0,1.5324344227398832,9.762529450356768,-0.8286232809281971,-0.02076942,0.01038471,0.0067195175,37.3805,-53.462257,24.327938
374438027000.0,1.5250957222289308,9.759688656045109,-0.8248355649022503,-0.01160644,0.0106901415,0.005497787,37.56753,-53.855995,24.23845
374447998000.0,1.5318878261200088,9.750388253687698,-0.8279937026915086,-0.01160644,0.016187929,0.0012217305,37.746956,-54.239586,24.14532
374453002000.0,1.5373787174264577,9.745374830756967,-0.8306197810015193,-0.00030543262,0.024129177,0.01160644,37.91995,-54.618244,24.055048
374458004000.0,1.5428674141320646,9.740363411592398,-0.8332448097198794,0.016187929,0.03634648,0.004276057,38.081493,-55.013016,23.919756
374463067000.0,1.5484230461633497,9.735290877559969,-0.8359018509835853,0.009773844,0.04062254,0.0061086523,38.23682,-55.395462,23.790289
374468066000.0,1.5539084509676937,9.730282464044636,-0.8385253053144692,0.010995574,0.03634648,-0.002443461,38.3901,-55.780293,23.65671
374474243000.0,1.5606864756679204,9.724093832261438,-0.841766969127606,0.0021380284,0.03726278,0.0033597588,38.53513,-56.15247,23.527132
374478135000.0,1.5649571689062691,9.720194503315316,-0.8438094744798366,0.010079277,0.039095376,0.0061086523,38.679287,-56.524605,23.395994
374483011000.0,1.5703076057588363,9.715309321418786,-0.8463683789242035,0.02107485,0.04642576,0.014049901,38.81688,-56.887405,23.267982
374488007000.0,1.5757897186619174,9.710303913552693,-0.8489902588676115,0.009162978,0.03481932,0.019547688,38.95607,-57.241306,23.1431
374493009000.0,1.5812784153675243,9.705292494388123,-0.8516152875859715,0.013439035,0.017104227,0.027794369,39.090385,-57.592472,23.021894
374498009000.0,1.586764917472289,9.700283078989711,-0.8542392667126809,0.025350908,0.006414085,0.024740042,39.22362,-57.938198,22.900692
374503010000.0,1.5922525168774753,9.695272661708222,-0.8568637706352156,0.032070424,-0.004581489,0.038789943,39.355885,-58.272655,22.789152
374508019000.0,1.5977488946860288,9.690254229362091,-0.8594924729243529,0.038179077,-0.0143553335,0.04062254,39.489666,-58.60671,22.675575
374513004000.0,1.6032189372844794,9.68525984220988,-0.8621085801136822,0.02687807,-0.028710667,0.03726278,39.62387,-58.931107,22.566883
374518004000.0,1.6087054393892444,9.680250426811469,-0.8647325592403915,0.034513887,-0.04153884,0.03634648,39.757015,-59.25367,22.461037
374523012000.0,1.6142007198973771,9.67523299634842,-0.8673607367337036,0.027794369,-0.04917465,0.03359759,39.890472,-59.56679,22.355618
374528039000.0,1.619716849113508,9.670196530106857,-0.8699988853476972,0.01985312,-0.043982297,0.023823744,40.021896,-59.87723,22.248909
374533008000.0,1.6251693349052232,9.665218173083916,-0.8726065958038209,0.013439035,-0.042455133,0.017715093,40.15358,-60.180958,22.144451
374538006000.0,1.6306536424091462,9.660210761451664,-0.8752295253388795,-0.0015271631,-0.043982297,0.02076942,40.281895,-60.476257,22.04054
374544396000.0,1.637665392099036,9.653808728572496,-0.8785829706628141,-0.002443461,-0.038789943,0.01740966,40.40634,-60.770306,21.933435
374548035000.0,1.641658468330884,9.650162876045531,-0.8804927026712331,-0.018020526,-0.035124753,0.016187929,40.52839,-61.0525,21.829033
374553013000.0,1.647120829826388,9.645175502074874,-0.883105136289785,-0.014966198,-0.023823744,0.0061086523,40.645256,-61.335438,21.721174
374558013000.0,1.652607331931153,9.640166086676464,-0.8857291154164944,-0.03176499,-0.020463986,0.00580322,40.759872,-61.604965,21.61713
374563055000.0,1.658139920653598,9.635114592188708,-0.8883751359678681,-0.024129177,-0.012217305,0.005497787,40.86818,-61.876667,21.51005
374568075000.0,1.663648368766782,9.630085139128704,-0.8910096110110842,-0.028099801,-0.00061086525,0.00061086525,40.97249,-62.139416,21.402279
374573110000.0,1.6691732763862803,9.625040657822504,-0.8936519579916805,-0.022907447,0.011911872,0.0070249503,41.070587,-62.39785,21.29795
374578085000.0,1.6746323459805217,9.620056289501084,-0.8962628172227564,-0.022602014,0.008857546,0.004276057,41.168774,-62.653046,21.191477
374583058000.0,1.6800892209739209,9.615073924945824,-0.8988726268621815,-0.021991149,0.014660766,0.007941248,41.257175,-62.901566,21.087982
374588067000.0,1.6855855987824744,9.610055492599695,-0.9015013291513188,-0.025045475,0.0106901415,0.009773844,41.347454,-63.14584,20.985693
374593074000.0,1.691079781990186,9.605039064019728,-0.9041289818488056,-0.02107485,0.011301007,0.009468411,41.43231,-63.38648,20.884287
374598035000.0,1.696523489378534,9.600068722061424,-0.9067324939383268,-0.01282817,0.014660766,0.005497787,41.51548,-63.623188,20.783827
374602998000.0,1.7019693913677236,9.59509637633696,-0.9093370556194984,-0.0125227375,0.008246681,0.0027488936,41.599113,-63.8545,20.685703
374608013000.0,1.7074723529788027,9.590071932692355,-0.9119689066835878,-0.008857546,-0.002443461,0.0012217305,41.681114,-64.08395,20.588234
374613758000.0,1.7137763438971778,9.58431611439958,-0.9149838587001768,0.00030543262,-0.00061086525,0.003970624,41.75909,-64.30957,20.492052
374618012000.0,1.718444259887912,9.580054103778613,-0.9172163401411813,0.0143553335,0.009468411,0.004276057,41.836033,-64.53313,20.396326
374623030000.0,1.723950513400254,9.575026654484768,-0.9198497655927468,0.014660766,0.011911872,-0.0030543262,41.91303,-64.75268,20.301022
374627987000.0,1.729389831586918,9.570060320058785,-0.9224511784989664,0.018325957,-0.0009162979,-0.004276057,41.989002,-64.969284,20.209185
374633007000.0,1.734898279700102,9.56503086699878,-0.9250856535421824,0.022296581,0.01282817,-0.0012217305,42.054695,-65.18235,20.11572
374638023000.0,1.7404023386116023,9.560005421471091,-0.9277180294020972,0.0070249503,0.021380283,0.0021380284,42.123802,-65.38879,20.0247
374643022000.0,1.7322862270896529,9.560580734270255,-0.927931909754471,0.0015271631,0.03573562,-0.007941248,42.186028,-65.595726,19.930752
374648035000.0,1.712066737086043,9.56611703449538,-0.9260062440996856,0.0033597588,0.044898596,-0.009468411,42.24452,-65.79448,19.841242
374652994000.0,1.692065051283549,9.571593697734237,-0.9241013217015046,-0.009468411,0.05681047,-0.005192355,42.32091,-65.975365,19.779512
374658005000.0,1.6718536281022025,9.57712778918209,-0.9221764243154824,-0.008857546,0.06994407,-0.009468411,42.392857,-66.1572,19.714994
374663018000.0,1.6516341380985926,9.582664089407212,-0.9202507586606968,-0.013744468,0.07391469,-0.013133603,42.461597,-66.33124,19.652391
374668010000.0,1.63149934972875,9.588177197471008,-0.9183331598279242,-0.012217305,0.07727446,-0.01160644,42.524624,-66.502464,19.590008
374673031000.0,1.6112475924360856,9.593722332805209,-0.9164044210980862,-0.00580322,0.06658431,-0.016187929,42.58942,-66.6724,19.526392
374678001000.0,1.5912015391111425,9.599211144319042,-0.914495273221708,-0.0033597588,0.058643065,-0.021380283,42.65047,-66.83818,19.46345
374683431000.0,1.5693001166655802,9.605207974604784,-0.91240942352981,0.0030543262,0.064446285,-0.01740966,42.708466,-67.0009,19.402426
374688013000.0,1.5508190268597672,9.610268283328404,-0.910649319793479,0.005192355,0.063224554,-0.0070249503,42.768974,-67.159485,19.343536
374693008000.0,1.5306721382565294,9.615784704558104,-0.9087305685575616,0.011301007,0.06078109,-0.005497787,42.82667,-67.317345,19.283821
374698018000.0,1.5104647484863147,9.621317691617325,-0.9068060553059208,0.014049901,0.05589417,-0.0021380284,42.8829,-67.46861,19.228529
374702993000.0,1.4903985281057124,9.626812025074331,-0.9048949867576348,0.005497787,0.04917465,0.008857546,42.938152,-67.61349,19.176826
374708024000.0,1.4701064367017302,9.632368204294876,-0.9029624066839812,0.009468411,0.043982297,0.020463986,42.992474,-67.75628,19.127167
374712998000.0,1.4500442497322596,9.63786143336325,-0.9010517222700768,0.015577064,0.03756821,0.025350908,43.047256,-67.89387,19.079836
374718003000.0,1.429857027017704,9.643388898479296,-0.8991291296903438,0.023518313,0.038789943,0.020463986,43.0996,-68.02871,19.033484
374723026000.0,1.409597202902776,9.648936242590764,-0.8971996226917427,0.01160644,0.023823744,0.03145956,43.155865,-68.153366,18.99479
374728023000.0,1.3894422474772747,9.654454872597732,-0.8952801031870622,0.012217305,0.023518313,0.03359759,43.20666,-68.28125,18.951954
374733017000.0,1.3692993922851686,9.659970189438798,-0.8933617360855265,-0.0036651916,0.022602014,0.022296581,43.260677,-68.40296,18.909773
374738005000.0,1.349180737559853,9.665478879948056,-0.8914456737902801,-0.014660766,0.010079277,0.02443461,43.31587,-68.51867,18.873102
374743003000.0,1.3290217487232197,9.67099861434366,-0.8895257701512181,-0.010995574,0.011911872,0.019242255,43.366615,-68.636154,18.831043
374748020000.0,1.3087861250750827,9.67653933212332,-0.8875985679589063,-0.025045475,0.021991149,0.015271631,43.417015,-68.74633,18.790699
374753116000.0,1.288231861947535,9.682167296605114,-0.885641019150451,-0.01863139,0.029932396,0.013133603,43.466263,-68.85791,18.749998
374758016000.0,1.268468147401816,9.687578800914528,-0.8837587606807823,-0.021991149,0.036957346,0.015271631,43.511425,-68.96378,18.709534
374762998000.0,1.2483736931432912,9.69308086509198,-0.8818450031918253,-0.030543262,0.0421497,0.01740966,43.553577,-69.06789,18.6688
374768005000.0,1.228178403606472,9.698610538985294,-0.8799216423433293,-0.03756821,0.04886922,0.014660766,43.592056,-69.17004,18.62752
374773024000.0,1.2079347131360714,9.704153465542223,-0.8779936718822544,-0.044593163,0.0693332,0.025350908,43.62292,-69.264786,18.590391
374778095000.0,1.1874812852868182,9.709753820308151,-0.8760457264333381,-0.053145275,0.07452556,0.02443461,43.6559,-69.35992,18.550266
374783011000.0,1.1676530361629909,9.71518299483572,-0.8741573218135645,-0.06291912,0.07971791,0.018936822,43.68142,-69.45033,18.51156
374788005000.0,1.1475101809708843,9.720698311676786,-0.8722389547120287,-0.077579886,0.081855945,0.015882496,43.705235,-69.53669,18.473835
374793004000.0,1.1273471587231194,9.726219150461024,-0.8703186669385852,-0.08155051,0.08735373,0.016798794,43.72562,-69.62157,18.435974
374799102000.0,1.102751417641529,9.73295371235466,-0.8679762154798016,-0.09590584,0.08735373,0.018325957,43.746235,-69.7022,18.398247
374803036000.0,1.0868839782491089,9.737298377243077,-0.8664650308227249,-0.093767814,0.08582657,0.01863139,43.764816,-69.782555,18.360954
374808083000.0,1.0665273522670184,9.742872226681776,-0.8645263045989662,-0.09132435,0.08246681,0.022296581,43.782917,-69.85824,18.325783
374813027000.0,1.0465861676315011,9.748332324091113,-0.8626271442165087,-0.08857546,0.07452556,0.033292156,43.801727,-69.9305,18.293684
374818019000.0,1.0264513792616583,9.753845432154908,-0.860709545383736,-0.08460484,0.064446285,0.040927973,43.82137,-70.00142,18.262526
374823027000.0,1.0062520563137074,9.75937621043686,-0.8587858004008584,-0.07849618,0.04734206,0.042760566,43.844482,-70.06993,18.233988
374828091000.0,0.9858268623423768,9.764968834482344,-0.856840543892613,-0.06658431,0.030848695,0.044898596,43.86928,-70.1359,18.208563
374833095000.0,0.9656436730389528,9.770495195209756,-0.8549183354472617,-0.06291912,0.024129177,0.040011674,43.89568,-70.20145,18.182405
374838057000.0,0.9456298870030636,9.775975171614514,-0.853012260645936,-0.04642576,0.020158553,0.03359759,43.925262,-70.268036,18.15737
374843012000.0,0.9251020870250916,9.773800973761253,-0.8669812135288396,-0.043676864,0.010995574,0.025961773,43.957787,-70.33355,18.131481
374848021000.0,0.9040483489094636,9.767341298611008,-0.8899489268556894,-0.04184427,0.0125227375,0.0143553335,43.98783,-70.40191,18.102825
374853071000.0,0.8828222803361113,9.760828749298025,-0.9131046370374803,-0.046731193,-0.004276057,0.004886922,44.01237,-70.56458,17.973211
374857903000.0,0.8625125054160245,9.754597335777165,-0.9352607541856812,-0.053450707,-0.02321288,-0.004276057,44.037243,-70.72697,17.842953
374862919000.0,0.8414293450271265,9.74812863333084,-0.9582605645365452,-0.04886922,-0.040927973,-0.016798794,44.06692,-70.890175,17.712166
374868411000.0,0.818345470055869,9.741046074751251,-0.983442972520386,-0.062308256,-0.04153884,-0.0290161,44.09709,-71.049904,17.581436
374872956000.0,0.7992420083398519,9.735184780369568,-1.004283111683998,-0.074830994,-0.05497787,-0.03359759,44.136105,-71.208305,17.452911
374877896000.0,0.7784782897750281,9.72881408856637,-1.0269344400598488,-0.0852157,-0.07696902,-0.034208454,44.17771,-71.36458,17.32483
374882920000.0,0.7573615039309644,9.722335069210244,-1.0499709327238722,-0.10629055,-0.09590584,-0.026267206,44.22181,-71.514336,17.20066
374887904000.0,0.7364128453627291,9.715907634403132,-1.0728240138220992,-0.121256754,-0.12339478,-0.0106901415,44.274277,-71.65879,17.081898
374892928000.0,0.7152960595186654,9.709428615047006,-1.0958605064861224,-0.11484267,-0.13836098,-0.00030543262,44.328026,-71.79971,16.96637
374897940000.0,0.6942297118573502,9.702965071055583,-1.1188419756804069,-0.12461651,-0.14935656,0.018020526,44.387424,-71.928505,16.86041
374902921000.0,0.6732936628348021,9.696541505089648,-1.1416813009111992,-0.14263703,-0.15974127,0.025961773,44.4505,-72.05455,16.7569
374907917000.0,0.6522945660838184,9.690098594917831,-1.1645894054791652,-0.14019357,-0.1685988,0.03756821,44.51505,-72.17338,16.661781
374912905000.0,0.6313290947880004,9.68366600165582,-1.1874608277339718,-0.13500121,-0.16340645,0.04520403,44.577797,-72.28731,16.569427
374918070000.0,0.609619660296641,9.67700514676442,-1.211143846167427,-0.14019357,-0.15974127,0.053450707,44.64261,-72.39499,16.482527
374923061000.0,0.5886415794551358,9.67056868466123,-1.2340290242896683,-0.13439035,-0.15424347,0.0580322,44.70461,-72.5011,16.39811
374928082000.0,0.5675374031567593,9.66409353414628,-1.2570517610862573,-0.13805555,-0.13988814,0.06841691,44.76187,-72.599945,16.318829
374933060000.0,0.5466139636798983,9.65767383702152,-1.2798773304496147,-0.1337795,-0.12461651,0.06383542,44.816998,-72.70096,16.237871
374938230000.0,0.5248835132790604,9.651006534061494,-1.3035832753287948,-0.12522738,-0.11026118,0.063224554,44.86717,-72.79628,16.161997
374943026000.0,0.5047250529072194,9.644821546634748,-1.325574322067779,-0.13683382,-0.103847094,0.058948494,44.91493,-72.890396,16.084982
374948119000.0,0.4833182475123513,9.638253543931572,-1.348927199682801,-0.1459968,-0.102319926,0.050396383,44.959564,-72.98504,16.007704
374953083000.0,0.4624536525820303,9.631851901398967,-1.3716885749981298,-0.14752395,-0.12095132,0.03848451,45.008083,-73.07954,15.930059
374958057000.0,0.4415470258327523,9.625437362729109,-1.3944958032049075,-0.14110987,-0.13439035,0.024129177,45.054512,-73.17508,15.8505125
374963074000.0,0.4204596622619585,9.61896737066906,-1.4175001988449163,-0.15271631,-0.1685988,0.0070249503,45.112576,-73.27091,15.769354
374968015000.0,0.399691740515239,9.61259538925214,-1.4401561125099125,-0.14294247,-0.18906279,-0.015271631,45.170593,-73.372795,15.684079
374973078000.0,0.3784110305772424,9.606066074960724,-1.4633714314505872,-0.13561209,-0.1881465,-0.01282817,45.231617,-73.46938,15.602862
374978075000.0,0.357407730644363,9.599621875175185,-1.486284121307698,-0.14660765,-0.17012598,-0.01038471,45.29361,-73.56923,15.516973
374983068000.0,0.3364212434390663,9.593182833844542,-1.5091784700082291,-0.16523905,-0.12705997,0.017715093,45.346474,-73.6595,15.439939
374988074000.0,0.3153801148691254,9.586727027535474,-1.5321324274676442,-0.17531833,-0.083383106,0.03481932,45.39348,-73.74998,15.361502
374993024000.0,0.2945743644853444,9.580343439595024,-1.5548296087349445,-0.20433442,-0.064751714,0.06383542,45.433605,-73.82448,15.295395
374998090000.0,0.2732810450016608,9.573810256462432,-1.578058683543054,-0.22876903,-0.03940081,0.081855945,45.458374,-73.89529,15.231015
375003088000.0,0.2522735418868856,9.567364767063166,-1.6009759586893095,-0.23487769,-0.019547688,0.1001819,45.47822,-73.95586,15.175802
375008530000.0,0.2293998260104137,9.560346689169847,-1.6259291022159048,-0.22785273,0.009468411,0.12003502,45.48723,-74.00894,15.126333
375013075000.0,0.2102963642943967,9.55448539478816,-1.6467692413795167,-0.22785273,0.035430185,0.13836098,45.490757,-74.055244,15.0821705
375018022000.0,0.1895032234563028,9.548105675688886,-1.669452666779382,-0.21868975,0.045814894,0.15271631,45.48989,-74.09781,15.04305
375023050000.0,0.1683696248846562,9.54162149787786,-1.692507500599985,-0.20830505,0.06780604,0.1563815,45.477806,-74.1376,15.005897
375028092000.0,0.1471771817664696,9.535119265474677,-1.7156265284686167,-0.19730948,0.10293079,0.15424347,45.45862,-74.17524,14.971256
375033075000.0,0.1262327263801301,9.52869312028129,-1.7384750242776987,-0.1826487,0.12034045,0.14905111,45.438297,-74.213264,14.93736
375038073000.0,0.105225223265355,9.522247630882024,-1.7613922994239546,-0.17073683,0.1337795,0.13316862,45.409317,-74.254776,14.899695
375043008000.0,0.0301891304945915,9.514823459766072,-1.7310050391962009,-0.15027285,0.1432479,0.10170906,45.377167,-74.303246,14.856492
375048103000.0,-0.0942520859709788,9.50624158174303,-1.6537656726057517,-0.13744467,0.13072516,0.07788532,45.347996,-74.35346,14.811965
375052954000.0,-0.1620037496797715,9.501099995414569,-1.5902559786589492,-0.12858713,0.112704635,0.042455133,45.359722,-74.53138,14.671271
375058085000.0,-0.0807401920423964,9.504793482297226,-1.5533179856423365,-0.12705997,0.081855945,0.003970624,45.378925,-74.71364,14.52589
375063059000.0,-0.0019631630639705,9.508373954671878,-1.5175102333007593,-0.1151481,0.03573562,-0.03390302,45.405952,-74.93278,14.339899
375068006000.0,0.1210624832791497,9.516525140903408,-1.517070623140044,-0.099571034,-0.008246681,-0.0693332,45.441715,-75.15807,14.1475315
375073082000.0,0.2768210586214442,9.527922339715536,-1.5398645844091905,-0.08368854,-0.04520403,-0.09682214,45.488945,-75.388306,13.950845
375078014000.0,0.4320498553865204,9.539061589421546,-1.5628914927560589,-0.071776666,-0.06719518,-0.10903945,45.561638,-75.603836,13.770706
375083075000.0,0.6764058219529454,9.551922241287812,-1.605760973925349,-0.061391957,-0.070554934,-0.09040806,45.638424,-75.81502,13.595248
375087929000.0,0.910767383247833,9.564256879532993,-1.6468770501149832,-0.06872234,-0.05131268,-0.057421334,45.750374,-75.989296,13.462882
375093007000.0,1.0706526355076356,9.56148601074361,-1.6883805305809223,-0.07513642,-0.017104227,-0.036651913,45.856335,-76.15807,13.334654
375097986000.0,1.2023835412631416,9.554167862711994,-1.72863160564807,-0.087964594,0.014660766,0.018020526,45.95384,-76.302956,13.22757
375103012000.0,1.3183920882458289,9.544892189367518,-1.7692980825902536,-0.099571034,0.041233405,0.056199603,46.09938,-76.398026,13.178458
375108035000.0,1.3546663960222451,9.52675465670657,-1.8101067261853143,-0.11362094,0.05131268,0.09162979,46.23499,-76.473816,13.144471
375113141000.0,1.3774999832639525,9.504064673040288,-1.8521265836943483,-0.098043874,0.0720821,0.110872045,46.43342,-76.523506,13.146775
375118027000.0,1.2421381330840329,9.434732977704083,-1.8983477024271505,-0.07971791,0.07788532,0.12156218,46.623848,-76.561066,13.155571
375124040000.0,1.0755538504127566,9.349409301065403,-1.95523013937769,-0.05467244,0.0888809,0.13133603,46.90117,-76.61937,13.154191
375128041000.0,0.9791257072018388,9.291793838709676,-1.985948932594599,-0.020463986,0.087659165,0.13194689,47.163284,-76.67235,13.151217
375133066000.0,0.9040747605138308,9.216743032258064,-2.001749119740622,0.030543262,0.1001819,0.13255776,47.40233,-76.71826,13.148995
375137966000.0,0.8308907527981614,9.143559161290325,-2.017156267405401,0.058337633,0.11636983,0.12583824,47.73225,-76.84932,13.065757
375142999000.0,0.7596020060832335,9.081874881144032,-1.991892152663127,0.09590584,0.14294247,0.11728613,48.031654,-76.969795,12.982499
375148004000.0,0.6898261601935263,9.024412098133242,-1.9549520125706457,0.129198,0.16065755,0.10476339,48.307407,-77.08119,12.897206
375152983000.0,0.6316004726868163,8.920018217689597,-1.914892572686816,0.13836098,0.17959438,0.09162979,48.745453,-77.29678,12.701244
375158070000.0,0.5864333741609494,8.752900410624884,-1.8697254741609493,0.14630222,0.1957823,0.06780604,49.13561,-102.5073,12.50433
375162932000.0,0.5517482553925299,8.570635579781536,-1.802608117653277,0.16218472,0.22235495,0.04184427,49.72809,-102.17671,12.138038
375168026000.0,0.5379965159675828,8.319666405278365,-1.6685287605708246,0.1563815,0.25503623,0.021991149,50.237194,-101.89267,11.784755
375173053000.0,0.524425649440451,8.071998160239605,-1.536212912896406,0.15607607,0.26725355,0.0033597588,50.759552,-101.55819,11.328714
375178020000.0,0.527942842205493,7.892393124743547,-1.4112749265469888,0.14782938,0.27458394,-0.020158553,51.210167,-101.27598,10.891142
375183073000.0,0.5519625084513567,7.788308054831238,-1.2911766789212442,0.1518,0.28710666,-0.019547688,51.602566,-101.049576,10.479987
375188241000.0,0.5769323394542647,7.680880221383216,-1.167655557731251,0.15210545,0.29535335,-0.019242255,51.968803,-100.82963,10.043166
375194578000.0,0.6133848253990046,7.535069951347177,-1.0062229568474343,0.15332718,0.28771752,-0.024740042,52.30022,-100.653755,9.625547
375197981000.0,0.6329599886734169,7.45676912304788,-0.919532860459928,0.14263703,0.26145032,-0.018020526,52.576042,-100.52535,9.267047
375203139000.0,0.6478657523233042,7.344278599287875,-0.806429529321702,0.13591751,0.21655174,-0.01863139,52.836906,-100.42306,8.919188
375208041000.0,0.6562235445077443,7.239806873330959,-0.706136503097739,0.12339478,0.15332718,-0.011301007,53.09094,-100.347534,8.588361
375213068000.0,0.6724348788436608,7.120550931838216,-0.6415269054809438,0.082161374,0.118507855,-0.017104227,53.306343,-100.28172,8.299498
375218015000.0,0.6970013448016593,6.989529609048484,-0.6210548248638839,0.04917465,0.04062254,-0.020463986,53.53933,-100.23216,8.019706
375222987000.0,0.7043121691669721,6.850069978262463,-0.608796882582478,0.028710667,-0.036957346,-0.027488936,53.751225,-100.17978,7.7645125
375228071000.0,0.6016879810987903,6.658207310080646,-0.6489541741733871,-0.01740966,-0.10995574,-0.020463986,53.975315,-100.12776,7.516698
375233404000.0,0.4927543518436819,6.4643445,-0.6915748211601308,-0.0571159,-0.19028452,-0.005192355,54.204803,-100.0862,7.288715
375238070000.0,0.3680198365509259,6.4643445,-0.7402517034722222,-0.11026118,-0.26175576,0.022602014,54.445217,-100.042366,7.069298
375242936000.0,0.2379387925272331,6.4643445,-0.7910150359477125,-0.15302174,-0.32620203,0.038179077,54.721985,-99.997894,6.8134985
375248217000.0,0.0912814805794645,6.4677301335564215,-0.8508324328193833,-0.20066923,-0.37110063,0.044593163,55.003235,-99.95044,6.567815
375253049000.0,-0.120414301352084,6.51869393836835,-0.9723614900881056,-0.23915374,-0.3830125,0.03145956,55.282692,-99.89934,6.3261027
375257938000.0,-0.3346073224330735,6.570258930447306,-1.0953241475770925,-0.26083946,-0.36926803,0.0018325958,55.60548,-99.8395,5.9954123
375262981000.0,-0.7190371617973974,6.674687938866921,-1.2932572503343158,-0.2452624,-0.33964106,-0.032986723,55.91066,-99.78454,5.672301
375268037000.0,-1.1924835317966784,6.806974440211373,-1.5299804498741822,-0.20799962,-0.28221974,-0.0852157,56.1881,-99.729706,5.349681
375273007000.0,-1.6578768187619528,6.937010815148465,-1.7626771076497232,-0.14446963,-0.20708331,-0.14294247,56.44074,-99.68251,5.002903
375278089000.0,-1.9451186976225416,7.053505201418648,-1.8916062699246647,-0.04520403,-0.10903945,-0.24404067,56.655186,-99.65005,4.6458516
375282932000.0,-2.1946956733783387,7.162411624938851,-2.0005125512963504,0.049785517,0.014966198,-0.3399465,56.828777,-99.63693,4.2916856
375288083000.0,-2.3022808456348502,7.30161485178856,-2.017099848804675,0.1554652,0.15607607,-0.43676865,56.92155,-99.62114,3.9041212
375292932000.0,-2.37218037850186,7.437301970674694,-2.012988116628298,0.23732115,0.3390302,-0.5290093,56.960037,-99.63102,3.508528
375298072000.0,-2.224553054740348,7.586783358060152,-1.8554088548444168,0.29901853,0.5039638,-0.61361414,56.943783,-99.65361,3.1002276
375303063000.0,-1.921122017972734,7.7360118168383805,-1.5917720702882714,0.34666604,0.6032294,-0.68630713,56.889984,-99.70788,2.683707
375308013000.0,-1.5355061010335918,7.919291013658176,-1.367312739534884,0.33964106,0.6224717,-0.74128497,56.808033,-99.766174,2.2464218
375313013000.0,-1.102446346511628,8.122563900332226,-1.1596208790697675,0.31887165,0.6249151,-0.76052725,56.701748,-99.85296,1.8133131
375317960000.0,-0.6673121838380157,8.326228975817923,-1.0066264813122332,0.3005457,0.593761,-0.786489,56.651875,-99.955284,1.3671563
375323028000.0,-0.2142359170421408,8.537664782361308,-0.9073811818100996,0.3036,0.54825157,-0.7699956,56.606693,-100.07491,0.9437613
375327990000.0,0.2352388176160695,8.736226658575365,-0.8331822,0.29993483,0.4792238,-0.7483099,56.600975,-100.19513,0.56322306
375333607000.0,0.7655273259020563,8.930095323722705,-0.8331822,0.31031954,0.4196644,-0.6942484,56.606674,-100.32733,0.21083134
375337945000.0,1.1383827214956952,9.110815999662371,-0.8395724873242923,0.3381139,0.38026363,-0.6750061,56.618816,-100.45884,-0.06499609
375343019000.0,1.507524373130381,9.378785500422037,-0.8587131708446345,0.36896262,0.32803464,-0.6291912,56.653385,-100.59391,-0.31143937
375348024000.0,1.8716461639131168,9.643110953969952,-0.877593565211862,0.39645153,0.25870144,-0.56779927,56.638195,-100.717285,-0.46524003
375352903000.0,2.226601252270553,9.900782060435542,-0.8959986489516628,0.40958515,0.16920967,-0.49632803,56.646477,-100.84296,-0.60242516
375357909000.0,2.4069289136692174,10.30015882940051,-0.892306352727466,0.40500367,0.054061573,-0.42119157,56.68461,-100.9679,-0.7222996
375362847000.0,2.532593980378401,10.732446402742347,-0.8822531242963435,0.37904188,-0.053145275,-0.3231477,56.749893,-101.08561,-0.8166501
375367908000.0,2.512111668228404,11.14059712408492,-0.9674012040629576,0.33658674,-0.14477506,-0.22082779,56.79381,-101.187195,-0.7925782
375372882000.0,2.472880790775988,11.537265431185943,-1.063298995534407,0.310625,-0.19150625,-0.11056661,56.8606,-101.281166,-0.7423684
375377908000.0,2.2615257885135844,11.819024367145705,-1.1559496300220289,0.29016098,-0.21288654,-0.004581489,56.94598,-101.345894,-0.65621626
375382845000.0,1.9837833642295184,12.0471699059058,-1.2452239825343543,0.30085114,-0.22449298,0.069027774,57.045036,-101.4096,-0.5524581
375387922000.0,1.6483333572753995,12.056498576795883,-1.2393150050891053,0.31429017,-0.2452624,0.1133155,57.156883,-101.47303,-0.44302928
375392840000.0,1.310863097657542,12.008906558607386,-1.2090292328311592,0.35888332,-0.27305678,0.13469578,57.27541,-101.54702,-0.32404467
375397926000.0,0.9509306718175516,11.77210685003962,-1.182165576020206,0.42485678,-0.29993483,0.13744467,57.407207,-101.634476,-0.24978766
375403015000.0,0.5840562288767829,11.419714770602218,-1.1580290680071317,0.49632803,-0.30757064,0.12644911,57.53963,-101.73413,-0.17680825
375407947000.0,0.2744083364684091,10.976004529944433,-1.0977180634492694,0.58062744,-0.30176744,0.12064589,57.692226,-101.84207,-0.16883567
375412957000.0,-0.0119498234513274,10.46253417699115,-1.0137855097345132,0.61269784,-0.28893927,0.093462385,57.839813,-101.9522,-0.1706252
375417941000.0,-0.1971914989815216,10.027876963563806,-0.9390961673202048,0.6789767,-0.28955013,0.06811147,58.009678,-102.10196,-0.24051896
375422966000.0,-0.3349614274538041,9.627091908909517,-0.8681237683005119,0.73456544,-0.28496864,0.053450707,58.169174,-102.25295,-0.31189525
375427962000.0,-0.4531414323487093,9.241172912399492,-0.7712916028438426,0.76052725,-0.2932153,0.044898596,58.33579,-102.41686,-0.44504938
375432948000.0,-0.5390226659119763,8.877440730850614,-0.6298401965636902,0.7910705,-0.31795537,0.04520403,58.500675,-102.591965,-0.5759568
375437974000.0,-0.6131627573100783,8.547485748988581,-0.5885719694327071,0.7812967,-0.36254853,0.047036625,58.67938,-102.76585,-0.74214303
375442977000.0,-0.6734682977020587,8.258880387170727,-0.657492601159759,0.7467828,-0.41508293,0.03023783,58.86073,-102.934875,-0.9096504
375447958000.0,-0.7602909640306122,7.970346096683673,-0.7556589199489796,0.6994407,-0.46273044,0.002443461,59.056362,-103.08569,-1.1014717
375452986000.0,-0.9273495989285714,7.675536756071429,-0.9423714937857144,0.6398814,-0.5131268,-0.05100725,59.259552,-103.218414,-1.3028034
375457957000.0,-1.1189263180434554,7.394854681956545,-1.1241102595990344,0.5928447,-0.5833763,-0.12889257,59.475677,-103.36749,-1.5254282
375462967000.0,-1.3757720375774116,7.138008962422589,-1.3003769102760576,0.5290093,-0.6737844,-0.22082779,59.701714,-103.49208,-1.7652053
375467932000.0,-1.632199421904762,6.917912688888889,-1.5749133744444443,0.45448375,-0.7467828,-0.32436943,59.93003,-103.64658,-2.0469666
375472975000.0,-1.895718385119048,6.750218930555556,-2.0157086965277777,0.39492437,-0.7467828,-0.41050145,60.1524,-103.78631,-2.342432
375477985000.0,-2.163423237711989,6.559590784726987,-2.469361812783061,0.34300083,-0.6979135,-0.48716503,60.367664,-103.950615,-2.691565
375482978000.0,-2.4399846805215173,6.329904268091363,-2.947484904626997,0.2947425,-0.6203337,-0.5564982,60.564327,-104.10124,-3.050143
375487901000.0,-2.63111676328226,6.080865861214694,-3.336407691895883,0.23548855,-0.52290064,-0.6203337,60.705784,-104.299545,-3.4057171
375492971000.0,-2.65352509630792,5.7761121576887575,-3.5604912093409635,0.14782938,-0.4370741,-0.6554584,60.822815,-104.480194,-3.7608254
375497966000.0,-2.63971535616808,5.514312502929839,-3.7276575349460295,0.048258353,-0.37201694,-0.6640105,60.882587,-104.72153,-4.109454
375503052000.0,-2.442556389707016,5.443898656360833,-3.624383795277564,-0.04917465,-0.35124752,-0.6591236,60.92725,-104.944176,-4.457284
375508061000.0,-2.250129407927718,5.384468178344505,-3.530003622733897,-0.12095132,-0.3323107,-0.6441574,60.928158,-105.20302,-4.7846866
375513010000.0,-2.074001767808219,5.405188996575342,-3.4954688054794523,-0.17379116,-0.35705075,-0.6246097,60.93462,-105.44287,-5.108423
375518955000.0,-1.8624279507723696,5.430079937044593,-3.4539837603031187,-0.226631,-0.42058071,-0.5919284,60.948715,-105.651375,-5.400571
375523015000.0,-1.7171753410926365,5.466620024148852,-3.468441872763262,-0.24587326,-0.464563,-0.54305923,60.965622,-105.85297,-5.679879
375528029000.0,-1.5365846977434678,5.54265824722882,-3.5539848613222484,-0.27885997,-0.5177083,-0.4822781,61.004807,-106.03373,-5.948836
375532945000.0,-1.391317687520057,5.631244241041184,-3.62005348878588,-0.27183503,-0.5525276,-0.41538838,61.052597,-106.21011,-6.171834
375538021000.0,-1.308983410964521,5.752579102513817,-3.650387136280977,-0.25289822,-0.591623,-0.3173445,61.12177,-106.36989,-6.3698277
375542999000.0,-1.2331932896190874,5.874294862285475,-3.6828093449141903,-0.21899518,-0.62949663,-0.20647246,61.19359,-106.54002,-6.517556
375548046000.0,-1.207903362034324,6.026034427794056,-3.743505171117623,-0.14355333,-0.65179324,-0.0888809,61.27788,-106.7109,-6.634809
375553003000.0,-1.2150815417078735,6.15398362305059,-3.800520544351465,-0.05131268,-0.6398814,0.03390302,61.36869,-106.88309,-6.707345
375558021000.0,-1.3704559714720426,6.185972657284139,-3.846218987447698,0.06566802,-0.6249151,0.14538592,61.47012,-107.06495,-6.7499986
375563045000.0,-1.5138621327252826,6.225522242977015,-3.886366768186793,0.22266038,-0.627664,0.24098633,61.58518,-107.27793,-6.762151
375568007000.0,-1.5225305168186791,6.346879439255746,-3.864695807953302,0.40439278,-0.64568454,0.31306845,61.7035,-107.51321,-6.749904
375573054000.0,-1.5313473919737322,6.470315507296607,-3.842653620065669,0.6084218,-0.6826419,0.39553526,61.839996,-107.79082,-6.7358394
375577998000.0,-1.505037188630491,6.553574330287929,-3.672895453266888,0.8167268,-0.7620544,0.4654793,61.994915,-108.10567,-6.7114253
375583549000.0,-1.4706955757105944,6.641881642303433,-3.461939626135105,1.024421,-0.8881981,0.52381694,62.1753,-108.46102,-6.676367
375589049000.0,-1.4136358890340643,6.817609529164722,-3.2323577864675688,1.2012665,-1.0451905,0.5723807,62.39431,-108.847694,-6.64886
375593027000.0,-1.36919292309846,6.956864093887074,-3.0634744540363976,1.3582588,-1.221425,0.6404922,62.65421,-109.26783,-6.6151476
375598032000.0,-1.313529752359024,7.205708186556794,-2.8180618128534496,1.4844025,-1.3866642,0.6939429,62.97032,-109.67819,-6.600215
375603002000.0,-1.2596959956131848,7.870939594861852,-2.387391718734852,1.5748106,-1.464244,0.73884153,63.305542,-110.1033,-6.579345
375607950000.0,-1.2061005371869449,8.533226316852481,-1.9586280113507837,1.6059648,-1.568091,0.7663304,63.703693,-110.47171,-6.582011
375613067000.0,-1.1960835903932043,9.079479502057977,-1.7558063345914705,1.647809,-1.6313156,0.8335256,64.10703,-110.846565,-6.5676956
375618091000.0,-1.208724060627025,9.547177428671512,-1.6757499351169105,1.6548339,-1.6276505,0.8897252,64.50918,-111.206055,-6.5546474
375623027000.0,-1.2283733930498697,10.024900397097134,-1.6159381888723483,1.6358972,-1.5577064,0.93676186,64.9844,-111.41745,-6.554309
375627986000.0,-1.2593037021771494,10.533041947897283,-1.5850078336062523,1.6013832,-1.3729197,0.95325524,65.41708,-111.615326,-6.537478
375633005000.0,-1.2733311960295568,11.024530825615765,-1.503468086729064,1.5714508,-1.0931433,0.9300423,65.825264,-111.75785,-6.5167255
375638029000.0,-1.230668724463054,11.441676267980297,-1.25697337208867,1.5167783,-0.7360926,0.8756753,66.15001,-111.88059,-6.4752007
375642987000.0,-1.108239955355902,11.790916792713192,-0.9168350175121612,1.4514158,-0.310625,0.77304995,66.38855,-111.956955,-6.427879
375648050000.0,-0.6605753158205102,11.896815572322048,-0.1803545009589993,1.3494014,0.11759156,0.6462954,66.51493,-112.01493,-6.365959
375652983000.0,-0.1225587391245523,11.956713557103065,0.6135329958933545,1.1908818,0.5122105,0.5207626,66.57158,-111.993095,-6.303079
375657987000.0,0.8690694943891762,11.827992974930362,1.7529519699562277,0.98990715,0.82558435,0.4361578,66.52368,-111.94369,-6.227868
375663072000.0,1.9023102770548888,11.655958002015945,2.9011002225419222,0.6976081,1.0183123,0.37507126,66.48812,-111.73809,-6.1174517
375668021000.0,3.0141289082928617,11.317200244479062,3.9781745428113258,0.3417791,1.0803152,0.3368922,66.39574,-111.4732,-6.006391
375673312000.0,4.236750772321129,10.937446259993283,5.086326499966409,-0.05222898,1.0638218,0.2773328,66.342094,-110.97951,-5.818122
375677982000.0,5.829196339922741,10.3365237742694,5.409322571346994,-0.46822822,1.0409144,0.18661933,66.26418,-110.397835,-5.645286
375682998000.0,7.539626097329527,9.691078980181391,5.756249400906953,-0.92057395,1.0500773,0.06261369,66.209435,-109.56228,-5.3796964
375688011000.0,8.578518529104217,9.432440915911467,5.599011195451377,-1.3750577,1.108415,-0.067500606,66.13637,-108.63112,-5.1418214
375693004000.0,9.195189705820844,9.415774233182294,5.128174689090275,-1.7699821,1.1753048,-0.22999077,66.04399,-107.61819,-4.9493337
375697996000.0,9.780693576541694,9.485054861176692,4.621819958164132,-2.037541,1.1826351,-0.42119157,65.86252,-106.52434,-4.5283093
375703028000.0,10.30405816772122,9.739910050524127,4.034741569647748,-2.1697934,1.1010846,-0.52106804,65.68488,-105.37507,-4.1378736
375708081000.0,10.834139924787092,10.05468175912147,3.4254997866965486,-2.195755,0.9114109,-0.72295904,65.44061,-104.30889,-3.716155
375713010000.0,11.367327816584492,10.570943584222322,2.7611303267951595,-2.1481075,0.72234815,-0.8915578,65.22232,-103.24156,-3.3294957
375718363000.0,11.946408766041136,11.130693466196837,2.046992747898058,-2.0210476,0.50915617,-1.0088439,64.989075,-102.30923,-2.9006486
375723032000.0,12.452067243464722,11.599710069327214,1.577976450856347,-1.8438967,0.3368922,-1.0140363,64.80316,-101.41951,-2.5080009
375727979000.0,12.987833464885684,12.096652698516758,1.0810341459804969,-1.6566665,0.18051068,-0.8961393,64.59652,-100.702774,-2.0222325
375732991000.0,13.45675465171264,12.457548090936648,0.541317467414368,-1.5015068,0.12980886,-0.6411031,64.42417,-100.03899,-1.518049
375738002000.0,13.859211316762655,12.690294028695565,-0.0308505325047994,-1.3790283,0.2171626,-0.27580565,64.27527,-99.433365,-0.96511376
375743002000.0,14.122955019048431,12.718016007858546,-0.3616494121431622,-1.2672399,0.40622538,0.11362094,64.05529,-99.01543,-0.24184234
375748073000.0,14.276442108225847,12.576974461689588,-0.4985428655846929,-1.1414018,0.67164636,0.5311473,63.81429,-98.6957,0.57519007
375752973000.0,14.351447029027172,12.46357822971344,-0.606955337160345,-1.0549643,1.0067059,0.958753,63.462944,-98.613304,1.5567678
375758127000.0,14.136305647500697,12.436113331818603,-0.6252651862413058,-0.9443977,1.4327844,1.3698653,63.03766,-98.70308,2.634511
375763080000.0,13.699921101543325,12.439861068984753,-0.55973385217553,-0.84207773,1.9416351,1.8154916,62.500267,-99.02643,3.8581483
375768000000.0,10.1910490535701,12.84725820174786,0.6186514323168463,-0.7449502,2.2724187,2.2201898,61.917736,-99.549446,5.1619263
375773010000.0,6.6179903217924885,13.262107721085906,1.818592545184083,-0.7431176,2.3090706,2.4932466,61.300144,-100.221016,6.503891
375777999000.0,4.483116286578171,14.014084634955752,2.0816674113661504,-0.8680395,2.1682663,2.682004,60.659603,-101.04174,7.908215
375783041000.0,2.4800910603244835,14.810843338495577,2.246360520824115,-1.0622946,2.032654,2.8112018,60.02201,-101.97177,9.339765
375788002000.0,0.7154910809352202,15.743519650259294,2.1471364943218774,-1.0891727,1.9327776,2.8900034,59.656067,-102.40864,10.276836
375792978000.0,-0.9809093266238902,16.73203964252439,1.9544589687879053,-0.76174897,1.4065173,2.7629435,59.440235,-102.909744,11.152592
375798205000.0,-2.430901285269409,17.4800169910197,1.2672637255793742,-0.41996986,0.64751714,2.0076087,59.440495,-102.98057,11.483958
375803040000.0,-3.4335703702563727,17.87571874145423,0.1371651832126301,-0.44135013,0.37843102,1.2672399,59.44265,-103.03868,11.770135
375808164000.0,-4.496171485349073,18.295072571697567,-1.0604821655127463,-0.569021,0.077579886,-0.93676186,59.823185,-102.19239,10.901148
375813008000.0,-1.7233217508699914,18.58840028066413,-2.972170802174978,-1.1435398,0.52748215,-3.4058793,60.03122,-101.05999,9.788655
375817983000.0,2.643566247383899,18.848195439039333,-5.249023931540252,-1.9703459,2.5668557,-4.7384815,59.837444,-99.6545,8.452376
375823027000.0,7.071020129432668,19.111593786545768,-7.557455526418331,-2.5674667,5.4605246,-4.7836857,59.20215,-97.97918,6.760537
375827994000.0,10.64003774185336,18.541444267820776,-6.698517620112017,-2.933375,7.5585413,-4.192063,58.20434,-96.18164,4.9848075
375833024000.0,13.200672954684316,16.858880583503055,-1.6557341978105915,-3.0750957,8.192619,-3.2855387,56.837433,-94.52715,3.392801
375838002000.0,15.053591463395572,14.293803129222752,2.427937936673904,-2.90161,6.5781026,-2.4349089,54.969776,-94.01542,2.8688872
375843999000.0,16.355352936170213,9.974549680851066,6.108779929787233,-2.7207937,3.352123,-2.042428,53.42515,-93.57834,2.45749
375848057000.0,17.105922662834292,7.888167532616846,7.678485187953012,-2.7345383,0.14966199,-1.7757853,52.509205,-93.02153,2.4792495
375853019000.0,17.442438698325418,9.06795568707823,5.489147273431642,-2.8658743,-2.1358902,-1.1074986,52.2784,-92.84802,2.6965294
375857976000.0,17.778615640673166,10.24655501832875,3.302015463217529,-2.997821,-3.749491,0.24801129,53.031425,-86.69776,3.286087
375863004000.0,15.289263857154252,10.490755372467698,-0.6259572710958685,-2.699719,-4.629137,1.9657644,54.207764,-85.58173,4.1784472
375867935000.0,11.967291474557346,10.434259279629924,-5.010057142925507,-1.781283,-5.1364603,3.2192597,55.705143,-84.16605,5.340774
375872958000.0,6.887218863178484,9.618250331031785,-9.387878428557457,-0.8246681,-5.39394,3.943746,57.149456,-82.58789,6.8988338
375877989000.0,-3.4227900016625927,6.465875229183375,-13.501516293985327,0.14966199,-4.557971,4.54331,58.397,-80.821465,8.746862
375882946000.0,-11.81296279831697,3.949168858681627,-16.190870776998597,1.1481212,-2.4263568,5.187773,59.1611,-79.568474,10.2893915
375887997000.0,-13.196971274520804,3.772775659485741,-13.404761374006544,2.0286834,0.3585779,5.775731,59.514385,-78.05649,11.932694
375893059000.0,-14.47213699473306,3.5835622664113,-10.466328391165908,2.6426032,2.9923234,6.2167754,59.29558,-103.078354,13.036731
375898009000.0,-14.491052149150107,3.262004364807278,-5.987216763801771,2.780353,3.9745948,6.390567,58.876022,-104.47183,14.238861
375903013000.0,-14.51017365070625,2.936938558822121,-1.4592421005027525,2.6481009,5.094616,6.659042,57.820915,-105.86167,15.447074
375908011000.0,-14.173105678581376,2.28725010314734,2.7792095745241854,2.0576997,5.2418346,6.7033296,56.830288,-107.24501,16.64855
375913934000.0,-13.451620929811533,1.223455492368397,7.545220207348435,1.3182472,3.8634171,6.365216,56.01833,-108.58481,17.806683
375918002000.0,-12.896733482297403,0.4186791731707317,9.85404814757081,0.29810223,3.1923819,6.147137,54.90793,-109.62199,18.95239
375923024000.0,-12.1399327018096,-0.6644927341463415,11.537931217692762,-0.046731193,1.8121318,5.57384,54.39472,-110.459915,19.838203
375927993000.0,-11.372753496756756,-1.614727315837838,12.277834055945943,-0.7620544,0.59650993,4.8774533,53.901913,-111.047554,20.65759
375933007000.0,-10.568125296936936,-2.3717695388468467,11.486184211171173,-1.4544702,-0.27183503,4.117232,53.663082,-111.495415,21.273968
375938010000.0,-9.795414265139785,-3.0263544273534926,10.5307527509577,-2.080607,-0.67347896,3.3194418,53.56287,-111.85298,21.777565
375943007000.0,-9.18303515306871,-3.1472700567690928,8.701415483706903,-2.6710083,-0.6469063,2.5262332,53.544296,-112.06728,22.063282
375948024000.0,-8.56820505395713,-3.2686696390740893,6.864756474341838,-3.1780264,-0.2843578,1.7873917,53.530254,-67.70687,22.270748
375953001000.0,-6.7087379475430495,-1.643257712801344,3.8207686178580422,-3.5506542,0.27366763,1.1643091,53.422268,-67.57529,22.276506
375958015000.0,-4.312874173582529,0.7243717449223008,0.2431068549181017,-3.7403278,0.94897914,0.7107417,53.152306,-67.484566,22.101686
375962998000.0,-2.1659879979376404,2.8176179219235653,-2.4535327993158047,-3.8218784,1.6282613,0.4016439,52.7626,-67.35751,21.870872
375967998000.0,-0.5044855055126578,4.37147380111426,-3.3521480861890334,-3.8304305,2.2968533,0.20341812,52.174095,-67.218216,21.499094
375972996000.0,1.1885065371385084,6.1977575095890405,-4.195655696133942,-3.7797287,2.8185322,0.10567969,51.553356,-67.09218,21.23498
375978005000.0,2.9700492569254187,8.748381479452055,-4.896590606697108,-3.6963456,3.2061262,0.13958271,50.779125,-66.954124,20.91121
375982969000.0,4.754024641286864,11.184478071492403,-5.554068650759607,-3.6187658,3.5408804,0.30604348,49.982346,-66.98062,20.523554
375988006000.0,6.607688655585344,13.440487902889483,-6.133638044384868,-3.5399642,3.857614,0.6203337,49.081207,-66.95549,20.164207
375992930000.0,8.253135251073985,15.337069642800316,-6.496145393794749,-3.4507778,4.0167446,1.0800097,48.313454,-67.228775,19.733892
375998049000.0,9.520653101252984,16.487585763822594,-6.330393334427208,-3.397327,4.2589526,1.3368785,47.42998,-67.43839,19.349789
376002987000.0,10.511153943743167,17.018512765828447,-6.070329923765033,-3.3169982,4.3460007,1.8353447,46.504982,-67.37128,19.345312
376008183000.0,10.926612386840274,16.01448711907365,-5.5262765489513965,-3.2565227,4.273308,2.2165246,45.55027,-67.242645,19.39704
376012956000.0,11.223717934951786,14.909453158264254,-5.109527107942818,-3.1844406,4.013385,2.3273966,44.557518,-66.84281,19.695244
376018002000.0,11.29729640035527,13.221240912789714,-4.90514306515818,-3.093727,3.6960402,2.0384574,43.611855,-66.45475,19.988142
376023038000.0,11.370729050329894,11.536374311876164,-4.701164064075453,-2.973692,3.4532213,1.4700472,42.684425,-65.900986,20.381256
376028103000.0,10.489903917514782,11.489704195211786,-4.6787720662304935,-2.7592783,3.1856623,1.1252137,41.871853,-65.40375,20.759722
376032970000.0,9.554715787922843,11.598131633517497,-4.674254299544441,-2.531731,2.9138272,1.2922854,41.142857,-64.94815,21.126886
376038009000.0,8.191940688538958,11.345042610228257,-4.642439015795049,-2.3738225,2.7669141,1.6178766,40.44652,-64.37651,21.576845
376042927000.0,6.785737180631802,11.027512600982377,-4.606149641818357,-2.2516494,2.5876253,1.8939877,39.83756,-63.818806,22.067598
376048056000.0,5.262773788281036,10.691931905498125,-4.254331767980971,-2.204002,2.2256875,2.1154263,39.430603,-63.37823,22.519861
376053431000.0,3.647547393166225,10.338748036227242,-3.7787112895252033,-2.2247713,1.7146988,2.3044891,39.10626,-62.89355,23.054096
376057998000.0,2.314094992786534,10.128670101187002,-3.4980260865343453,-2.302351,1.1340714,2.4550674,38.877365,-62.423485,23.560347
376063023000.0,0.8719832721940066,9.955429828273983,-3.268599244006616,-2.4254405,0.5815437,2.6032023,38.783424,-61.90686,24.143393
376068011000.0,-0.47037373604346,9.810848504137066,-3.298593256514835,-2.5305092,0.24923302,2.701857,38.546932,-61.272675,24.702297
376073034000.0,-1.7408258786251567,9.690236051817802,-3.563940777559549,-2.5891523,0.07696902,2.785851,38.425594,-60.609997,25.315166
376078000000.0,-3.1371244352777774,9.53465945462963,-3.813446230148148,-2.575408,0.046731193,2.8515189,38.24242,-59.962547,25.84291
376083012000.0,-5.501517336388888,9.130223539814814,-3.977886980074074,-2.4981334,0.20891592,2.92299,38.04931,-59.308083,26.381968
376088381000.0,-7.952513492981776,8.692800876773942,-4.109330592431175,-2.3918428,0.59223384,3.0369165,37.749615,-58.75129,26.793005
376092996000.0,-8.428928943931757,8.233522661962,-3.3312996422954635,-2.2449298,0.8472701,3.1575625,37.436493,-58.204933,27.210745
376097980000.0,-8.943436984567661,7.73752209367972,-2.491059933633191,-2.1615467,1.3674219,3.211013,36.88905,-57.856094,27.333755
376103030000.0,-9.383400868957004,6.941086666447233,-1.2448351620242748,-1.9547688,1.7867808,3.2806518,36.28516,-57.522274,27.468878
376108067000.0,-9.69599277833779,5.690719391596379,0.6108686387265996,-1.7244726,1.9556851,3.313333,35.5997,-57.210457,27.57284
376113046000.0,-9.819294402305871,4.4107333266320525,2.2379952538367567,-1.5079209,1.9071213,3.292869,34.784817,-56.88968,27.584232
376118068000.0,-9.720145083530578,3.066710348194243,3.6297568343513777,-1.2907583,1.743104,3.1972687,33.958252,-56.623516,27.564632
376124333000.0,-9.528586179492022,1.332196960381456,5.382848326739684,-1.0622946,1.4828753,2.889698,33.089046,-56.293884,27.463781
376128061000.0,-8.904949964592578,-0.1341910893966578,6.552587966056086,-0.75319684,1.4242324,2.7546968,32.19757,-55.999313,27.361732
376132965000.0,-8.084587304220564,-2.0631521935039188,8.091322727646116,-0.6753115,1.3710871,2.44621,31.320545,-55.557632,27.20261
376138071000.0,-5.421941590225775,-4.623361819660936,10.09095169339547,-0.57757306,1.4486669,2.0760255,30.444246,-55.21335,26.964388
376143073000.0,-2.077262959316246,-7.356068437610476,12.211685554877068,-0.6105598,1.6691893,1.6722436,29.585587,-54.93421,26.606693
376148056000.0,0.9904207535575992,-9.445226006292351,14.03503766553727,-0.7247916,1.9963076,1.2547172,28.6528,-54.354156,26.30061
376153164000.0,3.2279725921022915,-9.413655385124232,14.911116118909325,-0.88422745,2.3689353,0.84635377,27.708008,-53.830696,25.83645
376157945000.0,5.322282564710391,-9.384105827605678,15.731110458292996,-1.0732902,2.6978865,0.46211955,26.839779,-52.514214,25.917906
376163058000.0,7.18052979629949,-8.539013590435124,16.49133574370835,-1.2733486,2.9382617,0.13775012,25.968887,-51.290737,25.813974
376168163000.0,8.89770266866327,-7.400619802900823,17.208102158055667,-1.464244,3.0091221,-0.089491755,25.13576,-50.131508,25.563189
376173025000.0,10.38372245830942,-6.199098147249323,17.82579278642289,-1.6157386,2.794403,-0.12583824,24.109459,-48.609333,25.527023
376178058000.0,11.296587836599164,-4.464259318520948,18.193310311388046,-1.7284433,2.3261747,0.06994407,23.155277,-47.09196,25.46995
376183005000.0,12.193854879396572,-2.7590640700172173,18.554547981962777,-1.8246545,1.6630806,0.33200526,22.278269,-45.48105,25.620197
376188066000.0,12.546309964074725,-1.2208233826600672,18.49173822193837,-1.8872682,0.93584555,0.6096435,21.506685,-43.87199,25.86161
376193000000.0,12.70851905460642,0.2126547176433018,18.29180526265368,-1.9220876,0.5684101,0.752586,20.791775,-42.280987,26.139286
376198042000.0,12.642090535661154,1.6926292394679268,17.627130724249586,-1.9172006,-0.05467244,1.0375546,20.255892,-40.76322,26.688507
376203837000.0,11.763026512733,3.4459006828038854,15.271627788658442,-1.87444,-0.45631635,1.3695599,19.707258,-39.271828,27.26328
376208412000.0,11.071004515761825,4.75913648347198,13.469701411996498,-1.7803668,-0.623388,1.6960673,19.2388,-37.958843,27.90195
376213062000.0,10.411341074430824,4.525167071256568,12.914024376094572,-1.6743816,-0.57910025,1.9339994,18.749657,-36.66379,28.588163
376217930000.0,9.720751476065384,4.280228770468477,12.33229624474606,-1.6493362,-0.33841935,2.0305161,18.336178,-35.682323,29.224648
376223032000.0,8.916674178551986,3.9525787636998735,11.745445423879517,-1.65911,0.007330383,1.9905044,17.861618,-34.72433,29.821716
376228082000.0,7.837263481763745,3.3777706004808565,11.24523059898385,-1.7244726,0.40042216,1.844813,17.324986,-33.78496,30.329382
376233372000.0,6.7550118015267175,2.8024431127589966,10.744947615049073,-1.8493946,0.743423,1.6249015,16.765718,-32.907345,30.673412
376238170000.0,6.263948099745547,2.55190051739731,10.531151107015631,-1.9956968,1.0128145,1.426065,16.175076,-32.050453,30.908054
376242932000.0,5.776568910941476,2.3032377747728097,10.318958741185025,-2.1374176,1.1640037,1.2437216,15.59202,-31.211966,30.96195
376247993000.0,5.268776250449008,2.1190833904152218,10.231176583533388,-2.2586741,1.1817188,1.0684034,15.042167,-30.392233,30.941603
376253082000.0,4.787782630568152,2.166749406881835,10.543172508668976,-2.3863451,0.98990715,0.91324353,14.558872,-29.580221,30.899237
376258281000.0,4.318658944329896,2.214637122658478,10.824900331432332,-2.5094345,0.6762278,0.81031275,14.134894,-28.76808,30.803284
376263068000.0,4.1778783738831615,2.248156237764129,10.600321885720552,-2.6340508,0.33322698,0.7910705,13.782573,-27.950172,30.742191
376267932000.0,4.034833315463917,2.2822145155735907,10.372131043869269,-2.7324002,0.031154128,0.84849185,13.507707,-27.134592,30.648941
376273862000.0,3.476657388667776,2.16169771075331,9.705883193081988,-2.796541,-0.20769419,0.9642508,13.279577,-26.30578,30.623064
376278066000.0,2.63467178704682,1.887833897221217,8.78232128200304,-2.7962356,-0.36102137,1.1368202,13.062385,-25.466166,30.659792
376283068000.0,1.6328611354511904,1.5619854682755627,7.683449569534699,-2.7296515,-0.4288274,1.3109168,12.841939,-24.645884,30.735914
376288067000.0,0.7462409943966625,1.3349871289473685,7.066380503401797,-2.5653286,-0.42913285,1.5088371,12.582288,-23.835121,30.85154
376293067000.0,-0.0374835603209242,1.196682852631579,6.88197473478819,-2.2983804,-0.35002577,1.6239853,12.297939,-23.068096,30.966679
376298306000.0,-0.864143715001532,1.012865470912062,6.713717399142069,-2.130698,-0.22449298,2.01219,11.915878,-22.33047,31.061659
376303052000.0,-1.671881955240527,0.4279515331937494,6.829771665304872,-1.591304,-0.03359759,2.1520782,11.5576935,-21.781776,31.092154
376308032000.0,-2.504440195339521,-0.2297338809281875,6.988305910405471,-1.400714,0.22632557,2.3900104,11.127787,-21.276787,30.997105
376313069000.0,-3.1407060135417684,-1.4975523912652662,7.652849845236932,-1.0360274,0.6133087,2.5057693,10.664114,-20.952301,30.817217
376318364000.0,-3.739298558196117,-2.822791711804702,8.44264374211518,-0.7275405,1.14018,2.3377812,10.180831,-20.659939,30.422094
376323014000.0,-3.582431053895306,-3.91356849971328,10.022264017367084,-0.4334089,1.7669277,1.8894062,9.712389,-20.487825,29.881826
376328056000.0,-3.4123394503072007,-5.096298943720816,11.73504798033915,-0.18936823,2.392759,1.2797627,9.18642,-20.217646,29.077414
376332985000.0,-2.395360621648342,-6.086682789244099,13.449802398864655,0.070554934,2.8350255,0.6719518,8.78272,-20.098415,28.110004
376338074000.0,-0.7062601997305054,-6.984624244716662,15.250538536201573,0.40011674,2.9804115,0.19486602,8.523514,-20.12794,27.009947
376343706000.0,1.4212725443875929,-7.712700191979031,16.540182808650066,0.7351763,2.629164,-0.0711658,8.178559,-19.841337,25.821903
376348085000.0,3.194748148612407,-8.15606940802097,17.218061191349932,0.8854492,1.7275269,-0.15943582,8.00782,-19.633204,24.718878
376352975000.0,5.24444164511754,-8.798397958509144,17.886395781494876,0.6951646,0.44348818,-0.17379116,7.8254795,-19.183027,23.94071
376358072000.0,7.568869506329113,-9.867438150492266,18.34245438818565,0.1777618,-0.7974846,-0.2406809,7.799834,-18.713114,23.39015
376362971000.0,9.466497160364732,-10.682222161535888,18.70717643859796,-0.3998113,-1.7116444,-0.38453966,7.7583265,-18.045351,23.37629
376368008000.0,10.552001841392002,-10.972766552283757,18.892801728961015,-0.86926126,-2.3854287,-0.49754974,7.8334246,-17.302748,23.627394
376374031000.0,11.725837487416108,-11.117043374906784,18.814396845544373,-1.1847731,-2.964529,-0.6239988,7.85796,-16.326368,24.387913
376378042000.0,11.604097580536914,-9.734935178374348,16.57652766629381,-1.3744467,-3.4859025,-0.7974846,7.9784164,-15.329239,25.282578
376383319000.0,11.443932661912752,-7.916589391014169,13.632315335477257,-1.4691309,-3.9587123,-0.99112886,8.083917,-14.275725,26.45857
376388031000.0,10.18582871357723,-6.934047865780206,11.789928314382232,-1.5259414,-4.1905355,-1.1841623,8.251486,-13.261645,27.66729
376392987000.0,8.572241602242507,-6.067555188313088,10.056942674477108,-1.5555683,-4.5943174,-1.2910637,8.488492,-12.297546,29.016796
376398472000.0,6.819036197651664,-5.085208013372473,8.126544640084802,-1.6487253,-5.0604076,-1.6374242,8.927699,-11.640135,30.539213
376403085000.0,5.810410518199609,-3.92528827136334,6.325427376842792,-1.8964312,-5.2048774,-1.7779233,9.324036,-10.950145,32.068115
376408069000.0,4.720666233268102,-2.672082116112198,4.379455462687541,-2.0335703,-5.356372,-2.0549507,10.061863,-10.538927,33.55018
376413445000.0,3.8241222276182953,-0.8922672512158725,1.8354839739267843,-2.302962,-5.137071,-2.2137756,10.774637,-10.059115,34.95657
376418023000.0,3.2467896870862964,0.9090098058291628,-0.6278008598367135,-2.408947,-4.540867,-2.1813998,11.485928,-9.618129,36.28044
376423023000.0,2.777101564053557,3.119698628045789,-3.205636351625102,-2.3472497,-3.7006216,-1.9349157,12.29266,-9.377244,37.462513
376428099000.0,2.816849746514718,6.145518829844645,-5.461338274396974,-2.1716259,-2.6462681,-1.4709635,12.943175,-9.105892,38.423172
376432940000.0,2.8443117,8.696361337812283,-7.394912045884343,-1.8432859,-1.2815952,-0.8872818,13.609237,-9.044416,39.25016
376438067000.0,2.8443117,10.465477415745994,-8.836594644271923,-1.320996,0.021380283,-0.33750305,14.057345,-8.99488,39.825962
376442963000.0,2.639317952334267,10.939500349050732,-9.289521617413634,-0.73884153,0.8393288,-0.0842994,14.656524,-9.33248,40.30472
376448092000.0,1.836712660901027,7.950751195066916,-7.114843695821662,-0.27488935,1.2660183,-0.09010262,15.0962925,-9.712477,40.546177
376452953000.0,1.076045021661998,5.118169865857454,-5.0537968295985065,0.032986723,1.4223998,-0.19975294,15.650796,-10.375822,40.718586
376458035000.0,0.7887839064727955,3.081638554793621,-3.5014458539399627,0.22571471,1.3988814,-0.3222314,16.197557,-11.120794,40.81446
376463073000.0,0.7254188631894934,1.465830007782364,-2.2250928932457783,0.33292156,1.269378,-0.45234573,16.7866,-11.938719,40.880592
376468005000.0,0.7784171573872473,0.0123470980326594,-1.211302224416796,0.38331795,1.1643091,-0.5873469,17.027977,-12.365716,40.682774
376472992000.0,0.9176848523133748,-1.3617608236226673,-0.3617692756726283,0.45448375,1.1239921,-0.74464476,17.331636,-12.856382,40.492596
376478043000.0,1.231210406918239,-2.7022579761973877,0.3790599396032898,0.5757405,1.1792754,-0.9251554,17.481691,-13.167885,40.213787
376483214000.0,1.7199583667924527,-4.024752558867925,1.0211406129811322,0.77854776,1.3521502,-1.1230757,17.68232,-13.546781,39.900555
376488064000.0,2.40384687232886,-5.073675953167998,1.677683542211653,1.0571023,1.5176947,-1.2366967,17.637243,-13.83079,39.491512
376493170000.0,3.3922963968065227,-5.949990406013249,2.433556718192628,1.2287555,2.0861049,-1.5060883,17.648642,-14.198025,38.897305
376498000000.0,4.348113900147589,-6.690007558625779,3.257419578386356,1.5497651,2.9342911,-1.7583756,17.474602,-14.430364,38.276283
376503029000.0,5.560450798417514,-6.532048260290259,5.251654353968514,1.6691893,3.8203511,-1.9550742,17.30896,-14.690994,37.473583
376507941000.0,6.744582602812397,-6.377763894924565,7.199493132584454,1.5378532,4.305073,-2.1010711,16.993387,-14.783894,36.68411
376513033000.0,7.974953749708865,-5.384012758029677,9.70795800732532,1.2672399,4.1981716,-2.1578815,16.700785,-14.887426,35.808926
376518055000.0,9.1899686854151,-3.947675150648009,12.449646463749062,0.89766645,3.501785,-2.1557434,16.47173,-14.949314,34.958908
376523036000.0,10.544528544634469,-1.8481148579778237,14.379264927833113,0.42394048,2.4700336,-2.1389446,16.29169,-14.85368,34.20032
376528989000.0,12.323100570569444,1.382243113070852,15.84176521011088,-0.11911872,1.4001031,-2.1587977,16.225792,-14.662912,33.647003
376532961000.0,13.093060977833002,2.85102199,15.657405826043735,-0.6188065,0.5684101,-2.1508565,16.367125,-14.497883,33.155617
376538002000.0,13.50096556918489,3.77720492,13.838632067594434,-0.92149025,0.10903945,-2.0415115,16.569437,-14.251008,32.867462
376542927000.0,13.799806089344491,4.501872009771467,12.17735483805135,-0.9987647,-0.023823744,-1.8564194,17.002087,-14.316831,32.76037
376548018000.0,13.93277967694912,4.932890538878962,10.664205069782753,-0.91599244,0.0027488936,-1.6526959,17.417875,-14.331458,32.733128
376552987000.0,14.043415737142858,5.151898082857144,9.351874790428573,-0.75411314,0.10934488,-1.427592,17.820086,-14.519074,32.915253
376558022000.0,14.097538904489795,4.763191972653061,8.520339248540816,-0.569021,0.29535335,-1.128879,18.106977,-14.677995,33.06876
376563122000.0,14.036934564787604,4.135550639219877,7.91490193534598,-0.34666604,0.4728097,-0.8356637,18.346228,-14.932549,33.3485
376567996000.0,13.733484333778607,3.0381402188262534,7.840078591308219,-0.11178834,0.5891795,-0.5525276,18.469046,-15.17419,33.598362
376573054000.0,13.374882405989306,1.8893595675636363,7.794424863572192,0.14782938,0.63499445,-0.36132678,18.49635,-15.413698,33.90535
376577976000.0,12.311148188663102,0.6088452462545453,8.273357362524063,0.3943135,0.6123924,-0.27916542,18.461687,-15.6674185,34.199364
376583306000.0,11.216041696238468,-0.5841342254897091,8.746114040454222,0.5830709,0.50854534,-0.2959642,18.358953,-15.794203,34.504284
376588069000.0,10.414796246983675,-1.0454573032700496,9.025336041873668,0.6957755,0.43066,-0.321926,18.235676,-15.946412,34.805206
376592927000.0,9.597569626685592,-1.5159816601579137,9.31012724130589,0.7266242,0.2648101,-0.36987892,18.117674,-15.977283,35.015305
376598919000.0,8.856308980356271,-1.6083792903286156,9.32877618216203,0.7101309,0.12889257,-0.4025602,18.009405,-16.023825,35.234016
376602996000.0,8.367218709126403,-1.6433143120709288,9.32242439921913,0.61758476,0.109650314,-0.40561453,17.9127,-16.061525,35.46036
376608014000.0,7.733137625387958,-1.5510384928615766,9.221359581936683,0.569021,0.13744467,-0.37323865,17.826893,-16.047546,35.56895
376613041000.0,7.0607550525036205,-1.3020078506000414,9.01217350543141,0.47708577,0.19211712,-0.3191771,17.732473,-15.998052,35.676105
376618006000.0,6.4580396885573945,-0.972518939519738,8.765734449336001,0.3659083,0.24251351,-0.23762658,17.640087,-15.930362,35.687397
376623010000.0,5.904452275422958,-0.5671361878078952,8.4824021797344,0.2706133,0.27763826,-0.13530666,17.517458,-15.831408,35.695633
376628045000.0,5.26175295734139,-0.1215540889144008,8.154235694662638,0.172264,0.27488935,-0.03634648,17.40593,-15.74002,35.634624
376633067000.0,4.452909333897281,0.3966871399919436,7.742549026384693,0.10567969,0.25045475,0.002443461,17.279474,-15.626638,35.57504
376638070000.0,3.6892522264740704,0.8254785644091878,7.333024145867866,0.046731193,0.26908615,0.004886922,17.186378,-15.562302,35.446056
376643014000.0,3.0090653776935827,1.0945635205067488,6.929396828794696,0.0106901415,0.28405234,-0.028405234,17.09707,-15.487687,35.32612
376648109000.0,2.3081042137500987,1.3718668884915934,6.513441897466256,-0.0030543262,0.32498032,-0.08857546,17.085854,-15.523048,35.100777
376652992000.0,1.2595709132333646,1.5299707804404874,5.693291398031866,0.0076358155,0.4089743,-0.15454891,17.082544,-15.561467,34.85788
376657985000.0,0.1078400487347703,1.668895460262418,4.765632709465792,0.020463986,0.56291234,-0.25473082,17.099125,-15.612032,34.5782
376663066000.0,-0.2950142009650484,1.6556368893667333,4.455465542045371,0.07819075,0.7816021,-0.36560285,17.204508,-15.8318815,34.14543
376668710000.0,-0.3389487601788221,1.559779640449272,4.443483354651593,0.13622294,1.0173961,-0.47250426,17.32159,-16.062775,33.661896
376673369000.0,-0.3590248046528148,1.4798946670839992,4.448344228423016,0.17745635,1.2260065,-0.5519168,17.49507,-16.359644,33.042347
376677994000.0,-0.0561886916178298,1.3855042157876043,4.747247481619606,0.23640485,1.318858,-0.6065892,17.679258,-16.678072,32.3855
376683090000.0,0.2774875963878529,1.2815012450186467,5.076590395844432,0.28099802,1.4492778,-0.6640105,17.871376,-17.031723,31.640623
376688059000.0,0.65490024471257,1.1678268105684548,5.461274295564452,0.2932153,1.5238034,-0.6835582,18.062038,-17.380089,30.88965
376693031000.0,1.0513815928054444,1.0496448784627703,5.869192621008807,0.34788775,1.5726726,-0.7174612,18.260427,-17.74559,30.109577
376698032000.0,1.4757039003631702,0.915993662196112,6.305888641743217,0.41508293,1.5861117,-0.73273283,18.458866,-18.13678,29.331188
376702987000.0,1.9825728255394144,0.733520806791284,6.827963732589191,0.4709771,1.5833627,-0.7538077,18.662725,-18.522322,28.551168
376708025000.0,2.4968358278270184,0.6145601204490114,7.33089882229473,0.54336464,1.5809193,-0.75716746,18.80188,-18.807451,27.830467
376713037000.0,3.0064187114736534,0.6192351834157982,7.779705433378786,0.59223384,1.5714508,-0.74097955,18.94188,-19.088903,27.121134
376717950000.0,3.478764868572434,0.6691752572381036,8.194146112410941,0.6264423,1.539075,-0.6963864,19.028252,-19.295973,26.474503
376723019000.0,3.89721801923652,0.8357025276603044,8.557090123889523,0.6646214,1.5085317,-0.64843345,19.109863,-19.505651,25.840828
376728015000.0,4.308548945331635,1.0025744761536202,8.915760987851474,0.70646566,1.4844025,-0.58184916,19.145044,-19.68221,25.28048
376733014000.0,4.67439650185167,1.2839957940335065,9.314441400411482,0.7357872,1.4443909,-0.49632803,19.166586,-19.850496,24.749033
376738513000.0,5.0623435853111785,1.627068482164979,9.78384613833448,0.7641924,1.3924674,-0.39553526,19.148924,-20.020803,24.290903
376743002000.0,5.231413686933438,2.248400898190935,10.481260020646936,0.7644979,1.3161092,-0.28924468,19.113068,-20.174973,23.869251
376748455000.0,5.423576872191807,2.990361072390032,11.311473479516708,0.75900006,1.2235631,-0.20250183,19.057201,-20.348764,23.512487
376753096000.0,5.255761221030772,3.3008199218991883,11.592564576930338,0.7440339,1.0821478,-0.12980886,18.990343,-20.504333,23.207693
376757940000.0,5.080605217104021,3.6248584194260896,11.88595076005286,0.7113526,0.92179567,-0.06291912,18.947247,-20.71913,22.91015
376763061000.0,4.873802064257647,3.88807727604592,12.053605090376765,0.6600399,0.7290677,-0.012217305,18.908648,-20.91127,22.673796
376767931000.0,4.672570392326065,4.121649815378689,12.182968710070114,0.60139686,0.54061574,0.038179077,18.869936,-21.07885,22.49322
376772963000.0,4.4406256624853,4.355566232634261,12.324682876519011,0.5369505,0.35827246,0.076052725,18.873526,-21.272682,22.305344
376778066000.0,4.119739780674245,4.566297378175225,12.497098663661308,0.47036624,0.27366763,0.10629055,18.875149,-21.43828,22.152319
376783010000.0,3.785849261900229,4.765843699181264,12.705681797696116,0.38606682,0.10995574,0.112399206,18.945347,-21.634779,22.007595
376788060000.0,3.3469122426694597,4.950013026104341,13.095506957952525,0.33658674,-0.03145956,0.118507855,19.012451,-21.810303,21.888668
376792928000.0,2.923794339775324,5.127544963423458,13.471282973819497,0.22418754,-0.16920967,0.1160644,19.122812,-21.981821,21.740383
376798109000.0,2.487187286730642,5.304124940271344,13.816689109033751,0.08368854,-0.35613444,0.10445796,19.25397,-22.123476,21.647638
376803084000.0,2.282230333347121,5.28047611643779,13.29641370884348,-0.07666359,-0.55924714,0.096516706,19.400034,-22.222494,21.599554
376808009000.0,2.079333248841827,5.257064969225679,12.781367207147584,-0.23976462,-0.73761976,0.10170906,19.61812,-22.300503,21.439745
376813061000.0,1.9497878389777232,5.179760786046194,12.086982276889437,-0.38056904,-0.8268061,0.11636983,19.843111,-22.336403,21.317533
376818027000.0,1.868541377777778,5.072515411111112,11.307016222222222,-0.47647488,-0.8542951,0.1337795,20.073189,-22.33715,21.23217
376823063000.0,1.7861496785021185,4.963758321265546,10.516055881645482,-0.5656612,-0.8179486,0.16157386,20.27755,-22.331667,21.154278
376828058000.0,1.7350960817502667,4.577579107817503,9.077867032017076,-0.60048056,-0.7351763,0.1695151,20.474209,-22.313988,21.07363
376833064000.0,1.696722447171825,4.074457809471718,7.363843618996798,-0.59742624,-0.6563747,0.1731803,20.654873,-22.279758,20.989798
376838059000.0,1.6670205405872758,3.684239829885808,6.253632853507341,-0.56688297,-0.5537493,0.16279559,20.807545,-22.288729,20.926239
376843001000.0,1.6477184833115823,3.429452964078304,5.859871546166395,-0.48655418,-0.44959682,0.1414153,20.948647,-22.311184,20.840982
376848335000.0,1.62830494679089,3.1543086366459625,5.446635494306419,-0.39706242,-0.33108896,0.13133603,21.023336,-22.379572,20.829449
376853942000.0,1.6329372033126293,2.8624761855590064,5.219654682893375,-0.31245756,-0.22693644,0.105068825,21.095623,-22.470127,20.788717
376857938000.0,1.6362385225672875,2.65449286568323,5.0578898670548655,-0.2434298,-0.093462385,0.067500606,21.140242,-22.579489,20.729454
376863059000.0,1.662300025268293,2.425987181268293,4.954983734926829,-0.16676621,0.07238753,0.032070424,21.173548,-22.71281,20.63185
376868013000.0,1.697904915879925,2.2230394423414634,4.905136902941838,-0.115453534,0.25778514,-0.009773844,21.199133,-22.858631,20.49025
376873209000.0,1.7374250183929802,2.010542789650722,4.8596757515485205,-0.056505036,0.4071417,-0.047647487,21.194664,-23.006132,20.327164
376878061000.0,1.8133771010495527,1.8186639296713691,4.939625224363386,-0.025350908,0.46944994,-0.092240654,21.19227,-23.16065,20.135788
376882937000.0,1.889704874139711,1.6258359574415002,5.019970160357881,0.0030543262,0.569021,-0.10873401,21.157022,-23.284193,19.918444
376888060000.0,2.1294442310172146,1.396541223067293,5.167072224726135,0.057726767,0.6533204,-0.14569137,21.135118,-23.427048,19.684221
376893001000.0,2.433055961228482,1.163278546165884,5.337390969092332,0.12034045,0.7189884,-0.18936823,21.110811,-23.578735,19.429941
376898035000.0,2.7355162480520723,0.9583031415813152,5.520499442806548,0.20525073,0.7666359,-0.22479841,21.070072,-23.685677,19.182364
376903047000.0,2.9928093573848957,0.962897658820714,5.76400914434766,0.31398472,0.80573124,-0.2302962,21.027037,-23.815283,18.92164
376908303000.0,3.2631593905548093,0.9769096885198696,6.037366769821463,0.4288274,0.8405506,-0.25137106,20.962889,-23.903683,18.711565
376913013000.0,3.5099519975811098,1.0678333043770398,6.435698721539643,0.5500842,0.8729264,-0.23976462,20.887197,-24.018282,18.498817
376918408000.0,3.794601073721893,1.175152465514793,6.897340947213018,0.6444628,0.8750645,-0.2144137,20.797758,-24.14176,18.318779
376923720000.0,4.128730808538461,1.3678038067692309,7.4993765300769235,0.7128797,0.8542951,-0.18845193,20.704086,-24.286793,18.142006
376928046000.0,4.400840227366864,1.5246956934911242,7.989663791272189,0.7492262,0.8396343,-0.14782938,20.59068,-24.434996,17.990887
376932966000.0,4.710312798017752,1.7031302942011832,8.54727204949704,0.77488256,0.81397796,-0.09743301,20.47191,-24.591814,17.856754
376938043000.0,4.875055788107848,1.909279618199326,8.95543057390467,0.7791586,0.7825184,-0.056505036,20.3477,-24.746134,17.736029
376943092000.0,4.925496521665864,2.1304429561145883,9.238674936206063,0.76083267,0.7483099,-0.0067195175,20.211643,-24.892029,17.634125
376948020000.0,4.962513127403751,2.354844089042448,9.524493076900296,0.74220127,0.7189884,0.0421497,20.053736,-25.019375,17.581783
376953063000.0,4.871928700394867,2.674273583415597,9.915436094768015,0.70157874,0.6469063,0.118202426,19.886269,-25.125286,17.56168
376958072000.0,4.7708341874849705,2.996369710561122,10.282802958216433,0.6469063,0.55863625,0.18173242,19.723368,-25.236736,17.545359
376962925000.0,4.533330361202405,3.3689247951102206,10.37594214268537,0.5992588,0.4978552,0.21074851,19.556694,-25.332247,17.547504
376968075000.0,4.285014088958551,3.754386751062348,10.462990173284568,0.5412266,0.4550946,0.23915374,19.403444,-25.426905,17.52916
376972973000.0,4.093039273563218,4.003545588505747,10.40580632183908,0.4978552,0.44318274,0.26083946,19.249943,-25.507988,17.522665
376977903000.0,3.8998102331591777,4.254332250121909,10.348248872344133,0.4792238,0.40653083,0.2706133,19.127056,-25.632624,17.477865
376982919000.0,3.667891758846232,4.468367357099329,10.249661906967296,0.46120325,0.38606682,0.28069258,18.999607,-25.740091,17.43731
376987884000.0,3.426428973349584,4.666366776660572,10.138588815864312,0.45234573,0.3408628,0.28099802,18.882395,-25.841768,17.414478
376992878000.0,3.235331461592837,4.781381015080113,10.053954641847314,0.4529566,0.3042109,0.27275133,18.794073,-25.993296,17.354885
376997925000.0,3.057665883034873,4.872491495004712,9.976510543638078,0.43982297,0.26939157,0.26908615,18.711834,-26.13263,17.309961
377002926000.0,2.8934599310931093,4.919094778177818,9.921916465146516,0.4279111,0.22876903,0.26511553,18.661627,-26.318897,17.234127
377007977000.0,2.7338149406440646,4.943283405440544,9.87837703710371,0.39461896,0.20158553,0.26267207,18.615528,-26.487686,17.167376
377012945000.0,2.5856085363854566,4.937106440483599,9.84436729887101,0.3491095,0.18417588,0.26206118,18.594986,-26.669762,17.080559
377017975000.0,2.440011119548404,4.915695068806116,9.814391199662191,0.2874121,0.16829337,0.26450464,18.577568,-26.829508,17.004343
377022950000.0,2.287058301315928,4.865777997294452,9.76995579166228,0.21563543,0.14660765,0.27977628,18.558922,-26.975258,16.909348
377027998000.0,2.119109709843141,4.774169843762501,9.703794521633856,0.12705997,0.10048734,0.2764165,18.550447,-27.094275,16.826319
377032977000.0,2.0134115744006187,4.675641789336813,9.595634732453597,0.050396383,0.060170226,0.27580565,18.550243,-27.193632,16.724892
377037953000.0,1.9627352668986853,4.569682092971771,9.448212795098607,-0.021991149,0.02687807,0.28924468,18.55285,-27.264526,16.638245
377042973000.0,1.924722207338365,4.451919366736383,9.285816624715832,-0.06811147,-0.0009162979,0.29168814,18.563255,-27.314255,16.535337
377048017000.0,1.902759181022097,4.320141484041103,9.1057198639629,-0.067500606,-0.00061086525,0.29871312,18.569952,-27.353075,16.439144
377052945000.0,1.890204693902439,4.170956488780488,8.924626295121952,-0.074830994,-0.021991149,0.29871312,18.575047,-27.3851,16.350573
377058064000.0,1.905150977388212,3.951744885894309,8.720361027743902,-0.060170226,-0.027488936,0.30543262,18.574911,-27.420183,16.262335
377063220000.0,1.9678063967907573,3.688361533055199,8.529830686136071,-0.028099801,-0.049785517,0.29810223,18.578321,-27.455095,16.189909
377068067000.0,2.12103177318907,3.356373099009719,8.380861212176784,0.01282817,-0.07360926,0.2996294,18.579367,-27.49353,16.1232
377072997000.0,2.2678644522823066,3.042256271033988,8.239257499775805,0.04917465,-0.08368854,0.2932153,18.569796,-27.529299,16.069357
377077995000.0,2.3408357453143216,2.922068243162048,8.179163620303111,0.073303826,-0.12217305,0.30298916,18.563799,-27.570118,16.032055
377082938000.0,2.4130040329208144,2.803202812635638,8.119731038023495,0.122783914,-0.16584991,0.2950479,18.535437,-27.579817,16.040396
377088068000.0,2.4991933907492414,2.723852299626546,8.05518804481444,0.16829337,-0.22693644,0.28496864,18.513775,-27.594492,16.063536
377092932000.0,2.5825495521434685,2.654992924476776,7.993577062786898,0.19792034,-0.27152961,0.2733622,18.498928,-27.618948,16.091722
377098006000.0,2.698704100861652,2.5821200298673634,7.910322709168361,0.22113322,-0.31520647,0.2751948,18.47907,-27.637434,16.154366
377102999000.0,2.87925033311066,2.5080497038919547,7.785329245570724,0.24037547,-0.3399465,0.27305678,18.466953,-27.663807,16.220142
377107987000.0,3.0478857785162603,2.4297127227845525,7.693641750487805,0.2874121,-0.33017266,0.3100141,18.445782,-27.6924,16.320812
377113068000.0,3.181403408373984,2.3357558415447155,7.708477031219512,0.32986724,-0.33628133,0.33414328,18.434042,-27.725561,16.42784
377117969000.0,3.2976864784812605,2.254757344691261,7.730115726235444,0.3631594,-0.35735616,0.3399465,18.400797,-27.76084,16.580742
377123034000.0,3.3831271154320386,2.1977970357079952,7.772835995146296,0.39003745,-0.39645153,0.35430184,18.362373,-27.801634,16.742178
377128000000.0,3.471508782473204,2.1515281872965466,7.819195721714967,0.39522982,-0.4343252,0.364992,18.312668,-27.829239,16.930973
377133027000.0,3.576623671774514,2.1371943523620485,7.881309006431123,0.41386122,-0.44623706,0.3820962,18.259174,-27.864286,17.123476
377138034000.0,3.673798128309161,2.1250850807416928,7.940223332017624,0.41905355,-0.4746423,0.40317106,18.200788,-27.883312,17.3429
377143017000.0,3.7438862600330456,2.1207045782265466,7.98840895116578,0.44501534,-0.4908302,0.43585235,18.134508,-27.908642,17.563417
377148139000.0,3.818841815187986,2.1199526072638197,8.043478398018959,0.4529566,-0.49602258,0.45937067,18.06149,-27.919765,17.804049
377153004000.0,3.932974953541378,2.17453802125892,8.177460466929386,0.45204028,-0.49510628,0.4981606,17.977057,-27.92913,18.050587
377157997000.0,4.051408930677291,2.2384927597609563,8.306562988047808,0.4465425,-0.46486846,0.539394,17.874622,-27.93407,18.300825
377163078000.0,4.179075289048684,2.347245464697308,8.391674551938587,0.42149702,-0.4098906,0.59040123,17.7554,-27.927029,18.547966
377167980000.0,4.29499547646401,2.462722180002033,8.480114193574623,0.38087448,-0.37751472,0.63255095,17.619999,-27.908262,18.805176
377173003000.0,4.343901755612038,2.682800819174461,8.631723408702724,0.35185838,-0.31856623,0.6453791,17.467054,-27.882677,19.041552
377177984000.0,4.3861775,2.9038905432352147,8.775447962462868,0.3032946,-0.2565634,0.66706485,17.286215,-27.844805,19.28793
377183088000.0,4.3861775,3.1502926788729857,8.87664903978756,0.25228736,-0.19486602,0.68508536,17.095058,-27.797056,19.517399
377188000000.0,4.3861775,3.3874257686560445,8.974043180034208,0.20799962,-0.10781772,0.6933321,16.895735,-27.755863,19.718151
377193022000.0,4.224038483752379,3.641596371832114,8.93045923459882,0.1740966,-0.018020526,0.68600166,16.687904,-27.70403,19.899925
377197983000.0,4.047950116938796,3.893831044655915,8.873349343584094,0.1563815,0.1020145,0.64965516,16.470158,-27.647947,20.046738
377202989000.0,3.759834191898584,4.11551816123601,8.781773403882342,0.13958271,0.22510384,0.589485,16.261232,-27.623217,20.14808
377207949000.0,3.46345304423096,4.331923398435179,8.687684213033574,0.13805555,0.3118467,0.50243664,16.059647,-27.605515,20.218521
377213029000.0,3.1190761554279365,4.526511960726195,8.651067924045943,0.12492194,0.3472769,0.40378192,15.895414,-27.64605,20.2205
377218007000.0,2.776407419347907,4.713743412226751,8.622806753834753,0.11056661,0.34055737,0.2938262,15.753825,-27.695347,20.199316
377222975000.0,2.484667178484911,4.881757228207761,8.59439323136933,0.08979719,0.28619036,0.21930063,15.674804,-27.810884,20.112843
377228196000.0,2.402547794097721,4.974141488749743,8.56359833494149,0.0870483,0.17073683,0.16157386,15.632411,-27.932121,20.034355
377233000000.0,2.3201518982012934,5.0457257311438966,8.52467162934519,0.063224554,0.04886922,0.12675454,15.659007,-28.109545,19.869991
377238067000.0,2.212273440582053,5.080050764753436,8.45111820533549,0.044593163,-0.07422013,0.12370021,15.7091255,-28.280357,19.73669
377242981000.0,2.0842125682037063,5.096174803720998,8.382333569093829,0.016798794,-0.17806722,0.13988814,15.794887,-28.44251,19.620916
377248795000.0,1.8567168905296951,5.059612990048154,8.309209772070625,-0.01740966,-0.25686884,0.16707164,15.890234,-28.588415,19.53407
377253065000.0,1.689636301663505,5.032760746432219,8.2555051602218,-0.056505036,-0.3173445,0.20158553,15.988395,-28.725649,19.457088
377258010000.0,1.4861606466544457,4.935944127956003,8.15960612832264,-0.07666359,-0.3643811,0.21044308,16.092848,-28.851597,19.398539
377263062000.0,1.2693556024747938,4.778267755575924,8.031494014665444,-0.09285152,-0.39522982,0.21380283,16.19328,-28.959091,19.356594
377268001000.0,1.1339402280023094,4.574590595900693,7.930884333949192,-0.06627888,-0.39278635,0.21380283,16.312185,-29.071379,19.276978
377273042000.0,1.05496562852194,4.328375873556582,7.847264272517321,-0.04886922,-0.38545597,0.21380283,16.43065,-29.171583,19.20568
377278031000.0,1.0266617431127716,4.042935140772785,7.800489512378331,-0.016493361,-0.37873647,0.20250183,16.554884,-29.26735,19.106293
377283109000.0,1.0505684838265656,3.7082410703372335,7.790926836063317,0.02321288,-0.3652974,0.19792034,16.672102,-29.364687,19.006075
377288060000.0,1.1612348229232003,3.3100533511487127,7.892203306396324,0.059864793,-0.32406402,0.18387043,16.786451,-29.453764,18.887886
377293009000.0,1.3720970547006055,2.829563961315732,8.12034964364379,0.09193522,-0.28955013,0.14966199,16.903618,-29.550802,18.765818
377298049000.0,1.5868365269491649,2.3402395473415503,8.352691033768506,0.10293079,-0.23945917,0.11362094,17.000261,-29.613682,18.638514
377303059000.0,1.8315925787601623,2.113653672265336,8.53245755617147,0.06872234,-0.19425514,0.06536258,17.102726,-29.6749,18.498363
377308106000.0,2.0905893341463413,1.988620775166297,8.693213645232817,0.030543262,-0.15363261,0.016493361,17.20605,-29.738558,18.343313
377313072000.0,2.3891265622076543,1.9628381654146,8.805262895995748,-0.025961773,-0.12492194,-0.027794369,17.267872,-29.66199,18.229927
377318885000.0,2.7787374800053155,2.022019531537916,8.894035254163715,-0.10170906,-0.08552113,-0.06169739,17.331358,-29.574425,18.099174
377322967000.0,3.0709492979304143,2.086675256718656,8.948460515296942,-0.16829337,-0.04734206,-0.09254608,17.379356,-29.44646,18.002304
377328100000.0,3.483791787042592,2.224289385542892,8.997608400119976,-0.24190263,-0.014049901,-0.09682214,17.424002,-29.298258,17.896893
377332983000.0,3.8425989634651927,2.368649077785455,9.050657399982724,-0.2932153,0.0125227375,-0.087659165,17.446535,-29.137794,17.85024
377338004000.0,4.125013083606841,2.551387631214372,9.121260604767665,-0.32345316,0.014966198,-0.08399397,17.470646,-28.96644,17.800411
377343383000.0,4.426215359289039,2.748267916250529,9.19592252729581,-0.35155296,0.004276057,-0.063224554,17.464716,-28.788847,17.82619
377348061000.0,4.661307922640711,2.941650536783749,9.241424441472704,-0.33750305,-0.038789943,-0.047036625,17.464268,-28.617653,17.85852
377353033000.0,4.911175435463394,3.1471867465509944,9.289786031316122,-0.3200934,-0.10629055,-0.015271631,17.446873,-28.456932,17.959284
377358021000.0,5.092527077295987,3.3348257221384325,9.298173933746297,-0.28038713,-0.17379116,0.018936822,17.43177,-28.307491,18.071033
377363013000.0,5.229867802316186,3.5107934308375977,9.281006455157554,-0.23548855,-0.20799962,0.04337143,17.416578,-28.165232,18.191687
377367973000.0,5.342200037670886,3.65793389043038,9.237862441721518,-0.18295415,-0.2843578,0.062308256,17.397348,-28.063116,18.388678
377373041000.0,5.415924426126582,3.761148136911392,9.149392867645568,-0.16462818,-0.33078352,0.09162979,17.369968,-27.962782,18.587051
377377979000.0,5.443688901097597,3.817373235123109,9.05080643903886,-0.115453534,-0.3594942,0.11789699,17.342834,-27.912056,18.823322
377383052000.0,5.405256599525363,3.807765184811629,8.930705810145358,-0.09743301,-0.3567453,0.13194689,17.313437,-27.857471,19.059721
377388468000.0,5.345211987065893,3.769658094347693,8.793877581627457,-0.074830994,-0.3381139,0.14996742,17.275377,-27.832024,19.31494
377393006000.0,5.274395015826459,3.7076931116406966,8.669947985945615,-0.06719518,-0.3268129,0.15790866,17.236864,-27.807318,19.565615
377397966000.0,5.180095754819588,3.558446025128866,8.523029124484536,-0.06780604,-0.30543262,0.1572978,17.193287,-27.79119,19.80614
377402926000.0,5.061751305335052,3.293191489046392,8.359795268814434,-0.07727446,-0.27947086,0.14508049,17.148235,-27.77524,20.036686
377407926000.0,4.949333100341589,3.036420169886849,8.202820844737404,-0.08552113,-0.2669481,0.1386664,17.107601,-27.760378,20.257814
377412901000.0,4.923903670367207,2.9143587466908625,8.14179026590521,-0.08155051,-0.24862215,0.122478485,17.067879,-27.748888,20.46334
377417897000.0,4.900567118654132,2.794437179020287,8.089643599455714,-0.08032878,-0.22266038,0.10751228,17.016098,-27.702059,20.655151
377422927000.0,4.8862659401286495,2.684794478476002,8.075342321375556,-0.087659165,-0.20372356,0.10354166,16.964024,-27.655611,20.83989
377427906000.0,4.8729298234410745,2.58199573968175,8.056179111984086,-0.08368854,-0.18570304,0.09865474,16.91228,-27.60068,21.017027
377432896000.0,4.863424406931875,2.505952705370462,8.013405060268523,-0.07238753,-0.15943582,0.095294975,16.85716,-27.54726,21.183971
377437898000.0,4.8515423446247805,2.4336385850832425,7.978779547268468,-0.06811147,-0.13316862,0.1020145,16.790922,-27.477184,21.345953
377442895000.0,4.827520666560696,2.381591441755208,7.986786745419559,-0.064751714,-0.112704635,0.09468412,16.72649,-27.413206,21.497711
377447918000.0,4.803374000778048,2.329273490797289,7.994835605998494,-0.058337633,-0.08307768,0.09590584,16.655155,-27.342777,21.644608
377452999000.0,4.749959180582619,2.3065052943102105,8.004021331888152,-0.057726767,-0.060170226,0.103847094,16.58227,-27.273163,21.785622
377457882000.0,4.690730303059236,2.292837080826189,8.013133426636788,-0.05131268,-0.046731193,0.10262536,16.508953,-27.209026,21.918308
377462949000.0,4.62772411056038,2.283136982484024,8.012927081517287,-0.047036625,-0.042455133,0.105068825,16.434177,-27.134737,22.043833
377467903000.0,4.565533552457808,2.275363188087826,8.009040103145994,-0.050701816,-0.028405234,0.1142318,16.355024,-27.060856,22.162416
377472952000.0,4.496829990292328,2.2724587112142074,8.000698806345405,-0.04520403,-0.032070424,0.11789699,16.284252,-26.989862,22.27066
377477979000.0,4.415175370527786,2.282065131168313,7.981486066746482,-0.032986723,-0.040317107,0.11453723,16.212212,-26.920956,22.375195
377482919000.0,4.334897112592907,2.305769181779571,7.949581251433425,-0.02443461,-0.05222898,0.10720685,16.145552,-26.853853,22.466192
377487978000.0,4.252588396581015,2.367500960511786,7.882705547249946,-0.009162978,-0.055283304,0.116980694,16.075768,-26.791378,22.55754
377492877000.0,4.171531964912281,2.411950174641148,7.825427464114832,0.00580322,-0.05467244,0.122783914,16.014647,-26.734653,22.634586
377497998000.0,4.084622705263158,2.433677398803828,7.777627380382775,0.021685716,-0.05131268,0.12370021,15.952899,-26.682789,22.711163
377502998000.0,4.001831461836228,2.4558821537303555,7.729620705128205,0.03940081,-0.057421334,0.124311075,15.894827,-26.64812,22.777891
377508076000.0,3.929428002183623,2.484039054706369,7.673306987179487,0.06291912,-0.043676864,0.13103059,15.832027,-26.61901,22.838867
377512983000.0,3.859462705508685,2.5112477811910674,7.618889615384615,0.070249505,-0.032070424,0.12644911,15.776835,-26.601439,22.883837
377518056000.0,3.77761654632862,2.525664875660653,7.576125679180888,0.08735373,-0.0070249503,0.12980886,15.714307,-26.590992,22.923512
377523009000.0,3.694358524115066,2.534915756284739,7.539121866894198,0.09621128,0.022296581,0.12583824,15.653372,-26.582077,22.9571
377528081000.0,3.588428312287693,2.5696492481260083,7.600499730809375,0.11484267,0.04428773,0.12003502,15.598766,-26.592829,22.973442
377533069000.0,3.475113201024765,2.61497539675491,7.704749830059778,0.10903945,0.06169739,0.11148291,15.543137,-26.600203,22.98276
377538101000.0,3.435987315485564,2.658590384951881,7.827535675415572,0.10140363,0.07788532,0.10048734,15.492681,-26.61398,22.973324
377543028000.0,3.448371801994751,2.699872006649169,7.959636606211723,0.105068825,0.09101892,0.099571034,15.440617,-26.628613,22.961004
377547984000.0,3.4686278682450675,2.7507662529595014,8.095421392627205,0.09437868,0.10598512,0.087964594,15.405876,-26.64248,22.90841
377553084000.0,3.5092024726064386,2.826843636137072,8.242504227518172,0.0888809,0.105068825,0.07360926,15.373621,-26.658613,22.8571
377558063000.0,3.5535747830397133,2.892775164307753,8.389226776649746,0.076052725,0.093462385,0.059864793,15.348166,-26.670906,22.792673
377563078000.0,3.6061581586742313,2.945358490026873,8.542197005076142,0.06963864,0.10048734,0.053145275,15.323008,-26.683891,22.724209
377567994000.0,3.650975484760826,3.0019647002962446,8.683961959222794,0.06688975,0.095294975,0.04520403,15.312144,-26.69898,22.655165
377573865000.0,3.6901671848915214,3.0803482028666025,8.835829899538208,0.05009095,0.08032878,0.042760566,15.302744,-26.708443,22.588179
377578041000.0,3.7181262134766495,3.13510371718002,8.938067516845814,0.01985312,0.06841691,0.029932396,15.294183,-26.708858,22.51771
377583067000.0,3.752907531731551,3.187275649164484,8.98154416466444,0.0061086523,0.04550946,0.013133603,15.29195,-26.709766,22.454353
377593020000.0,3.82814641018022,3.2822684474901096,9.038074963252749,-0.024740042,0.013744468,-0.0067195175,15.303674,-26.700941,22.389687
377597976000.0,3.8698718782417583,3.323993959120879,9.046419778021978,-0.048258353,-0.015271631,-0.010995574,15.319033,-26.690655,22.331308
377603057000.0,3.903505776986603,3.3525204846577354,9.0296525373463,-0.051923547,-0.035124753,-0.019547688,15.3478775,-26.685827,22.278845
377608156000.0,3.9303907668196,3.370443811213067,8.993806071389246,-0.06261369,-0.048258353,-0.027488936,15.380814,-26.673748,22.232403
377612994000.0,3.9692077968304167,3.360976683575796,8.932886543467566,-0.07941248,-0.057726767,-0.032986723,15.414046,-26.664814,22.19715
377618017000.0,4.030060723452105,3.310265776069998,8.828084149553728,-0.07666359,-0.061391957,-0.038789943,15.450114,-26.659307,22.1632
377622973000.0,4.090101954655984,3.260231283217373,8.724679677278797,-0.087659165,-0.0729984,-0.036957346,15.482047,-26.648275,22.142574
377628004000.0,4.134855727147988,3.205707043889861,8.618888131043374,-0.08582657,-0.076358154,-0.041233405,15.515981,-26.64285,22.119507
377633070000.0,4.166130801077447,3.1476254168707984,8.511660519108574,-0.08246681,-0.070554934,-0.040927973,15.547992,-26.634409,22.09821
377638009000.0,4.193364124895843,3.090884540607351,8.425166171280438,-0.074830994,-0.06872234,-0.03390302,15.561116,-26.623266,22.108696
377643825000.0,4.21914815822609,3.0238459462549763,8.358127361540598,-0.06658431,-0.06841691,-0.030848695,15.574322,-26.613918,22.117304
377647991000.0,4.241483279276419,2.9751622031101235,8.306243142811805,-0.06627888,-0.065973446,-0.032986723,15.581605,-26.599733,22.142921
377653065000.0,4.282606672484925,2.9134767375647943,8.229136377975246,-0.070554934,-0.058948494,-0.022907447,15.5838,-26.58499,22.168808
377658003000.0,4.325051520612915,2.8603695834002187,8.163104479387084,-0.056199603,-0.055283304,-0.022602014,15.583339,-26.569077,22.20451
377663070000.0,4.373736591298796,2.8205363731576067,8.114419408701204,-0.054367006,-0.03940081,-0.020158553,15.576628,-26.54786,22.236315
377667970000.0,4.417823222776769,2.7844213434581757,8.067903405461145,-0.051923547,-0.042455133,-0.0106901415,15.563191,-26.524559,22.287004
377673062000.0,4.441960319328493,2.7643070613265137,8.023651900758951,-0.04734206,-0.029321533,-0.0015271631,15.544483,-26.502604,22.329084
377678034000.0,4.465528591923775,2.7446667999835013,7.980443243771655,-0.027488936,-0.016187929,0.009468411,15.516062,-26.480928,22.387825
377683070000.0,4.4634141261623865,2.7329969529406664,7.944024198768216,-0.020158553,-0.00061086525,0.011301007,15.485595,-26.457832,22.441624
377688007000.0,4.451109998403886,2.724794158275503,7.911213277064538,-0.014966198,-0.0018325958,0.027488936,15.44915,-26.436745,22.498905
377692974000.0,4.4152220571403245,2.726499204565198,7.8912888,-0.0012217305,0.0012217305,0.03176499,15.413397,-26.420048,22.560179
377698008000.0,4.342572302668203,2.74359334056378,7.8912888,0.00061086525,-0.00030543262,0.042760566,15.372707,-26.399311,22.625027
377703011000.0,4.275258387394621,2.7603501450421515,7.892403722521076,0.015271631,0.00580322,0.04520403,15.332379,-26.389784,22.685432
377708188000.0,4.235451808831795,2.776272776467282,7.900365038233641,0.0290161,0.02107485,0.038789943,15.290783,-26.380587,22.743238
377713504000.0,4.194576442472902,2.792622923010839,7.9085401115054195,0.03145956,0.02565634,0.040927973,15.259512,-26.378576,22.786217
377718004000.0,4.151755698835683,2.806676546613644,7.918129098007544,0.0290161,0.018020526,0.043676864,15.229684,-26.379522,22.827118
377723051000.0,4.100234999180059,2.822529117333552,7.930018391554608,0.032375857,0.02687807,0.046120327,15.196541,-26.382307,22.862501
377727975000.0,4.051358220822527,2.835655768303075,7.949301257095221,0.03848451,0.0290161,0.03756821,15.177241,-26.391113,22.88925
377733007000.0,4.006720894405335,2.8401194543349386,7.998402316154131,0.038179077,0.03176499,0.03634648,15.1540985,-26.39774,22.914665
377738139000.0,3.964143699486748,2.8452931473538072,8.047461862557846,0.040927973,0.046731193,0.030848695,15.137342,-26.408714,22.921272
377743009000.0,3.9562953164829615,2.8570656808834665,8.082779709002944,0.03940081,0.04153884,0.026572637,15.123403,-26.41825,22.932205
377747986000.0,3.948274494673959,2.869096871720656,8.118873532772401,0.035124753,0.044593163,0.028099801,15.110126,-26.426394,22.923445
377753069000.0,3.919944915707621,2.8873194912735443,8.182107849317436,0.032986723,0.051923547,0.019547688,15.10108,-26.436214,22.913177
377758036000.0,3.882955828926905,2.907868983929497,8.256085851218248,0.023518313,0.05131268,0.02076942,15.089908,-26.441412,22.905956
377763060000.0,3.863452930749739,2.916926283171859,8.309757357132211,0.02107485,0.061086524,0.014049901,15.087059,-26.44946,22.887133
377768021000.0,3.874075342018184,2.9063039088761364,8.327461745640184,0.02565634,0.06872234,0.017715093,15.081582,-26.45526,22.870947
377772988000.0,3.8847106003875393,2.895668687524221,8.345187546430168,0.017715093,0.070554934,0.011911872,15.0835495,-26.462198,22.834215
377778080000.0,3.894313741302343,2.9044560146098504,8.37243162257886,0.014660766,0.062002823,0.015271631,15.082613,-26.46965,22.800735
377782991000.0,3.902989569525918,2.921807716353072,8.402797202545655,0.013439035,0.05375614,0.016187929,15.083753,-26.476265,22.766365
377788056000.0,3.909107609427801,2.9340438003691607,8.433947647877325,0.021991149,0.06291912,0.011911872,15.081193,-26.478079,22.732166
377793022000.0,3.912483897146103,2.940796340550901,8.464334166832316,0.01985312,0.05467244,0.019547688,15.079171,-26.475182,22.70677
377798066000.0,3.91591321556155,2.947654941573193,8.495197960954139,0.008857546,0.03848451,0.015882496,15.080737,-26.476974,22.677244
377803019000.0,3.904457450425035,2.9652271869687064,8.526003766651097,0.01160644,0.016798794,0.01038471,15.082913,-26.480759,22.652653
377808074000.0,3.886368436319477,2.987838454600654,8.557659258010275,-0.0015271631,0.012217305,0.018325957,15.082342,-26.476171,22.629747
377813057000.0,3.872949183093072,2.993768755395381,8.575013823372988,0.0030543262,0.007941248,0.01740966,15.09428,-26.476995,22.60862
377818003000.0,3.863005127221833,2.9871393848145558,8.58164333240028,0.00030543262,-0.004276057,0.0106901415,15.107395,-26.47218,22.591316
377823054000.0,3.852849966242127,2.9803692774947512,8.588413581105668,-0.0027488936,-0.022602014,0.005192355,15.12591,-26.471767,22.569544
377828034000.0,3.84674407780269,2.9783869,8.584131224775785,-0.007330383,-0.02687807,0.017715093,15.140846,-26.46875,22.54929
377833071000.0,3.8422375062780265,2.9783869,8.575117893497758,-0.02443461,-0.039095376,0.018936822,15.163939,-26.463657,22.533606
377838064000.0,3.833925338439805,2.9720126384398053,8.56061823073301,-0.020463986,-0.040317107,0.029321533,15.179142,-26.46061,22.515266
377843023000.0,3.8227438870506982,2.9608311870506987,8.54198247841783,-0.02443461,-0.045814894,0.02687807,15.199682,-26.452532,22.499723
377848277000.0,3.812252329274715,2.948745660967047,8.518120661294184,-0.023823744,-0.041233405,0.02687807,15.214937,-26.44476,22.484053
377853054000.0,3.823203029091199,2.934144727878401,8.434165067342217,-0.046120327,-0.039095376,0.02321288,15.232758,-26.430805,22.469736
377858066000.0,3.8346924382350593,2.918825515686587,8.346079357296738,-0.0421497,-0.042455133,0.024129177,15.25059,-26.427282,22.454779
377863165000.0,3.842598898678733,2.9113493,8.298492306606335,-0.03726278,-0.040011674,0.026267206,15.267636,-26.41858,22.43775
377868028000.0,3.846813557357466,2.9113493,8.29006281321267,-0.047036625,-0.04550946,0.02687807,15.28627,-26.407215,22.42371
377873023000.0,3.8498764,2.908434968652364,8.281022759945845,-0.051618114,-0.05222898,0.029321533,15.30207,-26.39929,22.423267
377878064000.0,3.8498764,2.8983794283899185,8.270967534680276,-0.03604105,-0.05009095,0.03573562,15.315863,-26.393698,22.422512
377882965000.0,3.864852796642547,2.887203567785817,8.25646377964303,-0.035430185,-0.044593163,0.033292156,15.330277,-26.384558,22.423126
377888066000.0,3.907270675195369,2.873064274934877,8.23289829155813,-0.02687807,-0.03970624,0.036651913,15.3409195,-26.380154,22.424896
377892929000.0,3.9360676,2.865856310254124,8.218095523851984,-0.033292156,-0.045814894,0.03359759,15.353794,-26.372232,22.42778
377898926000.0,3.9360676,2.8760983734641106,8.223216635666518,-0.020158553,-0.04062254,0.03848451,15.361026,-26.370304,22.428064
377903092000.0,3.9369089851047714,2.882619,8.226757438273163,-0.032070424,-0.03634648,0.035430185,15.365402,-26.360725,22.438692
377908069000.0,3.948942242766978,2.882619,8.230768189093663,-0.010995574,-0.040317107,0.0290161,15.369729,-26.362991,22.450058
377912999000.0,3.960861865084575,2.882619,8.234741064630144,-0.017104227,-0.03390302,0.035430185,15.370069,-26.35426,22.45857
377918001000.0,3.979740713281539,2.876641883481317,8.245018815205327,-0.017104227,-0.039095376,0.03940081,15.374969,-26.35361,22.469574
377923040000.0,4.002057349981502,2.8677151821957088,8.258409076859046,-0.025350908,-0.040317107,0.032986723,15.379302,-26.349745,22.477242
377928059000.0,4.036476420104314,2.8682242088667618,8.276681210052159,-0.018020526,-0.03940081,0.03481932,15.379485,-26.347727,22.489614
377933211000.0,4.083266058416311,2.877582185386439,8.300076029208157,-0.021991149,-0.04062254,0.036651913,15.381807,-26.341516,22.501694
377938058000.0,4.118706477722042,2.8884797788433167,8.311202767040426,-0.0125227375,-0.04337143,0.03756821,15.383276,-26.33621,22.51841
377943014000.0,4.143215206550605,2.902484610061965,8.30770146783712,-0.0125227375,-0.049785517,0.038179077,15.384972,-26.327421,22.536211
377948071000.0,4.168223407052228,2.916774850472116,8.304128814473296,-0.0125227375,-0.046731193,0.031154128,15.381212,-26.319717,22.558212
377953144000.0,4.191754748609671,2.930686083136959,8.273810920444905,-0.017715093,-0.04642576,0.035430185,15.375486,-26.309261,22.583689
377958055000.0,4.213920676029786,2.9439856858799134,8.23391234367047,-0.024740042,-0.054367006,0.030543262,15.374829,-26.300343,22.607811
377963060000.0,4.225309766525336,2.943843301591715,8.222713097240565,-0.020463986,-0.06719518,0.03756821,15.371885,-26.293558,22.641754
377968816000.0,4.229141365329811,2.9323487052199906,8.234207493570585,-0.010995574,-0.06291912,0.03390302,15.371626,-26.288254,22.670645
377973019000.0,4.231939178007924,2.923955413255022,8.242600639466184,-0.0125227375,-0.058337633,0.027183503,15.369002,-26.284187,22.710363
377978060000.0,4.232949,2.920926,8.232909130418395,-0.0070249503,-0.05681047,0.028405234,15.364815,-26.283735,22.74961
377983045000.0,4.232949,2.920926,8.214914370241237,-0.011301007,-0.06169739,0.038179077,15.360184,-26.280006,22.788883
377988061000.0,4.221982250098278,2.9055725730403337,8.218289749901722,0.0027488936,-0.06261369,0.033292156,15.362729,-26.280313,22.825445
377993006000.0,4.203365505071153,2.8795091688812016,8.236906494928848,0.0036651916,-0.061391957,0.040317107,15.3595295,-26.27342,22.864922
377998189000.0,4.184524496573482,2.8522670433353783,8.256017714223118,0.0033597588,-0.057421334,0.038179077,15.356409,-26.27158,22.902723
378003112000.0,4.176260837043204,2.8274768844535973,8.2684125779511,0.011911872,-0.05100725,0.03573562,15.35072,-26.271309,22.939808
378007939000.0,4.16815832139164,2.803170141223381,8.280565738059767,0.004276057,-0.048258353,0.03268129,15.347057,-26.258339,22.971212
378013041000.0,4.163178959392056,2.7773051445952093,8.29759584566404,-0.0021380284,-0.043676864,0.030543262,15.342454,-26.248135,22.999773
378018023000.0,4.159562288728017,2.751988223355064,8.315679387810794,-0.0033597588,-0.03634648,0.03023783,15.337247,-26.237547,23.026234
378023030000.0,4.154068259400085,2.7271242594000844,8.333633677651035,0.0067195175,-0.032070424,0.03145956,15.3331785,-26.22075,23.050735
378028087000.0,4.133607812589776,2.706663812589776,8.350002804224756,0.0061086523,-0.02076942,0.029626964,15.327845,-26.201653,23.07069
378032947000.0,4.113944420954796,2.6870004209547957,8.36573425669624,0.003970624,-0.025961773,0.026267206,15.319725,-26.178387,23.09094
378037932000.0,4.116880808907768,2.678695691237864,8.361698985679611,0.0027488936,-0.02565634,0.034208454,15.306649,-26.15444,23.107956
378042984000.0,4.128623970364077,2.6747812495873786,8.349955538106796,0.008552114,-0.030848695,0.02687807,15.300359,-26.134502,23.124763
378047990000.0,4.148316721501707,2.6719291,8.337686803510483,0.017104227,-0.03023783,0.02321288,15.293802,-26.107395,23.13698
378053077000.0,4.191072175221843,2.6719291,8.323434770648465,0.008552114,-0.030543262,0.013133603,15.291991,-26.079632,23.148548
378058027000.0,4.233722012301084,2.675034103690325,8.30542294815972,0.00580322,-0.03145956,0.016493361,15.28589,-26.057787,23.164242
378063082000.0,4.28098426359465,2.689212779078395,8.272339174851119,0.004581489,-0.018020526,0.015271631,15.281699,-26.03635,23.174097
378067943000.0,4.315779719298246,2.6979712754385963,8.246974140350877,0.002443461,-0.021991149,0.004276057,15.277937,-26.016077,23.196592
378073082000.0,4.293640639136302,2.680260011309042,8.255829957354926,-0.004886922,-0.027183503,0.008552114,15.268585,-25.992752,23.217566
378078463000.0,4.271419838080266,2.6623523,8.264784,0.004276057,-0.03023783,0.012217305,15.257187,-25.97565,23.249205
378083037000.0,4.275470623913446,2.6623523,8.264784,-0.00580322,-0.030543262,0.0106901415,15.246456,-25.952213,23.280714
378087936000.0,4.279809233401147,2.6623523,8.264784,0.007941248,-0.015882496,0.016187929,15.2333145,-25.930931,23.306166
378093011000.0,4.2689577666033856,2.647508335753836,8.258846290302168,0.013133603,-0.007330383,0.026267206,15.220334,-25.904987,23.333069
378098056000.0,4.253670562600854,2.628399430517323,8.25120256858092,0.01038471,-0.018020526,0.02687807,15.209256,-25.881477,23.360119
378102998000.0,4.24363048090544,2.6111536688207373,8.24783980795911,0.014966198,-0.013744468,0.032375857,15.188256,-25.858747,23.383749
378108429000.0,4.248377797517342,2.5969117685560423,8.25733463946696,0.0143553335,-0.01282817,0.03940081,15.168955,-25.83416,23.41072
378113088000.0,4.250178338213024,2.5831725742386,8.264784,0.0106901415,-0.021380283,0.036957346,15.15466,-25.80893,23.435997
378118027000.0,4.226301601615345,2.5513368007824333,8.264784,0.019242255,-0.015882496,0.04550946,15.133426,-25.784895,23.459507
378122975000.0,4.202381356082786,2.5194430151859333,8.264784,0.009773844,-0.019242255,0.050701816,15.107692,-25.752825,23.4858
378128072000.0,4.1946416,2.5061946354793565,8.25892654863541,0.01740966,-0.016798794,0.06047566,15.077066,-25.72622,23.510616
378133071000.0,4.1946416,2.5020068797760677,8.250550862316306,0.01740966,-0.012217305,0.069027774,15.045954,-25.695341,23.535843
378137995000.0,4.189061569122498,2.4981515068470053,8.252604965764974,0.014660766,-0.012217305,0.070554934,15.016886,-25.66123,23.557247
378143005000.0,4.174992140488234,2.494634186415952,8.270191567920241,0.016798794,-0.009468411,0.06688975,14.986384,-25.62879,23.576881
378147968000.0,4.1610547005058285,2.4911498628033137,8.287613185983432,-0.0036651916,-0.011911872,0.07360926,14.951121,-25.58909,23.599594
378153002000.0,4.156334,2.492754213562262,8.301867715140478,0.01038471,-0.010079277,0.073303826,14.918375,-25.560974,23.61875
378158072000.0,4.156334,2.4969646173083597,8.314499190166494,0.0012217305,-0.011911872,0.06963864,14.886243,-25.522175,23.639511
378163014000.0,4.164448147781299,2.5122972517828845,8.321085818740096,-0.004276057,-0.010995574,0.079107046,14.851993,-25.486664,23.654451
378168021000.0,4.186612652931855,2.5471270467511884,8.317919413629161,-0.02321288,-0.025961773,0.073303826,14.826119,-25.44854,23.671097
378173051000.0,4.208878972266245,2.5821168347860537,8.314738463417855,-0.018020526,-0.015882496,0.07422013,14.789607,-25.41508,23.680832
378177994000.0,4.224602959799769,2.6098152363727376,8.30405140993454,-0.015882496,-0.018325957,0.06841691,14.761138,-25.378416,23.695585
378183071000.0,4.228347467231421,2.624792953307663,8.27784024890258,-0.027794369,-0.018325957,0.06963864,14.729219,-25.339266,23.708046
378187992000.0,4.231976917905275,2.639310452822488,8.25243447316134,-0.03634648,-0.027488936,0.06414085,14.707631,-25.310467,23.727943
378193002000.0,4.2247268951089065,2.665124131795985,8.24014880660414,-0.029626964,-0.024129177,0.061086524,14.683619,-25.282722,23.744831
378198072000.0,4.213435976420433,2.6952329994031468,8.232621815673204,-0.04428773,-0.017715093,0.055588737,14.663054,-25.249,23.761833
378203029000.0,4.206410920832167,2.727121351898498,8.224284448642596,-0.031154128,-0.014966198,0.052839845,14.642287,-25.229504,23.781584
378208071000.0,4.2199252118294615,2.77216867496968,8.210769969493423,-0.021991149,-0.014049901,0.050396383,14.622625,-25.206448,23.799147
378213338000.0,4.234042643271989,2.816674657546708,8.196105535092016,-0.02107485,-0.008552114,0.04153884,14.608801,-25.192732,23.810362
378218026000.0,4.246608818907005,2.8292409972010355,8.177256271639493,-0.009773844,0.003970624,0.04642576,14.590879,-25.182735,23.820883
378223007000.0,4.259960380519208,2.842592733083759,8.157228929221187,-0.0061086523,0.0030543262,0.038789943,14.585557,-25.182388,23.833366
378228027000.0,4.274774507065366,2.8552958954781658,8.144507686434496,0.01740966,0.0106901415,0.043066,14.572566,-25.187662,23.842653
378233069000.0,4.29678482049412,2.8640999748837634,8.17091992465129,0.021685716,0.016798794,0.03848451,14.564504,-25.190786,23.85027
378238416000.0,4.31914,2.873575401215805,8.197923803499549,0.021380283,0.019547688,0.038789943,14.553511,-25.201569,23.863688
378242999000.0,4.31914,2.8843921170212763,8.201529438182865,0.03359759,0.02565634,0.034513887,14.543636,-25.21723,23.873423
378248002000.0,4.31914,2.8962001094224923,8.205465504148526,0.0421497,0.029932396,0.037873644,14.5284605,-25.225653,23.886854
378253055000.0,4.326376336788922,2.9065967161302395,8.231444206586827,0.034513887,0.021380283,0.042760566,14.515068,-25.232878,23.901562
378258009000.0,4.339693131904941,2.915474564090569,8.275833678143712,0.030543262,0.016187929,0.03970624,14.501905,-25.243267,23.913698
378263058000.0,4.344479537496692,2.927707578115904,8.309872702037577,0.032986723,0.009162978,0.03940081,14.492903,-25.25399,23.929083
378268011000.0,4.336111601931727,2.944443580312252,8.32660901005557,0.03573562,0.015577064,0.0290161,14.486262,-25.264969,23.940477
378273035000.0,4.327154997882708,2.9623568987985216,8.338795942110568,0.034208454,0.016493361,0.03573562,14.4763775,-25.272402,23.955124
378278118000.0,4.314885074911779,2.986896702033272,8.318345643421273,0.023823744,0.01282817,0.025045475,14.47388,-25.281454,23.965464
378282939000.0,4.303247597311376,3.010171616728281,8.298949442362629,0.01863139,0.020463986,0.021991149,14.469552,-25.292606,23.97029
378288064000.0,4.3022552065536726,3.016694,8.291245098681733,0.02321288,0.026267206,0.008857546,14.471656,-25.305885,23.97366
378293864000.0,4.305741978681732,3.016694,8.28775818091651,0.03359759,0.028099801,0.005192355,14.471344,-25.318134,23.97694
378298010000.0,4.308234419585687,3.016694,8.285265635907093,0.036651913,0.038789943,-0.0018325958,14.482962,-25.337652,23.973778
378302952000.0,4.3141471595795,3.007525800508104,8.286229103723171,0.032375857,0.036651913,-0.008857546,14.496752,-25.35768,23.972973
378308071000.0,4.322736585965834,2.99034717195795,8.29052386176084,0.042455133,0.040927973,-0.019242255,14.510481,-25.382727,23.966599
378312967000.0,4.324793897685861,2.971521820950257,8.287629626047513,0.043982297,0.044593163,-0.02321288,14.523465,-25.4054,23.96179
378318005000.0,4.309956373767971,2.945556154093949,8.265373262704697,0.04550946,0.048258353,-0.026572637,14.538033,-25.431015,23.954773
378322987000.0,4.295283776674099,2.9198791091796723,8.243364290458985,0.05955936,0.03604105,-0.037873644,14.556791,-25.457176,23.951824
378328171000.0,4.27536886693369,2.8722433312060525,8.233045104672897,0.06566802,0.04337143,-0.03481932,14.568637,-25.479507,23.944656
378333069000.0,4.254493403471295,2.817967039012016,8.228870360747663,0.05589417,0.046731193,-0.036957346,14.586859,-25.502604,23.93949
378338014000.0,4.221567399634262,2.773377611389072,8.230967967010459,0.046120327,0.058948494,-0.039095376,14.600447,-25.52183,23.930893
378343004000.0,4.172628972013752,2.7419172874917708,8.241454595640407,0.05131268,0.063224554,-0.027183503,14.610957,-25.540081,23.925259
378347977000.0,4.123857268495356,2.710564143054641,8.251905498281033,0.04550946,0.06780604,-0.025350908,14.623732,-25.544853,23.91334
378353063000.0,4.087248167716393,2.6855153340831386,8.249149207126148,0.040927973,0.06841691,-0.022296581,14.632579,-25.549168,23.903372
378358071000.0,4.0570408345510165,2.6639386675364407,8.24051836026633,0.04550946,0.07269296,-0.018936822,14.639413,-25.553728,23.891867
378363834000.0,4.024164644371894,2.6700232781405253,8.231741196167494,0.028405234,0.06505715,-0.016493361,14.651639,-25.549927,23.869514
378368023000.0,4.001386949439318,2.6928010028034066,8.226046950816182,0.0106901415,0.059864793,-0.01282817,14.6615305,-25.546394,23.84656
378372989000.0,3.974384315628105,2.719803671859475,8.219296503832506,0.0012217305,0.061391957,-0.0061086523,14.670268,-25.533869,23.821001
378378012000.0,3.949466341136029,2.770274477001146,8.224565722704208,-0.005497787,0.061391957,-0.00030543262,14.67925,-25.517464,23.797884
378383069000.0,3.9256834580455062,2.833695581355377,8.236456998690457,-0.006414085,0.056505036,0.002443461,14.687773,-25.500029,23.776453
378387981000.0,3.9073372,2.898532378962198,8.244872204977694,-0.02321288,0.047647487,0.008857546,14.696257,-25.486298,23.748297
378393022000.0,3.9073372,2.9778789104641152,8.241093723565783,-0.016493361,0.03756821,0.020158553,14.703577,-25.477554,23.723217
378397981000.0,3.9073372,3.055934742584331,8.237376705251624,-0.017104227,0.028099801,0.02687807,14.717547,-25.476622,23.690853
378403069000.0,3.8850817753060514,3.18388141112277,8.236053,-0.019547688,0.03756821,0.032986723,14.7271805,-25.475471,23.658274
378408038000.0,3.851792429940539,3.333683465267576,8.236053,-0.01282817,0.034208454,0.03268129,14.739909,-25.476402,23.631874
378412997000.0,3.825613268852941,3.439993185058824,8.24499468617647,0.00061086525,0.032070424,0.038179077,14.754523,-25.496403,23.6013
378418025000.0,3.811450797735294,3.4718585787058824,8.269779029117647,0.01740966,0.030543262,0.04520403,14.768871,-25.518055,23.57227
378422979000.0,3.797496763941176,3.503254990823529,8.294198606470589,0.023823744,0.031154128,0.03970624,14.797609,-25.575497,23.527908
378428036000.0,3.789643258124221,3.500827290621107,8.333584907990746,0.032375857,0.027794369,0.031154128,14.825192,-25.6348,23.486677
378433491000.0,3.784994615661149,3.4775840783057483,8.384720557572521,0.055588737,0.04184427,0.029932396,14.848744,-25.696838,23.44232
378437973000.0,3.784212041598707,3.4393351393431786,8.42354488626846,0.0571159,0.042760566,0.028710667,14.879355,-25.75884,23.394243
378443025000.0,3.7877666660642126,3.3682425757989862,8.4626458296231,0.048258353,0.047036625,0.028710667,14.906485,-25.821407,23.343203
378448014000.0,3.7912769632650063,3.298036558474763,8.501259172140182,0.043676864,0.03726278,0.029932396,14.93895,-25.876522,23.293028
378453096000.0,3.8167812625045903,3.135164456334925,8.550330507528463,0.0580322,0.046731193,0.01160644,14.972457,-25.93456,23.23563
378458075000.0,3.851803672842453,2.933786122585384,8.60286371162321,0.054061573,0.0421497,0.010079277,15.003716,-25.982454,23.187935
378463047000.0,3.887945730581453,2.814099585723436,8.637301059355206,0.038789943,0.034513887,0.00580322,15.024983,-26.013603,23.134928
378468006000.0,3.9251249251725855,2.773540323179845,8.654200693260266,0.027794369,0.02107485,-0.011301007,15.051392,-26.045408,23.083803
378472982000.0,3.962431574151306,2.7328420190022062,8.671158260977865,0.028710667,0.02107485,-0.007330383,15.053728,-26.033281,23.043812
378478022000.0,3.991971404264393,2.6846198220948825,8.661923163113006,0.02565634,0.008552114,-0.0143553335,15.067684,-26.021057,23.007236
378483077000.0,4.017776694243071,2.6330092870469084,8.640418754797441,0.006414085,-0.01160644,-0.01740966,15.080683,-26.004173,22.974367
378488059000.0,4.052025019550186,2.5893611448358684,8.61783187138802,-0.003970624,-0.025045475,-0.009468411,15.081478,-25.978214,22.95283
378493005000.0,4.096844081083049,2.554884871657326,8.593698746560886,-0.013744468,-0.03604105,-0.01038471,15.088255,-25.94955,22.934464
378497986000.0,4.141980301361089,2.520164629703763,8.569394845476381,-0.018936822,-0.042455133,-0.005192355,15.083336,-25.913221,22.92805
378503172000.0,4.162019899785726,2.5261806134498106,8.493436093126752,-0.03359759,-0.062002823,0.00061086525,15.082197,-25.872786,22.927723
378508071000.0,4.169753165485413,2.5493798856848526,8.400638115955168,-0.04520403,-0.07574729,0.0027488936,15.080865,-25.832458,22.92775
