timestamp,acc_x,acc_y,acc_z,gyro_x,gyro_y,gyro_z,ori_azimuth,ori_pitch,ori_roll
2022564792000.0,0.6775921390263927,-9.54965061745362,-1.2925414374566155,5.4122663,3.6639698,8.745147,176.78851,14.548211,37.82791
2022570521000.0,0.6759481865334965,-9.55074657891583,-1.2889795412469722,5.4122663,0.75961095,0.03359759,179.47491,12.940272,39.409794
2022574758000.0,0.6747323675925991,-9.551557119798249,-1.2863452675098004,-1.1817188,0.7486154,0.0290161,176.46416,15.305918,37.576492
2022579758000.0,0.6732976036783941,-9.552513623081726,-1.2832366131114383,-1.1753048,0.74036866,0.03145956,176.13144,14.622427,37.32754
2022584693000.0,0.6718814916950736,-9.553457691822516,-1.280168371220255,-1.1667526,0.73792523,0.032070424,175.80707,15.4116,37.079296
2022589800000.0,0.6704160238331045,-9.55443466427626,-1.276993191617768,-1.1597277,0.74097955,0.032070424,175.48447,16.209114,36.829147
2022594714000.0,0.6690059378582237,-9.555374715703264,-1.2739380060750578,-1.1621711,0.7467828,0.028099801,175.16599,17.014837,36.576675
2022599720000.0,0.6675694522273216,-9.556332366790684,-1.270825621291418,-1.1731668,0.75747293,0.034208454,174.84831,17.83098,36.31834
2022604742000.0,0.666128375351894,-9.557293078688607,-1.267703288813703,-1.1930199,0.7831292,0.036957346,174.53943,18.656109,36.052544
2022609684000.0,0.6647102546990937,-9.558238486533996,-1.264630694806362,-1.2147056,0.7901542,0.03940081,174.23145,19.492378,35.78544
2022615744000.0,0.662971320835077,-9.559397768513572,-1.2608630056755472,-1.2342533,0.73823065,0.044898596,173.92084,20.340336,35.52345
2022619720000.0,0.6618303965705012,-9.560158379924593,-1.25839100369797,-1.20371,0.7583892,0.055283304,173.62428,21.18939,35.237137
2022624768000.0,0.6603818589227197,-9.561124065639593,-1.2552525062173836,-1.244027,0.7507534,0.06291912,173.31958,22.064714,34.96796
2022629755000.0,0.6589508253946915,-9.562078082014532,-1.2521519343204572,-1.2434162,0.74189585,0.07360926,173.0186,22.931396,34.689068
2022634699000.0,0.6575321308363256,-9.563023872461237,-1.249078096851357,-1.2458596,0.7290677,0.07880162,172.72046,23.812603,34.40966
2022639823000.0,0.6560617847770481,-9.564004097026144,-1.2458923478239157,-1.2437216,0.7098254,0.089491755,172.42041,24.699337,34.128593
2022644724000.0,0.6546554291883443,-9.564941661544609,-1.2428452447826412,-1.2538009,0.70280045,0.093767814,172.12648,25.592413,33.844585
2022649729000.0,0.653219230510225,-9.56589912133137,-1.2397334817298808,-1.2644911,0.66156703,0.09987647,171.82523,26.490017,33.568474
2022654688000.0,0.6517962316601164,-9.566847781287922,-1.2366503182975854,-1.2162327,0.591623,0.10262536,171.523,27.378874,33.297333
2022659688000.0,0.6503614677459113,-9.5678042845714,-1.2335416638992234,-1.1239921,0.52473325,0.099265605,171.21944,28.26174,33.031654
2022664717000.0,0.6489183822010038,-9.568766335573924,-1.230414979305351,-1.0051788,0.44837508,0.086437434,170.90807,29.127556,32.782013
2022669735000.0,0.6474784531367076,-9.56972628226922,-1.2272951337511548,-0.8668178,0.376293,0.0888809,170.5849,29.9763,32.542366
2022674702000.0,0.6460531586643362,-9.570676472631026,-1.224206996471822,-0.7302894,0.32284227,0.08002335,170.26143,30.7951,32.315666
2022679693000.0,0.6446209773251766,-9.571631254208596,-1.221103937651377,-0.6114761,0.13072516,0.038789943,169.90645,31.581812,32.137535
2022685519000.0,0.6429491904123449,-9.572745771834503,-1.2174817335464057,-0.2443461,-0.04550946,0.0021380284,169.54753,32.281918,31.96359
2022689722000.0,0.6417431278660641,-9.573549808494594,-1.2148685986591423,0.06688975,-0.033292156,0.00030543262,169.19246,32.966976,31.786436
2022694714000.0,0.6403106595741217,-9.574504781372818,-1.2117649181078178,0.03268129,-0.015882496,0.006414085,168.81013,33.642406,31.647072
2022704750000.0,0.6374308014455292,-9.576424674763414,-1.2055252269994257,0.015577064,-0.013439035,0.01985312,168.4274,34.246403,31.502506
2022709690000.0,0.6360132546982946,-9.577369700007493,-1.202453876453844,0.016798794,-0.013744468,0.016493361,168.05255,34.852375,31.352192
2022714726000.0,0.6345681604839073,-9.57833309011461,-1.1993228397438138,0.017104227,-0.01985312,0.009162978,167.67686,35.464027,31.196367
2022719711000.0,0.6331377008614447,-9.579286723888238,-1.1962235113086468,0.01038471,-0.02107485,0.011911872,167.30319,36.077827,31.033936
2022724826000.0,0.631669937377213,-9.580265226747237,-1.1930433578591226,0.01985312,-0.018936822,0.0125227375,166.93407,36.68562,30.869734
2022729692000.0,0.6302736251359086,-9.581196095742715,-1.1900180153986366,0.02076942,-0.016187929,0.007941248,166.56844,37.295334,30.70212
2022734701000.0,0.6288362786466579,-9.582154320732103,-1.1869037654223575,0.017715093,-0.020158553,0.009468411,166.20345,37.90381,30.530197
2022739724000.0,0.6273949148184474,-9.583115223930683,-1.183780811213763,0.019547688,-0.021685716,0.0067195175,165.84526,38.50784,30.35532
2022744712000.0,0.6259635943376364,-9.584069431606284,-1.180679617585957,0.011301007,-0.01740966,0.009162978,165.48967,39.11413,30.175154
2022749980000.0,0.62445192707763,-9.585077203465756,-1.177404339311843,0.012217305,-0.020463986,0.0076358155,165.13734,39.714672,29.994738
2022755117000.0,0.6229778506321756,-9.5860599149392,-1.174210507782966,0.018936822,-0.018020526,0.008552114,164.79037,40.314285,29.80817
2022759685000.0,0.6216670503201578,-9.586933776338984,-1.1713704411246224,0.01863139,-0.02321288,0.0012217305,164.44711,40.910763,29.622698
2022764724000.0,0.620221095247422,-9.587897740348074,-1.168237539221953,0.015577064,-0.015271631,0.009773844,164.10844,41.50666,29.427797
2022769702000.0,0.6187926442944394,-9.588850035017105,-1.165142562902944,0.012217305,-0.012217305,0.008857546,163.77534,42.09646,29.235737
2022774705000.0,0.6173570195218857,-9.589807112202552,-1.1620320433119429,0.0106901415,-0.005497787,0.0106901415,163.44739,42.685337,29.036589
2022779697000.0,0.6159245512299434,-9.590762085080776,-1.1589283627606182,0.014660766,-0.00580322,-0.0021380284,163.12636,43.267254,28.839333
2022784690000.0,0.6144917959852181,-9.591717249259656,-1.155824060478414,0.018020526,0.0033597588,0.009468411,162.80896,43.85087,28.631231
2022789715000.0,0.613049858251442,-9.592678535059552,-1.15269986280806,0.011301007,0.004886922,0.01160644,162.49892,44.427654,28.427612
2022794693000.0,0.6116214072984594,-9.593630829728582,-1.149604886489051,0.016493361,0.0030543262,0.006414085,162.19444,44.99788,28.220333
2022799793000.0,0.6101579481059702,-9.59460646307773,-1.1464340590027218,0.025350908,0.010079277,0.009773844,161.89568,45.566513,28.007324
2022804753000.0,0.6087346623030787,-9.59555531433494,-1.1433502738395465,0.018936822,0.007941248,0.009773844,161.60074,46.13122,27.796785
2022809685000.0,0.6073194111781068,-9.596498809173765,-1.1402838971410023,0.019242255,0.01282817,0.018020526,161.31245,46.690308,27.580044
2022814716000.0,0.6058757517276336,-9.597461242777598,-1.1371559690853703,0.010995574,0.011301007,0.018020526,161.02856,47.246227,27.36564
2022819716000.0,0.6044409878134286,-9.598417746061076,-1.1340473146870085,0.018020526,0.009773844,0.0070249503,160.75162,47.79345,27.1503
2022824965000.0,0.602934772656296,-9.59942188320807,-1.130783849299608,0.021991149,0.0030543262,0.006414085,160.47617,48.340034,26.932882
2022829763000.0,0.6015579732042248,-9.600339743758896,-1.1278007845389395,0.01985312,0.0021380284,0.007941248,160.20856,48.879604,26.71634
2022834698000.0,0.6001418612209044,-9.601283812499688,-1.1247325426477566,0.009468411,0.00061086525,0.007941248,159.94443,49.41443,26.501022
2022839699000.0,0.5987068103539165,-9.602240507083822,-1.1216232665185148,0.011911872,0.007941248,0.0021380284,159.68823,49.94086,26.285267
2022844727000.0,0.5972640117617918,-9.603202366785688,-1.118497203655522,0.004581489,-0.0009162979,-0.0018325958,159.43192,50.46639,26.071545
2022849724000.0,0.5958301087059352,-9.604158296167196,-1.115390414449799,0.01038471,-0.0009162979,0.010079277,159.18343,50.985172,25.852882
2022854719000.0,0.5943967795556443,-9.60511384294739,-1.112284868705835,0.013744468,-0.004276057,0.0061086523,158.93973,51.49643,25.640953
2022859715000.0,0.593629322201791,-9.60527157271854,-1.109051549439248,0.011301007,-0.0036651916,0.008857546,158.69911,52.0057,25.424034
2022864759000.0,0.593388866535783,-9.604790676451408,-1.105685167604323,0.0125227375,-0.00580322,-0.003970624,158.46468,52.503876,25.213173
2022870804000.0,0.5931006915752324,-9.604214344584877,-1.101650715147518,0.006414085,-0.005497787,-0.0018325958,158.24118,53.01416,24.97627
2022874794000.0,0.592910481799782,-9.603833936950885,-1.098987776305061,0.009468411,-0.0067195175,0.00030543262,158.02345,53.51391,24.744009
2022880061000.0,0.5926593953618629,-9.603331779805965,-1.0954725635523743,-0.0018325958,-0.008246681,0.00061086525,157.81047,54.011948,24.512688
2022884783000.0,0.5924342899584352,-9.60288158310228,-1.0923210855538577,0.0061086523,-0.006414085,0.0012217305,157.60246,54.499996,24.281584
2022889693000.0,0.5922002222898985,-9.602413462429874,-1.0890441357502327,0.006414085,-0.0070249503,-0.0030543262,157.39865,54.984898,24.05337
2022894731000.0,0.591960052653628,-9.6019331382043,-1.0856817583346192,0.0076358155,0.00030543262,0.0033597588,157.20062,55.464252,23.82232
2022899774000.0,0.5917196446592431,-9.60145233727743,-1.0823160439029125,0.009468411,0.002443461,0.0036651916,157.00691,55.935246,23.596054
2022904635000.0,0.5914879129002295,-9.600988888277724,-1.079071796857002,0.021380283,0.005192355,0.0036651916,156.81903,56.39913,23.368736
2022909591000.0,0.5912516523370385,-9.600516381953398,-1.075764146505319,0.010995574,0.0070249503,-0.0033597588,156.63673,56.859608,23.14462
2022914632000.0,0.5910113396858994,-9.600035771707043,-1.0723997668800491,0.005192355,0.009162978,-0.00030543262,156.45827,57.31277,22.919203
2022919606000.0,0.5907742210334957,-9.599561549258055,-1.0690801032704302,0.008857546,0.004276057,0.004276057,156.2832,57.758892,22.697523
2022924603000.0,0.5905360059337651,-9.599085133983106,-1.065745089386782,0.0076358155,0.00580322,0.009773844,156.1142,58.201813,22.475603
2022929603000.0,0.5902976478191656,-9.598608432687378,-1.0624080732934775,0.015271631,0.0018325958,0.00061086525,155.94748,58.63404,22.259367
2022934598000.0,0.5900595280626808,-9.598132208092949,-1.0590743942162666,0.018325957,0.008552114,0.004276057,155.786,59.06509,22.038874
2022939968000.0,0.589803531447601,-9.597620230901336,-1.0554904389320576,0.0061086523,0.0070249503,0.009773844,155.62578,59.49001,21.823586
2022944623000.0,0.5895816200429088,-9.597176421995012,-1.0523836769491914,0.0012217305,0.004886922,0.010995574,155.47113,59.90672,21.609812
2022949606000.0,0.589344072345899,-9.59670134148369,-1.0490580067106043,0.008552114,0.004886922,0.004886922,155.32059,60.316925,21.398537
2022954654000.0,0.5891034259933994,-9.596220063855524,-1.045688955262804,0.004886922,0.008552114,0.016187929,155.17207,60.72804,21.184229
2022959657000.0,0.5888649248639312,-9.59574307653902,-1.042349936959844,0.01160644,0.0125227375,0.011911872,155.02957,61.12511,20.977818
2022964664000.0,0.5886262330479713,-9.595265707861476,-1.039008249044009,0.0012217305,0.0076358155,0.002443461,154.88837,61.5214,20.772497
2022969662000.0,0.5883879702766177,-9.594789197246268,-1.035672567757142,0.0036651916,0.0067195175,0.004581489,154.75206,61.909508,20.566643
2022974658000.0,0.5881498028485099,-9.594312877311577,-1.0323382212767125,-0.0009162979,0.017104227,0.011911872,154.62138,62.29407,20.363539
2022979657000.0,0.5879114924055334,-9.593836271356109,-1.0290018725866266,0.0070249503,0.016187929,0.009773844,154.49113,62.668293,20.165812
2022984654000.0,0.5876732773058027,-9.59335985608116,-1.0256668587029782,0.0018325958,0.012217305,0.009162978,154.36528,63.041836,19.967295
2022989675000.0,0.5874339180871219,-9.59288115263999,-1.022315827142082,0.004581489,0.009468411,0.00580322,154.24303,63.405483,19.77239
2022994685000.0,0.5871950832562932,-9.592403497941673,-1.0189721370165912,-0.00580322,0.009162978,0.008246681,154.12285,63.767868,19.578522
2022999661000.0,0.5869578692606439,-9.591929084812165,-1.015651138600535,0.004276057,0.010995574,0.00030543262,154.00667,64.117165,19.390768
2023004741000.0,0.5867156974162108,-9.591444756295704,-1.0122607302497375,-0.0033597588,0.011911872,0.009162978,153.89124,64.47011,19.200191
2023010686000.0,0.586432289617952,-9.590877958455083,-1.0082930181147989,0.004581489,0.007941248,0.0030543262,153.77972,64.80765,19.018436
2023014717000.0,0.5862401253059619,-9.590493641870468,-1.0056027157403766,-0.003970624,0.010079277,0.009468411,153.67107,65.14867,18.832573
2023019714000.0,0.5860019102062313,-9.590017226595515,-1.0022677018567283,0.00061086525,0.009162978,0.002443461,153.56467,65.47595,18.654978
2023024754000.0,0.585761645226715,-9.589536711689425,-0.9989039896346776,0.0070249503,0.012217305,0.01160644,153.4607,65.803925,18.47301
2023029755000.0,0.5855232394404927,-9.589059915053438,-0.9955663061381546,0.009773844,0.016187929,0.006414085,153.36098,66.12154,18.299269
2023034761000.0,0.5852845952961556,-9.588582641716156,-0.9922252856255382,0.0009162979,0.0106901415,0.003970624,153.2608,66.43732,18.125088
2023039867000.0,0.5850411839895268,-9.588095834352956,-0.988817524791056,-0.00061086525,0.004276057,0.01160644,153.16347,66.74706,17.951643
2023044769000.0,0.5848074976939734,-9.587628476402626,-0.9855459142131804,0.01160644,0.0106901415,0.005192355,153.07184,67.04695,17.784557
2023049820000.0,0.5845667083266051,-9.587146912753685,-0.9821748605557244,0.008552114,0.0143553335,0.007941248,152.97849,67.34836,17.615824
2023054751000.0,0.584331639553987,-9.586676789935836,-0.9788838952845076,0.004276057,0.005192355,0.008246681,152.8861,67.64067,17.452297
2023059757000.0,0.5856735111539331,-9.587128131400492,-0.9750669774340814,0.01282817,0.007941248,0.008246681,152.80016,67.92673,17.289305
2023064743000.0,0.5895084051970907,-9.589045567660362,-0.970513039287482,0.008857546,0.013439035,0.016798794,152.71376,68.21269,17.126608
2023069852000.0,0.5934379025229015,-9.591010305296075,-0.9658467597064596,0.017104227,0.008857546,0.01282817,152.6392,68.49291,16.958345
2023074761000.0,0.5972135733728536,-9.59289813012554,-0.9613631491244988,0.005497787,0.004581489,0.011911872,152.56734,68.77501,16.789013
2023080301000.0,0.6014745667541399,-9.595028614858728,-0.9563032178504992,0.004886922,0.0027488936,0.010995574,152.49686,69.04807,16.623442
2023084749000.0,0.6048956675772376,-9.596739155669775,-0.9522406593113748,-0.005192355,0.0015271631,0.01160644,152.427,69.3201,16.460423
2023089775000.0,0.6087613269155671,-9.598671974490898,-0.9476501873649628,0.007941248,0.0106901415,0.017104227,152.36107,69.58446,16.298214
2023094821000.0,0.6126423689014823,-9.600612484592643,-0.9430414485186448,0.00580322,0.01160644,0.013133603,152.29459,69.846375,16.14151
2023099749000.0,0.616432653266641,-9.6025076161387,-0.9385404843817732,0.002443461,0.011301007,0.011911872,152.23148,70.10354,15.98447
2023104754000.0,0.6202821608250052,-9.604432359115163,-0.9339691926802628,-0.002443461,0.0067195175,0.012217305,152.16907,70.35619,15.83073
2023109749000.0,0.6241239770595765,-9.606353256451314,-0.9294070344287056,-0.005497787,0.012217305,0.015577064,152.1109,70.60502,15.67829
2023114741000.0,0.6279634858970099,-9.608273000095371,-0.9248476162121342,0.00030543262,0.011301007,0.015271631,152.05118,70.847916,15.529798
2023119856000.0,0.6318975980170964,-9.610240045115273,-0.92017585656114,0.004886922,0.007941248,0.013439035,151.99367,71.087524,15.382966
2023124756000.0,0.6356663466756348,-9.612124408868455,-0.9157004660841368,-0.0036651916,0.014660766,0.010079277,151.9403,71.32355,15.238484
2023129762000.0,0.6395166233663784,-9.614049536408949,-0.9111282610376312,-0.005192355,0.02076942,0.0061086523,151.88724,71.55279,15.097225
2023134745000.0,0.6433492100123982,-9.615965818976726,-0.9065770629260176,-0.0076358155,0.017715093,0.014966198,151.83424,71.78157,14.955687
2023139720000.0,0.6471756435993836,-9.61787902503225,-0.9020331715743664,-0.008552114,0.019547688,0.013744468,151.78648,72.00287,14.819758
2023144757000.0,0.6510497633938852,-9.619816074057717,-0.8974326528330062,-0.007330383,0.013133603,0.018020526,151.73586,72.22346,14.682612
2023150004000.0,0.6550854009880386,-9.621833881529744,-0.8926403316426317,-0.00030543262,0.017104227,0.016187929,151.69038,72.43742,14.549135
2023154759000.0,0.6587426254515794,-9.623662483498393,-0.888297376189948,-0.007330383,0.026572637,0.022907447,151.64514,72.65244,14.4143
2023159742000.0,0.6625752120975992,-9.625578766066168,-0.8837461780783343,-0.0106901415,0.031154128,0.01282817,151.60168,72.85734,14.286956
2023164737000.0,0.6664170283321705,-9.627499663402318,-0.8791840198267771,-0.0106901415,0.029626964,0.022907447,151.55898,73.06532,14.154049
2023169789000.0,0.6703026851123616,-9.629442480888253,-0.8745698009104872,-0.00580322,0.029626964,0.026572637,151.51987,73.26527,14.027636
2023174845000.0,0.6741914184220698,-9.631386836630307,-0.8699519286142162,-0.016493361,0.03970624,0.027488936,151.48395,73.465515,13.900924
2023179753000.0,0.6779663201396425,-9.63327427689574,-0.8654692313772506,-0.007941248,0.044898596,0.03176499,151.44727,73.659996,13.77459
2023184743000.0,0.6818042907123174,-9.635193251411737,-0.8609116398506699,-0.015577064,0.03726278,0.038789943,151.41058,73.8557,13.649463
2023189721000.0,0.6856330316964406,-9.637107611159356,-0.8563650084640327,-0.018936822,0.037873644,0.03726278,151.3789,74.04474,13.527083
2023195902000.0,0.6903870389328541,-9.639484601436582,-0.8507196230480416,-0.02565634,0.03756821,0.04062254,151.34512,74.23464,13.403829
2023199752000.0,0.6933481985931343,-9.640965172956935,-0.8472032448161105,-0.019242255,0.044898596,0.04062254,151.31487,74.41826,13.283705
2023204751000.0,0.6971930913572228,-9.642887608549216,-0.8426374331845721,-0.022907447,0.04734206,0.039095376,151.28387,74.60121,13.165357
2023209748000.0,0.7010364458565527,-9.644809275013428,-0.8380734482430241,-0.020158553,0.04886922,0.047036625,151.2552,74.781075,13.046118
2023214737000.0,0.7048736472968482,-9.64672786496539,-0.8335167700614386,-0.029932396,0.04520403,0.047647487,151.22688,74.95763,12.931522
2023219750000.0,0.7087293079142468,-9.648655684454104,-0.8289381715999659,-0.0290161,0.043982297,0.0421497,151.20042,75.12922,12.81829
2023224771000.0,0.7125911215906797,-9.650586580455068,-0.8243522663785305,-0.019547688,0.044898596,0.042455133,151.17403,75.29916,12.705297
2023229756000.0,0.7164252465014581,-9.652503632150909,-0.8197992415769263,-0.026267206,0.051923547,0.043676864,151.14998,75.46679,12.595377
2023234745000.0,0.7202624479417536,-9.65442222210287,-0.8152425633953408,-0.025961773,0.046120327,0.04153884,151.12326,75.62805,12.488676
2023239704000.0,0.7240765754106704,-9.656329275133896,-0.8107132855636145,-0.02321288,0.046120327,0.040011674,151.10089,75.78715,12.3828945
2023244712000.0,0.7279283903661725,-9.658255171802452,-0.8061392538271184,-0.021685716,0.04917465,0.038179077,151.07849,75.94257,12.27977
2023249765000.0,0.7318148162787429,-9.660198373852417,-0.8015241215658332,-0.03176499,0.04886922,0.034513887,151.05585,76.09527,12.1795435
2023254755000.0,0.7356527868514178,-9.662117348368412,-0.7969665300392524,-0.02687807,0.04428773,0.040927973,151.03319,76.24473,12.078793
2023259756000.0,0.7326144521052842,-9.66273856787613,-0.7992854573827344,-0.03940081,0.040011674,0.03176499,151.01178,76.390045,11.985262
2023265743000.0,0.722014860830602,-9.66216563533256,-0.809025622620813,-0.040011674,0.050396383,0.03481932,150.99324,76.53481,11.887847
2023269782000.0,0.7148640759369254,-9.661779118789472,-0.8155966143356284,-0.03726278,0.047647487,0.03604105,150.97813,76.66405,11.802632
2023274766000.0,0.7060402304528739,-9.661302169433007,-0.8237050131241006,-0.0421497,0.04886922,0.037873644,150.96759,76.79258,11.717514
2023279750000.0,0.6972163849688224,-9.660825220076545,-0.831813411912573,-0.048258353,0.047036625,0.03604105,150.95587,76.9176,11.634844
2023284743000.0,0.6883766055743864,-9.660347409455191,-0.8399364526731753,-0.048563786,0.059253927,0.034208454,150.94902,77.04034,11.552753
2023289758000.0,0.6794978766212327,-9.659867493519666,-0.8480952849212067,-0.048563786,0.07086037,0.04734206,150.9415,77.16459,11.468517
2023295000000.0,0.6702172590394915,-9.65936585456971,-0.8566234202440742,-0.040927973,0.06566802,0.04184427,150.93365,77.28011,11.391746
2023299963000.0,0.6614305926796706,-9.65889091483132,-0.8646976544309097,-0.043982297,0.06047566,0.05100725,150.92876,77.40158,11.308263
2023304751000.0,0.6529537523551043,-9.658432721910224,-0.872487183604105,-0.047647487,0.067500606,0.056505036,150.92653,77.51736,11.228684
2023309753000.0,0.6440980390502837,-9.657954050023983,-0.8806248663368375,-0.052534413,0.07422013,0.0580322,150.92291,77.63255,11.149294
2023314741000.0,0.6352671118282835,-9.657476717883124,-0.8887397726684787,-0.048258353,0.07971791,0.061086524,150.92113,77.74645,11.069262
2023319764000.0,0.6263742193992325,-9.656996036378809,-0.896911620002848,-0.057726767,0.08735373,0.064751714,150.92216,77.860756,10.989895
2023324722000.0,0.6175964052118474,-9.656521575120912,-0.9049777197607224,-0.051618114,0.089491755,0.06352998,150.92355,77.969826,10.912548
2023329754000.0,0.6086875788724119,-9.656040032351706,-0.9131642090672216,-0.047036625,0.08674286,0.06352998,150.92587,78.07913,10.835235
2023335756000.0,0.5980614310804221,-9.655465664366655,-0.9229287775921836,-0.05467244,0.098043874,0.07544186,150.93288,78.189644,10.755937
2023339746000.0,0.5909973974766168,-9.655083836932407,-0.9294200519031796,-0.051618114,0.102319926,0.0729984,150.93764,78.29239,10.682421
2023344780000.0,0.5820850302682069,-9.654602102771005,-0.9376097949812636,-0.058643065,0.1001819,0.070249505,150.94373,78.39796,10.606961
2023349752000.0,0.5732824299980014,-9.654126301767729,-0.9456986711402292,-0.04337143,0.10140363,0.0729984,150.95215,78.499214,10.531893
2023354748000.0,0.5644373393001039,-9.65364820405808,-0.953826592558208,-0.0580322,0.10873401,0.076358154,150.96198,78.601974,10.458758
2023359753000.0,0.5555763146918219,-9.65316924508354,-0.9619691559483172,-0.05497787,0.10751228,0.074830994,150.96988,78.69833,10.387797
2023364753000.0,0.5467241422559757,-9.652690764589495,-0.9701035849094652,-0.048563786,0.106595986,0.06719518,150.9802,78.793144,10.318846
2023369908000.0,0.5375975524746183,-9.652197451200136,-0.9784901811684088,-0.052839845,0.10598512,0.07147124,150.99014,78.88948,10.248313
2023374756000.0,0.5290144860808218,-9.651733516513112,-0.986377323489138,-0.047647487,0.10262536,0.06780604,150.99951,78.978004,10.183598
2023379745000.0,0.5201817884243345,-9.651256088676153,-0.9944938567065712,-0.03481932,0.090713486,0.06994407,151.0061,79.0669,10.117487
2023384745000.0,0.5113296159884883,-9.650777608182109,-1.002628285667719,-0.026572637,0.09407325,0.059253927,151.01662,79.1495,10.057084
2023389724000.0,0.5025146226768726,-9.65030113730614,-1.0107285500272305,-0.026267206,0.09040806,0.050701816,151.02165,79.23089,9.997082
2023394832000.0,0.4934712433164121,-9.649812321633425,-1.0190386826539393,-0.021685716,0.09010262,0.05009095,151.0288,79.30854,9.93887
2023399747000.0,0.4847695578119753,-9.64934197530778,-1.0270348263227478,-0.014966198,0.07696902,0.050701816,151.03139,79.382385,9.884156
2023405349000.0,0.4748515838148532,-9.648805885762252,-1.0361486405308178,-0.004276057,0.081855945,0.050701816,151.03923,79.45346,9.830498
2023409686000.0,0.4671732094440003,-9.648390851781718,-1.0432044442117177,-0.0021380284,0.08277224,0.053145275,151.04214,79.52405,9.77733
2023414742000.0,0.4582218926768726,-9.64790701230614,-1.0514299787772303,0.004581489,0.071776666,0.04917465,151.04323,79.589905,9.727136
2023419789000.0,0.4492865098201294,-9.647424034095453,-1.0596408713706134,0.0036651916,0.07574729,0.05009095,151.04883,79.65688,9.675549
2023424767000.0,0.440473286943001,-9.64694765891558,-1.0677395088443322,0.00030543262,0.06261369,0.04734206,151.0465,79.72003,9.627623
2023429751000.0,0.4316494414589495,-9.646470709559118,-1.0758479076328045,0.010079277,0.0580322,0.052534413,151.04768,79.78302,9.577879
2023434749000.0,0.4228008098920777,-9.645992420457272,-1.083979082822368,0.014049901,0.053145275,0.0421497,151.04541,79.8407,9.534528
2023439709000.0,0.4140194548357183,-9.64551776780718,-1.0920484363518268,0.004581489,0.05467244,0.040317107,151.04349,79.90118,9.48812
2023444763000.0,0.4050716789375649,-9.6450341197238,-1.100270717145755,0.0125227375,0.04642576,0.03940081,151.03758,79.955826,9.4455185
2023449748000.0,0.3962460630190262,-9.644557074671235,-1.1083807428200196,0.021685716,0.040011674,0.02687807,151.03297,80.00649,9.4075165
2023454766000.0,0.387362022762411,-9.644076871647414,-1.1165444557254278,0.0125227375,0.035430185,0.031154128,151.02632,80.06132,9.36587
2023459755000.0,0.3834405931970362,-9.637214996812409,-1.1255202860860052,0.0067195175,0.018325957,0.02687807,151.01465,80.108215,9.331275
2023464730000.0,0.384154723226364,-9.624360645347764,-1.1352800613306957,0.004581489,0.016798794,0.019547688,151.00626,80.154915,9.296863
2023469894000.0,0.3848959830196202,-9.611017957716925,-1.1454106099464905,0.0021380284,0.018936822,0.02687807,150.9988,80.263115,9.213818
2023475167000.0,0.3856528890788455,-9.59739363705902,-1.155754990823928,-0.011301007,0.01160644,0.01740966,150.98875,80.36366,9.139292
2023479763000.0,0.3863126160365924,-9.585518541716006,-1.1647712575625404,-0.020463986,0.004581489,0.0106901415,150.97949,80.46442,9.063313
2023484737000.0,0.3870266025221957,-9.5726667740406,-1.1745290710433622,-0.017715093,-0.011301007,0.01740966,150.96573,80.56413,8.987812
2023489723000.0,0.3877423115324929,-9.559784000894323,-1.1843104256906036,-0.027488936,-0.008246681,0.021685716,150.95583,80.66096,8.91608
2023494896000.0,0.3884848632192694,-9.546418059160334,-1.1944586301812132,-0.0290161,-0.009162978,0.02076942,150.94043,80.755,8.845519
2023499755000.0,0.3891823421765567,-9.533863427247429,-1.203990840817183,-0.029932396,0.00061086525,0.023518313,150.92917,80.84972,8.773829
2023504752000.0,0.3898996301678233,-9.520952232419525,-1.2137937748669754,-0.054061573,-0.0061086523,0.028710667,150.91315,80.944595,8.70322
2023509741000.0,0.3906157698092939,-9.508061707905531,-1.2235810148058217,-0.046120327,-0.017104227,0.034513887,150.89891,81.035706,8.632867
2023514736000.0,0.3913327707131115,-9.495155680656104,-1.2333800253278775,-0.057726767,-0.01282817,0.03268129,150.88747,81.127235,8.5644045
2023519812000.0,0.3920613986586127,-9.482040366478309,-1.243337938723264,-0.069027774,-0.022296581,0.03604105,150.869,81.218864,8.494382
2023524762000.0,0.3927719400948284,-9.469250609744645,-1.2530486698712473,-0.06627888,-0.025045475,0.046731193,150.85396,81.30961,8.423919
2023529752000.0,0.3934882232800236,-9.456357501441412,-1.2628378715739617,-0.062308256,-0.031154128,0.047647487,150.83557,81.39702,8.35669
2023534747000.0,0.3942052241838412,-9.443451474191985,-1.2726368820960174,-0.07086037,-0.060170226,0.04886922,150.80995,81.485855,8.287847
2023539766000.0,0.3949256701370465,-9.43048343600082,-1.282482974950912,-0.07941248,-0.111177474,0.04153884,150.77658,81.57003,8.222705
2023544760000.0,0.3956425274971396,-9.417579992540633,-1.2922800237090997,-0.074830994,-0.08277224,0.053450707,150.75798,81.65742,8.152464
2023549769000.0,0.3963615380131001,-9.404637792241855,-1.3021064989253115,-0.0870483,-0.057726767,0.06841691,150.72418,81.74294,8.085113
2023554756000.0,0.3970773905671218,-9.391752435306344,-1.311889815336421,-0.11148291,-0.04795292,0.07269296,150.69458,81.826965,8.018497
2023559749000.0,0.3977941043834904,-9.378851575635396,-1.3216849023307402,-0.12156218,-0.047036625,0.07391469,150.66995,81.91188,7.949612
2023564732000.0,0.3985093827626142,-9.365976553856838,-1.3314603716863769,-0.12095132,-0.058337633,0.076052725,150.6449,81.99663,7.8805275
2023569716000.0,0.3992248046854624,-9.35309894828904,-1.3412378028058816,-0.11453723,-0.06780604,0.073303826,150.62103,82.07819,7.813733
2023574766000.0,0.3999497004941269,-9.340050812631464,-1.3511447103406928,-0.112704635,-0.1001819,0.06688975,150.58766,82.15716,7.748838
2023579765000.0,0.4006672755728425,-9.32713445022508,-1.3609515679182218,-0.12095132,-0.1695151,0.05222898,150.5413,82.23085,7.688542
2023584760000.0,0.4013842764766601,-9.314228422975654,-1.3707505784402776,-0.116980694,-0.17195857,0.06291912,150.50526,82.30713,7.623746
2023590134000.0,0.4021556804520587,-9.3003431396046,-1.3812930974684114,-0.10903945,-0.17715092,0.06078109,150.44913,82.37368,7.5682206
2023594773000.0,0.4028215797899586,-9.2883569413243,-1.3903937200533596,-0.10598512,-0.17256944,0.04184427,150.39572,82.43642,7.5154395
2023599762000.0,0.4035377194314292,-9.275466416810309,-1.400180959992206,-0.118202426,-0.18875736,0.043982297,150.33533,82.50271,7.4583473
2023604745000.0,0.404252997810553,-9.262591395031752,-1.4099564293478424,-0.11636983,-0.18509217,0.021380283,150.28273,82.55417,7.414554
2023609744000.0,0.4049705728892686,-9.249675032625367,-1.4197632869253711,-0.10751228,-0.20280726,0.014660766,150.21982,82.609055,7.366614
2023614749000.0,0.4056890092303311,-9.23674316748355,-1.42958191508611,-0.10598512,-0.22357668,0.0076358155,150.15775,82.65582,7.325963
2023619897000.0,0.4064279723239953,-9.223441820480538,-1.4396810754800125,-0.106901415,-0.2406809,-0.006414085,150.09225,82.69691,7.289979
2023624762000.0,0.4071263125436295,-9.210871685832196,-1.449225056699192,-0.10781772,-0.25534168,-0.01985312,150.02216,82.7346,7.2565103
2023629751000.0,0.4078424521851002,-9.197981161318204,-1.459012296638038,-0.10995574,-0.27550024,-0.025045475,149.94623,82.76924,7.2252827
2023634742000.0,0.4085588789140199,-9.185085469225736,-1.468803460104621,-0.10720685,-0.2846632,-0.043982297,149.87,82.79475,7.202309
2023639754000.0,0.4092783200611538,-9.172135517559244,-1.4786358206124377,-0.119729586,-0.30451632,-0.05100725,149.7856,82.82104,7.177859
2023644711000.0,0.4099898663034408,-9.159327674300902,-1.4883602841074988,-0.12889257,-0.3118467,-0.059864793,149.70299,82.840164,7.159663
2023649865000.0,0.4107296906594521,-9.146010824562456,-1.498471215084611,-0.13805555,-0.31948254,-0.07086037,149.61536,97.144424,7.1443653
2023654691000.0,0.4114224326738312,-9.133541457694442,-1.5079386875129277,-0.1518,-0.31429017,-0.071776666,149.53018,97.12979,7.128927
2023660787000.0,0.4391374217140491,-9.102399281258624,-1.5799536666850675,-0.15760323,-0.30879238,-0.09193522,149.44373,97.12488,7.1222982
2023664734000.0,0.4704371680283374,-9.07457708924464,-1.6564641681663446,-0.16676621,-0.3023783,-0.09590584,149.35988,97.11677,7.111444
2023669681000.0,0.5201637778045712,-9.03825815768505,-1.7519070029775634,-0.183565,-0.28527406,-0.11484267,149.27481,97.12435,7.112345
2023674763000.0,0.5967039034179074,-8.997436984692808,-1.8488579015726567,-0.16340645,-0.2724459,-0.12003502,149.19145,97.13089,7.1103163
2023679647000.0,0.6614573190954774,-8.979563753768845,-1.92559590318258,-0.14294247,-0.2489276,-0.12614368,149.11961,97.14938,7.114714
2023684695000.0,0.7140928658291458,-8.995759209045227,-1.9782314076381908,-0.13194689,-0.22204952,-0.13103059,149.05368,97.17163,7.120055
2023689968000.0,0.7689820452477898,-9.014394278286966,-2.032247456436045,-0.122783914,-0.20463985,-0.12950343,149.00249,97.20412,7.1292033
2023694710000.0,0.8168668835574662,-9.058595764538891,-2.0653985326628272,-0.12339478,-0.17989981,-0.14049901,148.96246,97.2448,7.1432076
2023699666000.0,0.8669126993868116,-9.104792003649932,-2.1000456717981995,-0.11789699,-0.15057829,-0.14538592,148.96182,97.28165,7.1447697
2023704691000.0,0.9117952559954589,-9.18750969738879,-2.1349825618330063,-0.1142318,-0.13958271,-0.14813483,148.96419,97.32547,7.149083
2023709697000.0,0.9513795151181752,-9.301314692950768,-2.1696187704819896,-0.08827003,-0.12003502,-0.15515977,148.97838,97.37388,7.1565022
2023714855000.0,0.959149192144873,-9.462507109125118,-2.140943396989652,-0.09010262,-0.12950343,-0.1777618,149.0463,97.41625,7.140409
2023719826000.0,0.9463535101296868,-9.644845139430185,-2.073766087286655,-0.08399397,-0.13347405,-0.19211712,149.12097,97.4621,7.12584
2023724713000.0,0.9337740496573042,-9.824102020158582,-2.007723940330601,-0.079107046,-0.13469578,-0.20158553,149.31294,97.47036,7.0365524
2023730489000.0,0.9216007261353132,-9.984710096272988,-1.883180299282132,-0.07849618,-0.15302174,-0.22510384,149.49182,97.501945,6.962063
2023734691000.0,0.9136861440544792,-10.08364242393549,-1.7763333027633004,-0.071776666,-0.16401732,-0.23396139,149.66617,97.54489,6.892536
2023739759000.0,0.9078971137384412,-10.185448612681638,-1.6858342350990754,-0.07819075,-0.18173242,-0.2443461,149.81062,97.58699,6.800294
2023744846000.0,0.9046793342404228,-10.275546976221928,-1.6214785779392338,-0.092240654,-0.18784106,-0.2669481,149.95183,97.64797,6.719834
2023749818000.0,0.9015342979392338,-10.363608518097754,-1.5585777862351389,-0.111177474,-0.20311269,-0.2864958,150.06158,97.71062,6.6292257
2023754757000.0,0.8980809665729899,-10.456024050429352,-1.4638443880015612,-0.116980694,-0.20463985,-0.301462,150.17172,97.78876,6.5487857
2023759744000.0,0.8943526682435597,-10.552959495550352,-1.3445388025292742,-0.14263703,-0.2171626,-0.32834008,150.2723,97.889984,6.481259
2023764930000.0,0.8919590353515835,-10.655166389157271,-1.2180999436929685,-0.1554652,-0.21838433,-0.34330627,150.37433,97.98734,6.395622
2023769762000.0,0.9203465036500268,-10.779361498121313,-1.051323543355571,-0.17623462,-0.19883664,-0.3662137,150.47676,98.10715,6.3248024
2023774667000.0,0.9491628389157272,-10.905432899087494,-0.8820275492216855,-0.21655174,-0.17562376,-0.39187005,150.59596,98.22564,6.23495
2023779745000.0,0.976595020203006,-10.97712702283818,-0.7159612160999415,-0.23335053,-0.13927728,-0.42638394,150.7216,98.35881,6.160639
2023784699000.0,0.9997472099355844,-10.95860536775327,-0.5677870664298263,-0.25961772,-0.11575896,-0.4456262,150.84785,98.51052,6.094779
2023789899000.0,1.0228880324232563,-10.916595064648464,-0.427948725347291,-0.29535335,-0.10567969,-0.4746423,150.99168,98.6634,6.025459
2023794724000.0,1.0424982207455085,-10.84142294341491,-0.3233611680548875,-0.31581733,-0.110872045,-0.48533243,151.13483,98.82438,5.9625835
2023800271000.0,1.065042824812562,-10.755002268496252,-0.2031234104795586,-0.3295618,-0.14110987,-0.4877759,151.26485,98.98131,5.9203024
2023804682000.0,1.070881220853882,-10.633080182330565,-0.1352668333533183,-0.32711834,-0.16920967,-0.48075095,151.39116,99.14188,5.882737
2023809682000.0,1.0675076827391856,-10.450908842327744,-0.081290183712625,-0.30665436,-0.19883664,-0.45081854,151.50655,99.2995,5.842393
2023814738000.0,1.0640963609976046,-10.266697183316897,-0.026708995595956,-0.27152961,-0.23701571,-0.4266894,151.60406,99.43703,5.817493
2023819694000.0,0.9842682302359642,-10.138869422701385,0.0312603393333333,-0.21319197,-0.25625798,-0.39003745,151.69795,99.55767,5.783208
2023824854000.0,0.8636425169731489,-10.031646526037427,0.0938069926666666,-0.17928895,-0.30115658,-0.3549127,151.77248,99.67242,5.7430058
2023829683000.0,0.80445176,-9.862579950344095,0.0616140013149814,-0.040011674,-0.3857614,-0.34605515,151.8171,99.743675,5.7082014
2023834681000.0,0.80445176,-9.60919299205929,-0.0752151995764955,0.021380283,-0.5131268,-0.3304781,151.83676,99.81807,5.660185
2023839686000.0,0.8120607905287569,-9.443125178339518,-0.1848021666604823,0.14782938,-0.58276546,-0.29260445,151.83574,99.820625,5.5831785
2023844744000.0,0.8255411675565862,-9.342022186410018,-0.2746713405899814,0.25625798,-0.6407976,-0.25381452,151.80095,99.810905,5.498781
2023849792000.0,0.8389948929888683,-9.2411190817718,-0.3643628372282003,0.36865717,-0.6637051,-0.21960606,151.75648,99.795616,5.4054337
2023858650000.0,0.8733462239699312,-9.062375833699738,-0.5526797274079852,0.45631635,-0.5647449,-0.14966199,151.7325,99.749695,5.2954593
2023860138000.0,0.9390343802141692,-9.022962986383943,-0.7568183176129353,0.45631635,-0.5647449,-0.14966199,151.67148,99.70498,5.192551
2023864723000.0,1.1414404261683568,-8.9015195018793,-1.3858340676732146,0.6114761,-0.43188173,-0.113926366,151.68192,99.63078,5.0743113
2023869843000.0,1.3674641895893909,-8.765905403588398,-2.088246421066591,0.6771441,-0.25473082,-0.06811147,151.70485,99.57842,4.9571176
2023874688000.0,1.583523166568915,-8.689132990364474,-2.7203828202764977,0.7119634,-0.009162978,-0.025350908,151.78526,99.493385,4.8412576
2023879682000.0,1.8089312375366569,-8.67410548575618,-3.3314890495391705,0.7360926,0.28771752,0.03390302,151.93147,99.3888,4.7195873
2023884675000.0,1.9368525156532108,-8.651966353687616,-3.901566817024357,0.6988298,0.6026186,0.0888809,152.21307,99.52635,4.606609
2023889718000.0,1.977983330165219,-8.623175041219554,-4.440380873667178,0.6197228,0.89827734,0.14508049,152.57455,99.66421,4.4947953
2023894721000.0,2.0086670190580507,-8.58355712705367,-4.843404515690033,0.5109888,1.073901,0.17165314,153.0469,99.9935,4.376448
2023899707000.0,1.995592012267251,-8.496390415115005,-4.677787626478642,0.4089743,1.1187997,0.1908954,153.5638,100.33965,4.26503
2023905113000.0,1.982142295210865,-8.406383318799142,-4.497070630092924,0.3155119,1.0732902,0.21655174,154.1681,100.936554,4.080736
2023909687000.0,1.979011181329521,-8.381333884631879,-4.33112139821301,0.22510384,0.9801333,0.24037547,154.76457,101.558784,3.916974
2023914755000.0,1.9755419016726232,-8.353579067762688,-4.147249359042172,0.1151481,0.8689558,0.25381452,155.32133,102.15111,3.7863426
2023919703000.0,1.9582294934465516,-8.343495299333194,-3.964191142946447,-0.007330383,0.8063421,0.2574797,155.85873,102.76422,3.6692348
2023924703000.0,1.883395100864764,-8.403363501041884,-3.764632901646176,-0.06505715,0.6826419,0.23579398,156.34016,103.38183,3.5636442
2023929679000.0,1.809109211692716,-8.478268181804777,-3.567492600567679,-0.16646078,0.5726862,0.226631,156.77705,103.94409,3.4938316
2023934682000.0,1.7349298885579474,-8.594835426127986,-3.3732135034797994,-0.24129178,0.4896085,0.20250183,157.1796,104.50814,3.4401202
2023939773000.0,1.659445792199941,-8.71345302373931,-3.1755171446402244,-0.29260445,0.4025602,0.17684549,157.51834,105.0065,3.3982866
2023944747000.0,1.579346671169756,-8.84873752748979,-2.9127935127552624,-0.3100141,0.3191771,0.14935656,157.82977,105.5087,3.3662465
2023949717000.0,1.494610643418159,-8.998271602262017,-2.598771643449576,-0.3051272,0.23273966,0.124311075,158.1115,106.010475,3.3414881
2023954690000.0,1.4080369613859112,-9.19311828323124,-2.26111189575804,-0.310625,0.16249016,0.09987647,158.34157,106.41342,3.3232582
2023959685000.0,1.3201298186983157,-9.412886426799387,-1.9094832485145483,-0.30390546,0.10720685,0.07727446,158.54802,106.80542,3.3101306
2023964785000.0,1.2310588080786025,-9.631214927947598,-1.5621695467248908,-0.28619036,0.06658431,0.0693332,158.70506,107.091995,3.2965145
2023969733000.0,1.1558130163755458,-9.744083443628424,-1.416380822231044,-0.2519819,0.050396383,0.064446285,158.85085,107.36799,3.2880416
2023974931000.0,1.0788378752117604,-9.859307315785788,-1.2677486502835142,-0.21197024,0.046120327,0.050701816,158.94987,107.50908,3.2677662
2023979690000.0,1.0341711205285264,-9.923116893944696,-1.187986610955548,-0.16432275,0.038789943,0.044898596,159.04303,107.63581,3.2463174
2023985718000.0,0.977593856979349,-10.003941465733286,-1.0869558118235911,-0.112704635,0.042455133,0.04184427,159.12794,107.70938,3.2143557
2023989787000.0,0.9395429074132112,-10.053917542189009,-1.019313449541948,-0.0693332,0.046731193,0.047647487,159.21033,107.770454,3.1821115
2023994696000.0,0.8942077756348441,-10.09547480713597,-0.9399769639987142,-0.02321288,0.05009095,0.0571159,159.29257,107.815254,3.1509745
2023999711000.0,0.8478937226976856,-10.137929417791709,-0.8589273663211185,0.020158553,0.062308256,0.058337633,159.3672,107.81296,3.110306
2024004744000.0,0.7949759315761729,-10.154888366367947,-0.791502637743806,0.036957346,0.069027774,0.062002823,159.44131,107.80483,3.067266
2024009661000.0,0.740365401971534,-10.15985305893516,-0.7319275192514496,0.07269296,0.07147124,0.073303826,159.51736,107.7792,3.0235069
2024014767000.0,0.7278373,-10.115440015544042,-0.7258524709844559,0.095294975,0.10415252,0.0852157,159.59343,107.72839,2.970874
2024019716000.0,0.7278373,-10.058769132921483,-0.7352975852132323,0.12705997,0.11911872,0.09040806,159.6647,107.66598,2.9167943
2024024771000.0,0.776800864533126,-9.93508606582016,-0.8124915815237108,0.14477506,0.14538592,0.10781772,159.74683,107.58972,2.8499157
2024029756000.0,0.8386567614407877,-9.79487954988339,-0.9073373102098988,0.183565,0.17959438,0.12308934,159.83421,107.50026,2.7853997
2024034744000.0,0.8848545117985896,-9.71377654295362,-0.9755008335584467,0.21899518,0.20250183,0.12858713,159.92583,107.41085,2.7229924
2024039741000.0,0.9133709352219684,-9.699518542159105,-1.0135226983712384,0.24648413,0.22449298,0.14538592,160.02733,107.3136,2.6573558
2024044758000.0,0.948374706912692,-9.683095732755223,-1.0753023081001185,0.26358834,0.23976462,0.15577064,160.14557,107.243355,2.6113183
2024049758000.0,0.990841818658849,-9.664221077650769,-1.1649551460977532,0.2666427,0.23762658,0.15515977,160.26393,107.17081,2.5650759
2024055605000.0,1.0424802711854684,-9.667090371319311,-1.2627303624856596,0.25961772,0.2452624,0.15699236,160.39777,107.10825,2.5241168
2024059747000.0,1.0804029738814531,-9.686051702868069,-1.327198889751434,0.23518312,0.24556783,0.14996742,160.5265,107.05182,2.4859285
2024064696000.0,1.1265785036815068,-9.703715648972604,-1.389907806421233,0.20891592,0.23609942,0.13530666,160.65883,107.02056,2.4587843
2024069756000.0,1.1756104471746576,-9.711259176369865,-1.4238530101883562,0.18112154,0.21868975,0.11789699,160.78658,106.99805,2.4345827
2024074666000.0,1.223188874556351,-9.71857908141345,-1.4567919332113948,0.13836098,0.19120082,0.103847094,160.91904,107.00736,2.4215102
2024079759000.0,1.2912230377186311,-9.71348199163498,-1.5245547690494297,0.10415252,0.16126843,0.086132,161.04268,107.023186,2.4133034
2024084705000.0,1.3632639254942964,-9.704476698479088,-1.6010982093726236,0.065973446,0.1469131,0.06841691,161.16043,107.052734,2.4086573
2024089670000.0,1.4296341693960464,-9.677189032815065,-1.640115108774123,0.023823744,0.11362094,0.043066,161.27417,107.10677,2.4195893
2024094762000.0,1.494405372177514,-9.639088348699117,-1.6591654906164544,0.005192355,0.07452556,0.024129177,161.38008,107.16456,2.432373
2024099733000.0,1.558721836174456,-9.597853480273995,-1.6690664558224226,-0.005497787,0.046120327,0.029932396,161.49188,107.25025,2.45992
2024104765000.0,1.6339345943466574,-9.51846236885459,-1.5980321381600624,-0.02687807,0.0012217305,0.009468411,161.58356,107.34447,2.4952352
2024109647000.0,1.7069053187895604,-9.441437844619786,-1.5291152981704672,-0.020463986,-0.032070424,0.0106901415,161.686,107.44296,2.539053
2024114711000.0,1.7198664134566863,-9.38399013456686,-1.473547575904121,-0.0033597588,-0.04550946,-0.003970624,161.77762,107.54404,2.5905082
2024119673000.0,1.7148706100925146,-9.334032100925146,-1.4235895944280907,-0.0076358155,-0.086132,-0.006414085,161.85306,107.646835,2.6329284
2024124706000.0,1.6801812212810958,-9.293742598952562,-1.379041929499446,-0.0033597588,-0.10262536,-0.002443461,161.93724,107.73198,2.6983736
2024129703000.0,1.6416231936348071,-9.255184319669654,-1.3356641546882868,0.0070249503,-0.12675454,-0.0012217305,162.0073,107.815445,2.7605095
2024134698000.0,1.60012417759993,-9.281203044257849,-1.3386781523134783,0.016187929,-0.15057829,0.006414085,162.06999,107.8878,2.8180354
2024139703000.0,1.5582000684859616,-9.314742629231173,-1.3470629828916294,0.03023783,-0.160963,0.02443461,162.1305,107.95425,2.8709297
2024144694000.0,1.500564435823012,-9.363604786707006,-1.3503298,0.03145956,-0.17165314,0.02687807,162.18314,108.01456,2.915628
2024149712000.0,1.4324121013803537,-9.422670304528694,-1.3503298,0.048563786,-0.16249016,0.052534413,162.2417,108.06365,2.9496543
2024154682000.0,1.3605817871794872,-9.489940912820511,-1.3503298,0.056199603,-0.14660765,0.063224554,162.29037,108.10904,2.9766703
2024159743000.0,1.2829084141025642,-9.567614285897436,-1.3503298,0.074830994,-0.1255328,0.08857546,162.34618,108.14393,2.9939141
2024164725000.0,1.1949374501861811,-9.630741730244106,-1.3180333335126189,0.06811147,-0.10903945,0.1020145,162.3903,108.178154,2.9951077
2024169766000.0,1.0990631779975175,-9.686668256930078,-1.2661014395531651,0.08246681,-0.08399397,0.122478485,162.44495,108.19919,2.9904034
2024174764000.0,1.0005970713561816,-9.7431929563709,-1.2126742634882255,0.09193522,-0.069027774,0.13988814,162.49019,108.21491,2.9671035
2024179751000.0,0.8901355770984021,-9.803444325904122,-1.152422526955425,0.10567969,-0.06261369,0.160963,162.54147,108.22402,2.9393492
2024184688000.0,0.7986176917450107,-9.857996983918852,-1.1014259809582716,0.11209377,-0.050701816,0.18081611,162.58308,108.209724,2.8840775
2024189735000.0,0.7467998022826984,-9.901842952498765,-1.0695380227280225,0.13225232,-0.024740042,0.20250183,162.63159,108.187096,2.8255403
2024194876000.0,0.6940168084793007,-9.946505548985652,-1.0370561536450602,0.13347405,-0.007330383,0.22174409,162.66833,108.14728,2.7406237
2024199707000.0,0.6066245457922882,-10.017416134909467,-0.9237543610563844,0.1591304,0.024129177,0.23579398,162.7166,108.095375,2.6563768
2024204656000.0,0.5132473068815087,-10.093007362416737,-0.7992513758420114,0.17684549,0.027794369,0.23396139,162.76141,108.04651,2.5719826
2024209739000.0,0.509763799107495,-10.08108794275148,-0.7768178412712031,0.20219639,0.04184427,0.23182335,162.81224,107.97744,2.4747076
2024214723000.0,0.5380068835650887,-10.038723205473373,-0.7909394056183432,0.22204952,0.058337633,0.22907446,162.86348,107.90684,2.3805158
2024219690000.0,0.539584347616861,-9.982860834741484,-0.8137559370070713,0.22937989,0.09193522,0.2134974,162.9052,107.800354,2.271913
2024224696000.0,0.5307788630360915,-9.921222304757094,-0.8401724045412802,0.24404067,0.11056661,0.20708331,162.9469,107.68879,2.1637669
2024229752000.0,0.5196580193160483,-9.871641944032186,-0.8499803438712561,0.2489276,0.1133155,0.18661933,162.9976,107.58536,2.0750313
2024234746000.0,0.5068301366785875,-9.833158452391595,-0.8457043904336164,0.25473082,0.106901415,0.16371189,163.04909,107.48039,1.9912326
2024239729000.0,0.4625669097664713,-9.792216743473627,-0.8860587147753508,0.25381452,0.09560041,0.13194689,163.09966,107.38883,1.9156238
2024244779000.0,0.3466196944849938,-9.74497893047416,-1.0277719744095188,0.23762658,0.07880162,0.10873401,163.14474,107.302666,1.8443516
2024249738000.0,0.2354664130456446,-9.698586807990036,-1.1644771381261678,0.2312125,0.050396383,0.09285152,163.18246,107.216644,1.7769657
2024254746000.0,0.1671889478476733,-9.651646443900702,-1.2626259620428864,0.21594086,0.02107485,0.08124508,163.21295,107.140274,1.7144266
2024259653000.0,0.1002884842441498,-9.60565276047691,-1.358795346819112,0.18784106,-0.016798794,0.07544186,163.22678,107.105995,1.6244506
2024264738000.0,-0.0072005358969329,-9.571748184557777,-1.4759108561162626,0.18203785,-0.046731193,0.07269296,163.23343,107.07108,1.5365741
2024269674000.0,-0.1209951309468616,-9.542245726640514,-1.593920071665478,0.17531833,-0.08124508,0.0729984,163.22775,107.04541,1.4474189
2024274745000.0,-0.2502335720339156,-9.489997558177546,-1.7195009721422003,0.17898351,-0.11209377,0.07544186,163.21309,107.047005,1.3405237
2024279756000.0,-0.3875001525201758,-9.42136441638574,-1.84696281369905,0.16920967,-0.13958271,0.07360926,163.18929,107.05468,1.233932
2024284737000.0,-0.5139532063968668,-9.351339481723237,-1.9587507904047,0.15027285,-0.14630222,0.08032878,163.15541,107.09619,1.0958519
2024289760000.0,-0.6350662423349497,-9.279568287206269,-2.0619212150690043,0.13316862,-0.14813483,0.09162979,163.11557,107.13966,0.9574721
2024294920000.0,-0.7662115474515291,-9.198479430341797,-2.1524232914651207,0.118507855,-0.12186762,0.10751228,163.0788,107.22302,0.7891714
2024299756000.0,-0.8958114176893863,-9.115165483509896,-2.2218517415950427,0.08674286,-0.1020145,0.12522738,163.04083,107.31499,0.6195504
2024304738000.0,-1.0383270477848985,-9.01516136862636,-2.2771213164112565,0.049785517,-0.07696902,0.14477506,163.00462,107.448204,0.41958308
2024310883000.0,-1.2268945655475063,-8.871686148509333,-2.322213614056841,0.015271631,-0.029321533,0.16279559,162.9811,107.58777,0.22252211
2024314805000.0,-1.3472463645165784,-8.78011416912789,-2.350993433644469,-0.035430185,0.0012217305,0.17745635,162.95084,107.76976,-0.006739688
2024319764000.0,-1.4565296765552505,-8.76654057702869,-2.295070392330272,-0.056199603,0.06658431,0.19730948,162.94443,107.9503,-0.23075937
2024324832000.0,-1.539252431673137,-8.821688728529496,-2.175582010926996,-0.11148291,0.14019357,0.22632557,162.94992,108.15231,-0.45340365
2024329739000.0,-1.560752440937896,-8.907231103929025,-2.036364209885932,-0.15363261,0.20219639,0.24220806,162.95885,108.39664,-0.72317064
2024334745000.0,-1.5202441829108575,-9.028756142374316,-1.869267705006337,-0.18509217,0.2648101,0.24648413,162.98752,108.64961,-0.9854638
2024339914000.0,-1.4442639815942029,-9.148888514402174,-1.657593489411232,-0.21777347,0.31642818,0.23671028,163.01677,108.869896,-1.2542858
2024344755000.0,-1.351877355362319,-9.25807279673913,-1.435025576485507,-0.24556783,0.33567044,0.22632557,163.05226,109.094795,-1.5159942
2024349742000.0,-1.2295802313038846,-9.370002432916788,-1.182113675433498,-0.24862215,0.32528573,0.2125811,163.0835,109.26641,-1.7559441
2024354741000.0,-1.0626247934612032,-9.481305848299913,-0.8899417136878816,-0.2275473,0.2996294,0.18142697,163.11128,109.43617,-1.9834906
2024359692000.0,-0.8890185080500987,-9.571288196341335,-0.6137796569379482,-0.20005837,0.2519819,0.15210545,163.12955,109.52618,-2.1798186
2024364840000.0,-0.6891687443457022,-9.617407769774452,-0.3575619953850951,-0.16829337,0.20861048,0.122478485,163.13786,109.607574,-2.3663
2024369662000.0,-0.4940731186076708,-9.633106932580905,-0.1516305417768677,-0.12980886,0.14660765,0.086132,163.12718,109.59931,-2.5073109
2024374862000.0,-0.2702444370255693,-9.603263025269676,0.0125104965771074,-0.08002335,0.080634214,0.048258353,163.10025,109.57869,-2.642112
2024379926000.0,-0.0735537778773797,-9.563525868085744,0.1175358916436816,-0.03756821,0.03176499,0.009468411,163.06854,109.49435,-2.7284567
2024384750000.0,0.0857275720611602,-9.511586335182132,0.1452369939371908,0.01740966,-0.026572637,-0.032986723,163.01257,109.39267,-2.8093438
2024389747000.0,0.2507211262989057,-9.457784128316591,0.1739315229920551,0.061391957,-0.084910266,-0.06811147,162.95987,109.24948,-2.8379002
2024394714000.0,0.4352880828993724,-9.394289274347033,0.1854195040433286,0.10934488,-0.15790866,-0.09315695,162.88484,109.090866,-2.8640761
2024399730000.0,0.6298103097145171,-9.326206138489573,0.1902825561591415,0.15668693,-0.23060162,-0.12583824,162.79085,108.92101,-2.8836548
2024404755000.0,0.7426806293681747,-9.266837659126365,0.1322936466029641,0.21410827,-0.34391713,-0.1518,162.688,108.728806,-2.858869
2024409697000.0,0.8257455976794071,-9.211460852964118,0.0538433912578003,0.26450464,-0.40378192,-0.18661933,162.57726,108.52671,-2.8249145
2024414717000.0,0.9196047015973254,-9.18761884268202,-0.0996919959955423,0.28680122,-0.4905248,-0.18936823,162.45692,108.31749,-2.761411
2024419710000.0,1.0172991825965825,-9.178737812871471,-0.2861995943276375,0.32589662,-0.5360342,-0.18692477,162.33038,108.09201,-2.6924763
2024424696000.0,1.1000786100194742,-9.162230005258031,-0.5093565053359299,0.35796702,-0.5564982,-0.18600847,162.20174,107.881905,-2.6079934
2024429763000.0,1.1709535068743917,-9.138605056085687,-0.7692311435832522,0.37690386,-0.5561928,-0.17898351,162.06874,107.66888,-2.5291958
2024434749000.0,1.1997699063470093,-9.099065729214038,-1.0544940480850222,0.3848451,-0.5381723,-0.16829337,161.96027,107.491974,-2.4267118
2024439726000.0,1.185633356589224,-9.042519333366288,-1.3702105917113196,0.38759398,-0.49663344,-0.15607607,161.86052,107.31553,-2.3262641
2024444767000.0,1.1449743283844809,-8.989106068565109,-1.6449064448437931,0.38240165,-0.4364632,-0.1459968,161.79034,107.20057,-2.2098122
2024450346000.0,1.0661922261819188,-8.934943341166713,-1.8911002957146803,0.3622431,-0.38087448,-0.12522738,161.73334,107.09322,-2.0987015
2024454726000.0,1.0025778507343124,-8.902739978638184,-2.063757099973297,0.32253686,-0.3222314,-0.103847094,161.70937,107.07046,-1.9903289
2024459737000.0,0.9256923404984424,-8.889925912772586,-2.213256794890966,0.2611449,-0.26939157,-0.08155051,161.70143,107.06188,-1.8858347
2024464739000.0,0.8409395653195164,-8.881140374784112,-2.363205391364421,0.16493362,-0.22174409,-0.050396383,161.7147,107.13824,-1.8060737
2024469702000.0,0.5850141683998782,-8.958400918012801,-2.527383932276745,0.086437434,-0.1554652,-0.016798794,161.74973,107.22679,-1.7284598
2024474834000.0,0.3338142224521757,-9.041879790203913,-2.6743641524174904,-0.0125227375,-0.10048734,0.011301007,161.7996,107.39571,-1.6782978
2024479768000.0,0.2195830728095438,-9.156110654614253,-2.599865471715366,-0.106595986,-0.052839845,0.054061573,161.86919,107.582985,-1.6365907
2024484703000.0,0.1169917723499076,-9.26871069183609,-2.5096141484154533,-0.19303341,-0.029321533,0.087659165,161.92812,107.83627,-1.6587183
2024489757000.0,0.0711717832151647,-9.375624105531262,-2.3372437453861066,-0.25870144,0.0033597588,0.12003502,162.00516,108.104095,-1.6856427
2024496160000.0,0.0131216466046071,-9.511074558220258,-2.118864700946671,-0.29229903,0.035124753,0.1441642,162.07184,108.3524,-1.7388726
2024499768000.0,-0.0195887848948293,-9.587398973853851,-1.9958111959743947,-0.32284227,0.061086524,0.1518,162.14613,108.61184,-1.7918738
2024504741000.0,-0.0646744212159762,-9.692598895956364,-1.826203357773971,-0.3118467,0.09040806,0.16676621,162.23183,108.86678,-1.8492728
2024509737000.0,-0.0869740773709693,-9.779163623542097,-1.6500642506027638,-0.30451632,0.10476339,0.17898351,162.31955,109.12421,-1.904658
2024514722000.0,-0.1010112403240223,-9.85870767039106,-1.4722602497206705,-0.2932153,0.15149458,0.17562376,162.42232,109.370255,-1.9518068
2024519915000.0,-0.1306632817116279,-9.883265,-1.2835416289302324,-0.2648101,0.18845193,0.1695151,162.49162,109.49938,-2.020517
2024524706000.0,-0.1638599053023255,-9.883265,-1.1080737175193798,-0.2302962,0.20433442,0.16920967,162.56682,109.62045,-2.0855472
2024529748000.0,-0.2150347879544348,-9.851275524389056,-0.9599492721682408,-0.19456059,0.22143865,0.15821409,162.63828,109.68536,-2.1444457
2024534710000.0,-0.2705543455593418,-9.80963549868562,-0.8257769902424301,-0.15271631,0.23976462,0.14294247,162.7127,109.737206,-2.1988957
2024539742000.0,-0.3005815892930679,-9.757241081674673,-0.7587433948798902,-0.118507855,0.23457226,0.13561209,162.76918,109.74657,-2.261822
2024544703000.0,-0.3192150060633395,-9.70134118158643,-0.7214765662035494,-0.10262536,0.21044308,0.12339478,162.82253,109.74863,-2.3180544
2024549734000.0,-0.32561144,-9.646573741424804,-0.7248556050131926,-0.081855945,0.19028452,0.11575896,162.86346,109.71269,-2.3862612
2024554691000.0,-0.32561144,-9.593580523949663,-0.7489433854069413,-0.0711658,0.17867808,0.10445796,162.89796,109.67557,-2.4503694
2024559671000.0,-0.3228021406346749,-9.568379236842103,-0.7902792513157895,-0.05100725,0.15974127,0.08979719,162.91917,109.62603,-2.517789
2024565988000.0,-0.317599459869281,-9.552771444444444,-0.8527113444444444,-0.023823744,0.1337795,0.07391469,162.93364,109.57223,-2.5823758
2024569764000.0,-0.3083502375449102,-9.548077,-0.9195168053892216,-0.011301007,0.11881329,0.05589417,162.94633,109.526436,-2.6422708
2024574805000.0,-0.2877015318113772,-9.548077,-1.0485712566509835,0.01740966,0.1001819,0.045814894,162.94994,109.46931,-2.7017705
2024579749000.0,-0.2719188062151491,-9.548077,-1.157378342191781,0.024740042,0.07086037,0.031154128,162.94478,109.426476,-2.7549167
2024584750000.0,-0.2603409753988719,-9.548077,-1.2500009726027397,0.04153884,0.061086524,0.01863139,162.939,109.373695,-2.804913
2024590155000.0,-0.24899697,-9.548453274509804,-1.3588156971288516,0.0571159,0.03573562,0.003970624,162.93047,109.34767,-2.8491871
2024594706000.0,-0.24899697,-9.551844215686272,-1.5215945775910364,0.05681047,0.020158553,0.0021380284,162.9219,109.32206,-2.8927624
2024599724000.0,-0.24899697,-9.55558311764706,-1.7010769819327731,0.064446285,0.0018325958,-0.004886922,162.91055,109.31263,-2.9285126
2024604681000.0,-0.2404968232488798,-9.559353063788189,-1.824240113743381,0.067500606,-0.0030543262,-0.01282817,162.89842,109.30466,-2.963041
2024609684000.0,-0.220980423893279,-9.563256422729124,-1.8788860384602848,0.07147124,-0.016493361,-0.008857546,162.87961,109.29471,-3.0007646
2024614933000.0,-0.2006283530457346,-9.56783573337658,-1.9348784400259489,0.077579886,-0.004581489,-0.013439035,162.87346,109.331245,-3.0302138
2024619704000.0,-0.1858080686944534,-9.58636107914369,-1.9459936474862147,0.0571159,-0.025045475,-0.010995574,162.85605,109.37364,-3.0662124
2024624662000.0,-0.1704069012633798,-9.605612528381446,-1.957544517028868,0.051618114,-0.027488936,-0.012217305,162.86035,109.42336,-3.0903475
2024629684000.0,-0.1517044862735212,-9.612893708742234,-1.9610251551093905,0.039095376,-0.015882496,-0.0033597588,162.86404,109.479935,-3.1178281
2024635130000.0,-0.1282259158368596,-9.60819790051319,-1.9563294449446296,0.016187929,-0.02076942,-0.0012217305,162.86179,109.53911,-3.1443267
2024639755000.0,-0.1081008367481681,-9.605537,-1.9502581807481685,0.0036651916,-0.032986723,-0.017104227,162.86078,109.600334,-3.1634405
2024644709000.0,-0.0861447240323949,-9.605537,-1.939280132032395,-0.015271631,-0.040011674,-0.018020526,162.86137,109.66884,-3.1865537
2024650186000.0,-0.0618706769301966,-9.605537,-1.927143116930197,-0.020463986,-0.03940081,-0.015271631,162.85973,109.73062,-3.2001793
2024654685000.0,-0.0375272267045079,-9.6011074500033,-1.887285799287176,-0.03573562,-0.036957346,-0.01038471,162.85683,109.79887,-3.2142613
2024659706000.0,-0.0089636786575143,-9.594760198138736,-1.8333324020328687,-0.03176499,-0.04428773,-0.0143553335,162.85092,109.86109,-3.227198
2024664778000.0,0.0198899990350471,-9.588348475084151,-1.778830981822982,-0.044593163,-0.044898596,-0.018936822,162.84749,109.928375,-3.2340987
2024669730000.0,0.0255755982076587,-9.57060990092099,-1.721119709452254,-0.04520403,-0.03970624,-0.014049901,162.84427,109.98968,-3.2423816
2024674763000.0,0.0209027853527872,-9.547245851284538,-1.6603731316044594,-0.038789943,-0.036651913,-0.019547688,162.83896,110.0502,-3.2466753
2024679737000.0,0.0422703653426423,-9.532720695244606,-1.611627571711747,-0.03390302,-0.03940081,-0.022907447,162.83333,110.09127,-3.2430942
2024684827000.0,0.0803494152889366,-9.523200740162094,-1.5687886684796406,-0.035124753,-0.036957346,-0.022296581,162.82986,110.13114,-3.2383342
2024689765000.0,0.1084405294191886,-9.488932264649067,-1.5286322529298133,-0.02687807,-0.046120327,-0.03359759,162.81903,110.153305,-3.2323177
2024694754000.0,0.1304158265955294,-9.436191866433632,-1.4890767018581548,-0.0033597588,-0.04886922,-0.024740042,162.81274,110.171844,-3.2310898
2024699690000.0,0.1455692490887414,-9.383336141820443,-1.4633342529131248,0.008246681,-0.048258353,-0.01985312,162.80432,110.18098,-3.2180824
2024704790000.0,0.1506326671895086,-9.327637966410949,-1.4582708400995232,0.009162978,-0.049480084,-0.011301007,162.79605,110.18692,-3.2091289
2024709776000.0,0.1649575301480716,-9.275621694387054,-1.4654484433195594,0.014049901,-0.05375614,-0.01038471,162.78279,110.18374,-3.1957848
2024714781000.0,0.1897157519283746,-9.22610511294766,-1.4860802804407711,0.014966198,-0.054367006,-0.015577064,162.77061,110.18158,-3.1831052
2024719716000.0,0.2123784889081529,-9.171772962872126,-1.5142539470060894,0.027794369,-0.04520403,-0.013439035,162.76549,110.1752,-3.1707587
2024724754000.0,0.2246200236121448,-9.082002057763871,-1.591783671058863,0.024740042,-0.03756821,-0.013133603,162.75925,110.17284,-3.1569998
2024730150000.0,0.2377314410918471,-8.985852037127875,-1.6748226529939108,0.026572637,-0.029321533,-0.005497787,162.75653,110.1736,-3.1388693
2024734691000.0,0.2591430171834002,-8.87814108862115,-1.741399367443106,0.0106901415,-0.029932396,-0.00030543262,162.7534,110.180145,-3.120644
2024739676000.0,0.2847068090084783,-8.75458293645694,-1.813830105015618,0.014966198,-0.01985312,0.008552114,162.75653,110.18101,-3.1039386
2024744692000.0,0.2872905950497488,-8.678957678101014,-1.8555165093243624,0.0125227375,-0.020463986,0.010079277,162.76308,110.21206,-3.0844204
2024749705000.0,0.2690934715540604,-8.647112563536435,-1.8691643341324744,0.005497787,-0.027183503,0.0076358155,162.7711,110.24287,-3.0660734
2024754747000.0,0.2447800818608643,-8.61644201500336,-1.8862499027618125,-0.0015271631,-0.0143553335,0.019547688,162.79129,110.29788,-3.0436273
2024759681000.0,0.2130365849958946,-8.588225737030678,-1.907412258557886,-0.007330383,-0.022907447,0.01985312,162.80247,110.35287,-3.0204139
2024765964000.0,0.172614130435172,-8.552294874748078,-1.934360592864074,-0.0106901415,-0.017715093,0.030543262,162.81673,110.41507,-3.0057738
2024769755000.0,0.13899952038164,-8.529833604951007,-1.9456426587931923,-0.020463986,-0.020158553,0.03359759,162.8259,110.47915,-2.9908602
2024774668000.0,0.0953215770727179,-8.500714894997422,-1.9602019630943783,-0.028405234,-0.018020526,0.035124753,162.83327,110.552376,-2.9877872
2024779746000.0,0.0642551126699515,-8.475825535460421,-1.9350417686348949,-0.042455133,-0.0125227375,0.03726278,162.84128,110.62864,-2.9854388
2024784705000.0,0.0374021493004846,-8.4528086453958,-1.90051651365105,-0.05375614,-0.0125227375,0.043066,162.84894,110.70494,-2.9846497
2024789717000.0,0.0133903312094557,-8.414113705149349,-1.8439152331317572,-0.06505715,-0.012217305,0.043066,162.85628,110.79049,-2.992629
2024794721000.0,-0.00417329064431,-8.343858718893165,-1.7429244354407183,-0.07941248,-0.010079277,0.043982297,162.86478,110.87842,-3.0018349
2024799724000.0,-0.0169594266106608,-8.282474255299253,-1.6428910747506231,-0.09865474,-0.018325957,0.043982297,162.86807,110.96241,-3.0197182
2024804748000.0,-0.0019613348500623,-8.272475847984207,-1.5479031252909392,-0.13500121,0.0033597588,0.038789943,162.87949,111.05322,-3.0327168
2024810130000.0,0.0245799217255593,-8.24853062439759,-1.4473224964802065,-0.14844026,0.026572637,0.043676864,162.88107,111.1223,-3.05421
2024814899000.0,0.0717452837072289,-8.197434811445783,-1.3608526875903617,-0.19028452,0.03604105,0.041233405,162.88351,111.20755,-3.0711029
2024819704000.0,0.1192666853264199,-8.14595328885542,-1.2737301395266782,-0.20586158,0.035430185,0.028710667,162.88641,111.26696,-3.0817993
2024824715000.0,0.2010751770478873,-8.083860486760562,-1.2318957074366197,-0.22571471,0.011301007,0.002443461,162.8838,111.33729,-3.0893056
2024829655000.0,0.2854769695549295,-8.021669597558684,-1.1963581359812208,-0.24281894,0.030543262,0.007330383,162.8945,111.4105,-3.0971315
2024834684000.0,0.3443580389171793,-7.940746094746805,-1.1323964682915286,-0.26419923,0.06383542,0.004886922,162.90492,111.46981,-3.0845497
2024839740000.0,0.394772010725982,-7.853667561476573,-1.0590670008045433,-0.27855456,0.07880162,-0.004276057,162.91536,111.530655,-3.0714152
2024844706000.0,0.435058987021336,-7.760296274834622,-0.9877824980993198,-0.29535335,0.082161374,-0.009773844,162.94606,111.59057,-3.0343497
2024849766000.0,0.4711783588838162,-7.660968187254262,-0.915543773232088,-0.29932398,0.098043874,-0.008246681,162.9836,111.64966,-2.9942033
2024854743000.0,0.485892894691358,-7.540358090617284,-0.8381538333950618,-0.31123585,0.10048734,-0.014660766,163.02283,111.7023,-2.9397938
2024859747000.0,0.4809626161728395,-7.397379807654321,-0.7543390470987654,-0.30848694,0.09468412,-0.016493361,163.0644,111.75118,-2.8867095
2024864746000.0,0.4580630102991018,-7.248107429418742,-0.6582370795543128,-0.29871312,0.0729984,-0.019547688,163.1049,111.788185,-2.8244798
2024869706000.0,0.4218395990806642,-7.09516409371293,-0.5535916787069988,-0.2938262,0.035430185,-0.026572637,163.13876,111.82485,-2.7635894
2024879764000.0,0.3393587375680914,-6.699542280975211,-0.297550196447006,-0.2565634,-0.03481932,-0.057726767,163.15102,111.83986,-2.7043688
2024884729000.0,0.3138496991511518,-6.485182750481224,-0.1786003395558535,-0.23304509,-0.096516706,-0.07147124,163.15665,111.85722,-2.6515253
2024889779000.0,0.3443721764310508,-6.294417247562322,-0.1251859963482171,-0.21594086,-0.13225232,-0.08552113,163.14305,111.849625,-2.6079972
2024894729000.0,0.3742902482202587,-6.107429279354686,-0.0728293629070684,-0.19761491,-0.18387043,-0.093462385,163.0972,111.82275,-2.5851831
2024899766000.0,0.4519442201897118,-5.748878997044874,-0.0950273577964246,-0.18936823,-0.19914207,-0.09407325,163.05139,111.79359,-2.5608692
2024904750000.0,0.5477192898285297,-5.326598050747902,-0.1472682966070777,-0.1731803,-0.24190263,-0.09101892,162.98477,111.75684,-2.5441108
2024909737000.0,0.5705088190094649,-5.044530547212069,-0.2188889522687658,-0.16462818,-0.27488935,-0.084910266,162.92288,111.72287,-2.5206077
2024914755000.0,0.5254742134785868,-4.891413079327148,-0.3089581445206635,-0.1572978,-0.3210097,-0.06688975,162.84846,111.685196,-2.507269
2024919665000.0,0.4651206640639359,-4.742614733082412,-0.4746497287965588,-0.1301143,-0.36071593,-0.06261369,162.7888,111.68245,-2.467051
2024925745000.0,0.3569661302483136,-4.560459621145762,-0.838959738689999,-0.10873401,-0.41386122,-0.07360926,162.71451,111.679115,-2.4339797
2024929654000.0,0.2719815537568848,-4.481659680299731,-1.0918982788907392,-0.113926366,-0.47586402,-0.0870483,162.62796,111.71402,-2.420616
2024934682000.0,0.1342335331907262,-4.450820593326502,-1.4516878845267067,-0.122783914,-0.5103779,-0.09285152,162.53545,111.74334,-2.4091785
2024940112000.0,-0.014527753936211,-4.417515851428205,-1.8402434848853595,-0.1441642,-0.5143485,-0.099265605,162.4494,111.8839,-2.4275167
2024944704000.0,-0.1403310376354553,-4.389350957358781,-2.1688341509713505,-0.16615535,-0.48747048,-0.09712757,162.36441,112.02488,-2.446863
2024949665000.0,-0.2762435137748174,-4.358922812873063,-2.5238294241535373,-0.20647246,-0.44593164,-0.07788532,162.28671,112.17739,-2.4685202
2024954693000.0,-0.3930137769456565,-4.494929928540262,-2.7814526549781835,-0.25473082,-0.4083634,-0.032070424,162.21979,112.33674,-2.4952006
2024959700000.0,-0.4976273854660849,-4.723177777300674,-2.981169491610472,-0.28527406,-0.38423425,0.0125227375,162.16368,112.50033,-2.523389
2024964742000.0,-0.5300140721807708,-5.035989008777945,-3.1849351129954737,-0.29840767,-0.34025195,0.06566802,162.20822,113.180405,-2.7421095
2024969704000.0,-0.5202375982732136,-5.391200424495954,-3.3869819886092443,-0.31398472,-0.25961772,0.11362094,162.26964,113.82632,-2.9500153
2024974669000.0,-0.5104552135591826,-5.746626599231931,-3.589151020737896,-0.3744604,-0.17806722,0.1554652,162.32733,114.46783,-3.1759198
2024979761000.0,-0.5018168918158483,-5.99239844423284,-3.746578930280698,-0.45540005,-0.13072516,0.18997909,162.39795,115.08184,-3.3935695
2024984754000.0,-0.4938982137608678,-6.186406281899479,-3.8811966101846487,-0.50946164,-0.089491755,0.22266038,162.48843,115.67058,-3.5998805
2024989717000.0,-0.4842544019046246,-6.385908899384675,-4.011839593712143,-0.5842926,0.016493361,0.26053402,162.61037,116.26699,-3.7747047
2024995761000.0,-0.4675592131266224,-6.647466907268532,-4.1620965367753096,-0.6630942,0.17012598,0.28069258,162.75244,116.846115,-3.9297154
2024999747000.0,-0.4518398568857188,-6.815268105513704,-4.208536471069081,-0.7651087,0.26358834,0.28252518,162.91339,117.42644,-4.0609927
2025004755000.0,-0.4172473035790992,-7.0112925354544,-4.100915040711652,-0.8390234,0.42730024,0.27397305,163.12567,117.989944,-4.154494
2025009683000.0,-0.3832073469706684,-7.204185584725116,-3.995012802532457,-0.96791595,0.5519168,0.26389378,163.3356,118.56993,-4.2203436
2025014707000.0,-0.3067696652415966,-7.359308225630252,-3.785851542647059,-1.0888673,0.6065892,0.23915374,163.55824,119.13828,-4.258363
2025019767000.0,-0.2134494547724089,-7.499288448319327,-3.535583694607843,-1.1820242,0.6133087,0.21197024,163.78996,119.70633,-4.2743034
2025024923000.0,-0.1270816899246723,-7.620504504179135,-3.2425806344443298,-1.260215,0.5882632,0.2012801,164.00058,120.20762,-4.2616515
2025029870000.0,-0.0537510771517903,-7.713390082674646,-2.919925870044371,-1.3264939,0.54061574,0.19730948,164.19832,120.711464,-4.241851
2025034680000.0,-0.0021860479799642,-7.78690681960644,-2.629835578962433,-1.3994923,0.48808134,0.19303341,164.37079,121.1381,-4.1922836
2025039718000.0,0.0323384260139534,-7.847324606511628,-2.3493243353488373,-1.4404203,0.43799037,0.18478674,164.52728,121.56211,-4.1460404
2025044681000.0,0.0562910227108683,-7.901817146807308,-2.0984120986626484,-1.4648548,0.3753767,0.17287487,164.65515,121.925735,-4.09512
2025049732000.0,0.0517353194514974,-7.942818441891128,-1.916183930231682,-1.4822645,0.31795537,0.16126843,164.7686,122.28975,-4.048645
2025054697000.0,0.056930582751842,-7.988907204020316,-1.758799462593891,-1.4767667,0.26633725,0.16493362,164.85509,122.59326,-4.0124316
2025059684000.0,0.1218444656287288,-8.07090355862365,-1.7348838383575362,-1.4373659,0.23518312,0.17104226,164.93001,122.88458,-3.9794755
2025064678000.0,0.1868494648441233,-8.153015007368195,-1.7109346449674512,-1.4074335,0.22174409,0.16920967,164.98401,123.1433,-3.9614146
2025069743000.0,0.2541930485796743,-8.221237024737167,-1.7594475367140794,-1.3478742,0.2302962,0.172264,165.03677,123.376724,-3.9469943
2025074766000.0,0.3236076261822305,-8.260902260977119,-1.9429003156668727,-1.2834278,0.2415972,0.16310102,165.08408,123.59389,-3.930443
2025079698000.0,0.3765855266800379,-8.293789205163737,-2.126845240325286,-1.2070698,0.25320363,0.15851954,165.14069,123.77258,-3.887942
2025084695000.0,0.4079980987892933,-8.318221696083436,-2.3188109850922616,-1.1151345,0.25870144,0.15577064,165.19664,123.9236,-3.8431368
2025089728000.0,0.439636977201517,-8.342830206549484,-2.512159713011451,-0.99296147,0.25289822,0.15302174,165.26482,124.06634,-3.7704787
2025094705000.0,0.4435921839640288,-8.367270339568345,-2.791246518417266,-0.87689704,0.24404067,0.14355333,165.33112,124.180504,-3.6962483
2025099725000.0,0.4337102494727646,-8.391975137101747,-3.117350052230216,-0.81245077,0.23365596,0.14263703,165.3957,124.27173,-3.625684
2025104747000.0,0.3968255313599475,-8.418769719977048,-3.4073264603000246,-0.66889745,0.22693644,0.13133603,165.46927,124.34694,-3.5305183
2025109696000.0,0.3502030709681121,-8.445966298549061,-3.6792908261086974,-0.54825157,0.21930063,0.11789699,165.53853,124.40778,-3.438293
2025114728000.0,0.2672683981938991,-8.51974395665962,-3.9984904300211417,-0.44043383,0.1881465,0.0983493,165.6096,124.4828,-3.3423445
2025119769000.0,0.0923000536212624,-8.71293788372093,-4.428620948837209,-0.32620203,0.15271631,0.08124508,165.67476,124.519684,-3.24812
2025124663000.0,-0.0775660599154334,-8.900498105708245,-4.846208482875264,-0.22968534,0.10567969,0.09315695,165.733,124.588455,-3.1740975
2025129757000.0,-0.1803027854946013,-9.020114226415094,-5.091967061511616,-0.13683382,0.035430185,0.09285152,165.77147,124.623344,-3.1050165
2025135206000.0,-0.2429076711560693,-9.099793,-5.2342509763005785,-0.03970624,-0.029626964,0.05497787,165.79489,124.62807,-3.0387683
2025139710000.0,-0.3613021099774345,-9.15048303228606,-5.439669624579066,0.06414085,-0.064446285,0.033292156,165.79742,124.69092,-3.042651
2025144712000.0,-0.5026585040808887,-9.204530853497657,-5.680806962662732,0.07971791,-0.10262536,0.021685716,165.77939,124.7479,-3.051089
2025149689000.0,-0.6598162490076336,-9.339159559029593,-5.942312062428108,-0.018325957,-0.19486602,0.004276057,165.74069,124.82562,-3.0820467
2025154687000.0,-0.8349988196946565,-9.559389323747778,-6.227609379587995,-0.129198,-0.25259277,0.015882496,165.7045,124.90076,-3.1171355
2025159684000.0,-1.0683863416580976,-9.82711457326478,-6.356974859061697,-0.19333886,-0.31245756,0.06872234,165.6509,125.05464,-3.2185695
2025164733000.0,-1.3480647568490636,-10.13342922622108,-6.370292824972457,-0.2443461,-0.364992,0.11942416,165.58864,125.22877,-3.327376
2025169698000.0,-1.607607881685993,-10.441933810141729,-6.355409960638689,-0.2660318,-0.39522982,0.15332718,165.5136,125.44512,-3.490671
2025175186000.0,-1.8687993071231364,-10.795025952236331,-6.292530642545555,-0.27580565,-0.3827071,0.16798794,165.44376,125.662605,-3.656699
2025179666000.0,-2.048213786654684,-11.067899909832995,-6.232605802216731,-0.29046643,-0.3381139,0.16798794,165.34059,125.852776,-3.9002974
2025184689000.0,-2.1310715064030554,-11.320075349659252,-6.135337982101401,-0.30115658,-0.2764165,0.13408493,165.24426,126.036224,-4.12484
2025189725000.0,-2.214143669782071,-11.572903443420955,-6.037818423650116,-0.2874121,-0.20311269,0.10354166,165.1328,126.168945,-4.3981514
2025194717000.0,-2.2187950396922798,-11.800951760326038,-5.868062656745123,-0.2733622,-0.16768251,0.08155051,165.02597,126.29972,-4.650494
2025199770000.0,-2.1611807512775894,-12.01368171828922,-5.637605317977837,-0.26633725,-0.09712757,0.065973446,164.94319,126.423874,-4.8691664
2025204890000.0,-2.0664638863669,-12.085556197899836,-5.462035671333692,-0.2782491,-0.047036625,0.040011674,164.84334,126.49457,-5.0964546
2025209699000.0,-1.9259266665230657,-11.949152292407108,-5.379366794650871,-0.27122417,-0.007330383,0.015882496,164.75783,126.55647,-5.3008823
2025214738000.0,-1.7722881829940027,-11.798641517676767,-5.294853406723485,-0.28069258,0.025961773,0.0018325958,164.6774,126.56743,-5.4760375
2025219771000.0,-1.5821048473011363,-11.604654954545454,-5.2225836255681815,-0.2764165,0.051923547,-0.018020526,164.60155,126.572174,-5.6315436
2025224664000.0,-1.3972117295691286,-11.41606440151515,-5.152324130397727,-0.27122417,0.06291912,-0.034513887,164.54361,126.58081,-5.7430453
2025229744000.0,-1.1508088245100878,-11.202307182932715,-5.052428751858288,-0.26419923,0.06872234,-0.04795292,164.48897,126.587265,-5.8428545
2025234682000.0,-0.8769004575827782,-10.98317991736654,-4.938300412617048,-0.2669481,0.043066,-0.070249505,164.42654,126.59409,-5.9363594
2025239736000.0,-0.5341311143351691,-10.817948566483084,-4.843302396144768,-0.25167647,0.03848451,-0.09315695,164.39091,126.601425,-5.972023
2025244789000.0,-0.1375306361034618,-10.70372797298715,-4.767155057730133,-0.25350907,0.01282817,-0.11301007,164.34192,126.61316,-6.0096383
2025250131000.0,0.281752909258458,-10.58297467584579,-4.686652567761604,-0.23090707,-0.013133603,-0.15088372,164.31229,126.611305,-5.9812284
2025254746000.0,0.5616528826202979,-10.53955797213589,-4.669538445825742,-0.1957823,-0.0290161,-0.19028452,164.27583,126.60516,-5.950958
2025259736000.0,0.7869967423673776,-10.54980054742257,-4.700267241238881,-0.16523905,-0.06627888,-0.22418754,164.22351,126.59233,-5.9217763
2025264765000.0,0.927425133008858,-10.562473132580552,-4.805996477523605,-0.10567969,-0.105068825,-0.25442538,164.21114,126.55025,-5.7667437
2025269783000.0,1.016305914591648,-10.576507217852622,-4.955690309763457,-0.062308256,-0.15393804,-0.2843578,164.18228,126.50361,-5.615454
2025274708000.0,1.0354599441771215,-10.586369393653136,-5.102194659055351,-0.023823744,-0.20586158,-0.29626966,164.16245,126.44298,-5.4277434
2025279745000.0,1.0034196801107012,-10.593489221033211,-5.251715829409594,-0.0036651916,-0.24617869,-0.30482176,164.1298,126.376175,-5.244599
2025284746000.0,0.9716084113800738,-10.600558162214025,-5.400168355306273,-0.0015271631,-0.25320363,-0.31031954,164.10577,126.32637,-5.046203
2025289750000.0,0.863809510001786,-10.571968607787104,-5.505447825575996,-0.004886922,-0.24831672,-0.30451632,164.07603,126.27475,-4.858008
2025294717000.0,0.744868267797821,-10.537985598499732,-5.603149664797286,-0.021380283,-0.23884831,-0.29840767,164.04536,126.228195,-4.673653
2025299909000.0,0.5961910241125895,-10.447723879836232,-5.65681999406346,-0.03481932,-0.21594086,-0.28619036,164.02126,126.2131,-4.4997764
2025304752000.0,0.4442795376990788,-10.333789950255884,-5.680556146775844,-0.07727446,-0.18173242,-0.2770274,164.0029,126.212326,-4.3275986
2025309683000.0,0.2865252810232384,-10.18304763811844,-5.62671771043853,-0.124005646,-0.1414153,-0.26389378,163.9881,126.24191,-4.185453
2025314704000.0,0.1243190117196401,-10.011830220764615,-5.532097172451275,-0.1881465,-0.09896017,-0.24281894,163.98491,126.28912,-4.044774
2025320474000.0,-0.0603411322294843,-9.82292376584708,-5.331936358335927,-0.24953845,-0.074830994,-0.21502456,163.97739,126.36659,-3.939927
2025324704000.0,-0.1948277493536673,-9.68843706183214,-5.138611885880279,-0.30665436,-0.05009095,-0.20097467,163.98126,126.45986,-3.832065
2025329691000.0,-0.2732352104637631,-9.51228641473432,-4.900362646393429,-0.36041048,-0.021380283,-0.19272798,163.9766,126.57804,-3.764569
2025334688000.0,-0.2978036940309745,-9.323927691537609,-4.654677896235133,-0.38789943,0.01863139,-0.19822577,163.98048,126.70237,-3.6923435
2025339714000.0,-0.308415376664906,-9.130822404059458,-4.353317995540632,-0.40439278,0.051618114,-0.1957823,163.9654,126.81968,-3.654356
2025344712000.0,-0.2795223734867577,-8.928571789104355,-3.9018647171734697,-0.42149702,0.08460484,-0.19517145,163.95856,126.94211,-3.6086059
2025349666000.0,-0.2508837304806459,-8.728101691767902,-3.45438581740738,-0.40653083,0.10934488,-0.20922135,163.94412,127.03511,-3.5654364
2025354898000.0,-0.1955608717337897,-8.641591258356826,-3.106096210440999,-0.36285394,0.11148291,-0.2312125,163.93105,127.12239,-3.519554
2025359747000.0,-0.1301026428070882,-8.632239894482481,-2.8536145121425696,-0.3155119,0.09773844,-0.25503623,163.91747,127.20186,-3.4693775
2025364754000.0,-0.0616497835880291,-8.598662586141817,-2.594263722674575,-0.24495697,0.07513642,-0.28221974,163.88405,127.19783,-3.414024
2025369757000.0,0.0072460775368023,-8.55129662631437,-2.335904297411701,-0.16707164,0.02687807,-0.31948254,163.83633,127.17671,-3.3587554
2025374748000.0,0.0517626681643835,-8.494268256104824,-2.055517025610482,-0.093767814,-0.029626964,-0.34483343,163.77655,127.09764,-3.2945173
2025379751000.0,0.0612748332283105,-8.422927085169745,-1.741615625183641,-0.023823744,-0.095294975,-0.36651915,163.6988,126.99704,-3.2336092
2025384647000.0,0.0639855739943609,-8.35223724615516,-1.4522502513286055,0.05100725,-0.14721853,-0.3915646,163.60051,126.83902,-3.1619208
2025389699000.0,0.0557179664981203,-8.277828589627479,-1.1835530659731714,0.12675454,-0.17104226,-0.4016439,163.49376,126.66207,-3.0961206
2025394926000.0,0.0540023820435594,-8.196834416718524,-0.8970474257311761,0.16646078,-0.20677789,-0.41599923,163.36032,126.43686,-3.0369153
2025399697000.0,0.1203447639931549,-8.083104801182328,-0.5511193016708152,0.28130344,-0.22479841,-0.42943826,163.22542,126.1705,-2.977286
2025404772000.0,0.1985409434486266,-7.9649317615462865,-0.1984727423397762,0.32467487,-0.21563543,-0.45020768,163.07475,125.87964,-2.9207394
2025409676000.0,0.3248083849891005,-7.8693780948118,0.0404115884144746,0.40286562,-0.18692477,-0.4709771,162.92381,125.5484,-2.861253
2025414766000.0,0.4558649260659788,-7.7702002474059,0.2883563770643801,0.4822781,-0.13958271,-0.49663344,162.77507,125.168,-2.7818642
2025419756000.0,0.6537569290363617,-7.660073925750026,0.5712499705819993,0.56107974,-0.08277224,-0.5305365,162.63239,124.76785,-2.689932
2025424974000.0,0.982204943029789,-7.5223375333404014,0.9367808551998305,0.63346726,-0.046731193,-0.5644395,162.49384,124.34992,-2.5883293
2025429743000.0,1.3019600180815876,-7.402259215876517,1.2151563611907388,0.70280045,-0.0061086523,-0.5925393,162.37444,123.87671,-2.4362154
2025434746000.0,1.657331828355217,-7.282201306715446,1.450470111867295,0.77121735,0.03940081,-0.6383542,162.25925,123.38638,-2.2664201
2025439743000.0,2.0223731114312096,-7.17770625166205,1.62676432132964,0.82833326,0.05375614,-0.68508536,162.16469,122.84781,-2.028004
2025444795000.0,2.402102796306556,-7.088357923130194,1.7429169385041552,0.89766645,0.06872234,-0.7464773,162.07553,122.29084,-1.769357
2025449680000.0,2.7833640938708437,-7.030811068638824,1.8468590497099768,0.9633345,0.065973446,-0.8179486,162.00742,121.70239,-1.4228388
2025454749000.0,3.210430921181361,-7.035504206013148,1.9360268466647328,1.0088439,0.01282817,-0.88789266,161.92651,121.107254,-1.0690558
2025460286000.0,3.460770405003404,-7.067008702348536,2.020748606058543,1.0509937,-0.069027774,-0.95111716,161.86758,120.49898,-0.6164663
2025464719000.0,3.305433400025528,-7.135646080114023,2.067711020439074,1.1142182,-0.19181168,-1.0268645,161.77937,119.88327,-0.15983348
2025469753000.0,3.1290367198859768,-7.21358890882403,2.121040322038802,1.2165382,-0.32162055,-1.097114,161.70357,119.25581,0.39145997
2025474757000.0,2.868114308627284,-7.995449448416914,3.085001581481088,1.3347405,-0.50640726,-1.1682798,161.5793,118.62375,0.93346095
2025480039000.0,2.61614356381058,-8.95723803690212,4.184930885769718,1.4022411,-0.7834347,-1.2641857,161.3928,117.99706,1.465789
2025484744000.0,2.748165908520748,-10.452302085840987,4.969928875910674,1.4337007,-1.133155,-1.3096951,161.11757,117.33858,1.9206334
2025489745000.0,2.8884940160437127,-12.041423299176431,5.804312499437756,1.4556919,-1.2782356,-1.1099422,160.80624,116.456406,2.2503467
2025494840000.0,3.627072838410596,-13.705742337748344,5.374047498013245,1.4321736,-1.3603969,-0.88270026,160.42493,115.598236,2.5460353
2025499751000.0,4.901260862161349,-15.352748142986153,3.750637456110777,1.2370021,-1.3738359,-0.31856623,160.09332,114.78401,2.6923313
2025504742000.0,7.195789894510226,-16.63761375457481,1.8748069157158236,0.82558435,-1.0235047,-0.49541172,159.76672,113.788124,3.0016794
2025509743000.0,10.484931444886977,-17.53980761259419,-0.2285939279117332,0.50885075,-0.10842858,-2.405282,159.45966,112.91233,3.6797216
2025514753000.0,12.815922525999454,-18.105896308897183,0.7223211478280666,-0.3707952,0.2666427,-4.8194213,159.15564,112.62516,4.767133
2025519800000.0,14.629388081777616,-18.48883772115472,3.376495566023131,-1.7763962,-0.27275133,-4.9403725,158.90378,112.629875,5.723253
2025524752000.0,14.702248593822231,-17.4606496968901,4.037647415696575,-2.4061983,-1.210124,-2.982855,158.89754,113.19962,7.2701297
2025529977000.0,12.615107576801847,-14.595429984240386,2.271200407921832,-2.2656991,-1.4230106,-0.62125,158.95895,113.96086,8.661861
2025534747000.0,8.776024796953669,-12.293144127044766,-0.4042080660887452,-1.8671097,-1.2895365,-0.19792034,158.97456,114.66866,10.22276
2025539733000.0,3.247525311117641,-10.132258417376825,-4.0337474990008815,-1.003957,-0.39095375,-0.88208944,159.25563,115.12949,11.444485
2025544756000.0,-0.2079150295618438,-8.403074596622547,-5.906634378366044,0.27397305,0.9779953,-1.3692545,159.65154,115.50598,12.354877
2025549747000.0,-1.5648414347056137,-7.124684275855774,-6.015711988589685,1.502423,1.6823229,-1.5247196,160.06834,115.74826,13.356425
2025554742000.0,-2.429626298860053,-6.5141147196216345,-6.638155584768373,2.4517076,2.0409007,-1.5769486,160.29138,115.979774,13.595272
2025559736000.0,-2.2053607339962813,-7.380244056673943,-8.393614213113429,3.0955596,2.6141977,-1.6737708,160.73453,116.01764,13.981077
2025565259000.0,-1.9573393654054487,-8.338119973482094,-10.3350235051338,3.5833356,3.022256,-1.8063285,161.1334,116.05301,14.10842
2025569728000.0,-1.1650693018487772,-8.7713037254755,-11.206506435866205,3.9984186,3.1658092,-1.8124372,161.60123,115.946884,14.263112
2025574705000.0,-0.236177358078141,-9.22681813627846,-12.12200070786096,4.258036,3.1477885,-1.7336355,162.11267,115.77532,14.457055
2025579764000.0,1.2775174759258696,-9.013406663880398,-11.919818986912496,4.3041563,2.9684997,-1.5940529,162.53459,115.610634,14.682312
2025584686000.0,2.9886443662292703,-8.522583159390525,-11.248876754394344,4.180151,2.796541,-1.4349225,162.95766,115.41628,14.880476
2025589754000.0,3.625153019233356,-7.928224111634163,-10.37554563349025,3.9923098,2.1994202,-1.3768903,163.22092,115.38123,15.14064
2025594755000.0,3.5239271867998845,-7.284059854452877,-9.39549617062158,3.8701367,1.3594806,-1.25319,163.38678,115.31691,15.298356
2025599760000.0,3.110870036603133,-7.237857225027443,-8.602647610917074,3.6022723,0.5561928,-1.0094548,163.49423,115.50312,15.613029
2025604742000.0,2.425262121225426,-7.71873506805708,-7.978934619798424,3.196047,-0.14019357,-0.7644979,163.41214,115.70727,15.809698
2025609798000.0,1.586495835311973,-8.229343505480607,-7.584669502529511,2.7458394,-0.6374379,-0.68569624,163.1768,115.88305,15.945699
2025614734000.0,0.6431991552894885,-8.74749240598651,-7.407524721566423,2.3988678,-0.87598073,-0.77854776,162.83974,116.099686,16.01107
2025619670000.0,-0.4448229426983218,-9.077778235316552,-7.232605904557589,2.169488,-0.829555,-0.9230174,162.41571,116.207985,15.939412
2025624758000.0,-1.8107341593573605,-9.10100800190694,-7.056059387395118,2.1001546,-0.4896085,-1.0574077,162.01527,116.36011,15.892471
2025629653000.0,-2.9585905704008453,-9.043054690118517,-6.923732625349136,2.039679,-0.13897185,-1.2067643,161.55984,116.41853,15.733164
2025634684000.0,-3.696925804944516,-8.770270960972296,-6.887361461462973,2.0717494,0.204029,-1.3665055,161.1934,116.48793,15.647367
2025639748000.0,-4.44010402552276,-8.495697952744019,-6.850751727032535,2.1878138,0.5412266,-1.484708,160.84003,116.37642,15.453605
2025645677000.0,-4.992405738919364,-7.999843798957762,-6.656469058063632,2.3090706,0.7654142,-1.5586227,160.54532,116.27487,15.316702
2025649781000.0,-5.279867451042238,-7.604583724355458,-6.476805445776193,2.3994787,0.93767816,-1.5873333,160.32709,116.16643,15.230689
2025654742000.0,-5.425010272263616,-7.073925765452828,-6.281432425469619,2.459038,1.0476339,-1.5824465,160.1396,115.846344,15.135143
2025659684000.0,-5.33064130676881,-6.482877294469515,-6.112561292989821,2.4914138,1.1114693,-1.5540411,159.99382,115.52228,15.054458
2025664818000.0,-4.856039009675405,-5.818448348938827,-6.027774651747816,2.5170703,1.1252137,-1.4972308,159.87367,115.121284,14.967645
2025669725000.0,-4.106387212720211,-5.143761714662228,-6.017996625523652,2.5466971,1.1294898,-1.4016303,159.7836,114.710556,14.867108
2025674665000.0,-3.3516939425024272,-4.464537754334859,-6.008152841226245,2.526844,1.131017,-1.3585643,159.71857,114.31617,14.818108
2025679847000.0,-2.6535196899344773,-4.129134964418097,-6.105040578053043,2.4526238,1.1508701,-1.3616186,159.67184,113.927864,14.754737
2025684752000.0,-2.037944608,-3.994294632,-6.248674772,2.3503041,1.1743884,-1.3952162,159.63437,113.55678,14.68533
2025689737000.0,-1.4123295655039003,-3.857255068879875,-6.394651623544462,2.257758,1.29198,-1.4193454,159.67847,113.351585,14.835291
2025694758000.0,-0.6243532544041451,-3.798295502072538,-6.429758854404144,2.218968,1.4242324,-1.4315627,159.73277,113.17004,14.987875
2025699757000.0,0.3440121210641689,-3.831687487146273,-6.334353467397369,2.1875083,1.4419475,-1.4110987,159.78949,113.01361,15.131873
2025704742000.0,1.22731331,-3.934916056322314,-6.174966775681818,2.1487186,1.3588698,-1.4214834,159.86833,113.0244,15.449067
2025709680000.0,2.0040854,-4.120559656198347,-5.940469572727272,2.1618521,1.2428054,-1.4245378,159.94283,113.035614,15.751093
2025715684000.0,2.886560229143007,-4.936117256486416,-5.277271446125623,2.1853704,1.0592403,-1.4181237,159.9918,113.16649,16.182045
2025719770000.0,3.4574389299030317,-5.773633925045863,-4.644860733659474,2.2030854,0.98990715,-1.4196508,160.0356,113.30943,16.60956
2025724758000.0,3.990886497755053,-6.6992527860509705,-4.021047441223936,2.208278,0.8378017,-1.4175128,160.0112,113.528336,17.111727
2025729752000.0,3.97942371772789,-7.302959639690021,-3.891135934249421,2.1878138,0.68966687,-1.3976597,159.96715,113.75598,17.597086
2025734651000.0,3.968178992186626,-7.895182282056403,-3.76369571144843,2.182316,0.5662721,-1.3683381,159.82292,114.02054,18.066174
2025739763000.0,3.7597415042291074,-8.451320929760044,-3.802274015188011,2.2134702,0.46517387,-1.3329079,159.66092,114.274536,18.506283
2025744733000.0,3.479683580628849,-8.967677747816493,-3.907295776519261,2.270586,0.41263947,-1.3054191,159.4948,114.51756,18.923439
2025749748000.0,3.039377440987501,-9.412553460283029,-4.061201203429397,2.3353379,0.43127087,-1.2809844,159.37772,114.64366,19.312078
2025754760000.0,2.4692007552318973,-9.794323831938849,-4.254565519842991,2.4181101,0.49571714,-1.269378,159.27028,114.75763,19.684843
2025759679000.0,1.9470218334579268,-9.97474118224086,-4.407215276460935,2.514016,0.58551437,-1.2757921,159.17682,114.77964,19.986317
2025764759000.0,1.4325336606071657,-10.032399575895706,-4.54027242041207,2.6209173,0.7122689,-1.2901474,159.12148,114.792625,20.284348
2025769769000.0,0.9517108698313554,-9.991319337913804,-4.5780125880699565,2.7519479,0.84604836,-1.303281,159.09506,114.6931,20.505741
2025774864000.0,0.4996339490526754,-9.813536404330629,-4.486581365084322,2.8533516,0.9654725,-1.3084733,159.10498,114.59631,20.728485
2025779736000.0,0.2065034979020857,-9.589152692817873,-4.265462408674404,2.9553661,1.0693196,-1.3151928,159.15596,114.41007,20.909395
2025785383000.0,0.0224447787625447,-9.268229725630508,-3.859589371838729,3.0335567,1.1603385,-1.3176364,159.23975,114.23318,21.090677
2025789840000.0,-0.0938165237733176,-8.977990040755609,-3.522599062211728,3.0775392,1.2205088,-1.3109168,159.35487,114.00796,21.234093
2025794775000.0,-0.1272957735253837,-8.535319841582055,-3.0948085969224715,3.0955596,1.321607,-1.3057245,159.51033,113.800766,21.37961
2025799665000.0,-0.160469741364817,-8.096686148783943,-2.670918956544668,3.1172454,1.4135422,-1.3106114,159.70212,113.58306,21.522984
2025804744000.0,-0.1506280202226562,-7.451250282021484,-2.058747801376953,3.1429017,1.4792101,-1.320996,159.91695,113.39012,21.661957
2025809689000.0,-0.118254863015625,-6.725166515273438,-1.374286737070313,3.1242702,1.5106697,-1.3319917,160.14871,113.227516,21.796944
2025814761000.0,0.0253117999161718,-5.738778393992316,-0.7632845608801956,3.104417,1.5531249,-1.3432927,160.42845,113.098694,21.965378
2025819966000.0,0.2446885802270345,-4.568768932937479,-0.1956906626161368,3.095865,1.6013832,-1.350623,160.71832,113.001175,22.126314
2025824685000.0,0.4435817649123298,-3.508005312050297,0.3189059955794622,3.0931163,1.6487253,-1.3335189,161.05344,112.95915,22.33002
2025829744000.0,0.5682742317411628,-2.550144369325153,0.719723777946246,3.1309898,1.6869044,-1.3338243,161.39688,112.953384,22.527714
2025834659000.0,0.6599482192034278,-1.6792415482617586,1.0589175387360017,3.1810808,1.700038,-1.323745,161.74426,112.969284,22.704489
2025839799000.0,0.8128488208132045,-0.7987476503421899,1.480092820068438,3.2400293,1.6615535,-1.3118331,162.15578,113.157234,23.029383
2025844700000.0,0.9829065165660226,0.0279217670390501,1.9099608815921896,3.2531629,1.6331482,-1.2938126,162.57265,113.37618,23.334352
2025849751000.0,1.066887294184938,0.6492782979980934,2.398373867969495,3.2351422,1.5656476,-1.2696834,163.07317,113.71353,23.712313
2025854986000.0,1.1146800495233555,1.1941155391801717,2.9240940768827457,3.1972687,1.4715744,-1.2550226,163.56277,65.90733,24.075682
2025859741000.0,1.0441607805843542,1.6327327460885956,3.41752104128181,3.1282408,1.3500122,-1.2614367,164.0773,65.39442,24.515514
2025864757000.0,0.9038068601319508,2.0628495929877477,3.947243876418473,3.0610456,1.1902709,-1.2672399,164.55913,64.84373,24.942017
2025869696000.0,0.6802283692774652,2.457345642434113,4.41468957950844,2.9969049,1.0439687,-1.2538009,165.05756,64.199135,25.402712
2025874773000.0,0.358676982702596,2.831689024064752,4.837025720363242,2.9416215,0.94959,-1.2260065,165.53183,63.5211,25.852812
2025879737000.0,-0.0106738539783282,3.2100981407120743,5.279444479876161,2.8689287,0.91507614,-1.1731668,166.03645,62.788715,26.290108
2025884743000.0,-0.4460558667936016,3.605899932972136,5.759354046439628,2.7882943,0.86315256,-1.1588113,166.51732,62.023144,26.722338
2025889739000.0,-0.7190927296839007,4.007336502022012,6.229512217686204,2.7501154,0.8527679,-1.10139,167.04001,61.24875,27.086721
2025894824000.0,-0.8499679985282826,4.421774804555925,6.7000400094701815,2.6343563,0.8445212,-1.0384709,167.55496,60.46375,27.433859
2025899665000.0,-0.9745633134694138,4.816326588738162,7.147989869848988,2.4868324,0.8332202,-0.9618073,168.11186,59.674942,27.698978
2025904747000.0,-0.9560523948288971,5.144367025673665,7.487485204066788,2.34389,0.7968737,-0.8784242,168.6583,58.890583,27.930199
2025909745000.0,-0.7147101870722433,5.3382320011406845,7.625960292775665,2.195755,0.75594574,-0.8032878,169.19748,58.120815,28.127918
2025914799000.0,-0.4706638649429657,5.534269133195569,7.765986923094726,2.0451767,0.6948592,-0.7165449,169.79953,57.286476,28.28666
2025919759000.0,-0.0595697430109722,5.6599089428765845,7.935487723602959,1.9010127,0.62980205,-0.62796944,170.37943,56.471558,28.41075
2025924665000.0,0.3480469006532278,5.783792599285532,8.103329757591222,1.7486018,0.55771995,-0.5335908,170.98178,55.578625,28.573631
2025929746000.0,0.9216067374180852,5.862062140922956,8.258376533799074,1.6059648,0.49846604,-0.4343252,171.55757,54.71446,28.700571
2025934908000.0,1.5977389166879858,5.910704708668701,8.404304744957198,1.4633276,0.45265114,-0.3191771,172.10065,53.88944,28.789577
2025939809000.0,2.2620222533295338,5.813870338975967,8.464674997340174,1.3219124,0.441961,-0.20280726,172.67496,52.977234,28.941303
2025944760000.0,2.946646975425097,5.629201660397074,8.478187130901492,1.1924089,0.47250426,-0.105374254,173.234,52.102306,29.054392
2025949792000.0,3.698644149944439,5.325977515001515,8.47287562592181,1.0845913,0.48655418,-0.056199603,173.81683,51.13169,29.268057
2025954757000.0,4.496008454066067,4.912885402161834,8.448858648449338,0.9850202,0.52870387,-0.042455133,174.40808,50.194454,29.44456
2025959736000.0,5.261370287628491,4.399316591558264,8.53314050350223,0.88086766,0.5500842,-0.00580322,175.00333,49.205887,29.715921
2025964782000.0,6.004284059046666,3.7838849861730193,8.722165600563995,0.7779369,0.441961,-0.009162978,175.57957,48.233276,29.99314
2025970677000.0,6.996578750641213,2.8683513336709416,9.029375158554355,0.7174612,0.25717425,-0.05131268,176.14102,47.21618,30.390163
2025974738000.0,7.795717297515301,2.055043592650102,9.321259385601866,0.7507534,0.07391469,-0.11209377,176.68167,46.20492,30.795742
2025979739000.0,8.779832508772952,1.0534794427251528,9.680706078402798,0.82344633,-0.01038471,-0.18203785,177.20746,45.163902,31.297966
2025984738000.0,9.359565936302142,0.3099829773308906,9.97882791347238,0.8695667,-0.1459968,-0.20738874,177.67882,44.13422,31.82526
2025989761000.0,9.635248600526118,-0.2413816102198421,10.231913212514092,0.9932669,-0.204029,-0.24037547,178.17178,43.07521,32.356163
2025994708000.0,9.812606908483383,-0.7486895920827918,10.59767198310748,1.1435398,-0.18570304,-0.28588495,178.62642,42.01479,32.985157
2025999746000.0,9.870823069983294,-1.218898888407277,11.121619307035456,1.278541,-0.17806722,-0.3567453,179.08018,40.95161,33.61234
2026004734000.0,9.929035884495317,-1.6243400257023932,11.537610523413113,1.4107933,-0.20097467,-0.44104472,179.52989,39.90566,34.20703
2026009760000.0,9.989139383073187,-1.8814501723551855,11.697887100728408,1.4923438,-0.17806722,-0.514654,180.00897,38.86431,34.777798
2026014754000.0,10.048860209157128,-2.1369233264308014,11.85714321436004,1.5238034,-0.037873644,-0.6065892,180.53772,37.844532,35.239925
2026019733000.0,10.097748658260524,-2.2869464944499605,11.99387984124305,1.5042557,0.13805555,-0.698219,181.09456,36.838223,35.68035
2026024762000.0,10.13122106711676,-2.2821648002184274,12.099077913224782,1.4618006,0.2556471,-0.7635816,181.68317,35.849598,36.09423
2026029724000.0,10.14571970861608,-2.1198122773596544,12.067622807320584,1.391551,0.3408628,-0.8011498,182.30388,34.913578,36.43183
2026034747000.0,10.13088182032696,-1.704352541455891,11.820325529919804,1.3148874,0.4334089,-0.8029824,182.95343,34.012173,36.729504
2026039776000.0,9.963145471332586,-1.1525270152146323,11.429085967599852,1.2388347,0.54519725,-0.79045963,183.63432,33.133778,36.986458
2026044719000.0,9.613277938633818,-0.4457236627771557,10.870711107726764,1.185384,0.6795876,-0.75686204,184.32564,32.298237,37.197273
2026049718000.0,9.259446703359462,0.2690871725121311,10.306010334005226,1.1960741,0.79809546,-0.74006325,185.06165,31.439394,37.421013
2026054688000.0,8.784024584762275,0.5460888422252533,10.11427193725643,1.2690725,0.90041536,-0.7467828,185.8099,30.605474,37.600212
2026059656000.0,8.269496801441932,0.6851503451091193,10.04010624123149,1.3646729,0.99265605,-0.7788532,186.57152,29.786459,37.741325
2026064793000.0,7.650657155672665,0.8413420565277916,10.041416528189322,1.475545,1.0500773,-0.8246681,187.40028,28.890373,37.918472
2026069727000.0,7.021069679506811,0.9963898053395644,10.074305119021576,1.5671748,1.0955868,-0.8695667,188.2439,27.991634,38.06687
2026074753000.0,6.409508634219503,1.2633805058186196,10.111393625702249,1.6029104,1.1545353,-0.90408057,189.09506,27.097467,38.12456
2026079696000.0,5.820631162540129,1.5720662936597112,10.149385995786515,1.6099354,1.1701124,-0.9104946,189.9373,26.203684,38.170643
2026084684000.0,5.3190168242262965,1.9651067403705893,10.072354076483345,1.6013832,1.2040154,-0.9126327,190.77985,25.318762,38.100346
2026089770000.0,4.848550745909718,2.401968023615218,9.94273576739602,1.5192219,1.2330315,-0.90316427,191.60616,24.462578,38.01535
2026094703000.0,4.593190074813626,2.8316078243087666,9.769168870151931,1.4214834,1.2724323,-0.8491027,192.42163,23.609816,37.827824
2026099797000.0,4.4274606760970086,3.278156170840804,9.566611106067755,1.2861768,1.3286319,-0.7507534,193.20944,22.804121,37.612263
2026104746000.0,4.311570846080999,3.599035542333266,9.33261568496877,1.1258247,1.3591752,-0.64568454,193.9876,22.00721,37.34319
2026110446000.0,4.218079935341527,3.868509904614145,9.030144145577273,1.0015136,1.3350459,-0.54061574,194.71495,21.259096,37.05362
2026114848000.0,4.197319033364679,3.965519367011472,8.801700465958247,0.8943067,1.2687671,-0.4456262,195.43513,20.512884,36.767113
2026119696000.0,4.201685059921008,4.013545659131089,8.552837225785217,0.8216137,1.1679744,-0.36132678,196.09726,19.81117,36.47875
2026124687000.0,4.194496902684564,3.990860995637584,8.48037535738255,0.79381937,1.073901,-0.29260445,196.73204,19.118088,36.215652
2026129753000.0,4.171884824906786,3.873279078970917,8.647703051826996,0.7644979,0.9401216,-0.27000242,197.3191,18.454836,35.981106
2026134709000.0,4.193568726001057,3.808798690015848,9.036825519915478,0.74036866,0.6939429,-0.25809056,197.852,17.809143,35.820145
2026139740000.0,4.32082953205494,3.8647934808240887,9.97346483560486,0.7309003,0.43035457,-0.25961772,198.35217,17.174368,35.695755
2026144667000.0,4.465147822125182,4.12237620349345,11.083711426491991,0.68752885,0.23243423,-0.27550024,198.8094,16.568241,35.588245
2026149704000.0,4.643028316244542,4.698147095196506,12.516117405240172,0.61453044,0.14782938,-0.30176744,199.24596,15.975535,35.5196
2026154655000.0,4.724832869587367,5.420088692307692,13.881535336729495,0.5006041,0.2144137,-0.28985557,199.67409,15.376273,35.388573
2026159690000.0,4.61838866046867,6.472248769230768,15.183429105196128,0.3286455,0.42577308,-0.24740042,200.09932,14.817597,35.238827
2026165082000.0,4.488738892805071,7.645430509667195,16.548617851664027,0.14202617,0.93492925,-0.1386664,200.60016,14.185286,34.88453
2026169719000.0,4.146239343771791,9.339161264976228,17.29461047511886,-0.12003502,1.5754215,0.053450707,201.07263,13.648585,34.427917
2026174729000.0,3.835774073688483,11.101234023845764,18.0603228615931,-0.56321776,1.8408424,0.32650748,201.58133,13.041582,33.80426
2026179671000.0,4.085503689071537,12.205807380517504,18.43972052754947,-0.86406887,2.1138992,0.48899764,202.0796,12.504767,33.00976
2026184744000.0,4.426094100915141,13.108592202163065,18.802746321963397,-1.5033394,2.1887302,0.7840455,202.54362,11.997648,32.12123
2026189828000.0,5.353236694111665,12.406484658809392,18.982773403124423,-1.9908098,2.1077905,0.98899084,202.93712,11.577434,31.215052
2026195159000.0,6.306447980328189,11.601309053330729,19.16760519163899,-2.21683,1.8848248,1.1496484,203.30698,11.158559,30.372484
2026199759000.0,6.7754663257081456,9.621965177573744,19.25366401172104,-2.2107213,1.5897768,1.2333369,203.57492,10.861851,29.583012
2026204705000.0,7.279763007501465,7.4937402189880835,19.34619595174839,-2.022575,1.2125676,1.1490375,203.80824,10.672733,29.010174
2026209744000.0,6.971028134217626,3.784707657473021,19.406037641546764,-1.6939293,0.75686204,1.0079277,203.97882,10.47827,28.552551
2026214755000.0,6.582624938399281,-0.0561690009172668,19.46214011258993,-1.2449434,0.2565634,0.84879726,204.13144,10.216976,28.229053
2026219765000.0,6.4821141988460855,-1.8300014937156048,19.094214549085745,-0.7635816,-0.4382958,0.7144069,204.13332,10.114973,28.117512
2026224734000.0,6.5074579513048105,-2.6916896947985087,18.54509947141843,-0.23793201,-1.344209,0.6783658,204.10442,9.891319,28.214138
2026229745000.0,6.5218053,-3.830704896357993,17.419689172478012,0.21868975,-2.3377812,0.72021013,203.64139,10.07243,28.366835
2026234744000.0,6.5218053,-5.311766669239524,15.567123391412313,0.6239988,-3.3903022,0.8176431,203.11429,10.135418,28.790106
2026239751000.0,6.643654730676124,-6.775935992830159,13.28592644527022,1.0170907,-4.2794166,0.820392,202.48433,10.213442,29.478
2026244762000.0,6.884138187595405,-8.222536089353172,10.588813315395882,1.3213016,-4.6975536,0.6924158,201.82141,10.211804,30.312323
2026249717000.0,7.121934142302059,-9.652969830776348,7.921841541592784,1.4798211,-4.6230283,0.5012149,201.02893,10.404782,31.365463
2026254753000.0,7.118280287724165,-10.992980864064204,4.757046639472902,1.4202617,-4.4758096,0.32436943,200.23454,10.562509,32.483353
2026260214000.0,7.087189975527593,-12.433494514316854,1.2749412503616364,1.1273518,-4.0897427,0.17165314,199.50789,10.715254,33.48915
2026264810000.0,6.639480969164843,-12.699259511670313,-1.1122210372720645,0.72265357,-3.4507778,0.023823744,198.73796,11.042982,34.56037
2026269690000.0,6.157986167560175,-12.967703114879647,-3.6390031700218817,0.34605515,-3.097087,-0.14019357,197.87532,11.510802,35.744473
2026274741000.0,5.591358099225103,-12.6078489176313,-5.430431515335311,0.129198,-2.3866506,-0.30390546,197.10262,12.018467,36.64143
2026279727000.0,5.002078199464269,-11.972888757868551,-6.837394904429351,0.09040806,-1.6325374,-0.37323865,196.35432,12.564882,37.41449
2026284690000.0,4.526459537988772,-11.064219403920022,-7.336832156702453,0.11362094,-0.77091193,-0.46639562,195.66985,13.172482,38.121765
2026289771000.0,4.114291700541712,-9.94753240736728,-7.240979264355363,0.160963,0.02687807,-0.5180137,195.04198,13.782202,38.63195
2026295691000.0,3.80694512012304,-8.673020008235762,-6.460812644373884,0.20372356,0.700357,-0.5467244,194.57124,14.3220215,39.0356
2026299730000.0,3.661096020559635,-7.813277698749752,-5.681671188926374,0.2678644,1.2718215,-0.5720753,194.18697,14.842845,39.252422
2026304638000.0,3.5194815648592286,-6.885344840458812,-4.518854790093847,0.3182608,1.7027869,-0.634689,194.01613,15.225781,39.337322
2026309659000.0,3.4041574672054224,-6.032949199478624,-3.1500075185297187,0.36743546,2.0253236,-0.70463306,193.91023,15.5964365,39.304356
2026314633000.0,3.31731313509064,-5.240023753977063,-1.8789186681552903,0.3924809,2.2272146,-0.77304995,193.99983,15.820221,39.1469
2026319593000.0,3.247019402201258,-4.479973025157233,-0.661959131092767,0.40775254,2.3310618,-0.82558435,194.1335,16.034025,38.94088
2026324624000.0,3.2172451222609766,-3.648136498994665,0.6406164580609355,0.38240165,2.3484714,-0.8381071,194.39803,16.141092,38.61797
2026329587000.0,3.236748419070578,-2.7558576788161675,2.0058517624268566,0.3594942,2.283109,-0.82344633,194.66925,16.247711,38.298157
2026334576000.0,3.261738986256354,-1.8497928129084968,3.422927741957153,0.32406402,2.13925,-0.7635816,195.0305,16.259241,37.902805
2026339670000.0,3.29273853805374,-0.9153813320261436,4.915329120551925,0.23884831,1.9257526,-0.6722572,195.35286,16.301329,37.54435
2026344586000.0,3.2454089372980595,-0.019286516035997,6.398729542296433,0.102319926,1.6978999,-0.5870415,195.71767,16.373272,37.16254
2026349578000.0,3.017334887292638,0.8774589788355197,8.005614668264123,-0.095294975,1.5259414,-0.5122105,196.0232,16.493727,36.824135
2026354603000.0,2.715773438254909,1.5499613213412375,9.315151575398296,-0.3231477,1.4486669,-0.48655418,196.47133,16.388138,36.410664
2026359603000.0,2.329897975120415,1.9447074310114856,10.251010226750648,-0.5644395,1.4862351,-0.4718934,196.8815,16.343937,36.011047
2026365288000.0,1.868919752568244,2.248735132401874,11.288170259731867,-0.8029824,1.5980235,-0.42638394,197.3813,16.202387,35.466957
2026369630000.0,1.489431652729769,2.3024679960749475,12.047146389274754,-1.0225884,1.6667458,-0.3463606,197.85187,16.121572,34.92501
2026374602000.0,1.054881944669682,2.363997198788564,12.9162457250848,-1.1166617,1.8032742,-0.28802297,198.3573,16.00934,34.19025
2026379606000.0,0.9807982775271848,2.1253173674385826,13.401351383105116,-1.2767084,1.8536706,-0.17745635,198.80138,15.986562,33.45764
2026384598000.0,0.9856117476842527,1.8220684459726135,13.800869707712446,-1.3927728,1.8335121,-0.064446285,199.21779,15.986377,32.71232
2026389856000.0,1.238197422576878,1.51992292052355,14.234576465550798,-1.4724907,1.7266107,0.064446285,199.55049,16.033293,31.784655
2026394605000.0,1.50817557699494,1.249944812319969,14.62847911872324,-1.496009,1.5091426,0.24495697,199.80048,16.119265,30.896244
2026399686000.0,2.0226064172363136,0.8139620211223191,14.835356232984036,-1.4495832,1.2351695,0.410196,199.94571,16.261906,30.010736
2026404618000.0,2.582313647517383,0.3513940640485751,14.978752285476446,-1.3408492,0.9257663,0.56321776,200.00198,16.416054,29.199251
2026409641000.0,3.3587783965534515,-0.2028611570293558,14.737499854022644,-1.187522,0.62949663,0.66553766,199.97209,16.58307,28.469406
2026414681000.0,4.209896593126941,-0.7880049095992385,14.360300214707946,-0.9804387,0.30757064,0.70921457,199.87347,16.718422,27.841064
2026419698000.0,5.063498702892678,-1.426546211608405,13.85420721511354,-0.7296785,0.15454891,0.7189884,199.7226,16.854984,27.326897
2026424842000.0,5.94079309565627,-2.0996026477150664,13.292552501083575,-0.54611355,0.09407325,0.6713409,199.55127,16.950901,26.889875
2026429647000.0,6.528717811589097,-2.6241674909790467,12.915551554236972,-0.41141775,-0.061391957,0.6105598,199.34654,17.060017,26.684479
2026435270000.0,7.07291316959021,-3.173355620470981,12.56606849768218,-0.21471913,-0.35002577,0.56046885,199.13356,17.100174,26.541113
2026439659000.0,7.255144161043658,-3.577770663523637,12.04240540049944,0.0421497,-0.6356053,0.4813618,198.90312,17.180296,26.62905
2026444675000.0,7.226188714699044,-4.016240461508654,11.1985581010936,0.29168814,-0.73853606,0.35827246,198.69241,17.198172,26.750587
2026449668000.0,7.185312454964678,-4.416210269427001,10.335725147370486,0.464563,-0.62796944,0.25228736,198.45618,17.254496,26.991215
2026454750000.0,7.075481519525118,-4.616770761185244,9.32814784242543,0.49541172,-0.408058,0.17959438,198.25156,17.270433,27.227842
2026459680000.0,6.950487460880126,-4.793570925953708,8.43847086523789,0.40408736,-0.2507602,0.112399206,197.99155,17.424477,27.518648
2026464871000.0,6.673474444406344,-4.839739786755251,8.193420509729961,0.2593123,-0.25686884,0.035124753,197.77106,17.565233,27.791449
2026469664000.0,6.417700337691099,-4.882368827368196,7.967158449635661,0.10415252,-0.3032946,0.006414085,197.50226,17.882095,28.106228
2026474731000.0,6.048153272479564,-4.8102526325966295,7.639279398728428,0.038179077,-0.42760566,-0.02443461,197.26276,18.179728,28.437138
2026479749000.0,5.4758797694822885,-4.495017304793622,7.1300531233424165,-0.06872234,-0.54000485,-0.04184427,197.0368,18.502232,28.765266
2026484650000.0,5.0249441709059735,-4.261911783252359,6.730538359131181,-0.12583824,-0.59650993,-0.05497787,196.82141,18.832441,29.061312
2026489767000.0,4.777517210155282,-4.173211461903401,6.515790441049824,-0.14721853,-0.625526,-0.09040806,196.61742,19.15434,29.372028
2026494665000.0,4.528622544609298,-4.089737823224531,6.330381030722058,-0.11759156,-0.6026186,-0.11484267,196.44318,19.454834,29.635641
2026499717000.0,4.231917735113749,-4.008383333491593,6.2059563171315535,-0.077579886,-0.58032197,-0.15057829,196.2855,19.73513,29.90278
2026504660000.0,3.954353011562713,-3.931171142247208,6.102385004292334,0.0036651916,-0.535118,-0.160963,196.15096,19.991093,30.129478
2026509687000.0,3.7202782781584736,-3.8616801520626,6.065810839132417,0.06414085,-0.47555858,-0.17592919,196.03728,20.223692,30.34352
2026514712000.0,3.4862966717617563,-3.792216808979716,6.029251225062676,0.115453534,-0.39645153,-0.19425514,195.93839,20.440893,30.503477
2026519768000.0,3.237016224336323,-3.6442617204856393,6.01942678703452,0.15363261,-0.3182608,-0.20463985,195.8519,20.636297,30.643282
2026524776000.0,2.9806351196158376,-3.4443714184108,6.028117620413156,0.15974127,-0.25045475,-0.21624629,195.78267,20.815851,30.762632
2026529744000.0,2.7487624779032407,-3.209407537868356,6.065644013953916,0.15790866,-0.17348573,-0.21746802,195.73346,20.988625,30.813631
2026534694000.0,2.552927245184981,-2.91783058936932,6.148330326264573,0.1591304,-0.09315695,-0.2098322,195.69502,21.152725,30.843502
2026539758000.0,2.356307051537724,-2.581196376281437,6.300796903665462,0.12522738,-0.028710667,-0.1853976,195.66763,21.286121,30.814856
2026544772000.0,2.1756946287336825,-2.103104690611402,6.708060024367579,0.086437434,0.033292156,-0.15607607,195.64651,21.420507,30.763687
2026549779000.0,1.995334357297736,-1.6256804644147798,7.114754568714507,0.043982297,0.09101892,-0.12339478,195.64684,21.49898,30.662842
2026554752000.0,1.898329179142321,-1.2643803299686978,7.455847875417362,-0.013133603,0.14996742,-0.09590584,195.64803,21.594137,30.543085
2026559701000.0,1.8834932813439065,-1.01711605172788,7.732783876961602,-0.08002335,0.20830505,-0.060170226,195.64423,21.707993,30.404263
2026564755000.0,1.9160902887600524,-0.8447363472115205,7.957077867851131,-0.13958271,0.28893927,-0.0290161,195.70038,21.714622,30.1905
2026569713000.0,1.9826909163830184,-0.7337353042640733,8.134679139704508,-0.21380283,0.32528573,-0.0033597588,195.74892,21.74495,29.970675
2026574783000.0,2.0887243258054617,-0.6747647647028742,8.31284786140943,-0.22602014,0.41630468,0.023823744,195.83133,21.736385,29.70403
2026579751000.0,2.2395788119668607,-0.6844973089188913,8.48316789332106,-0.2565634,0.51068336,0.054367006,195.90982,21.753254,29.425488
2026584680000.0,2.399531942724155,-0.7316098597256248,8.657616149926506,-0.28893927,0.593761,0.0711658,196.01068,21.747469,29.132208
2026589752000.0,2.575643909799118,-0.822045682322391,8.843247373836356,-0.30757064,0.6704246,0.074830994,196.11705,21.746897,28.816896
2026594725000.0,2.7550533859892226,-0.9201475485758276,9.02177912856043,-0.32803464,0.7339546,0.08246681,196.23372,21.745287,28.497751
2026599759000.0,2.9452568658391067,-1.0314862394534257,9.198065526366436,-0.3182608,0.7654142,0.09468412,196.3519,21.74057,28.169964
2026604687000.0,3.1112678935457456,-1.1278324657485297,9.347774541651155,-0.30390546,0.7806858,0.09773844,196.47534,21.736864,27.847511
2026609741000.0,3.2445846856249534,-1.2034987429762525,9.459472343631354,-0.269697,0.76174897,0.10354166,196.59145,21.726797,27.528778
2026615961000.0,3.408658774808308,-1.2966218621603516,9.59693976118514,-0.23732115,0.7315111,0.11789699,196.70131,21.71674,27.229328
2026620797000.0,3.610551726538198,-1.377432059688937,9.71801656353321,-0.2049453,0.6786713,0.122478485,196.80415,21.696926,26.946222
2026624764000.0,3.7814991201017314,-1.444324457302162,9.81835531517167,-0.15515977,0.6072,0.13408493,196.8917,21.667173,26.67819
2026629749000.0,3.995989967178202,-1.5478594894456623,9.914915395448377,-0.109650314,0.5345071,0.14752395,196.97075,21.633595,26.445272
2026634750000.0,4.210983787284685,-1.662856176636392,9.994913122664162,-0.061086524,0.43127087,0.14660765,197.035,21.586525,26.24356
2026639734000.0,4.358932095891708,-1.8055018460810297,10.043317976902689,-0.00030543262,0.32345316,0.1423316,197.09,21.525883,26.092915
2026644922000.0,4.4859180214880725,-1.9654102087466867,10.080943254449071,0.03481932,0.20922135,0.12522738,197.13295,21.458635,25.975452
2026649762000.0,4.54788081980198,-2.122997137871287,10.057851391811056,0.07727446,0.105068825,0.100792766,197.16525,21.380497,25.915905
2026654753000.0,4.577458671782178,-2.290605171658416,9.998695739325496,0.111177474,0.01282817,0.071776666,197.18945,21.294523,25.886679
2026659738000.0,4.51865990104417,-2.4492634397779067,9.81273566971907,0.12522738,-0.082161374,0.043676864,197.19725,21.224823,25.903677
2026664743000.0,4.415384150360487,-2.604177128018563,9.562490439545869,0.13133603,-0.115453534,0.01985312,197.20773,21.147158,25.930975
2026669942000.0,4.3382936,-2.719813,9.375694,0.1432479,-0.21044308,-0.004581489,197.19296,21.095486,26.005175
2026674753000.0,4.3382936,-2.719813,9.375694,0.14202617,-0.2312125,-0.008857546,197.18451,21.04636,26.06763
2026679749000.0,4.30915103390126,-2.7104874143909976,9.340722886599572,0.14446963,-0.29749137,-0.012217305,197.12817,21.046906,26.161566
2026684743000.0,4.214399748030748,-2.680167118472145,9.227021232744274,0.13439035,-0.35308012,0.00030543262,197.06808,21.052336,26.254805
2026691013000.0,4.093447645383412,-2.6418423581985744,9.08040167866458,0.12797627,-0.4202753,0.0027488936,197.00558,21.054068,26.367443
2026694864000.0,3.978016481690141,-2.612984500312989,8.91046148826291,0.129198,-0.43188173,0.0015271631,196.94176,21.057343,26.476461
2026699770000.0,3.830962394679186,-2.5762208932533475,8.69396536411059,0.13958271,-0.46089783,-0.0070249503,196.86287,21.063128,26.596052
2026704749000.0,3.7243552343053175,-2.5421308171526587,8.531230723842196,0.14446963,-0.47647488,-0.01038471,196.78453,21.070183,26.712023
2026709736000.0,3.6629150521440814,-2.5114107260720413,8.428830420240137,0.13194689,-0.4868596,-0.023518313,196.71002,21.07621,26.833578
2026714749000.0,3.623548630362338,-2.478695873816451,8.33194366913515,0.13683382,-0.48716503,-0.03359759,196.62822,21.085772,26.943445
2026719720000.0,3.5983667880983865,-2.445120084131182,8.23961007220312,0.13652839,-0.47739118,-0.04642576,196.5526,21.097155,27.052635
2026724700000.0,3.576943479760385,-2.410179351448493,8.153087436315428,0.1423316,-0.46639562,-0.05222898,196.4803,21.104729,27.157045
2026729742000.0,3.562717840439949,-2.372244626848669,8.077217789060198,0.12461651,-0.44715336,-0.062002823,196.41664,21.115667,27.256319
2026734650000.0,3.5474247676944497,-2.33378429822956,8.005867486930574,0.11636983,-0.41996986,-0.0580322,196.3577,21.121315,27.351864
2026739972000.0,3.5271471748557786,-2.288159608474239,7.934895911995226,0.10354166,-0.37934732,-0.059253927,196.30855,21.130224,27.438438
2026744684000.0,3.514688,-2.243979372113417,7.875141744012472,0.090713486,-0.33964106,-0.057726767,196.26605,21.139008,27.52067
2026749700000.0,3.514688,-2.187811902016954,7.818974176166813,0.07819075,-0.2938262,-0.058643065,196.23167,21.15014,27.58934
2026754730000.0,3.5157210732652344,-2.1379732655688626,7.782565461165903,0.06719518,-0.25289822,-0.05131268,196.2038,21.162296,27.650476
2026760661000.0,3.520722834519197,-2.102960832335329,7.812576133145473,0.0580322,-0.21594086,-0.049480084,196.18393,21.175913,27.700136
2026765231000.0,3.527999043229002,-2.0762998822847507,7.838682502160395,0.046731193,-0.18203785,-0.042760566,196.17091,21.187624,27.745445
2026769705000.0,3.5731531086521238,-2.0537228967225207,7.897382617472863,0.034513887,-0.16707164,-0.04428773,196.16254,21.20066,27.785881
2026774740000.0,3.625362554794521,-2.030993607305936,7.963655843664384,0.036957346,-0.14080444,-0.04184427,196.16304,21.206636,27.812735
2026779756000.0,3.6939088287671233,-2.040133110502283,8.032201974486302,0.03970624,-0.12186762,-0.039095376,196.16508,21.215176,27.837137
2026785116000.0,3.76764788195496,-2.0513014882031624,8.104309104168664,0.035124753,-0.10629055,-0.044593163,196.18034,21.214102,27.860712
2026789872000.0,3.841850506276953,-2.086220418495448,8.147957653090561,0.03848451,-0.08827003,-0.054061573,196.19875,21.21021,27.878468
2026795476000.0,3.930069975916066,-2.1269459944461846,8.199714551518948,0.050701816,-0.06872234,-0.057726767,196.22107,21.199772,27.898588
2026799767000.0,4.015870220920764,-2.148396066896336,8.246904800501097,0.040011674,-0.057726767,-0.064751714,196.2482,21.192476,27.917435
2026805077000.0,4.123192311262119,-2.17410183234072,8.307756715979917,0.05681047,-0.043066,-0.06261369,196.27493,21.179636,27.939627
2026809689000.0,4.24171867514716,-2.17792525699446,8.414812845827562,0.063224554,-0.042455133,-0.06719518,196.30502,21.170109,27.9639
2026814901000.0,4.375664774143005,-2.1822460916204984,8.535796486063019,0.08002335,-0.04520403,-0.073303826,196.33759,21.15286,27.99799
2026819708000.0,4.437087039741779,-2.1961857559007463,8.606094894896106,0.095294975,-0.049480084,-0.067500606,196.36755,21.135649,28.030966
2026824779000.0,4.471376646610853,-2.2157798461972966,8.659978745511397,0.09193522,-0.06047566,-0.07422013,196.40144,21.116507,28.068085
2026830293000.0,4.492935354342143,-2.2144926559395874,8.672923651466744,0.105068825,-0.07727446,-0.06872234,196.43811,21.077656,28.121275
2026834686000.0,4.505154648223448,-2.206346488372543,8.668850482621744,0.12767084,-0.09010262,-0.07238753,196.47812,21.035692,28.177235
2026839943000.0,4.507829606685439,-2.199819266127714,8.66701,0.13439035,-0.11575896,-0.06383542,196.50098,20.997147,28.239218
2026844709000.0,4.503683546007812,-2.1956732920337907,8.66701,0.13927728,-0.13836098,-0.070554934,196.5279,20.951658,28.30483
2026849727000.0,4.501099,-2.185226086834453,8.65914732788529,0.14049901,-0.16493362,-0.07574729,196.54863,20.905052,28.379345
2026854693000.0,4.501099,-2.166151229198837,8.640072569838564,0.14202617,-0.18325958,-0.08277224,196.56989,20.856901,28.457182
2026859673000.0,4.501099,-2.138251966657173,8.614010103389347,0.15210545,-0.19425514,-0.09285152,196.58864,20.804258,28.538643
2026864916000.0,4.501099,-2.0953485668470524,8.575874035602393,0.15515977,-0.20922135,-0.081855945,196.60025,20.756042,28.622694
2026869691000.0,4.496971556176021,-2.057583644826269,8.536954957903781,0.16126843,-0.21288654,-0.086132,196.61797,20.699152,28.710762
2026874740000.0,4.4831247363306606,-2.020658663382971,8.486183012027492,0.15607607,-0.21746802,-0.08827003,196.62975,20.647306,28.79972
2026879705000.0,4.4723687,-1.9851301236673773,8.439137692963753,0.15149458,-0.22296582,-0.09010262,196.64632,20.588028,28.894205
2026884687000.0,4.4723687,-1.9524310254035944,8.40280536155955,0.160963,-0.23426682,-0.099265605,196.66438,20.526352,28.990686
2026889798000.0,4.4723687,-1.918885242339324,8.365532269265914,0.1600467,-0.24709499,-0.096516706,196.67859,20.468,29.09046
2026894696000.0,4.4671387378810685,-1.88224986603312,8.337900889913437,0.14905111,-0.23579398,-0.10048734,196.69936,20.408579,29.186756
2026899755000.0,4.4580214469232216,-1.8412222233251787,8.315107305513738,0.16584991,-0.2434298,-0.101098195,196.7143,20.344585,29.288729
2026904684000.0,4.446699265229597,-1.8043898432725085,8.29874707098456,0.15790866,-0.24556783,-0.1133155,196.74101,20.281408,29.392534
2026909683000.0,4.432299548997393,-1.770790338329657,8.289147026268298,0.15302174,-0.24862215,-0.11209377,196.7628,20.216555,29.495178
2026914749000.0,4.433194583426097,-1.7386197865182436,8.271743272340755,0.13591751,-0.24709499,-0.10934488,196.78883,20.15063,29.599571
2026919719000.0,4.451591574768089,-1.7091846003710576,8.245987714981448,0.1432479,-0.2443461,-0.09896017,196.81195,20.08259,29.701498
2026924870000.0,4.4706585571428565,-1.6786774285714283,8.21929417857143,0.13225232,-0.23548855,-0.09743301,196.8414,20.01385,29.799006
2026929696000.0,4.48811300751554,-1.6916854664155208,8.205091759088342,0.12889257,-0.2302962,-0.09621128,196.86763,19.94438,29.893826
2026934655000.0,4.506003938076851,-1.7095763502731212,8.19167354949143,0.12767084,-0.22540927,-0.09315695,196.89389,19.878874,29.98431
2026939810000.0,4.5365968693137,-1.7142484,8.194649691953721,0.1020145,-0.22418754,-0.09101892,196.92535,19.814144,30.082214
2026944779000.0,4.569964952116751,-1.7142484,8.202991679989482,0.105068825,-0.21930063,-0.08093964,196.95447,19.745764,30.174904
2026949732000.0,4.60359119784814,-1.7212344886566249,8.202665631878267,0.09590584,-0.20311269,-0.08277224,196.98705,19.689232,30.26746
2026954687000.0,4.637628681555487,-1.7358219599139255,8.192940701813711,0.09285152,-0.19517145,-0.07727446,197.01382,19.634195,30.357262
2026959688000.0,4.66970758446157,-1.7429788,8.195859292230786,0.09773844,-0.1957823,-0.07360926,197.0415,19.577993,30.450392
