timestamp,acc_x,acc_y,acc_z,gyro_x,gyro_y,gyro_z,ori_azimuth,ori_pitch,ori_roll
2627308665000.0,-0.4790221205970151,10.265789242198109,-1.3692104196743564,-9.180388,7.2002687,-2.990491,33.10346,-15.124167,34.516426
2627313641000.0,-0.4876434243184081,10.239925520081416,-1.3562784910990509,-9.180388,6.9699726,-7.7775364,34.685482,-15.949377,34.108814
2627318675000.0,-0.4963652175124379,10.213760331750343,-1.34319582862958,-3.433979,0.76174897,0.03390302,33.20348,-14.874596,34.38488
2627323697000.0,-0.5050662197810947,10.18765751573949,-1.33014435248304,-1.1887437,0.76144356,0.03726278,35.150658,-15.074006,31.875326
2627328641000.0,-0.5136320810348259,10.161960119810043,-1.31729558743555,-1.1930199,0.7620544,0.036651913,35.236427,-14.8398285,31.753784
2627333604000.0,-0.5222308612537314,10.136163967706924,-1.3043974440434198,-1.1976013,0.76052725,0.032986723,35.33073,-15.153158,31.628143
2627338593000.0,-0.530874688477612,10.110232675576666,-1.2914317302849394,-1.1924089,0.7461719,0.03756821,35.43311,-15.475834,31.501373
2627343587000.0,-0.5395271785870648,10.08427539497965,-1.2784530222252375,-1.1780536,0.72692966,0.033292156,35.549026,-15.8106575,31.370022
2627348676000.0,-0.5483442635223881,10.05782433351425,-1.265227422442334,-1.1594223,0.7104363,0.03604105,35.670914,-16.154724,31.237692
2627353806000.0,-0.557232384119403,10.03116016662144,-1.2518952693894168,-1.133155,0.711658,0.036651913,35.802982,-16.51353,31.100004
2627358608000.0,-0.5655522194228856,10.006200843147898,-1.239415542496608,-1.1233811,0.7684685,0.045814894,35.93456,-16.879198,30.94773
2627363951000.0,-0.5748093789452736,9.978429567571236,-1.225529832211669,-1.2339478,0.7770206,0.061086524,36.0764,-17.22891,30.803696
2627368603000.0,-0.582869327681592,9.954249898100407,-1.2134399343554954,-1.2449434,0.76083267,0.06383542,36.22192,-17.613039,30.645826
2627373680000.0,-0.5916656216915422,9.927861208955225,-1.2002455208955225,-1.2528846,0.75991637,0.07513642,36.373524,-18.001907,30.50396
2627378650000.0,-0.59376204,9.914267837728197,-1.1971009,-1.248914,0.7483099,0.08277224,36.534866,-18.39763,30.36412
2627383605000.0,-0.59376204,9.904642272819473,-1.1971009,-1.2525792,0.73945236,0.087659165,36.699158,-18.794468,30.219692
2627388600000.0,-0.5826853131824554,9.895033757059885,-1.1897164257360304,-1.2550226,0.7330383,0.09896017,36.87097,-19.198483,30.06863
2627393594000.0,-0.5683172161105547,9.885455339074705,-1.180137707690767,-1.2657127,0.6954701,0.10354166,37.053455,-19.605875,29.922987
2627398670000.0,-0.5687018514564053,9.88693494486118,-1.1816175514564051,-1.2070698,0.6429357,0.11178834,37.24469,-20.03848,29.777105
2627403669000.0,-0.5733657017437895,9.89159840555285,-1.1862814017437897,-1.1169671,0.5821546,0.11209377,37.447514,-20.482265,29.637756
2627408618000.0,-0.5883637149091632,9.889402462126476,-1.1909629251365037,-0.98899084,0.5207626,0.10751228,37.6681,-20.960627,29.506338
2627413600000.0,-0.6073100734597439,9.884666273106324,-1.1956995098282537,-0.8564331,0.47311515,0.10781772,37.897762,-21.466154,29.382126
2627418592000.0,-0.6438789738002022,9.864686946696075,-1.1971009,-0.73364913,0.42913285,0.10262536,38.151752,-22.017237,29.26129
2627423715000.0,-0.6889685585240327,9.837633118647185,-1.1971009,-0.6102544,0.18448131,0.04550946,38.46049,-22.612535,29.191296
2627428633000.0,-0.7140245309870887,9.815122393794253,-1.189089653519367,-0.13561209,0.105374254,0.029321533,38.75784,-23.334549,29.078852
2627433636000.0,-0.7240021924614745,9.795167175031237,-1.1741231613077885,0.010079277,0.13164146,0.03023783,39.09104,-24.015331,28.988863
2627438596000.0,-0.7326598404742166,9.7802630382192,-1.1539028533991047,-0.048258353,0.13500121,0.028405234,39.46507,-24.781902,28.896797
2627443592000.0,-0.7405931339247223,9.768362849527442,-1.130102931628254,-0.064751714,0.12950343,0.026572637,39.83865,-25.595022,28.790796
2627448640000.0,-0.7461184137058561,9.757893495485025,-1.1152720314707198,-0.065973446,0.12797627,0.027183503,40.234924,-26.420729,28.660652
2627453620000.0,-0.7418544473223067,9.753629440053643,-1.1365918633884668,-0.06841691,0.13744467,0.020463986,40.63327,-27.24395,28.51825
2627458989000.0,-0.7371624589058797,9.749566469524014,-1.15866777945294,-0.07971791,0.12705997,0.022602014,41.068684,-28.101665,28.351295
2627463599000.0,-0.7308233034747649,9.759075401249191,-1.1554982017373825,-0.0888809,0.13041973,0.019242255,41.501377,-28.960335,28.1671
2627469472000.0,-0.7227474119678369,9.771189491492567,-1.1514602559839184,-0.09162979,0.124311075,0.025961773,41.99135,-29.8817,27.957537
2627473703000.0,-0.7144240729183909,9.785592854163218,-1.1461476583347128,-0.09132435,0.119729586,0.025045475,42.478024,-30.800236,27.734715
2627478704000.0,-0.6946038540804502,9.8252332918391,-1.1302914832643602,-0.10170906,0.10751228,0.02565634,42.95918,-31.710783,27.506516
2627483625000.0,-0.6751006953318988,9.864239609336202,-1.114688956265519,-0.1020145,0.109650314,0.03176499,43.534264,-32.741516,27.214605
2627488598000.0,-0.6636771696022202,9.88038712053654,-1.11425926519889,-0.10476339,0.106901415,0.029626964,44.102272,-33.76217,26.91457
2627493571000.0,-0.654865804865865,9.889198209250694,-1.1186649475670676,-0.10476339,0.10445796,0.028710667,44.65523,-34.773712,26.605282
2627498654000.0,-0.6483651243395111,9.875694763801262,-1.1061976708990535,-0.094989546,0.09132435,0.032375857,45.36714,-35.98536,26.195578
2627503689000.0,-0.6436116058556783,9.847174347791798,-1.0824303266561517,-0.08735373,0.09315695,0.035430185,46.05145,-37.17794,25.772608
2627508597000.0,-0.654188447548429,9.82785539002688,-1.0751108842710169,-0.09712757,0.093462385,0.04153884,47.013435,-38.737484,25.14624
2627513596000.0,-0.676375176244323,9.814543102604503,-1.0795482207433496,-0.089186326,0.100792766,0.03145956,47.92127,-40.261368,24.506773
2627518610000.0,-0.6854996257647301,9.802619652022171,-1.07814872576473,-0.087964594,0.103847094,0.030848695,49.045135,-42.122543,23.633425
2627523651000.0,-0.6755885913159516,9.792708928043522,-1.0682376913159517,-0.08307768,0.10873401,0.035430185,50.080856,-43.913254,22.758446
2627528626000.0,-0.6726629683788782,9.776064658105607,-1.0561661709882886,-0.07422013,0.102319926,0.03756821,51.114094,-45.770847,21.790228
2627533606000.0,-0.6775625434764743,9.75156678261763,-1.041467394534621,-0.06872234,0.11178834,0.03176499,52.057343,-47.55188,20.8282
2627539510000.0,-0.6736931055884843,9.73648283742591,-1.0280349055884843,-0.070554934,0.11362094,0.03604105,53.06556,-49.48943,19.72983
2627543606000.0,-0.66631205886725,9.732792236993133,-1.02065385886725,-0.064446285,0.11362094,0.028099801,53.980656,-51.339695,18.6492
2627548661000.0,-0.658841968250717,9.720247341253584,-1.017099231749283,-0.053450707,0.10751228,0.0290161,54.80555,-53.102,17.591297
2627553726000.0,-0.6538740768127816,9.695407884063908,-1.0220671231872185,-0.055588737,0.10323623,0.026267206,55.55525,-54.78166,16.558168
2627558595000.0,-0.6450135407882659,9.684221824585912,-1.0205787372779884,-0.03573562,0.09743301,0.021380283,56.234886,-56.386257,15.558191
2627563606000.0,-0.6306483057882658,9.689010324585912,-1.0110019372779884,-0.021685716,0.07849618,0.022602014,56.85632,-57.91555,14.590534
2627568600000.0,-0.6264024729305595,9.699549057281278,-1.0036096754725945,-0.017715093,0.07452556,0.016493361,57.41687,-59.369164,13.65675
2627578617000.0,-0.6463790675947332,9.734768985224646,-1.008609386129259,0.004886922,0.069027774,0.027183503,57.929565,-60.764645,12.758553
2627583606000.0,-0.6607861903708916,9.749175857272087,-1.0470282966227762,0.010995574,0.05589417,0.028710667,58.395744,-62.095997,11.885511
2627588572000.0,-0.67825105563331,9.76191588803359,-1.077327133379986,0.01160644,0.038179077,0.021991149,58.821236,-63.35845,11.056615
2627593591000.0,-0.7022768275017495,9.771526397480756,-1.0917425965010497,0.02443461,0.03481932,0.026267206,59.20722,-64.57041,10.257323
2627598627000.0,-0.7312399105610462,9.77792,-1.099710375162224,0.018936822,0.02321288,0.01863139,59.598686,-65.77806,9.450447
2627603623000.0,-0.7694515400029949,9.77792,-1.0949339258460618,0.023823744,0.02321288,0.022907447,59.950226,-66.935326,8.674888
2627609285000.0,-0.8122006596002063,9.774069767689795,-1.091756,0.026267206,0.027488936,0.0125227375,60.27845,-68.058044,7.906344
2627613609000.0,-0.8442435517436162,9.766948978763647,-1.091756,0.023518313,0.02687807,0.015577064,60.57499,-69.12689,7.170939
2627618960000.0,-0.882796403093076,9.758766,-1.0934862012864168,0.02443461,0.02321288,0.011911872,60.840267,-70.147095,6.454939
2627623642000.0,-0.9040027143019296,9.758766,-1.114692490351873,0.02107485,0.03573562,0.011301007,61.07507,-71.11729,5.765709
2627628603000.0,-0.9264727078745744,9.758766,-1.1371624604615966,0.027488936,0.036651913,0.010995574,61.296417,-72.06707,5.0770764
2627633616000.0,-0.9418704181300976,9.758766,-1.1482534304299667,0.021685716,0.03390302,0.0030543262,61.49335,-72.96573,4.4126534
2627643652000.0,-0.9459288532930648,9.770518071677852,-1.1862145688322148,0.015271631,0.039095376,-0.0030543262,61.666916,-73.82005,3.7741213
2627648589000.0,-0.9332360361431769,9.78321113181208,-1.215831134818792,0.02107485,0.03756821,0.0021380284,61.828808,-74.65583,3.1383111
2627653678000.0,-0.8960170506130037,9.777616839011154,-1.2192446635614511,0.015577064,0.029321533,-0.004886922,61.96943,-75.45923,2.500663
2627658615000.0,-0.8485035481660135,9.763362498040395,-1.2097419680333634,0.018936822,0.032375857,-0.00030543262,62.088177,-76.216835,1.8952961
2627663594000.0,-0.8454132036199095,9.774054754524888,-1.142464867138009,0.016187929,0.024740042,0.0070249503,62.184387,-76.924225,1.3196425
2627668587000.0,-0.8634437324283559,9.796592915535443,-1.0478044967571645,0.016187929,0.016493361,0.011301007,62.265423,-77.588036,0.76952076
2627673665000.0,-0.8351701713145138,9.827403992015968,-1.0496666418306246,0.013439035,0.0106901415,0.013439035,62.326847,-78.19407,0.26154763
2627678729000.0,-0.7706366365554604,9.864280558882236,-1.1280288289991445,0.009773844,0.011911872,0.0143553335,62.37716,-78.759575,-0.2242203
2627683604000.0,-0.7374141,9.883265,-1.1683705,0.015271631,0.00030543262,0.015271631,62.423145,-79.26443,-0.676744
2627688595000.0,-0.7374141,9.883265,-1.1683705,0.01282817,-0.004581489,0.023518313,62.458153,-79.72949,-1.1091503
2627693595000.0,-0.7464176939441811,9.890017583816045,-1.1976321274354924,0.016798794,-0.014966198,0.021380283,62.47796,-80.17312,-1.5191146
2627698665000.0,-0.7634633329647182,9.902801601720205,-1.2530303541337546,0.019547688,-0.008246681,0.027488936,62.48602,-80.58094,-1.9081372
2627703618000.0,-0.7745855553266787,9.906315835934665,-1.308770671243194,0.009162978,-0.021991149,0.027794369,62.486835,-80.95008,-2.2870848
2627708595000.0,-0.770260307477314,9.884689822504535,-1.3693235540108892,0.012217305,-0.018020526,0.026572637,62.47454,-81.288994,-2.650047
2627713734000.0,-0.7668990385151515,9.86147010909091,-1.4254352245454545,0.0067195175,-0.026572637,0.029321533,62.46507,-81.60193,-3.011582
2627718596000.0,-0.776002180601173,9.829609038123166,-1.407228959384164,0.009162978,-0.020463986,0.032986723,62.444458,-81.880974,-3.3579023
2627724062000.0,-0.7861076131539435,9.796668312020245,-1.3853992256938,0.0106901415,-0.006414085,0.025045475,62.412495,-82.12919,-3.6901956
2627728639000.0,-0.7935024660792914,9.79297119249262,-1.3558197985491354,0.00030543262,-0.011301007,0.024129177,62.378742,-82.34135,-4.0044093
2627733604000.0,-0.8015241931438212,9.788960661914803,-1.3237328735385911,0.004276057,-0.018020526,0.025350908,62.334293,-82.5179,-4.308263
2627738596000.0,-0.7932656179614325,9.79029329752066,-1.3036329482093665,-0.0021380284,-0.015882496,0.032070424,62.284702,-82.658394,-4.59737
2627743590000.0,-0.7756984502442608,9.79468471570248,-1.2904575013406796,0.01038471,-0.01985312,0.032070424,62.235367,-82.77265,-4.874728
2627748777000.0,-0.7626705903112155,9.797073,-1.2502898579565471,0.011911872,-0.008857546,0.01985312,62.187557,-82.85027,-5.1407704
2627753626000.0,-0.7558535170287728,9.797073,-1.1855276617733412,0.0061086523,0.00580322,0.022296581,62.136326,-82.90595,-5.3909545
2627758668000.0,-0.7487651104521433,9.797073,-1.118187799295361,0.003970624,0.006414085,0.024129177,62.0812,-82.9353,-5.6328063
2627763591000.0,-0.741419967323429,9.802644049018827,-1.1236165597918488,-0.004581489,0.00061086525,0.023823744,62.021343,-82.94109,-5.863968
2627768583000.0,-0.7338236559545563,9.810240519027568,-1.154001844927306,0.0036651916,-0.0036651916,0.019547688,61.958786,-82.92927,-6.085442
2627773720000.0,-0.7250587268671115,9.817153210386689,-1.1714639530187314,0.0009162979,0.0009162979,0.021991149,61.901104,-82.89328,-6.2942133
2627778617000.0,-0.713748109550607,9.820923494895087,-1.1450724732454378,0.0021380284,-0.00580322,0.021991149,61.846428,-82.843285,-6.495543
2627783632000.0,-0.702164947238524,9.824784629632608,-1.1180450542004985,0.0015271631,-0.008552114,0.015577064,61.774647,-82.78078,-6.6898475
2627788598000.0,-0.6887892826061234,9.82322454178376,-1.1005919826061237,0.00580322,-0.003970624,0.013744468,61.701576,-82.70945,-6.874115
2627794522000.0,-0.6720068648572696,9.819028849726372,-1.0838095648572696,0.0036651916,-0.019547688,0.007941248,61.634277,-82.625626,-7.052665
2627798775000.0,-0.6592867677819149,9.816983454787234,-1.0693243796675531,-0.007330383,-0.024129177,0.016187929,61.56339,-82.53768,-7.218012
2627803721000.0,-0.6340916070053192,9.829580846631206,-1.014734855882092,-0.0018325958,-0.019547688,0.008246681,61.493877,-82.43849,-7.382375
2627808575000.0,-0.6093650986329787,9.841943915780142,-0.9611607458023048,-0.0076358155,-0.026267206,0.0061086523,61.43274,-82.34278,-7.5286994
2627813597000.0,-0.600023063015873,9.844957,-0.94810385,-0.009773844,-0.022602014,0.0143553335,61.36669,-82.244415,-7.6682234
2627818580000.0,-0.5957192034920635,9.844957,-0.94810385,-0.004581489,-0.028710667,0.007941248,61.30499,-82.13824,-7.806486
2627823652000.0,-0.5887036763444706,9.839898805364706,-0.9455746734541176,-0.009773844,-0.028099801,0.013439035,61.242214,-82.042694,-7.9243236
2627828649000.0,-0.579695606784,9.8308910368,-0.94107064808,-0.005497787,-0.028405234,0.019242255,61.181286,-81.94416,-8.039184
2627833598000.0,-0.5726265111500292,9.815894555750146,-0.9424908380472856,0.00030543262,-0.017715093,0.02565634,61.120853,-81.85053,-8.143252
2627838594000.0,-0.5679713552052928,9.792618776026464,-0.9518011742410976,0.003970624,-0.013744468,0.028405234,61.062233,-81.75646,-8.242624
2627843658000.0,-0.5631706359120521,9.776058997048043,-0.959541664087948,-0.0021380284,-0.02321288,0.032986723,61.00088,-98.33361,-8.333363
2627848687000.0,-0.5582681799674267,9.771156438721498,-0.9644441200325732,-0.0027488936,-0.023823744,0.028099801,60.935795,-98.42597,-8.422265
2627853618000.0,-0.5536068517078694,9.764647026231364,-0.980193138044914,0.0009162979,-0.016798794,0.025045475,60.870163,-98.51599,-8.505009
2627858667000.0,-0.5490443622570296,9.755521856765426,-1.0121305642007927,0.004886922,-0.014966198,0.0290161,60.806232,-98.605385,-8.5837
2627864505000.0,-0.549860228968466,9.747198051843933,-1.04026846424372,0.009468411,-0.019242255,0.034513887,60.747173,-98.69723,-8.661225
2627868668000.0,-0.5569630649563513,9.74364693051844,-1.0509227553091038,0.009773844,-0.016187929,0.028710667,60.685345,-98.79076,-8.737439
2627873691000.0,-0.5642754014682184,9.73986504512086,-1.0642859308863026,-0.00061086525,-0.021685716,0.037873644,60.622246,-98.88001,-8.806066
2627878695000.0,-0.5514045938048344,9.744154955953446,-1.085737276991943,0.009162978,-0.013133603,0.032986723,60.55402,-98.97498,-8.876942
2627883618000.0,-0.5387421265532677,9.748375425783347,-1.1068413890778872,0.013133603,-0.013133603,0.032375857,60.49061,-99.0633,-8.93927
2627888674000.0,-0.5478660096442223,9.760754051161422,-1.1186194730961485,0.015271631,-0.020158553,0.028405234,60.42666,-99.15332,-9.000809
2627893570000.0,-0.5616525467803587,9.774540876212878,-1.1278104978535723,0.011911872,-0.020463986,0.02687807,60.360783,-99.24163,-9.058717
2627898685000.0,-0.5650316,9.795910965451055,-1.1264650069097888,0.009468411,-0.01985312,0.016187929,60.292603,-99.33465,-9.118264
2627903690000.0,-0.5650316,9.818910909788867,-1.1218650180422265,0.011301007,-0.024740042,0.018325957,60.226246,-99.42321,-9.171612
2627908663000.0,-0.5752195536573412,9.822407949254645,-1.1204864,0.018936822,-0.026267206,0.015577064,60.15704,-99.514046,-9.225699
2627913605000.0,-0.589716779967327,9.817575446293649,-1.1204864,0.010079277,-0.015882496,0.0125227375,60.085945,-99.60168,-9.276273
2627918628000.0,-0.6067671193947977,9.821429144741746,-1.0970772103748976,0.008246681,-0.01985312,0.014660766,60.02839,-99.687416,-9.322475
2627923685000.0,-0.6248150575121115,9.828648476783185,-1.0645908569352314,0.015271631,-0.011911872,0.017104227,59.96434,-99.77226,-9.366498
2627928853000.0,-0.6428572849547617,9.836188495196344,-1.0346988644622703,0.010079277,-0.019547688,0.0106901415,59.901913,-99.858826,-9.413423
2627934487000.0,-0.6579554695457513,9.846253601249884,-1.0397316276933122,0.01160644,-0.017715093,0.00030543262,59.83465,-99.94521,-9.458108
2627938663000.0,-0.6691464562074434,9.853713999347075,-1.0434619825482696,-0.004276057,-0.021685716,-0.0036651916,59.776897,-100.03163,-9.506954
2627943727000.0,-0.6703765,9.862908873718192,-1.0187478598082036,-0.00030543262,-0.014049901,0.0021380284,59.715553,-100.11795,-9.553266
2627948604000.0,-0.6703765,9.871778419673376,-0.9921397313140904,0.006414085,-0.0125227375,-0.0018325958,59.657234,-100.20458,-9.601245
2627953640000.0,-0.6703765,9.880890930276442,-0.9972158338805548,-0.006414085,-0.005192355,-0.0009162979,59.59848,-100.28641,-9.64504
2627958734000.0,-0.6703765,9.890096080007549,-1.0110239910274554,0.005192355,0.00030543262,0.0106901415,59.540264,-100.36728,-9.684596
2627963688000.0,-0.6669009259904913,9.875463129952458,-1.0081903519809825,0.014049901,-0.005497787,0.007941248,59.49352,-100.44254,-9.722009
2627968658000.0,-0.6618722206550449,9.850319603275226,-0.9981329413100898,0.0012217305,-0.0015271631,0.016493361,59.443005,-100.50872,-9.750732
2627973635000.0,-0.6545874748695868,9.829426518257844,-0.9804574020410698,0.018020526,-0.0009162979,0.018936822,59.39192,-100.57955,-9.779723
2627978646000.0,-0.6466402039662168,9.809558444729651,-0.9605893077668296,0.02107485,0.008246681,0.013744468,59.33749,-100.64548,-9.80646
2627983638000.0,-0.6549668065876011,9.783752332506738,-0.9500068294663072,0.016187929,0.0015271631,0.01160644,59.29048,-100.70865,-9.830134
2627988853000.0,-0.6926597020592993,9.746059830619949,-0.9553915489002696,0.021685716,0.016493361,0.012217305,59.234734,-100.772156,-9.852172
2627993593000.0,-0.7133365531484691,9.713750916811092,-0.9600071265742346,0.030543262,0.031154128,0.007941248,59.18756,-100.83049,-9.871138
2627998649000.0,-0.7226607011939149,9.681116203928363,-0.9646692005969576,0.023518313,0.028405234,0.0009162979,59.14123,-100.88655,-9.889378
2628004091000.0,-0.7432856616416692,9.655273936128966,-0.9646827761963064,0.038179077,0.028710667,0.00580322,59.09318,-100.94968,-9.910419
2628008613000.0,-0.7697970435557596,9.642018445872871,-0.9602642179267422,0.042455133,0.02687807,-0.00061086525,59.046364,-101.01356,-9.935156
2628013594000.0,-0.7890333118416222,9.621194918724967,-0.9558131183536382,0.052839845,0.034208454,-0.0106901415,59.00092,-101.08405,-9.962541
2628018589000.0,-0.7970166381141521,9.593253095460614,-0.9518214322930574,0.059253927,0.033292156,-0.025045475,58.95821,-101.15534,-9.991558
2628023657000.0,-0.8056825151271754,9.565589004016063,-0.945232089892905,0.063224554,0.03176499,-0.026267206,58.91856,-101.2262,-10.02029
2628028753000.0,-0.8207592654350736,9.545486803212851,-0.9100530285809906,0.0580322,0.03268129,-0.040317107,58.877834,-101.301285,-10.054846
2628033671000.0,-0.833847486879227,9.528923,-0.8810662,0.058643065,0.030543262,-0.049480084,58.83778,-101.37606,-10.089205
2628038664000.0,-0.8384674832463769,9.528923,-0.8810662,0.06383542,0.03604105,-0.05222898,58.795223,-101.45029,-10.123584
2628043717000.0,-0.8450708038681533,9.5296936165778,-0.8810662,0.053450707,0.023823744,-0.056505036,58.767986,-101.52237,-10.161768
2628048707000.0,-0.8728681564032962,9.538959584585555,-0.8810662,0.056199603,0.011301007,-0.06169739,58.73921,-101.59541,-10.199004
2628053912000.0,-0.8994165725675292,9.548344739550751,-0.8824050109894797,0.049480084,0.008857546,-0.07513642,58.712204,-101.671196,-10.241948
2628058667000.0,-0.8864686683593972,9.55266033807222,-0.903984828802957,0.05100725,0.003970624,-0.084910266,58.689453,-101.74631,-10.28382
2628068596000.0,-0.8359704533545523,9.561204968841611,-0.9431578472024458,0.059864793,-0.0015271631,-0.0983493,58.67188,-101.82579,-10.331702
2628073674000.0,-0.7952375691933998,9.565278342323476,-0.9594510221333444,0.054367006,-0.01038471,-0.09865474,58.656727,-101.899925,-10.3768
2628078686000.0,-0.7507506255686989,9.554744625821456,-0.9697545748357091,0.049785517,-0.008246681,-0.101098195,58.639217,-101.977844,-10.421833
2628083658000.0,-0.7026099933575978,9.530674334849865,-0.9745686330300272,0.055283304,-0.02076942,-0.10048734,58.628426,-102.053055,-10.464806
2628088646000.0,-0.6584821411945813,9.517394037561576,-0.9807381433497536,0.053145275,-0.027794369,-0.10170906,58.60986,-102.1204,-10.498976
2628093613000.0,-0.6182075015471059,9.51373263369766,-0.9880607981527094,0.05222898,-0.027488936,-0.10048734,58.592743,-102.185715,-10.53086
2628099235000.0,-0.5715193978841452,9.507783219014485,-0.9970911165224752,0.04795292,-0.03604105,-0.102319926,58.574867,-102.2404,-10.553074
2628103705000.0,-0.5151608694846719,9.471552847564416,-1.0172191894019185,0.05467244,-0.044898596,-0.0888809,58.557423,-102.290825,-10.569484
2628108575000.0,-0.4537590723246191,9.432080384709424,-1.039148432113974,0.033292156,-0.04642576,-0.08155051,58.537773,-102.33069,-10.577941
2628113648000.0,-0.4172538919088712,9.403624509147392,-1.0372207669313085,0.029626964,-0.055588737,-0.076052725,58.52307,-102.37008,-10.5829735
2628119579000.0,-0.3829425143769416,9.374214928072144,-1.0274174708750432,0.029626964,-0.056199603,-0.06414085,58.50663,-102.40248,-10.583335
2628123633000.0,-0.3516544467636592,9.3661175,-1.0295718804584466,0.031154128,-0.061086524,-0.044898596,58.481693,-102.426445,-10.571935
2628128649000.0,-0.3064026820410299,9.3661175,-1.0396278736759472,0.039095376,-0.07238753,-0.029626964,58.459003,-102.4489,-10.558339
2628133593000.0,-0.2687479054195633,9.358164780573778,-1.051824691745814,0.050396383,-0.07819075,-0.016187929,58.43216,-102.46892,-10.540626
2628138591000.0,-0.2359412692989327,9.344104755213944,-1.0658846681680212,0.062308256,-0.10293079,0.003970624,58.41474,-102.48466,-10.517778
2628143593000.0,-0.2265527572386373,9.326909776429227,-1.0705069990457856,0.08368854,-0.122783914,0.018020526,58.395306,-102.49477,-10.483726
2628148651000.0,-0.2387163518113334,9.306636709550515,-1.0664524703440197,0.096516706,-0.14019357,0.029321533,58.382618,-102.501465,-10.4460945
2628153624000.0,-0.2550203487004405,9.28883272226672,-1.0690489738085702,0.11789699,-0.16615535,0.03604105,58.3763,-102.50708,-10.4005165
2628158621000.0,-0.2981418721475771,9.284041345714858,-1.1121704622346815,0.13347405,-0.18570304,0.048258353,58.37324,-102.5104,-10.351521
2628163618000.0,-0.3440804483390486,9.293559808054164,-1.158109013910138,0.1591304,-0.19517145,0.057421334,58.37683,-102.51694,-10.302849
2628168608000.0,-0.4071090273331575,9.390204257188078,-1.2211376323925087,0.16279559,-0.19883664,0.06291912,58.383835,-102.52105,-10.253352
2628173611000.0,-0.4703018090380726,9.487100485447993,-1.2843304536885607,0.17195857,-0.21655174,0.076358154,58.390358,-102.53664,-10.208532
2628178603000.0,-0.5406243415994021,9.558115461883409,-1.3314839745889386,0.18448131,-0.22479841,0.08399397,58.39432,-102.553795,-10.164529
2628183583000.0,-0.6119135626756353,9.62494907174888,-1.3760397144992524,0.19639318,-0.23365596,0.08552113,58.4029,-102.57104,-10.120142
2628189609000.0,-0.711207314944434,9.689661405349408,-1.3803066812205689,0.20952678,-0.22571471,0.06688975,58.402153,-102.60581,-10.087949
2628193615000.0,-0.7798576328932002,9.729405996044452,-1.3730803371256357,0.22479841,-0.21563543,0.053450707,58.402634,-102.641266,-10.054842
2628198641000.0,-0.8487443679187008,9.789690985852346,-1.3723763515193783,0.22937989,-0.18234327,0.032070424,58.393383,-102.69851,-10.0417185
2628203631000.0,-0.9058788934841088,9.856348277871874,-1.377137508538408,0.24587326,-0.1518,0.01160644,58.380768,-102.76201,-10.0317335
2628208599000.0,-0.9232382169491012,9.91468095960412,-1.359068003706322,0.24037547,-0.112399206,-0.01160644,58.36665,-102.83141,-10.037141
2628213607000.0,-0.9135511659775803,9.967959363158958,-1.3251633581801656,0.23273966,-0.073303826,-0.02687807,58.34287,-102.90404,-10.044087
2628218600000.0,-0.8697538286544672,10.00577026548586,-1.314882800958998,0.22174409,-0.021380283,-0.048258353,58.30802,-102.98915,-10.067757
2628223637000.0,-0.80366741270183,10.034093101086212,-1.3196032571288776,0.2134974,0.030543262,-0.06536258,58.261555,-103.07312,-10.091466
2628228630000.0,-0.738383573153881,10.02615661988198,-1.3041750754334998,0.18845193,0.080634214,-0.0870483,58.2081,-103.154076,-10.120143
2628233607000.0,-0.673476006191557,9.991539472537449,-1.2738848681797548,0.17684549,0.12217305,-0.09407325,58.142616,-103.23382,-10.145986
2628238601000.0,-0.60264843296,9.944680573244444,-1.245270927093333,0.1695151,0.15515977,-0.11209377,58.06113,-103.309906,-10.168254
2628243592000.0,-0.5219232004000001,9.876701378666668,-1.2197787624,0.15851954,0.19853121,-0.12217305,57.965866,-103.38076,-10.186499
2628248698000.0,-0.4410303272383185,9.805545122927482,-1.1976349938536257,0.13469578,0.2284636,-0.14202617,57.8646,-103.4455,-10.203202
2628253628000.0,-0.3738194539423882,9.726473570423714,-1.201588571478814,0.12186762,0.25289822,-0.14996742,57.753967,-103.50797,-10.216336
2628259414000.0,-0.294938700820633,9.633672758499412,-1.2062286120750292,0.112704635,0.26847526,-0.15943582,57.637093,-103.56003,-10.220821
2628263611000.0,-0.2350840413093453,9.537657462768616,-1.2763045297851074,0.116675265,0.2843578,-0.17592919,57.514038,-103.61403,-10.227323
2628268606000.0,-0.1633656765417291,9.418126938030984,-1.3719289495752125,0.10262536,0.2932153,-0.1863139,57.39007,-103.66231,-10.233252
2628273651000.0,-0.083919287558743,9.275760712182691,-1.4844944383221663,0.08674286,0.3155119,-0.19914207,57.255848,-103.71051,-10.231228
2628278630000.0,-0.0029253678569406,9.127271680853072,-1.6014856681985468,0.087659165,0.33475417,-0.21594086,57.12105,-103.76109,-10.231939
2628283616000.0,0.0646832469782464,8.983502339887908,-1.7329443889902156,0.06383542,0.35643986,-0.22968534,56.95879,-103.81134,-10.222491
2628288598000.0,0.123603307506412,8.843000664006839,-1.8734461121972072,0.074830994,0.3753767,-0.2501493,56.79277,-103.87222,-10.217773
2628293596000.0,0.1601922521213299,8.672547262687146,-2.0810375057651176,0.07360926,0.38453966,-0.26236662,56.603794,-103.93511,-10.197697
2628298691000.0,0.1744233905522068,8.468567951973556,-2.360916515341241,0.06169739,0.40530908,-0.28344148,56.407036,-104.002945,-10.18312
2628303657000.0,0.1601825119971927,8.3213545061159,-2.5788090894124727,0.082161374,0.43676865,-0.29901853,56.184143,-104.09264,-10.156757
2628308680000.0,0.1119528132193703,8.234540557800281,-2.73314406305394,0.09773844,0.45814893,-0.32559118,55.959236,-104.18431,-10.137222
2628313598000.0,0.0609069239304861,8.186224613357565,-2.8544800123125853,0.09987647,0.49174652,-0.3594942,55.69046,-104.31759,-10.111543
2628318611000.0,0.0041953459812812,8.181862323989096,-2.9417286694593368,0.12736541,0.5311473,-0.3885103,55.415695,-104.461235,-10.087678
2628323623000.0,-0.0590049208182111,8.205758731891077,-3.020053376956194,0.13744467,0.5571091,-0.40775254,55.117355,-104.62254,-10.0664625
2628328609000.0,-0.1412349617565386,8.313685695404155,-3.071447225325584,0.14630222,0.59681535,-0.42394048,54.806026,-104.79135,-10.045962
2628333639000.0,-0.2253132115833745,8.413483173676399,-3.101008996882732,0.15393804,0.6404922,-0.4361578,54.480553,-104.98475,-10.03609
2628338586000.0,-0.3097047381454725,8.49787493033152,-3.096320582276101,0.17501289,0.68783426,-0.42852196,54.146942,-105.17821,-10.018216
2628343560000.0,-0.3828777357294701,8.591361316510511,-3.077058046287694,0.1994475,0.71959925,-0.44409904,53.810184,-105.38366,-10.011067
2628348655000.0,-0.4366619733918589,8.702771368081253,-3.03095722186442,0.21166481,0.73945236,-0.46486846,53.46805,-105.58621,-9.996732
2628353639000.0,-0.4892744641689631,8.811754233052515,-2.985860752987953,0.23182335,0.77457714,-0.4700608,53.12207,-105.7956,-9.989637
2628358605000.0,-0.5229141175047141,8.983489972344437,-2.891166346260213,0.24678956,0.81031275,-0.47525316,52.77398,-106.005325,-9.982289
2628363591000.0,-0.5529266670647391,9.168566886863609,-2.7861224619736014,0.24007004,0.82802784,-0.4783075,52.425926,-106.21019,-9.970031
2628368593000.0,-0.5397099251058486,9.33373373484033,-2.663123712504485,0.23854288,0.8567385,-0.47861293,52.077583,-106.41069,-9.966413
2628373632000.0,-0.5223946862163616,9.498228969860063,-2.5375882915769647,0.2489276,0.8903361,-0.47311515,51.728443,-106.60676,-9.955985
2628378627000.0,-0.4531792045993836,9.637632489214177,-2.3428240598998458,0.2406809,0.91751957,-0.46273044,51.388073,-106.77832,-9.949988
2628383619000.0,-0.3611002166178736,9.766542812788906,-2.1172305129044684,0.22907446,0.926988,-0.4474588,51.049587,-106.94497,-9.935962
2628388605000.0,-0.2911308357049705,9.850707640299303,-1.8923606024585784,0.21899518,0.9410379,-0.4175264,50.72277,-107.08124,-9.915381
2628393591000.0,-0.2349844304094067,9.90685410422234,-1.6677750132549438,0.21533,0.9437868,-0.38789943,50.40308,-107.21018,-9.887585
2628398921000.0,-0.1992992104,9.925066627755102,-1.4761103455510205,0.21410827,0.93401295,-0.35979962,50.10133,-107.29832,-9.853985
2628403607000.0,-0.1748764032,9.9291371785034,-1.3214325623673469,0.204029,0.9086621,-0.3408628,49.80961,-107.37819,-9.813691
2628408607000.0,-0.1893267111473379,9.917888511349569,-1.2052034063557573,0.19608775,0.88361657,-0.31764993,49.539616,-107.42672,-9.772762
2628413601000.0,-0.2386731454952538,9.893215307057366,-1.1311837419521256,0.16523905,0.8588765,-0.29718593,49.28177,-107.46387,-9.727917
2628418594000.0,-0.3004096909785902,9.86095235115847,-1.126434362489002,0.1441642,0.83260936,-0.28955013,49.045742,-107.479095,-9.6917925
2628423704000.0,-0.3721725497233356,9.822678556066084,-1.1694920947208916,0.12339478,0.8072584,-0.28038713,48.821217,-107.48339,-9.650478
2628428617000.0,-0.4779597904789064,9.8170959938047,-1.2815385623561806,0.09407325,0.79168135,-0.2751948,48.608204,-107.475395,-9.623274
2628433754000.0,-0.6182573375867834,9.836447263251058,-1.455700947182614,0.07086037,0.7846564,-0.28344148,48.40247,-107.46485,-9.597629
2628438596000.0,-0.731605066041413,9.890152308769794,-1.609766662545676,0.061086524,0.7828238,-0.2919936,48.195286,-107.465996,-9.586238
2628443593000.0,-0.8315291368540108,9.97758589681573,-1.759652794849487,0.053450707,0.7831292,-0.32284227,47.990196,-107.46713,-9.582445
2628448701000.0,-0.9200683777921947,10.086015669827328,-1.9055866719333268,0.057726767,0.7816021,-0.34300083,47.78095,-107.50201,-9.593391
2628453666000.0,-0.9627811741391356,10.252121407425893,-2.024233422058089,0.058337633,0.7696902,-0.37110063,47.575253,-107.5397,-9.613871
2628458670000.0,-0.9853356212121211,10.421205010695187,-2.1209128456327986,0.06291912,0.75991637,-0.38881573,47.353294,-107.612755,-9.652568
2628463607000.0,-0.9393650789256198,10.59359439426349,-2.140067221584832,0.063224554,0.7440339,-0.39706242,47.139256,-107.68585,-9.694574
2628468582000.0,-0.8930407022038568,10.767310655809432,-2.15936902842327,0.05955936,0.7263188,-0.4034765,46.91288,-107.7751,-9.744719
2628473624000.0,-0.7939910097954084,10.756037488208651,-2.1334607098547558,0.04642576,0.7189884,-0.40500367,46.69241,-107.85984,-9.792474
2628478635000.0,-0.6778212073153209,10.681089268936436,-2.092239110994846,0.040011674,0.72387534,-0.38789943,46.478825,-107.940605,-9.833689
2628483609000.0,-0.5601933274268136,10.590466911084649,-2.032355721425027,0.04795292,0.71959925,-0.364992,46.254898,-108.012375,-9.866054
2628488599000.0,-0.432150927704674,10.4292280622209,-1.890086399404585,0.04886922,0.7287622,-0.3387248,46.03156,-108.075745,-9.888579
2628493609000.0,-0.321453510001012,10.261803587794756,-1.7417721203319505,0.05681047,0.7174612,-0.30818152,45.807472,-108.12972,-9.888346
2628498614000.0,-0.297198918340249,10.067767016597507,-1.5671391556016598,0.05467244,0.7119634,-0.28008172,45.58468,-108.176414,-9.878667
2628503590000.0,-0.2833657780313428,9.880044233022636,-1.4156675419748028,0.063224554,0.700357,-0.2510656,45.364063,-108.20544,-9.854037
2628508730000.0,-0.3136176184082762,9.708617362183755,-1.355163850691386,0.06566802,0.6658431,-0.21991149,45.156796,-108.22715,-9.822171
2628514412000.0,-0.3528802119084097,9.567083610824314,-1.326497824704413,0.06719518,0.63621616,-0.19914207,44.958405,-108.23689,-9.797707
2628518602000.0,-0.3896324986194838,9.526990090424649,-1.3565678254537883,0.080634214,0.6267477,-0.19394971,44.76769,-108.2475,-9.76919
2628523631000.0,-0.433744014101582,9.478868297085764,-1.3926590029641963,0.07452556,0.6230826,-0.17195857,44.587357,-108.25189,-9.744916
2628528685000.0,-0.5041987502475488,9.407796532569654,-1.497691270721289,0.0983493,0.6249151,-0.17440203,44.40887,-108.26949,-9.725343
2628533587000.0,-0.5771167449936899,9.33487874720901,-1.6116256285894572,0.14446963,0.64476824,-0.17134771,44.23068,-108.28667,-9.696361
2628538606000.0,-0.6014852658064516,9.163768782258066,-1.7032814,0.204029,0.6780604,-0.1740966,44.039032,-108.32487,-9.678234
2628543559000.0,-0.6112937625806452,8.967598590725807,-1.786653725,0.2669481,0.6805039,-0.17867808,43.853016,-108.374115,-9.659546
2628548659000.0,-0.61291564,8.670173919981794,-1.81163631742376,0.34972036,0.679893,-0.18081611,43.643517,-108.472694,-9.6536455
2628553657000.0,-0.61291564,8.360805682203004,-1.82470819172508,0.41263947,0.66828656,-0.18478674,43.43906,-108.580284,-9.648263
2628558611000.0,-0.6424305806937269,7.943660620664207,-1.8357289711439115,0.4746423,0.67256266,-0.19394971,43.212116,-108.72905,-9.6477995
2628563630000.0,-0.6880387972398524,7.462240892250922,-1.845864123321033,0.50488013,0.6719518,-0.20097467,42.993073,-108.88161,-9.646511
2628568598000.0,-0.7474699603116584,6.979233491823779,-1.8863232551173528,0.5522222,0.67347896,-0.22510384,42.75732,-109.07456,-9.659077
2628573645000.0,-0.8125601910831088,6.486407389486342,-1.937465589697961,0.59040123,0.68600166,-0.25625798,42.521187,-109.26938,-9.671212
2628578626000.0,-0.9022222038183504,6.024091950361446,-2.0617311478962,0.6432411,0.7107417,-0.2843578,42.263107,-109.509094,-9.707237
2628584727000.0,-1.026767757720111,5.471759599638554,-2.256671894411492,0.6973027,0.79198676,-0.3323107,41.986156,-109.758286,-9.746075
2628588607000.0,-1.1570466398584904,5.075489630045119,-2.361602919052502,0.78893244,0.816116,-0.35216382,41.704487,-110.05042,-9.798384
2628593587000.0,-1.357558587971698,4.537530849487284,-2.483866310767022,0.8210029,0.86529064,-0.4092797,41.39132,-110.34436,-9.858247
2628598636000.0,-1.6144935240517853,4.02116735731769,-2.5875442441488823,0.89827734,0.9098838,-0.47983465,41.052753,-110.71473,-9.935056
2628603649000.0,-1.9106925638312933,3.530739335925964,-2.6749472960149694,0.9789116,0.9660834,-0.5479461,40.698223,-111.090675,-10.013023
2628608618000.0,-2.334055429572888,2.9530133698700096,-2.7468985147632314,1.0506883,0.9984592,-0.6178902,40.337322,-111.50797,-10.119717
2628613591000.0,-2.847013083992572,2.311816313389044,-2.808807239387187,1.1404854,1.033584,-0.70432764,39.956543,-111.95304,-10.236956
2628618596000.0,-3.2265457388428938,1.9440918,-2.8341505840331167,1.2012665,1.0207558,-0.77457714,39.592293,-112.437256,-10.405545
2628623631000.0,-3.4261521255470138,1.9440918,-2.81038782560615,1.2641857,0.981355,-0.8231409,39.22134,-112.94897,-10.586794
2628628585000.0,-3.643736344113279,1.9100215287256164,-2.7472149035052977,1.3100005,0.9288206,-0.8552113,38.8872,-113.53055,-10.88203
2628633624000.0,-3.896993919457372,1.8240094561045648,-2.6229752874046937,1.3261884,0.8347474,-0.8784242,38.570324,-114.125984,-11.195368
2628638566000.0,-4.094381384365953,1.8637008968152864,-2.5474305,1.3139712,0.713796,-0.9053023,38.29142,-114.734604,-11.566151
2628643589000.0,-4.21044099388149,2.109746846284501,-2.5474305,1.2947289,0.57940567,-0.9166033,38.0393,-115.34668,-11.949912
2628648651000.0,-4.325256092727273,2.421696211452569,-2.5610661315711463,1.2641857,0.4636467,-0.9108001,37.84667,-115.95455,-12.408656
2628653611000.0,-4.433212747272727,2.862910707895257,-2.6033101869071147,1.2321151,0.3943135,-0.88606006,37.67611,-116.55747,-12.87505
2628658612000.0,-4.525743155068439,3.2520963044237257,-2.6281430150168616,1.2046263,0.2415972,-0.86529064,37.57308,-117.14319,-13.384262
2628663595000.0,-4.577809475252926,3.502961688087681,-2.6092097402797063,1.1817188,0.13988814,-0.79320854,37.48135,-117.71135,-13.874708
2628668605000.0,-4.584167540105356,3.768978784837577,-2.6112412918261634,1.1517864,0.035124753,-0.7162395,37.44764,-118.24278,-14.3855505
2628673658000.0,-4.465206699789289,4.074878310324847,-2.6707217563476733,1.1166617,-0.058948494,-0.65179324,37.443523,-118.75654,-14.888332
2628678930000.0,-4.340784562813102,4.39018168805395,-2.729094755298651,1.07665,-0.13775012,-0.5726862,37.485046,-119.227036,-15.38272
2628683624000.0,-4.225296887968315,4.6115329308499255,-2.724282676728752,1.0387764,-0.1872302,-0.47647488,37.552547,-119.673676,-15.859095
2628688611000.0,-4.087634783503608,4.846400307807667,-2.721501445355704,1.0021244,-0.21991149,-0.37904188,37.635746,-120.06303,-16.271196
2628693584000.0,-3.8465837456462646,5.078523671009466,-2.734893213703252,0.9599747,-0.22113322,-0.312763,37.73139,-120.4262,-16.662958
2628698993000.0,-3.5882476745547525,5.325463046728972,-2.7442372330276847,0.88208944,-0.22571471,-0.2275473,37.84698,-120.7173,-16.991682
2628703627000.0,-3.416084687162758,5.466323654205607,-2.685545347293246,0.79351395,-0.24678956,-0.14996742,37.974834,-120.98033,-17.301746
2628708634000.0,-3.230063953914654,5.618522415887851,-2.622129233380356,0.70005155,-0.2660318,-0.076358154,38.096462,-121.15541,-17.516047
2628713598000.0,-3.01130649959733,5.747645922432977,-2.53542029959733,0.6133087,-0.28405234,-0.0076358155,38.23295,-121.29448,-17.709501
2628718558000.0,-2.7797663203030627,5.868449279432023,-2.4397841203030626,0.5384777,-0.32742378,0.05222898,38.389523,-121.40007,-17.887815
2628723631000.0,-2.6056516788102035,5.900845659213556,-2.393306586996961,0.4804455,-0.38820487,0.09010262,38.55307,-121.41905,-18.004557
2628728720000.0,-2.444079841983608,5.914310068772447,-2.357401791647481,0.4560109,-0.4538729,0.11636983,38.734573,-121.4213,-18.112888
2628733602000.0,-2.2925492881171188,5.921855014703997,-2.4073092292904468,0.4447099,-0.5137377,0.12095132,38.918438,-121.37769,-18.185667
2628738593000.0,-2.139318334686899,5.926962709596068,-2.499247684013678,0.45937067,-0.5513059,0.12064589,39.114265,-121.33537,-18.2583
2628743588000.0,-1.9690454382222224,5.942946319585185,-2.649100801985185,0.5152648,-0.54244834,0.11026118,39.299343,-121.3068,-18.308035
2628749960000.0,-1.744558208680036,5.966706035737803,-2.865618007392996,0.57940567,-0.5045747,0.10048734,39.48372,-121.28671,-18.359447
2628753625000.0,-1.586975202294722,5.973709648528385,-3.096739752529183,0.67347896,-0.46517387,0.09682214,39.635025,-121.30405,-18.381933
2628758620000.0,-1.3722065482989123,5.98325481793874,-3.411733781712062,0.7141015,-0.3753767,0.086437434,39.713154,-121.353134,-18.361095
2628763597000.0,-1.241592154396985,5.979789260678392,-3.73169413580402,0.81153446,-0.2669481,0.057421334,39.770317,-121.439255,-18.340408
2628768593000.0,-1.1364036809673366,5.972275882349246,-4.054773012876884,0.9056077,-0.13072516,0.018020526,39.791035,-121.535995,-18.31174
2628773588000.0,-1.051299102819149,5.955602170212766,-4.396625303723404,1.029308,0.0067195175,-0.029932396,39.709087,-121.7018,-18.21951
2628778673000.0,-1.0409377661702128,5.903795757446808,-4.816257355319149,1.1340714,0.13927728,-0.09132435,39.584816,-121.89,-18.125525
2628783572000.0,-1.060741092427064,5.812123043912388,-5.171581499459076,1.2431108,0.24709499,-0.16615535,39.352856,-122.16142,-17.9796
2628788594000.0,-1.1417732913097456,5.632999254606721,-5.436002513664982,1.3753631,0.33261612,-0.25320363,39.084587,-122.46817,-17.838533
2628793653000.0,-1.227713634292541,5.473204693330563,-5.689183522418451,1.4883732,0.35705075,-0.32467487,38.75697,-122.85813,-17.67396
2628798643000.0,-1.3567905645854976,5.527814141907334,-5.803366914897154,1.5952746,0.33750305,-0.3915646,38.412983,-123.28194,-17.52418
2628803664000.0,-1.498480493908422,5.604499090188062,-5.909849037653312,1.6841555,0.2507602,-0.4560109,38.05706,-123.79888,-17.394634
2628808600000.0,-1.696570841169256,5.788094982420278,-5.972658073712183,1.7617353,0.16065755,-0.5170974,37.705254,-124.339,-17.28363
2628813638000.0,-1.9851152035138409,6.101181791481032,-6.051071611231243,1.8191566,0.06780604,-0.5662721,37.380295,-124.914894,-17.214705
2628818612000.0,-2.606692743079504,6.900353059483643,-6.184266884378786,1.8316795,0.01282817,-0.6310238,37.06345,-125.497665,-17.170666
2628823651000.0,-3.221136017523992,7.681430070326296,-6.317777185278311,1.8442022,-0.014660766,-0.659429,36.78356,-126.09008,-17.175077
2628828684000.0,-3.5958198277831093,8.014482517850288,-6.428794587284069,1.8393153,0.0106901415,-0.66156703,36.503456,-126.67152,-17.185911
2628833986000.0,-3.989236541943872,8.373493776573843,-6.539833111171308,1.790446,0.06536258,-0.6591236,36.29359,-127.19232,-17.314808
2628839520000.0,-4.368245205157655,8.947748963484667,-6.511120351825767,1.7311921,0.14630222,-0.6453791,36.076538,-127.68992,-17.426273
2628843646000.0,-4.629115170616114,9.38095867298578,-6.469178355687204,1.6630806,0.22876903,-0.6188065,35.890335,-128.1556,-17.583399
2628848634000.0,-4.803627206161137,9.93751072985782,-6.285233198538704,1.5864171,0.30085114,-0.56688297,35.69688,-128.58264,-17.711136
2628853623000.0,-4.971905698074946,10.47563733277264,-6.08977853256705,1.5125023,0.32650748,-0.5329799,35.538498,-128.94135,-17.884747
2628858614000.0,-5.083572525221942,10.846370547799271,-5.7905116708812265,1.4676038,0.34605515,-0.45478916,35.38336,-129.2625,-18.014217
2628864006000.0,-5.197866250243759,11.241282727184087,-5.4724175890015605,1.3567317,0.32834008,-0.3323107,35.300343,-129.4931,-18.163477
2628868604000.0,-5.137757039186817,11.438784222113885,-5.330732119890796,1.1633929,0.2510656,-0.3036,35.225014,-129.68701,-18.312674
2628873640000.0,-5.071921896324104,11.655099474063965,-5.175549861856474,1.0928379,0.1704314,-0.2574797,35.228737,-129.83037,-18.47623
2628878633000.0,-4.952210586928104,11.60402322875817,-5.157517503267973,0.9443977,0.043066,-0.2144137,35.26565,-129.90146,-18.644087
2628883603000.0,-4.827774880341881,11.527447247863249,-5.152731560683761,0.7678576,-0.07849618,-0.18173242,35.325172,-129.94267,-18.80669
2628888613000.0,-4.717953953798768,11.160244500513349,-5.404780261344969,0.5693264,-0.20861048,-0.14569137,35.440403,-129.92899,-18.976797
2628893967000.0,-4.603981064091203,10.742439311271117,-5.699178839084279,0.3839288,-0.30268374,-0.12522738,35.5768,-129.87566,-19.148638
2628898660000.0,-4.545897856955598,10.45202305898643,-5.948106857287916,0.21197024,-0.37720928,-0.12492194,35.73045,-129.8024,-19.317152
2628903598000.0,-4.484782392042832,10.146445506507892,-6.210030265318933,0.092240654,-0.43035457,-0.15393804,35.85452,-129.76295,-19.474224
2628909177000.0,-4.410043663673304,9.924112873222269,-6.5347912753352295,0.021991149,-0.4560109,-0.18112154,35.98879,-129.69641,-19.632856
2628913600000.0,-4.349802484548964,9.769207227956116,-6.797271074156847,-0.029932396,-0.45112398,-0.20433442,36.122574,-129.61285,-19.795225
2628918600000.0,-4.303443032074737,9.635061134488128,-7.102987912319969,-0.05589417,-0.43188173,-0.21105394,36.215668,-129.58607,-19.944647
2628923580000.0,-4.261672676294278,9.509749873297004,-7.409303951634877,-0.055283304,-0.39950588,-0.22052236,36.29894,-129.55865,-20.09217
2628928606000.0,-4.2725096064174055,9.443625586982357,-7.598528593838559,-0.056199603,-0.3472769,-0.22571471,36.336025,-129.57391,-20.212168
2628933622000.0,-4.298857752463662,9.395320392723283,-7.752226830825487,-0.035124753,-0.31612277,-0.22937989,36.368816,-129.59537,-20.328375
2628938599000.0,-4.314997213553432,9.34852293223284,-7.88531838179361,-0.00580322,-0.29138273,-0.226631,36.357372,-129.66138,-20.415907
2628943596000.0,-4.324236670894874,9.302325645525633,-8.005429976561445,0.025961773,-0.2706133,-0.22327125,36.33934,-129.7311,-20.497053
2628948637000.0,-4.301263815090583,9.26495085307585,-8.03372231524985,0.054061573,-0.2565634,-0.23182335,36.299393,-129.84055,-20.580687
2628953630000.0,-4.248906002389011,9.23639244375871,-7.976604751094963,0.074830994,-0.27000242,-0.22052236,36.266357,-129.94821,-20.657404
2628958626000.0,-4.176730168791913,9.247013406415777,-7.877559518706836,0.092240654,-0.2779437,-0.21227567,36.212456,-130.08142,-20.732992
2628963604000.0,-4.086069084936443,9.294729910569512,-7.739182428946052,0.106595986,-0.2864958,-0.19730948,36.166683,-130.21114,-20.804186
2628968595000.0,-4.0156321159325294,9.38385606573494,-7.544464592906024,0.12492194,-0.28863382,-0.18387043,36.122993,-130.35179,-20.876333
2628973669000.0,-3.964112162660241,9.514997813879518,-7.291548360848193,0.12034045,-0.2883284,-0.15393804,36.087605,-130.4804,-20.939816
2628978629000.0,-3.9190042246630874,9.673833731786402,-6.9939056334988345,0.11636983,-0.29779682,-0.12461651,36.062702,-130.6019,-21.001093
2628983608000.0,-3.880351565062316,9.871928460887627,-6.6315364452325465,0.105374254,-0.30665436,-0.074830994,36.047424,-130.70834,-21.048683
2628988595000.0,-3.8664438984732814,10.038453674260497,-6.309781354484733,0.077579886,-0.31887165,-0.029932396,36.06405,-130.78458,-21.099962
2628993582000.0,-3.881634579643766,10.167574979723284,-6.036348934796438,0.058643065,-0.34238997,0.03145956,36.09764,-130.84695,-21.138052
2628999087000.0,-3.895598987228581,10.31112922702963,-5.735060790351909,0.017715093,-0.37843102,0.09101892,36.175056,-130.86194,-21.187443
2629003645000.0,-3.848908373900952,10.451200823243129,-5.496938564873248,-0.017715093,-0.408058,0.1518,36.26714,-130.8629,-21.224464
2629008613000.0,-3.7967730506270696,10.604996834503863,-5.2431273938998695,-0.048258353,-0.44806966,0.22266038,36.419426,-130.81927,-21.273973
2629013589000.0,-3.729836240112371,10.772338361543094,-5.056660692986856,-0.073303826,-0.49235737,0.28099802,36.587143,-130.76181,-21.31748
2629018618000.0,-3.665967594036698,10.938442587155963,-4.875983994954129,-0.10140363,-0.548557,0.31948254,36.801605,-130.65926,-21.357906
2629023664000.0,-3.642876743119266,11.07236990825688,-4.779002421100918,-0.14049901,-0.591623,0.36926803,37.03382,-130.53941,-21.387245
2629028952000.0,-3.617137159035652,11.210076520992953,-4.679583686004699,-0.18692477,-0.66828656,0.3930918,37.30566,-130.38348,-21.42427
2629033602000.0,-3.5716450628051897,11.2919624082133,-4.624993094524466,-0.24556783,-0.71837753,0.4288274,37.589638,-130.20883,-21.449368
2629038829000.0,-3.521805967605516,11.369563116673632,-4.558916088148767,-0.28955013,-0.75441855,0.44990227,37.901863,-130.00946,-21.478659
2629043650000.0,-3.490936095277894,11.273094362724612,-4.443154187797743,-0.3594942,-0.8035932,0.46120325,38.231224,-129.7903,-21.511581
2629048593000.0,-3.459285031408274,11.174184375010448,-4.324462822223151,-0.42180246,-0.8197812,0.46609017,38.567875,-129.55045,-21.532768
2629053614000.0,-3.431853413179572,10.951421621499176,-4.283992331383855,-0.45020768,-0.85918194,0.4728097,38.92153,-129.30528,-21.561825
2629058659000.0,-3.4069795684514004,10.657910357598846,-4.288966996437397,-0.5109888,-0.8756753,0.46975538,39.268898,-129.0445,-21.590202
2629063602000.0,-3.3794531903291345,10.386589900446973,-4.236240769849655,-0.5842926,-0.87964594,0.45570546,39.62709,-128.77173,-21.625374
2629068593000.0,-3.3503200784132465,10.119535402783422,-4.158552082700122,-0.65148777,-0.86315256,0.44348818,39.980335,-128.49265,-21.65925
2629073643000.0,-3.273332552332621,9.876772500089032,-4.149721024082977,-0.7153232,-0.8671232,0.42271876,40.32274,-128.22702,-21.706549
2629078722000.0,-3.1780606956552706,9.642923709757836,-4.167043389494301,-0.7809912,-0.8546005,0.41874814,40.65395,-127.9512,-21.746714
2629083609000.0,-2.9916227582248283,9.471548580856776,-4.203027606162409,-0.8552113,-0.84665924,0.40683624,40.975937,-127.67872,-21.800926
2629088598000.0,-2.701939728645264,9.352825653811747,-4.260014373123944,-0.90469146,-0.81306165,0.41233405,41.28696,-127.401566,-21.845186
2629093589000.0,-2.389563056553288,9.40486690430839,-4.213499776507937,-0.9392053,-0.7901542,0.40317106,41.57611,-127.13403,-21.887014
2629098668000.0,-2.0454391315464853,9.656342590566894,-4.045849564698413,-0.9233228,-0.75441855,0.39584067,41.85123,-126.872665,-21.919811
2629103619000.0,-1.769652606852014,10.03969518071366,-3.806141295238616,-0.88270026,-0.74067414,0.40103304,42.09698,-126.606544,-21.910196
2629108602000.0,-1.6547371872591945,10.802315077714535,-3.3569266269045537,-0.8035932,-0.71685034,0.42363504,42.32923,-126.35759,-21.89201
2629113603000.0,-1.7583480282507482,11.659434721150648,-2.9655736202943133,-0.7174612,-0.7079928,0.49571714,42.578228,-126.04852,-21.80072
2629118620000.0,-2.145822517226472,12.638107601596277,-2.6500016090788163,-0.6151413,-0.71837753,0.6640105,42.84082,-125.745415,-21.680305
2629123730000.0,-2.5917213754776074,13.667030040087692,-2.316432641716254,-0.50793445,-0.8381071,0.9138544,43.2141,-125.34346,-21.50926
2629128673000.0,-3.871665221881199,15.194067175383651,-1.792594565841946,-0.3894266,-1.1074986,1.1362094,43.64661,-124.94803,-21.32616
2629133633000.0,-5.224706449131514,16.633350619727047,-1.4643841100496278,-0.19822577,-1.4355333,1.2944235,44.252853,-124.48063,-21.157722
2629138595000.0,-7.072056176178661,17.40471742679901,-2.555106304218363,0.109650314,-1.6878207,1.3799446,44.923874,-124.04809,-20.978325
2629143610000.0,-8.688415187942944,18.103752686821565,-3.72020579965013,0.5751296,-1.7525724,1.2644911,45.783115,-123.65309,-20.964172
2629148648000.0,-9.177516991298107,18.441363317125685,-5.174526529658204,1.0622946,-1.7513506,1.133155,46.687103,-123.33075,-20.952665
2629154039000.0,-9.643352439198887,18.797416289386312,-6.705519849416301,1.2611313,-1.4587462,0.54702985,47.446503,-123.32854,-21.23703
2629158658000.0,-8.7147764218914,18.98218321516547,-7.435114818089322,1.5815301,-1.2733486,0.30695978,48.2471,-123.41894,-21.469664
2629164644000.0,-7.39836907534531,19.18845275679336,-8.042495844181639,1.5674802,-0.78801614,-0.094989546,48.65364,-123.75241,-21.821178
2629168658000.0,-6.280909596930576,19.25786049517017,-7.747514496163221,1.4187346,-0.226631,-0.27305678,48.973206,-124.10997,-22.12517
2629173673000.0,-4.884781225169269,19.344576939604583,-7.378971531461588,1.1090258,0.28313604,-0.28588495,49.023235,-124.42308,-22.262363
2629178618000.0,-3.71538533374502,18.564907213944224,-6.666565869721115,0.6740898,0.6414085,-0.23243423,48.942913,-124.68564,-22.366413
2629183565000.0,-2.573442617828685,17.668340329681275,-5.906843648406374,0.17134771,0.80909103,-0.10323623,48.784264,-124.84552,-22.406088
2629188608000.0,-1.7802488368967255,16.379524696120907,-5.145497195687657,-0.28405234,0.7703011,0.105068825,48.580128,-124.76751,-22.216612
2629193560000.0,-1.063508032141058,15.05116529017632,-4.400086930377833,-0.64721173,0.5900958,0.33964106,48.39432,-124.57608,-21.990019
2629198639000.0,-0.753027496291834,13.627821543316122,-3.818979381315739,-0.91599244,0.30543262,0.52931476,48.266933,-124.22413,-21.672726
2629203630000.0,-0.510793253313253,12.220120444922546,-3.2750949159208265,-1.1670581,0.014049901,0.63346726,48.21267,-123.7784,-21.34986
2629208597000.0,-0.6234704562859466,10.879478828777565,-3.457442365704705,-1.3875804,-0.21991149,0.7104363,48.24665,-123.245346,-21.004559
2629213606000.0,-0.8330751279687023,9.543858322223352,-3.837655496291028,-1.5897768,-0.3436117,0.7910705,48.343517,-122.65106,-20.660158
2629218598000.0,-1.3759237870516188,8.540531249052203,-4.654506819830854,-1.7779233,-0.34269542,0.88239485,48.48922,-122.02835,-20.339333
2629223619000.0,-1.9976137864100325,7.60565931544668,-5.575355779372023,-1.9556851,-0.23396139,0.97433007,48.64703,-121.35808,-20.002567
2629228626000.0,-2.767644306216042,7.0674513732387885,-6.439959325628511,-2.0622811,-0.09682214,1.0662653,48.752743,-120.77672,-19.704617
2629234007000.0,-3.6455858482733214,6.621362062989226,-7.35112035399208,-2.0751092,-0.03481932,1.1533136,48.857323,-120.173325,-19.385187
2629238600000.0,-4.448498102217133,6.433844610284168,-7.954002141667534,-1.9049833,-0.09560041,1.1979067,48.875534,-119.839775,-19.203888
2629243593000.0,-5.3543682122410745,6.34923048917456,-8.50150613427709,-1.572978,-0.1695151,1.1939361,48.88371,-119.54443,-19.013199
2629248636000.0,-6.013425578500185,6.163236893285926,-8.698047377632065,-1.3622295,-0.39553526,1.1652255,48.920284,-119.30564,-18.855782
2629253690000.0,-6.545355811230144,5.926326909263022,-8.71592727955301,-0.9596693,-0.62858033,1.0735956,48.9707,-119.201195,-18.73072
2629258583000.0,-6.782390721805869,5.750981143656885,-8.550905503205417,-0.6960809,-0.83291477,0.93218035,49.06616,-119.164825,-18.69226
2629263593000.0,-6.747732604875846,5.62534527187359,-8.199992210654628,-0.60903263,-0.95356065,0.7761043,49.19012,-119.20207,-18.702662
2629268558000.0,-6.538388431154257,5.494256784948344,-7.931119261471322,-0.66920286,-0.9975429,0.63499445,49.356785,-119.30994,-18.812742
2629273656000.0,-5.85570752333452,5.3420670009618805,-7.865895055361596,-0.7690793,-0.95081174,0.5164866,49.51394,-119.455605,-18.963236
2629278727000.0,-5.158572749019608,5.209058794957983,-7.800966431372549,-0.8491027,-0.86406887,0.42485678,49.684086,-119.589294,-19.151863
2629283607000.0,-4.228661197971602,5.344482542277601,-7.73776861663286,-0.8732319,-0.7324274,0.35002577,49.813152,-119.735596,-19.357105
2629288976000.0,-3.2108204307200308,5.500878920438027,-7.654061825283458,-0.84757555,-0.5644395,0.31856623,49.878975,-119.8506,-19.483786
2629293595000.0,-2.443487030235488,5.788093076267081,-7.289685571256905,-0.795652,-0.39614612,0.31978795,49.900497,-119.976715,-19.606703
2629298644000.0,-1.604719691191007,6.102045072972187,-6.891388167797268,-0.73426,-0.25503623,0.3399465,49.860764,-120.06566,-19.615654
2629304494000.0,-0.8196229734716394,6.44272929385137,-6.168083110849446,-0.657291,-0.16584991,0.38515055,49.790096,-120.16516,-19.604221
2629308573000.0,-0.2826882261112435,6.678980765151654,-5.649046115440301,-0.5665775,-0.13683382,0.44104472,49.699665,-120.275894,-19.57534
2629313607000.0,0.209236196963039,6.864867817607803,-5.110050639151266,-0.464563,-0.1432479,0.528093,49.613598,-120.362755,-19.473099
2629318597000.0,0.6303682562340862,7.007970796817248,-4.615322707597536,-0.355829,-0.17623462,0.6102544,49.52781,-120.458954,-19.356205
2629323633000.0,1.0059281688880457,7.172679165996205,-4.15880552113852,-0.2415972,-0.21105394,0.70402217,49.496143,-120.44066,-19.137596
2629328642000.0,1.301759680373814,7.368383172182163,-3.7719488553510434,-0.18417588,-0.21685717,0.795652,49.467464,-120.422966,-18.90256
2629333570000.0,1.5008962638,7.6374076592,-3.4356985252,-0.17806722,-0.19058995,0.88606006,49.49063,-120.26741,-18.560114
2629338587000.0,1.4553782902526315,8.11787656016842,-3.213165846273684,-0.2284636,-0.17256944,0.9456194,49.51885,-120.10968,-18.209724
2629343565000.0,1.3359232067179172,8.626282418974403,-3.0926677644623046,-0.32284227,-0.1142318,0.96791595,49.569363,-119.846054,-17.78562
2629348655000.0,1.084677347278763,9.201166503887482,-3.1437686164759326,-0.37323865,-0.035430185,0.9944886,49.61205,-119.57965,-17.34667
2629353653000.0,0.8411286940175098,9.785884796692606,-3.21618613827821,-0.50335294,0.054061573,1.0250319,49.66716,-119.22102,-16.887123
2629358601000.0,0.6290899995817121,10.551067967898833,-3.4927583044649806,-0.64965516,0.1600467,1.0393872,49.692616,-118.85566,-16.420815
2629363849000.0,0.3837263493756809,11.376581964552082,-3.7852470586608566,-0.7965683,0.28252518,1.044885,49.71129,-118.444695,-15.957105
2629368596000.0,-0.0620080795860218,12.275670447666135,-4.040496665800721,-0.9245446,0.39522982,1.0537425,49.701252,-118.01318,-15.486775
2629373681000.0,-0.5394800769043827,13.238776606637057,-4.313920776250733,-0.9960158,0.53969944,1.0451905,49.644413,-117.56742,-15.012075
2629378634000.0,-0.956152982194153,13.621053654884385,-4.4402385364164205,-1.0231993,0.6985244,1.0262536,49.54892,-117.11708,-14.535219
2629383609000.0,-1.3492683399918508,13.71326573851482,-4.493624639604767,-1.0360274,0.8555168,0.98807454,49.40813,-116.67252,-14.0615425
2629388598000.0,-1.7148770588164006,13.690104527974146,-4.487657601696627,-1.0323622,0.9969321,0.9618073,49.240566,-116.240486,-13.628278
2629393603000.0,-2.068243099515249,13.612654402241972,-4.453773165370632,-1.0204504,1.0708468,0.95111716,49.044403,-115.826775,-13.203988
2629398651000.0,-2.26988865809496,13.470374336154894,-4.4601819937147305,-1.024421,1.0858129,0.93492925,48.832787,-115.45062,-12.839416
2629403610000.0,-2.403888432438217,13.304029752091846,-4.483285394765519,-1.0546589,1.0396926,0.91324353,48.616272,-115.087204,-12.488575
2629408855000.0,-2.46157281235119,13.122497101785717,-4.547680575684524,-1.1313224,0.9627236,0.89888823,48.414143,-114.748695,-12.204073
2629413595000.0,-2.475082987946428,12.955871994642855,-4.624238017946428,-1.2504412,0.86620694,0.90316427,48.231426,-114.40441,-11.935409
2629418593000.0,-2.4682745958123107,12.617718301210898,-4.693712805701312,-1.4043792,0.7516697,0.9111055,48.07865,-114.06426,-11.7073345
2629423665000.0,-2.4486686800100905,12.176585835418768,-4.75743201926337,-1.5668694,0.6542367,0.9285152,47.95111,-113.70173,-11.490451
2629428630000.0,-2.4028210346997967,11.699250159818234,-4.824132010258145,-1.7275269,0.57360244,0.95447695,47.84705,-113.33103,-11.290589
2629433604000.0,-2.342949040462148,11.1972469375423,-4.893214969554288,-1.8576412,0.505491,0.9737192,47.769142,-112.93824,-11.102601
2629438590000.0,-2.288281138911972,10.771462257029665,-4.946456355106774,-1.9425515,0.47800204,0.9947941,47.702217,-112.54916,-10.917936
2629443591000.0,-2.237374882780945,10.401234105034302,-4.988107016165814,-1.9703459,0.4456262,1.0048733,47.657516,-112.15382,-10.744403
2629448705000.0,-2.193913430390738,10.126807391190304,-5.047619156114328,-2.0320432,0.4297437,1.0189233,47.6051,-111.748,-10.557564
2629453708000.0,-2.1592443056439943,9.953462219971057,-5.121291227206947,-2.067168,0.4147775,1.042747,47.564106,-111.35195,-10.374668
2629458675000.0,-2.141546236527599,9.810228432960065,-5.208464978297493,-2.0894647,0.4147775,1.0622946,47.50549,-110.944,-10.175036
2629463652000.0,-2.160439798553166,9.729930597066692,-5.326549740957288,-2.0793853,0.4166101,1.0754282,47.452904,-110.5465,-9.978835
2629468631000.0,-2.172905498761703,9.643743408335853,-5.408836554515252,-2.0494528,0.43982297,1.0833695,47.38801,-110.150665,-9.763684
2629473632000.0,-2.169289251646028,9.54248864013893,-5.401603909241921,-2.0295997,0.45998153,1.0910053,47.32506,-109.76644,-9.552474
2629478656000.0,-2.165656373119903,9.440768193144065,-5.394338000453035,-1.9764545,0.4700608,1.0998629,47.25492,-109.39959,-9.326858
2629483663000.0,-2.196218246297255,9.292915205282236,-5.3471382817193165,-1.9419407,0.46731192,1.1099422,47.183983,-109.04456,-9.105512
2629488746000.0,-2.2466365522527187,9.116450607975144,-5.276552758674262,-1.8817704,0.47861293,1.1200215,47.10755,-108.72,-8.886726
2629493656000.0,-2.3003961058533213,8.928292134636266,-5.140213790543875,-1.8454239,0.4636467,1.119716,47.049885,-108.39285,-8.661433
2629498701000.0,-2.3576244624814926,8.727993035830618,-4.97329789147172,-1.8167132,0.45051312,1.1117748,46.9886,-108.08997,-8.441468
2629503658000.0,-2.409445886436957,8.529418993032357,-4.838047982456811,-1.8112154,0.43371433,1.104139,46.93604,-107.76673,-8.213587
2629508713000.0,-2.4602732190703445,8.32610927651045,-4.713289935926315,-1.8069394,0.40286562,1.1044444,46.890705,-107.46184,-7.9949193
2629513663000.0,-2.496205956926892,8.186896143137098,-4.645832951503759,-1.81091,0.38606682,1.0928379,46.83731,-107.11898,-7.774692
2629518629000.0,-2.5228343543832987,8.08799063849784,-4.615400332706767,-1.8188512,0.36957347,1.0928379,46.793213,-106.786415,-7.5605636
2629523724000.0,-2.5418215325542395,7.980826425898752,-4.592899288743318,-1.8350391,0.355829,1.0806206,46.751144,-106.42266,-7.3466687
2629528719000.0,-2.4866703664290952,7.825400569332356,-4.648050664280474,-1.8674151,0.3631594,1.0748174,46.707996,-106.063774,-7.1375833
2629533652000.0,-2.4264669080380643,7.701488401194574,-4.690900089744887,-1.894904,0.35369098,1.0824533,46.66522,-105.67989,-6.9214463
2629538707000.0,-2.338251272990484,7.7112900247013565,-4.6810984150637776,-1.9226984,0.35185838,1.0793989,46.616814,-105.30156,-6.7154427
2629543665000.0,-2.251422690159377,7.734444740252038,-4.661599682542624,-1.9364429,0.3304781,1.0800097,46.566483,-104.90696,-6.4887595
2629548709000.0,-2.1619019258524834,7.810537350185323,-4.603410935693105,-1.9480493,0.31245756,1.0845913,46.51553,-104.51739,-6.268241
2629553711000.0,-2.073296109363807,7.887278724543749,-4.541096804878048,-1.954158,0.29932398,1.0903945,46.46878,-104.118256,-6.03416
2629558842000.0,-1.985294208468361,7.987852188043663,-4.398617695121951,-1.9453003,0.27183503,1.1099422,46.431942,-103.72958,-5.8036
2629563598000.0,-1.9037239413354936,8.081075223008698,-4.266551695121952,-1.9465221,0.24220806,1.1239921,46.402443,-103.322495,-5.559355
2629568648000.0,-1.8394923344929608,8.210581663946133,-4.049221947663742,-1.9407189,0.21746802,1.1435398,46.380257,-102.92866,-5.3162575
2629573689000.0,-1.7853152644154255,8.353412397265865,-3.798037279902061,-1.9364429,0.19028452,1.1624765,46.36717,-102.544525,-5.0780144
2629578649000.0,-1.7684459678996405,8.480653532884421,-3.637057568840513,-1.9480493,0.14844026,1.1792754,46.37597,-102.12987,-4.8232455
2629583669000.0,-1.764011364449774,8.604822475786367,-3.5040193727331426,-1.9816469,0.12308934,1.1963795,46.387486,-101.72107,-4.5708947
2629588593000.0,-1.7777265822105788,8.686394104166666,-3.423145316342316,-2.01555,0.110872045,1.2131784,46.421425,-101.27481,-4.3102527
2629594407000.0,-1.810141517989022,8.746593229166667,-3.372207684456088,-2.064419,0.122783914,1.2217305,46.45381,-100.8287,-4.0552716
2629598678000.0,-1.8252082415621984,8.777970141562198,-3.3320048432401155,-2.0980167,0.129198,1.2253957,46.49384,-100.345215,-3.7905924
2629603626000.0,-1.802360601060752,8.755122501060752,-3.272600834792671,-2.134974,0.15149458,1.2385293,46.52443,-99.861115,-3.5280526
2629608633000.0,-1.7750234884122151,8.72817680929975,-3.213892872866501,-2.185065,0.15424347,1.2400564,46.550274,-99.345795,-3.265055
2629613592000.0,-1.7049189943629486,8.662453931912538,-3.170077621275025,-2.2305744,0.15302174,1.2425,46.569523,-98.83596,-3.0057752
2629618608000.0,-1.6340087015315066,8.595975619153059,-3.125758746102039,-2.2672265,0.1414153,1.2501358,46.582363,-98.29566,-2.7355208
2629623680000.0,-1.5568970786420369,8.49255084872691,-3.086458966100849,-2.3063216,0.14721853,1.2592987,46.588863,-97.758194,-2.4719734
2629628604000.0,-1.4815601736395403,8.38896247528707,-3.048790489016476,-2.3405302,0.12675454,1.2712106,46.60471,-97.22724,-2.2153003
2629633604000.0,-1.3713107954099777,8.276188448012068,-2.9748444849154185,-2.3774874,0.12186762,1.294118,46.609955,-96.67452,-1.9393806
2629638714000.0,-1.2578841943758918,8.161510833904137,-2.8995834974397714,-2.422997,0.10476339,1.312444,46.62286,-96.12661,-1.6710187
2629643595000.0,-1.1794079328044993,8.067339328212876,-2.872116861202048,-2.456289,0.106901415,1.325883,46.625687,-95.557526,-1.3787639
2629648611000.0,-1.098761153857131,7.970563201897088,-2.8438905454125742,-2.4972172,0.08552113,1.3552046,46.634434,-94.95877,-1.0588351
2629653621000.0,-0.9894444393634496,7.719635763110883,-2.791492792392197,-2.5674667,0.06719518,1.3817772,46.639706,-94.36494,-0.7447847
2629658696000.0,-0.8646952078439425,7.390297910698152,-2.7266230898767967,-2.6713138,0.03359759,1.4086553,46.65382,-93.774536,-0.43225774
2629664265000.0,-0.8579568863944483,7.075873305752791,-2.763914860484763,-2.74981,0.01160644,1.4407257,46.657684,-93.17769,-0.093472876
2629668609000.0,-0.8830609772965906,6.841568570924268,-2.818307131710751,-2.8276951,0.00580322,1.4682146,46.66428,-92.599144,0.24173473
2629673674000.0,-0.8940052424508887,6.572433630074837,-2.9120651612628623,-2.8948903,0.0012217305,1.5070046,46.669632,-92.061874,0.6115918
2629678624000.0,-0.8984397756594948,6.310796031852199,-3.0140593787558463,-2.9626966,-0.0076358155,1.5451837,46.67522,-91.66183,0.979244
2629683606000.0,-0.879318570004164,6.023631100770352,-3.0938180090360192,-3.0042353,-0.021685716,1.5839735,46.6707,-91.53486,1.3625274
2629688613000.0,-0.8443760795169686,5.719132110639184,-3.158711251821778,-3.043636,-0.03145956,1.6310102,46.66473,-91.75129,1.7500538
2629693596000.0,-0.8237815844524063,5.477442861673284,-3.1794999,-3.0644054,-0.047036625,1.67316,46.64894,-87.76847,2.156482
2629698697000.0,-0.8095902438462284,5.259842658061393,-3.1794999,-3.090062,-0.06841691,1.720502,46.634605,-87.15846,2.5695522
2629703675000.0,-0.8127609238315167,5.053645582948458,-3.17119074773693,-3.1035008,-0.09590584,1.7605137,46.61754,-86.47422,3.0031886
2629708637000.0,-0.8259292633179383,4.85173114193608,-3.158022426584149,-3.12763,-0.119729586,1.8148806,46.60227,-85.75408,3.4468148
2629713657000.0,-0.8643945586217426,4.626817351414903,-3.135163355608713,-3.1419854,-0.14935656,1.865277,46.589695,-85.00467,3.9065626
2629718654000.0,-0.9325922656758956,4.378382879845277,-3.1010645783794786,-3.1612277,-0.16157386,1.9089539,46.575443,-84.24366,4.3724914
2629723628000.0,-1.021746526551086,4.131772428830232,-3.061028187571832,-3.1728342,-0.17440203,1.9355265,46.56337,-83.46517,4.8495154
2629728605000.0,-1.1331647209408784,3.885723839466251,-3.0146038348787374,-3.1841352,-0.19058995,1.9520199,46.552273,-82.685005,5.329242
2629733625000.0,-1.265890766904145,3.657285689507772,-2.9762190770401555,-3.2039883,-0.19028452,1.969735,46.534267,-81.8933,5.8087673
2629738672000.0,-1.4263262836625648,3.453806437726684,-2.948827620442034,-3.2058208,-0.19700404,1.9825631,46.519695,-81.110596,6.2853637
2629744149000.0,-1.6043300588198102,3.228905582255005,-2.9141445357218125,-3.2223141,-0.19120082,2.0124955,46.495705,-80.315765,6.7556686
2629748634000.0,-1.7989491430663858,2.993552300748156,-2.823624097365648,-3.241251,-0.19181168,2.0210476,46.472572,-79.531494,7.2175117
2629753733000.0,-2.0140829088928154,2.732375360718492,-2.714434466627405,-3.2433891,-0.19211712,2.0299053,46.442127,-78.75229,7.658797
2629758796000.0,-2.161620011042402,2.5420049207597173,-2.5383417562426382,-3.250414,-0.19486602,2.0476203,46.408264,-77.97384,8.098916
2629763825000.0,-2.304790848286958,2.352453972856332,-2.3541597717206133,-3.2601879,-0.20158553,2.0638082,46.371826,-77.19754,8.508955
2629768655000.0,-2.39672495674806,2.164207945599092,-2.052090584327087,-3.2406402,-0.21227567,2.0726657,46.332653,-76.432274,8.916131
2629773639000.0,-2.491590297652849,1.9699598710959685,-1.740390205451448,-3.225063,-0.2144137,2.0583105,46.28788,-75.654205,9.295184
2629778677000.0,-2.511120873038019,1.7684791148238577,-1.4634710292291593,-3.1835241,-0.22021692,2.037541,46.24223,-74.89295,9.669467
2629783602000.0,-2.523459355118591,1.571063916881758,-1.1961380095221483,-3.1157181,-0.21471913,2.005776,46.19075,-74.15322,10.029915
2629788616000.0,-2.5346539354265403,1.3345574821090047,-0.8558079775592417,-3.0430253,-0.21135938,1.9498819,46.13531,-73.391785,10.357196
2629793638000.0,-2.5450146503123654,1.0755380953576044,-0.4724592332378285,-2.9388726,-0.19639318,1.8671097,46.073425,-72.66908,10.660714
2629798652000.0,-2.4383041133259917,0.8686002982294136,-0.1959983831133514,-2.821892,-0.14355333,1.772731,45.994293,-71.92506,10.938293
2629803675000.0,-2.2956702751101323,0.6770633592511013,0.048516861123348,-2.68628,-0.053145275,1.6771306,45.90073,-71.22797,11.182287
2629808646000.0,-2.0640554671740787,0.4824702984331847,0.3968809053517451,-2.5515842,0.0842994,1.5781704,45.774364,-70.509995,11.386888
2629813807000.0,-1.687866209764053,0.2728791142785691,0.9181717984114386,-2.4205534,0.23060162,1.4660766,45.623386,-69.843056,11.546781
2629818654000.0,-0.8868003214972888,0.2796722396973937,1.5635489912541545,-2.3200662,0.39064834,1.3741413,45.427124,-69.13513,11.704501
2629823688000.0,0.2726935693545564,0.4356768726849745,2.347788472398111,-2.250733,0.5323691,1.2962561,45.19917,-68.46723,11.817338
2629828693000.0,1.091756,0.545878,2.9017725,-2.195755,0.65576386,1.244027,44.932823,-67.69849,11.968726
2629833760000.0,1.091756,0.545878,2.9017725,-2.1664336,0.6945538,1.1893547,44.6557,-66.95323,12.085311
2629838650000.0,1.3216119231779382,0.6866061079010723,3.494394230575618,-2.1691825,0.7284568,1.1676689,44.387913,-65.90653,12.487529
2629843653000.0,1.8354498068505145,1.0012007119355073,4.81918713409207,-2.1911736,0.6881397,1.1108584,44.139828,-64.898384,12.849714
2629849593000.0,2.445523168636464,1.3747149929598017,6.392097357335668,-2.2678373,0.5821546,1.0751228,43.897137,-63.85335,13.227807
2629853783000.0,2.646507195354047,1.3736136629882143,7.088465417551378,-2.3701572,0.44440445,1.0638218,43.67853,-62.823727,13.586515
2629858574000.0,2.83867113952469,1.3289244637187103,7.81690063957339,-2.4932466,0.27672195,1.0906999,43.496876,-61.791584,13.943265
2629863656000.0,3.0267745951101643,1.0863020502743876,8.425852444794822,-2.597399,0.10873401,1.1407908,43.309677,-60.42533,14.384172
2629868664000.0,3.2035482580801045,0.7406113735080678,8.936532056884266,-2.67223,-0.02443461,1.2018774,43.150295,-59.068405,14.823256
2629873673000.0,3.3640758739250023,0.3452681498872283,9.439612177409003,-2.708271,-0.12858713,1.251052,42.992527,-57.552937,15.297774
2629878645000.0,3.464485247538278,-0.2266288632859631,9.911099730356652,-2.7085764,-0.20586158,1.2916746,42.85047,-56.06839,15.766807
2629883994000.0,3.6064873826021455,-0.8544978555921672,10.420033066089248,-2.651766,-0.25228736,1.2938126,42.68943,-54.458252,16.26387
2629888660000.0,4.022967549312747,-1.5107696705780458,10.878581997740538,-2.5390613,-0.24740042,1.3002267,42.52303,-52.910126,16.739294
2629893561000.0,4.460423463810958,-2.2000941809179064,11.360225442666165,-2.3793201,-0.20311269,1.3087788,42.32356,-51.258003,17.225119
2629898678000.0,5.534879499454835,-3.2705626590455426,12.180048872263692,-2.1728477,-0.116675265,1.3087788,42.10952,-49.704636,17.663568
2629903690000.0,6.66208809393609,-4.361539533691186,13.021429702256142,-1.9633209,0.018325957,1.2779301,41.876766,-48.24913,18.044735
2629908695000.0,7.192182,-4.8745947,13.417107,-1.7589865,0.1572978,1.1921035,41.587666,-46.6926,18.474003
2629913630000.0,7.192182,-4.8745947,13.417107,-1.5754215,0.24617869,1.0818423,41.291435,-45.247684,18.837904
2629919492000.0,7.0729166477964425,-5.021688646837945,13.902119091897232,-1.4691309,0.27091873,0.95539325,40.912224,-43.54918,19.381681
2629923727000.0,6.952686043992095,-5.169973070750989,14.391056537549408,-1.3860532,0.24831672,0.81397796,40.54958,-41.98211,19.842228
2629928758000.0,7.050518252657053,-4.522896901896484,14.930581660608455,-1.3494014,0.23732115,0.6789767,40.19325,-40.482876,20.24561
2629933665000.0,7.264040269952588,-3.487779695653892,15.436535819438957,-1.3494014,0.24312437,0.623388,39.857067,-39.063538,20.598166
2629938657000.0,7.637479666540212,-2.4751432250379364,15.50174583668437,-1.3536774,0.301462,0.53786683,39.544888,-37.642128,20.825987
2629943657000.0,8.105238581562974,-1.485128050531108,15.297384588581185,-1.3860532,0.38240165,0.49327368,39.243374,-36.274208,21.01119
2629948647000.0,8.427677387367579,-0.41076516108335,15.191018431740956,-1.4563028,0.48716503,0.49388456,38.945248,-35.004753,21.13534
2629953660000.0,8.614798909904057,0.7503446864981012,15.17662446846892,-1.5241088,0.61636305,0.54733527,38.64196,-33.77637,21.21188
2629958600000.0,8.872518021784801,1.9962245825538911,15.361062119976252,-1.613906,0.7134906,0.6102544,38.32083,-32.66867,21.344296
2629963594000.0,9.20452573780599,3.3548348015893312,15.74112362938436,-1.7385225,0.73884153,0.6585127,37.99577,-31.56898,21.44796
2629968593000.0,9.538854298313629,4.862344849466951,16.270712389222716,-1.9446895,0.66431594,0.7480045,37.670662,-30.56691,21.57241
2629973661000.0,9.882241505911995,6.720401159914712,17.140941233184726,-2.214081,0.4978552,0.890947,37.34545,-29.537441,21.710323
2629978599000.0,10.185922453061224,8.64279050122449,17.886754185306124,-2.5149322,0.25320363,1.0546589,37.05481,-28.60421,21.899855
2629983604000.0,10.40112723877551,10.926893240510203,18.336727688877552,-2.8744264,-0.04153884,1.1801916,36.78452,-27.60711,22.137268
2629989321000.0,10.706617548831636,12.963633890353504,18.737444583582985,-3.2791247,-0.34605515,1.2993103,36.586292,-26.712128,22.414696
2629993597000.0,11.008058895745956,13.787339062312762,18.898680491140976,-3.6774087,-0.6658431,1.4062119,36.4145,-25.744694,22.76009
2629999034000.0,11.418473887791109,14.7350015151729,19.10003915031757,-3.7882807,-1.0387764,1.4666874,36.365784,-25.01973,23.159174
2630003675000.0,12.37514381898377,13.315679644760056,19.19021726843684,-3.5140023,-1.534799,1.4874569,36.36294,-24.301916,23.65194
2630008573000.0,13.384790300988003,11.81776141134439,19.285389089714187,-2.9449813,-1.9520199,1.505172,36.34921,-23.71191,24.244328
2630013603000.0,14.60948571131619,8.731238087178568,18.95998749081624,-2.3435845,-1.7571539,1.3292428,36.365635,-23.22969,24.751589
2630018604000.0,15.913997524684168,4.946436837828151,18.44075679509005,-1.829236,-1.3973542,1.0091494,36.449474,-22.890287,25.276543
2630023652000.0,16.94437465476865,1.956986666477809,17.744133918696885,-1.2486086,-0.8881981,0.8335256,36.40039,-22.529009,25.815315
2630028634000.0,17.62918748460812,-0.0298725690273844,16.856580033711047,-0.58551437,-0.6429357,0.81397796,36.37852,-22.346724,26.284426
2630033599000.0,17.783513678763015,-1.8833460461765013,16.134078236878093,-0.21166481,-0.34666604,0.82894415,36.13772,-21.825567,26.821598
2630038597000.0,16.897407234458818,-3.49948433270222,15.726268353634165,0.5589417,-0.258396,0.7870999,35.912323,-21.591125,27.322773
2630043601000.0,16.033330696787147,-4.8228380092656336,15.53706175827118,1.2565498,-0.28680122,0.6954701,35.60473,-21.276943,27.890139
2630048648000.0,15.192174164658637,-5.770294409064831,15.634117817173456,1.7650951,-0.4636467,0.5815437,35.319214,-21.121264,28.452911
2630053616000.0,14.438607721322873,-6.60522326533916,15.717776730956402,2.0237966,-0.7535023,0.5006041,35.035313,-20.968904,29.001652
2630058945000.0,13.779702195848644,-7.304677511172907,15.783667601052736,2.0916026,-1.14018,0.46761733,34.79733,-20.902502,29.607595
2630063563000.0,13.24575800925212,-7.775444377409407,15.509214121048574,2.021964,-1.5173893,0.47983465,34.588238,-20.785707,30.211601
2630068597000.0,12.739315097918272,-8.012403577582884,14.53349819776407,1.8591684,-1.863139,0.5180137,34.413654,-20.660944,30.90097
2630073681000.0,11.802770601166603,-8.093902723204522,12.713903696682465,1.6533068,-2.1691825,0.55741453,34.25705,-20.45086,31.624565
2630078687000.0,9.722917031862924,-7.744347549398469,8.650324715639808,1.4104879,-2.410169,0.5589417,34.11862,-20.192541,32.41311
2630083705000.0,7.695206759287709,-7.407574524685754,4.758820217732192,1.1585059,-2.5017986,0.48716503,33.982487,-19.89501,33.244205
2630088668000.0,6.338519589001397,-7.229172263530028,2.9747972466000343,0.91629785,-2.4355197,0.37201694,33.848156,-19.548288,34.08377
2630093629000.0,4.9823791393156425,-7.050841895286313,1.1914932047328906,0.77366084,-2.1539109,0.2321288,33.750843,-19.346561,34.93165
2630098713000.0,3.862119382218209,-6.640290886232657,0.3314325263960265,0.70249504,-1.7098118,0.10598512,33.63302,-19.112844,35.70824
2630103583000.0,2.862793143321566,-6.184659507363927,-0.2275775101116494,0.65240407,-1.2027937,0.005497787,33.484333,-18.86284,36.381138
2630108642000.0,1.9535549648364123,-5.45169192500774,-0.5372125086531118,0.5329799,-0.75991637,-0.048258353,33.32784,-18.712065,36.90528
2630113664000.0,1.3032908396944989,-4.215693705377232,-0.3138393443616472,0.35613444,-0.35277468,-0.009162978,33.09763,-18.5356,37.305046
2630118614000.0,0.7325822557290366,-3.0902135600299774,0.0412403296344408,0.14874569,-0.0061086523,0.07086037,32.867493,-18.447714,37.487156
2630123691000.0,0.2548296646390208,-2.0780259071696228,0.6121142197926556,-0.076358154,0.15577064,0.1301143,32.604397,-18.3153,37.61253
2630128718000.0,-0.2179768395188362,-1.0800395035434538,1.1767292183886608,-0.3463606,0.44257188,0.11942416,32.37385,-18.226126,37.522537
2630133663000.0,-0.6684100604019023,-0.3558135663232002,1.6934024987877658,-0.49968776,0.68294734,0.086437434,32.12481,-18.10845,37.40591
2630138625000.0,-1.120391787807721,0.3709021263940695,2.2118520068444614,-0.79534656,0.8894198,-0.04153884,31.982765,-18.006004,37.088093
2630143595000.0,-1.1798434265630922,0.8436725989058356,2.8303446184065937,-1.067487,1.028697,-0.21746802,31.856527,-17.889023,36.715824
2630148748000.0,-1.1704934359605912,1.287797469827586,3.489519492857143,-1.2574661,1.0345002,-0.36987892,31.768764,-17.742682,36.312977
2630153626000.0,-0.5490168750176428,1.7036839172295597,4.312241272366165,-1.3753631,0.91813046,-0.4709771,31.798,-17.545103,35.85518
2630158601000.0,0.2819659416725477,2.12638036092348,5.215274442544611,-1.4068227,0.7125743,-0.52870387,31.877083,-17.34041,35.405216
2630163598000.0,1.081298058815414,2.759162780228354,6.176443331075166,-1.4184291,0.45814893,-0.5439755,32.03055,-17.145536,34.92922
2630168607000.0,1.8709126486203616,3.462056638820171,7.1577562827783066,-1.4037683,0.21655174,-0.5271767,32.21781,-16.9512,34.500072
2630173716000.0,2.597043026962935,3.998412873970684,8.04988216769676,-1.3387111,0.005497787,-0.5222898,32.4416,-16.793715,34.131866
2630178634000.0,3.2566275921762675,4.424944158799365,8.854575236243114,-1.2843442,-0.16554448,-0.5186246,32.68439,-16.6335,33.819458
2630183607000.0,4.53815540625722,4.397829396486331,9.394542142279551,-1.1933253,-0.21135938,-0.5112942,32.95707,-16.543335,33.535408
2630188597000.0,6.410491120350404,3.933195787803234,9.675162871967654,-1.078788,-0.11026118,-0.4990769,33.22618,-16.469015,33.260372
2630193579000.0,7.992804087139308,3.4512694372730746,9.69094922358112,-0.915687,0.16646078,-0.5002986,33.487274,-16.44928,32.962086
2630198652000.0,9.213649214217464,2.936007793712976,9.34744129963692,-0.7473936,0.5342017,-0.52442783,33.723953,-16.456083,32.61577
2630203584000.0,10.206262268556802,2.459868576826147,9.164529168537111,-0.57604593,0.9807441,-0.59864795,33.84338,-16.449717,32.387417
2630208605000.0,10.831113311872416,2.024366126314235,9.278138808623744,-0.40744713,1.3973542,-0.7174612,33.94396,-16.490454,32.066704
2630213566000.0,11.221098698773284,1.6337803018325003,9.448755477661669,-0.23548855,1.6722436,-0.8167268,33.958042,-16.51246,31.871864
2630218593000.0,11.082569561562924,1.331202960196123,9.758623244510073,0.0067195175,1.7562376,-0.7852673,33.943726,-16.588308,31.621998
2630223667000.0,10.942745244434349,1.0257966678820232,10.071388123958808,0.2996294,1.78617,-0.6365216,33.85843,-16.64969,31.39916
2630228653000.0,10.790510672957772,0.3987214154989992,10.33703549447145,0.45570546,1.6917913,-0.5412266,33.786808,-16.73857,31.189772
2630233625000.0,10.631655012296257,-0.3819412333428651,10.582127701315413,0.71929383,1.5036448,-0.36346483,33.651043,-16.885452,31.025042
2630238599000.0,10.592599646,-1.097961726,10.567929626,0.8671232,1.2263119,-0.2556471,33.527073,-16.976692,30.862831
2630244254000.0,10.651269564125,-1.856157500375,10.328736556625,0.86315256,0.88606006,-0.18967366,33.391205,-17.07181,30.785912
2630248731000.0,10.649463227272728,-2.392194551653269,10.083746837407809,0.754724,0.5311473,-0.12736541,33.232944,-17.051933,30.761654
2630253611000.0,10.455815954545455,-2.721394854628325,9.59575613880832,0.5861252,0.21044308,-0.059864793,33.089146,-17.005585,30.82774
2630258634000.0,10.256494181818182,-3.0602418058258056,9.093465712770366,0.3921755,-0.056505036,0.013133603,32.922504,-16.835629,31.007072
2630263596000.0,9.67950529092805,-3.06605622721585,8.269917154535975,0.23335053,-0.267559,0.1020145,32.759533,-16.623283,31.262312
2630268595000.0,8.97606983780453,-2.966213795677316,7.335028617461371,0.12614368,-0.43799037,0.1731803,32.6038,-16.371973,31.578613
2630273721000.0,8.450248116262092,-2.9450892801788644,7.0064800633327255,0.074830994,-0.59803706,0.2602286,32.420464,-16.06289,31.969357
2630278902000.0,8.024619368315387,-2.9677290397974083,7.015535891531301,0.09682214,-0.7611381,0.3277292,32.23671,-15.741724,32.4054
2630283592000.0,7.592713212106652,-2.986511007980026,7.08073009615602,0.14844026,-0.9251554,0.3817908,32.062714,-15.455503,32.875233
2630288592000.0,7.07841337227247,-3.004556561023177,7.216072379932164,0.20922135,-1.0595458,0.398895,31.888514,-15.173552,33.378803
2630293592000.0,6.554641069555013,-2.967630796586797,7.357700076048899,0.23487769,-1.1563679,0.40378192,31.724522,-14.8859825,33.857594
2630298668000.0,6.003151714797066,-2.815495903168704,7.514589332264059,0.23701571,-1.1887437,0.37415496,31.568167,-14.611921,34.348106
2630303587000.0,5.4747860233583205,-2.5930661495352325,7.660848306326836,0.1994475,-1.1753048,0.32345316,31.440424,-14.333115,34.761776
2630308600000.0,4.9517545556221885,-2.1756006454272865,7.795204923538231,0.11881329,-1.1252137,0.25473082,31.322845,-14.055472,35.164345
2630314367000.0,4.451399536574175,-1.6396447070293498,7.873026519932998,0.004581489,-1.035722,0.17348573,31.253342,-13.794865,35.45049
2630318610000.0,4.205776187896001,-1.1779911532372007,7.837514671021776,-0.14110987,-0.9779953,0.083383106,31.204552,-13.525157,35.71979
2630323649000.0,3.914073134870002,-0.6297299565465007,7.795340688777219,-0.29168814,-0.829555,0.042760566,31.20477,-13.297274,35.842125
2630328653000.0,3.6643501421285376,0.0573959149724843,7.737729468160377,-0.36041048,-0.6151413,-0.035124753,31.234665,-13.080455,35.915382
2630333600000.0,3.450187774174528,0.8535216225314466,7.667893929245283,-0.4831944,-0.3744604,-0.13591751,31.268797,-12.831803,35.931515
2630338610000.0,3.361792921855077,1.6031670770674329,7.600236259226003,-0.600786,-0.11301007,-0.23762658,31.393162,-12.718692,35.80061
2630343595000.0,3.400372668061417,2.293317118640568,7.535936607614259,-0.6881397,0.17837265,-0.3475823,31.529356,-12.603793,35.586044
2630348661000.0,3.452582260357108,2.956997175168309,7.493077182847107,-0.76144356,0.45265114,-0.4541783,31.79116,-12.681424,35.214558
2630353634000.0,3.536225412840277,3.514617981461606,7.507017497999805,-0.81183994,0.70096785,-0.56138515,32.058655,-12.750903,34.770267
2630358596000.0,3.6381282112297737,4.062588384935275,7.525589331391586,-0.81061816,0.8900307,-0.6533204,32.36097,-12.910885,34.285458
2630363603000.0,3.804948245064725,4.586325891707119,7.560505459546926,-0.7849618,1.0451905,-0.72143185,32.65954,-13.062629,33.748756
2630368565000.0,3.9702689975889967,5.105356350784789,7.595107781877022,-0.7144069,1.1175779,-0.77091193,32.966312,-13.2575445,33.225746
2630373667000.0,4.193522067953848,5.327227336279892,7.600572711491579,-0.58032197,1.1307116,-0.7877107,33.263798,-13.466145,32.68695
2630378601000.0,4.426550246403648,5.441542841164977,7.596175680543408,-0.4279111,1.0995574,-0.7733554,33.552944,-13.685687,32.152657
2630384038000.0,4.762203051196362,5.5071276421791575,7.6107557148111535,-0.24037547,1.0073168,-0.7425067,33.833786,-13.979178,31.694666
2630388595000.0,5.081510247953332,5.533017475776152,7.632330681273483,-0.062308256,0.8857546,-0.6792821,34.09433,-14.290142,31.267103
2630393595000.0,5.394100597835334,5.513511225578977,7.634427056394744,0.10354166,0.73273283,-0.589485,34.32995,-14.647961,30.919346
2630398681000.0,5.684163990235373,5.458261083070234,7.620614520767559,0.25473082,0.58093286,-0.49357912,34.54497,-15.023575,30.618511
2630403618000.0,5.9330917998044015,5.375257951002445,7.593836578581907,0.3915646,0.43218717,-0.37690386,34.72555,-15.425001,30.416695
2630408601000.0,6.147779030669927,5.258580262816626,7.551832398356968,0.4810564,0.2947425,-0.26358834,34.88189,-15.824218,30.267334
2630413595000.0,6.327641092751982,5.111216816723292,7.517916118535297,0.5335908,0.1591304,-0.15241088,35.00387,-16.224993,30.209873
2630418598000.0,6.458772527378256,4.92130206795017,7.495307242355606,0.55863625,0.10262536,-0.10629055,35.10875,-16.618755,30.176327
2630423657000.0,6.543122078614728,4.730577206747491,7.491347794216436,0.56138515,-0.021991149,-0.007941248,35.178406,-16.985441,30.24243
2630428624000.0,6.519486996829971,4.546223420749279,7.529163925072046,0.54244834,-0.14660765,0.07819075,35.236507,-17.332603,30.32911
2630433568000.0,6.483325297375436,4.359689649128562,7.564383201640353,0.48899764,-0.25289822,0.15454891,35.272385,-17.625456,30.47703
2630438593000.0,6.4142533392044285,4.162340991142095,7.593985675497231,0.42424592,-0.35460728,0.22113322,35.2935,-17.888144,30.663094
2630443563000.0,6.344201625382476,3.978210822392212,7.628186506954103,0.34391713,-0.4370741,0.28252518,35.301544,-18.090263,30.872614
2630448692000.0,6.268294684330088,3.811215385628187,7.6737306161026115,0.27214047,-0.50610185,0.35155296,35.293922,-18.26014,31.109346
2630453965000.0,6.190256606699119,3.639531443718127,7.72055340564055,0.20799962,-0.57451874,0.41813725,35.27641,-18.37728,31.356459
2630458655000.0,6.099225840081876,3.498808997208783,7.728483,0.13744467,-0.605062,0.4550946,35.2486,-18.465803,31.610611
2630463621000.0,5.997453889132862,3.352788452288798,7.728483,0.08002335,-0.61361414,0.48349985,35.207134,-18.530352,31.877178
2630468656000.0,5.82796197558187,3.170380453082891,7.723712247039608,0.027488936,-0.58123827,0.49235737,35.156826,-18.546368,32.121273
2630473658000.0,5.616710583536137,2.966953300138832,7.715888212184565,-0.03023783,-0.535118,0.49418998,35.098667,-18.544256,32.36007
2630478657000.0,5.422592074393134,2.783809762689007,7.706806052537802,-0.07422013,-0.47708577,0.48655418,35.033237,-18.517946,32.56515
2630483668000.0,5.316690087772783,2.705363755659992,7.691116851131999,-0.12186762,-0.40561453,0.46944994,34.962986,-18.480055,32.748486
2630488572000.0,5.213049428745403,2.628592808050674,7.675762661610135,-0.15118915,-0.32925636,0.4343252,34.892498,-18.413206,32.876087
2630493661000.0,5.117921633869751,2.5647172015338198,7.630848101533819,-0.17592919,-0.23090707,0.40378192,34.815445,-18.341215,32.97408
2630498705000.0,5.0288494387478,2.5080349186069903,7.57416581860699,-0.19150625,-0.14385876,0.3539964,34.74892,-18.276188,33.046192
2630503647000.0,4.93929147388535,2.455280503164809,7.5105363929140125,-0.1863139,-0.06169739,0.29932398,34.686684,-18.21302,33.06997
2630508662000.0,4.843695032802548,2.4074823325338377,7.429279218351911,-0.16707164,0.01160644,0.2415972,34.63339,-18.160503,33.066498
2630513572000.0,4.775272545279921,2.377417636480053,7.3445230811114754,-0.13469578,0.050396383,0.18478674,34.585487,-18.118725,33.033463
2630518661000.0,4.76327049261205,2.3854190049252995,7.244506100870136,-0.11453723,0.112704635,0.15607607,34.536938,-18.084677,32.972424
2630523692000.0,4.7514052289115085,2.3933291807256607,7.145629027261533,-0.06811147,0.15943582,0.09773844,34.512016,-18.077566,32.890663
2630528660000.0,4.789987413329838,2.451822250749869,7.037209504509701,-0.012217305,0.19486602,0.056199603,34.486355,-18.079508,32.796047
2630533965000.0,4.838247667256967,2.5218037042688044,6.921254393969615,0.050701816,0.20677789,0.0067195175,34.480167,-18.104261,32.690723
2630538656000.0,4.88849435907354,2.601361122984435,6.850071518622425,0.10598512,0.20525073,-0.032375857,34.48495,-18.149078,32.590942
2630543611000.0,4.941568833162457,2.685395872448504,6.774882614903532,0.14538592,0.19272798,-0.054367006,34.495693,-18.224707,32.500828
2630548662000.0,5.00543732748709,2.785875651203352,6.726364580327389,0.16432275,0.16218472,-0.07238753,34.519363,-18.311352,32.4152
2630553582000.0,5.069711808632953,2.8868786538341613,6.685045209383221,0.20189096,0.1414153,-0.082161374,34.54675,-18.41073,32.331783
2630558615000.0,5.168728673735083,3.002049861021797,6.693174597050991,0.21105394,0.115453534,-0.08277224,34.57539,-18.516178,32.276672
2630563570000.0,5.276374692573232,3.119056182256633,6.71657584174968,0.19211712,0.083383106,-0.07269296,34.605526,-18.620049,32.231186
2630569337000.0,5.428432434597059,3.260485112430081,6.766804726641806,0.17104226,0.03848451,-0.065973446,34.647423,-18.736773,32.213833
2630573710000.0,5.549897288460742,3.368935920105656,6.8101850315931225,0.14538592,-0.0030543262,-0.058643065,34.687572,-18.842606,32.20675
2630578649000.0,5.668461684334916,3.473104786950813,6.925291593121907,0.10720685,-0.03573562,-0.032375857,34.7165,-18.94387,32.225365
2630583636000.0,5.784230801918998,3.574402689283911,7.055531573376427,0.065973446,-0.06872234,-0.0106901415,34.747986,-19.034697,32.255814
2630588595000.0,5.972810402755796,3.657536857964808,7.2207677126152126,0.026572637,-0.09682214,0.018325957,34.77094,-19.117867,32.313927
2630593587000.0,6.177553046457499,3.737653508258077,7.394353974155106,-0.022602014,-0.1255328,0.04795292,34.78963,-19.182966,32.38264
2630598658000.0,6.265276590565692,3.712202785422206,7.490124352324195,-0.05955936,-0.14172074,0.07422013,34.795353,-19.235624,32.46275
2630603970000.0,6.297925739039149,3.632912114550289,7.550758394755662,-0.099265605,-0.14935656,0.102319926,34.792934,-19.269613,32.54999
2630608647000.0,6.3111157,3.5522441044716224,7.593781858303076,-0.13041973,-0.15424347,0.12583824,34.774235,-19.289755,32.654186
2630613638000.0,6.3111157,3.456337838180776,7.630317828587808,-0.16493362,-0.15424347,0.15363261,34.74563,-19.294186,32.7602
2630618655000.0,6.3111157,3.348419631191806,7.649815087212911,-0.17531833,-0.12858713,0.16707164,34.706455,-19.2839,32.85699
2630623699000.0,6.3111157,3.223483257883302,7.644817530002069,-0.17654006,-0.11881329,0.18203785,34.66081,-19.263762,32.958557
2630628670000.0,6.292911065976651,3.094354391768861,7.644567629745904,-0.18417588,-0.10476339,0.19914207,34.601532,-19.222115,33.049686
2630633666000.0,6.255359310575885,2.9582290517512018,7.649261703325812,-0.18295415,-0.089491755,0.21838433,34.536613,-19.181076,33.13746
2630639418000.0,6.207197442503918,2.795743136818736,7.651869,-0.17134771,-0.07238753,0.23701571,34.46215,-19.130259,33.218666
2630643669000.0,6.168208821974578,2.671688956642869,7.651869,-0.14508049,-0.06811147,0.24251351,34.387173,-19.084242,33.29784
2630648636000.0,6.120810600103999,2.524962090914248,7.651227032239765,-0.12797627,-0.053450707,0.24556783,34.303894,-19.020935,33.366604
2630653754000.0,6.060568348104377,2.3627712337902995,7.646592912357001,-0.10262536,-0.044593163,0.25289822,34.21979,-18.966425,33.435047
2630658845000.0,6.00258499570224,2.2030632884758363,7.639330985909874,-0.0842994,-0.04153884,0.25045475,34.13401,-18.901508,33.489857
2630663661000.0,5.9733118464412005,2.0734251620817843,7.597512088965455,-0.046120327,-0.03481932,0.24251351,34.048187,-18.849133,33.54029
2630668609000.0,5.943236360032641,1.940233831226766,7.554546993018406,-0.018936822,-0.02565634,0.24037547,33.95753,-18.775234,33.58575
2630673634000.0,5.896944149835232,1.7822400672535543,7.55022141158083,0.0070249503,-0.009468411,0.23884831,33.86946,-18.713373,33.625706
2630678605000.0,5.847639187345824,1.6208779250729688,7.554703689407777,0.0421497,-0.017715093,0.22266038,33.790775,-18.664747,33.66696
2630683629000.0,5.822421655428346,1.4917663091294908,7.56266956304777,0.060170226,-0.022907447,0.20311269,33.70493,-18.602446,33.704376
2630688621000.0,5.808266290564548,1.378523340949467,7.572106472956968,0.07422013,-0.04184427,0.1853976,33.628407,-18.551487,33.74532
2630693652000.0,5.803545,1.2859875922605002,7.596551773289287,0.09010262,-0.05375614,0.1600467,33.55614,-18.48979,33.77594
2630698676000.0,5.803545,1.2042462350165173,7.62834025011798,0.08399397,-0.06505715,0.13255776,33.494118,-18.431173,33.808548
2630703719000.0,5.803545,1.1368220588508415,7.658066261752757,0.09101892,-0.07849618,0.10354166,33.437546,-18.37406,33.835915
2630708579000.0,5.803545,1.082796187115496,7.68507926813697,0.086132,-0.084910266,0.071776666,33.392254,-18.319155,33.86054
2630713660000.0,5.808264759499293,1.0416493766101351,7.697393070967091,0.07849618,-0.09010262,0.028405234,33.35801,-18.259361,33.88184
2630718651000.0,5.817915033838077,1.017523640379568,7.692567833030487,0.079107046,-0.08979719,0.011301007,33.326332,-18.202423,33.902195
2630723628000.0,5.842413398313972,1.0252795240464687,7.704962150200473,0.062002823,-0.094989546,-0.005192355,33.31033,-18.13958,33.918545
2630728688000.0,5.882268324190398,1.0651345019430452,7.734853448648093,0.050396383,-0.09315695,-0.03359759,33.303062,-18.084034,33.92931
2630733592000.0,5.904490159317352,1.1158307625924828,7.752814105257966,0.03634648,-0.084910266,-0.06078109,33.296646,-18.024834,33.938595
2630738587000.0,5.913928082963402,1.1771773155667358,7.7622519303541475,0.008857546,-0.07788532,-0.08124508,33.297302,-17.964407,33.944923
2630743595000.0,5.925773267551479,1.2359043956377476,7.791145958504928,-0.02565634,-0.0842994,-0.09560041,33.30331,-17.90241,33.95489
2630748651000.0,5.939949211964477,1.292608222631014,7.838399106548258,-0.05131268,-0.07574729,-0.11453723,33.314545,-17.841179,33.955975
2630753655000.0,5.970287081929632,1.3516165306189574,7.85563137542111,-0.09468412,-0.06261369,-0.12308934,33.328766,-17.779057,33.954395
2630758596000.0,6.017450411741254,1.4129289086215489,7.841482376477623,-0.12217305,-0.04917465,-0.13408493,33.34863,-17.719164,33.94787
2630763596000.0,6.06634039954229,1.4800984166015068,7.806202580261275,-0.1591304,-0.03634648,-0.13988814,33.37206,-17.652807,33.935276
2630768593000.0,6.116536734528464,1.5531111288738435,7.746879751540002,-0.18478674,-0.0143553335,-0.14844026,33.397156,-17.586288,33.91491
2630773618000.0,6.171072803731343,1.6098326108208956,7.681313813432836,-0.20189096,0.0009162979,-0.14721853,33.423283,-17.521318,33.902782
2630778836000.0,6.234862443833465,1.6392739871170463,7.602803408326787,-0.204029,0.022602014,-0.15302174,33.450954,-17.45788,33.881126
2630783570000.0,6.2884062895483614,1.6692657646682654,7.526464726338929,-0.20891592,0.04734206,-0.15332718,33.473904,-17.404604,33.866734
2630788598000.0,6.336519898780975,1.707756692246203,7.4350486728617105,-0.20341812,0.06414085,-0.1469131,33.4949,-17.354237,33.84853
2630793568000.0,6.38073831029527,1.7712387713613795,7.352520046250326,-0.18325958,0.08368854,-0.14019357,33.50751,-17.311203,33.84141
2630798643000.0,6.418837808596812,1.8897706322619985,7.284787737435764,-0.1826487,0.089186326,-0.13836098,33.519478,-17.265745,33.833443
2630803724000.0,6.4558822727882434,2.005732242864188,7.2209125,-0.1591304,0.093767814,-0.12858713,33.52538,-17.24038,33.83683
2630808606000.0,6.474327507880462,2.074901790196272,7.2209125,-0.13164146,0.094989546,-0.116675265,33.529778,-17.216125,33.83976
2630813974000.0,6.492126351415094,2.148050735849057,7.221228715094339,-0.12950343,0.0842994,-0.111177474,33.538677,-17.209341,33.860943
2630818602000.0,6.481312692176318,2.180491600650618,7.224833255627846,-0.09193522,0.076358154,-0.09315695,33.538937,-17.21322,33.8831
2630823592000.0,6.469653193558881,2.2154699747560183,7.228719741639558,-0.08735373,0.07086037,-0.086132,33.544853,-17.219963,33.909107
2630828624000.0,6.450307342272969,2.262277805629315,7.222067034678704,-0.069027774,0.06291912,-0.06627888,33.541668,-17.23321,33.9405
2630833597000.0,6.4250150287307495,2.317921001062135,7.20689169937334,-0.055588737,0.051923547,-0.050701816,33.538273,-17.245668,33.973892
2630838597000.0,6.379848926596256,2.3550468026308207,7.220064738915027,-0.048563786,0.027488936,-0.03176499,33.53648,-17.265854,34.010223
2630843586000.0,6.324799155736918,2.3825717120115217,7.247589552491599,-0.03573562,0.020158553,-0.028099801,33.533386,-17.289877,34.04445
2630848601000.0,6.257803847181009,2.4014909413946586,7.283516822551928,-0.051923547,-0.0030543262,-0.014660766,33.52871,-17.312704,34.087845
2630853697000.0,6.181135687990923,2.4142688789753883,7.326110096072613,-0.045814894,-0.022602014,-0.017104227,33.527874,-17.344843,34.130455
2630858719000.0,6.115672791754018,2.4304227886293304,7.36247828862933,-0.06505715,-0.04917465,-0.0061086523,33.52484,-17.36534,34.17058
2630863600000.0,6.073674361984626,2.453755303753619,7.385810803753619,-0.10445796,-0.064446285,-0.016493361,33.529884,-17.385712,34.20993
2630868595000.0,6.038277664338424,2.4719879430925005,7.3981842765745665,-0.13897185,-0.06994407,-0.014660766,33.532494,-17.39958,34.235783
2630873655000.0,6.021645182958641,2.476146096001373,7.381551838613352,-0.15790866,-0.0693332,-0.021685716,33.54182,-17.410585,34.26164
2630879114000.0,6.003370712385703,2.4793634050706563,7.362247817456359,-0.1908954,-0.062308256,-0.034208454,33.55098,-17.411041,34.277237
2630883605000.0,5.983508645802162,2.463473677140482,7.326496022942643,-0.22968534,-0.042760566,-0.040011674,33.558136,-17.405523,34.288967
2630888587000.0,5.961475064034358,2.445846728899972,7.286835492934331,-0.27214047,-0.021685716,-0.047036625,33.56324,-17.389133,34.298786
2630894377000.0,5.923772499763076,2.3719578939219974,7.183494289520685,-0.29260445,0.00580322,-0.0693332,33.571796,-17.372675,34.299168
2630898665000.0,5.893836054784035,2.3083429092673597,7.09742685390924,-0.30879238,0.03634648,-0.08399397,33.57714,-17.347761,34.292934
2630903618000.0,5.84787666395087,2.223518910460593,7.0581064,-0.32834008,0.06872234,-0.090713486,33.58477,-17.319214,34.27959
2630908612000.0,5.7940289739611055,2.1305092641146364,7.0581064,-0.3359759,0.0852157,-0.084910266,33.591347,-17.29061,34.262157
2630913597000.0,5.7748146,2.0973208,7.0581064,-0.33414328,0.1133155,-0.093462385,33.598682,-17.260649,34.23693
2630918596000.0,5.7748146,2.0973208,7.0581064,-0.33444872,0.12767084,-0.111177474,33.607193,-17.229872,34.210777
2630923638000.0,5.771387223993853,1.987642369935645,7.1266555664201325,-0.33933565,0.129198,-0.11636983,33.617023,-17.185287,34.1777
2630928768000.0,5.766668372970896,1.8366358357890693,7.221034853520315,-0.33567044,0.121256754,-0.122783914,33.632755,-17.146753,34.14178
2630933605000.0,5.768089347292026,1.7537945813027307,7.292414102603646,-0.32620203,0.121256754,-0.12705997,33.647327,-17.112947,34.100464
2630938593000.0,5.772422839154495,1.6974579653179716,7.357417838065863,-0.32162055,0.11942416,-0.13652839,33.66707,-17.081541,34.06106
2630943602000.0,5.757190195227898,1.6465369733863566,7.406513223065158,-0.31978795,0.10873401,-0.1441642,33.683056,-17.026152,34.016262
2630948652000.0,5.717738402630774,1.6021537710818805,7.436101887284592,-0.30634892,0.09193522,-0.14569137,33.701534,-16.976233,33.973747
2630953627000.0,5.682047680950526,1.5594059324698093,7.443833170666147,-0.3032946,0.07971791,-0.15454891,33.71691,-16.909605,33.92846
2630958606000.0,5.649540649201402,1.5176113782528244,7.429901571776392,-0.28985557,0.07696902,-0.15454891,33.73134,-16.84871,33.886204
2630964452000.0,5.594667470212766,1.4827526778336555,7.41641049754352,-0.26511553,0.073303826,-0.1554652,33.750988,-16.7853,33.83978
2630968593000.0,5.544808068085106,1.4674112740425531,7.408739875744681,-0.2574797,0.07574729,-0.15851954,33.77136,-16.72277,33.7926
2630973638000.0,5.482734319244529,1.4526833938098012,7.395393584524503,-0.22907446,0.06505715,-0.16218472,33.791862,-16.666376,33.74697
2630978714000.0,5.41802091513437,1.444594228854314,7.375170672135785,-0.20769419,0.062308256,-0.15485434,33.808952,-16.610023,33.6998
2630983965000.0,5.352780391187881,1.4366846547663032,7.352205498023277,-0.19883664,0.062002823,-0.14874569,33.828827,-16.557512,33.645584
2630988605000.0,5.336362094494735,1.440789293229263,7.282427372769259,-0.17623462,0.054367006,-0.14019357,33.847004,-16.51248,33.595657
2630993562000.0,5.318822116755958,1.445174356345834,7.207882078182154,-0.15332718,0.057726767,-0.13316862,33.863426,-16.466463,33.53672
2630998676000.0,5.304469615623006,1.4425450804757998,7.128231693738036,-0.12980886,0.062002823,-0.13439035,33.880924,-16.426662,33.480297
2631003657000.0,5.291425533907574,1.4381970229696472,7.049967203445447,-0.105374254,0.058643065,-0.13133603,33.895645,-16.391298,33.426857
2631008601000.0,5.27181970718816,1.4452676756871037,6.9993901813953485,-0.0729984,0.0580322,-0.13194689,33.90529,-16.366596,33.37751
2631013592000.0,5.247759600070472,1.4597037399577169,6.965706182170543,-0.053145275,0.07238753,-0.13652839,33.914223,-16.345255,33.32567
2631018594000.0,5.224185930775201,1.4709824276899195,6.961358211613467,-0.023518313,0.08093964,-0.12614368,33.92286,-16.333998,33.287186
2631023652000.0,5.2006876022606,1.4803817590957602,6.975457159648783,0.034513887,0.09162979,-0.1328632,33.936638,-16.33765,33.242867
2631028651000.0,5.1829307256996975,1.5075012693078669,7.012286990015129,0.060170226,0.112704635,-0.12522738,33.94542,-16.339632,33.19817
2631034433000.0,5.167223487518911,1.5546228745083208,7.075115724054463,0.10873401,0.12003502,-0.12675454,33.95949,-16.36265,33.15373
2631038600000.0,5.131805961334282,1.5985397749822028,7.1136096830163735,0.16157386,0.12003502,-0.124005646,33.97266,-16.389141,33.104828
2631043589000.0,5.063779604332351,1.6617069687684327,7.152482024733041,0.17256944,0.12522738,-0.11636983,33.983067,-16.415651,33.054165
2631048639000.0,4.982701601292422,1.7466626404649,7.220298956857276,0.19517145,0.11575896,-0.118202426,34.004467,-16.463442,32.998352
2631053718000.0,4.887727040316132,1.8552051442863784,7.319796118224081,0.21288654,0.09712757,-0.13255776,34.027466,-16.511894,32.944794
2631058574000.0,4.831337405206227,1.9588675218156089,7.4299852775171855,0.19792034,0.08307768,-0.12308934,34.058067,-16.566204,32.878628
2631063587000.0,4.845897149838253,2.0656394554387383,7.575583433319855,0.16218472,0.048258353,-0.12644911,34.100758,-16.62176,32.822414
2631068568000.0,4.87392048785694,2.1849066074850585,7.728000771312019,0.122783914,0.007330383,-0.13561209,34.158245,-16.679188,32.748386
2631073657000.0,4.92940256083863,2.332858721639313,7.899070347481263,0.07544186,-0.05009095,-0.13652839,34.218563,-16.72304,32.69072
2631078594000.0,4.999108727065527,2.483479951119251,8.059859189255189,0.03970624,-0.0983493,-0.13683382,34.288033,-16.766428,32.628555
2631083602000.0,5.121108814814814,2.6591599592592594,8.20625911111111,-0.012217305,-0.13133603,-0.12705997,34.35757,-16.791363,32.58007
2631088585000.0,5.267555168922725,2.846581256368481,8.281333923563,-0.04795292,-0.15363261,-0.10476339,34.429802,-16.812105,32.53963
2631093592000.0,5.482942547773125,3.069269935249334,8.164513580510087,-0.06994407,-0.16554448,-0.08735373,34.50107,-16.821857,32.506516
2631098641000.0,5.700136651191473,3.293826583875143,8.046713318462123,-0.065973446,-0.18295415,-0.06872234,34.56605,-16.835476,32.490353
2631103989000.0,5.835607924428823,3.4419616157000585,7.871113864557703,-0.037873644,-0.16187929,-0.06078109,34.62407,-16.847908,32.467945
2631108663000.0,5.914275698066784,3.533740776215583,7.69629677234915,-0.005497787,-0.1518,-0.03848451,34.673294,-16.856531,32.456497
2631113593000.0,6.0054954797171565,3.5880485551916634,7.554240161481206,0.01160644,-0.10873401,-0.013744468,34.702858,-16.909016,32.492992
2631118644000.0,6.104508802195757,3.615052137327875,7.437224356922218,0.046731193,-0.058337633,0.014660766,34.720566,-16.967346,32.52628
2631123640000.0,6.193339856306551,3.6158225701049584,7.340657789096996,0.07971791,-0.0125227375,0.055588737,34.719006,-17.041187,32.588264
2631128648000.0,6.271451560830619,3.5854457785016285,7.266885716856677,0.09712757,0.027183503,0.093767814,34.70319,-17.11311,32.63981
2631133664000.0,6.33960831151406,3.5457619597712853,7.215071314357328,0.109650314,0.05100725,0.12980886,34.66891,-17.19678,32.7135
2631138632000.0,6.3768743430014885,3.478683025268269,7.229977765865121,0.12370021,0.055588737,0.16920967,34.61902,-17.275673,32.784885
2631143592000.0,6.414080364776376,3.411712108373149,7.244860213425237,0.13408493,0.04520403,0.2049453,34.552242,-17.35286,32.874603
2631148646000.0,6.404367821674141,3.294224735089686,7.283694972720478,0.1459968,0.029321533,0.22785273,34.477997,-17.427227,32.96608
2631153657000.0,6.372984655231689,3.155242094030269,7.333011283501495,0.13439035,-0.014049901,0.24648413,34.399464,-17.491411,33.069626
2631158639000.0,6.315108307241847,2.9945528872668543,7.3988790214025215,0.13561209,-0.0421497,0.2501493,34.322742,-17.554152,33.17507
2631163594000.0,6.235995229352923,2.816548139324789,7.477992150922163,0.1255328,-0.062002823,0.2593123,34.243744,-17.606104,33.290504
2631168604000.0,6.122615208927844,2.580203707684468,7.542695697594782,0.1020145,-0.076052725,0.25137106,34.172092,-17.637087,33.39815
2631173707000.0,5.986476613534448,2.3046060303709743,7.59914351781492,0.086437434,-0.0711658,0.24556783,34.098057,-17.66516,33.505154
2631178633000.0,5.855060050550346,2.0385675905421934,7.653633418344884,0.06872234,-0.05100725,0.23762658,34.033108,-17.671234,33.586853
2631183802000.0,5.7315805395009365,1.8619347052766544,7.721985635427557,0.04153884,-0.013133603,0.23060162,33.967888,-17.672504,33.660355
2631188613000.0,5.622518552717231,1.739240302298057,7.790149139915179,0.013744468,0.018020526,0.2180789,33.90632,-17.672031,33.727367
2631193592000.0,5.536335301188455,1.6364162886247875,7.849881470062253,-0.017715093,0.043982297,0.19364429,33.848083,-17.62161,33.74472
2631198803000.0,5.461021753310696,1.542274132597623,7.906366704697227,-0.03145956,0.06414085,0.160963,33.795063,-17.573906,33.75273
2631203611000.0,5.427418790641105,1.4798831432385076,7.955902093588951,-0.04184427,0.067500606,0.14660765,33.74332,-17.501476,33.734337
2631208615000.0,5.422479365038137,1.4354283643887855,8.005296349618636,-0.04184427,0.07788532,0.11301007,33.706696,-17.438768,33.703537
2631213595000.0,5.461062736952809,1.4351256584269665,8.007605788593258,-0.050701816,0.058337633,0.08307768,33.680256,-17.359953,33.6634
2631219469000.0,5.541967543352809,1.4705214584269664,7.972209882993258,-0.06414085,0.01863139,0.044898596,33.670086,-17.288788,33.622196
2631223600000.0,5.595669619258258,1.489474580915588,7.927908832151826,-0.08460484,-0.005192355,0.0290161,33.657417,-17.205708,33.576786
2631228618000.0,5.656007070948426,1.503398585860537,7.844364850946494,-0.082161374,-0.03726278,0.02107485,33.661324,-17.13154,33.541492
2631233648000.0,5.715616874611399,1.5108131500518134,7.765043750466321,-0.08552113,-0.06505715,0.0033597588,33.669174,-17.061064,33.523243
2631238599000.0,5.772310461857314,1.5032540050856915,7.697011445771223,-0.086437434,-0.09010262,-0.0033597588,33.680077,-16.992744,33.51302
2631243568000.0,5.829210165962535,1.495667377871662,7.628731800844958,-0.08307768,-0.10476339,-0.00580322,33.691383,-16.931307,33.525005
2631248655000.0,5.862928265125703,1.4799310054885348,7.476566206796206,-0.07238753,-0.12583824,-0.0061086523,33.70801,-16.87361,33.544086
2631253833000.0,5.890327938944655,1.4616646198544987,7.298468756128557,-0.06261369,-0.13622294,-0.01160644,33.727573,-16.819174,33.56253
2631258601000.0,5.904742506186519,1.4583893530932597,7.20477423813481,-0.048563786,-0.12003502,-0.016187929,33.73875,-16.772354,33.597027
2631263597000.0,5.913578275863343,1.4628072379316714,7.147341781366574,-0.025045475,-0.10293079,-0.015271631,33.750866,-16.731205,33.632713
2631268599000.0,5.914083150076696,1.4937438473872584,7.117759424961652,0.00580322,-0.06841691,-0.0106901415,33.750065,-16.700987,33.68148
2631273649000.0,5.904191987381124,1.5580364565497495,7.122705006309439,0.020463986,-0.034513887,-0.015577064,33.749935,-16.674719,33.723633
2631278688000.0,5.887424816038196,1.6206592031277405,7.134655047169444,0.04886922,0.0030543262,-0.019547688,33.742695,-16.661417,33.763653
2631283602000.0,5.864497604111858,1.680270002016954,7.152996816710514,0.06627888,0.048563786,-0.03176499,33.734722,-16.651608,33.790237
2631289471000.0,5.837726163324317,1.7718003712713366,7.190857344734633,0.09468412,0.09468412,-0.03634648,33.722317,-16.657425,33.80428
2631293607000.0,5.819253238783696,1.8493867314989276,7.227803155237384,0.106901415,0.124005646,-0.03726278,33.709328,-16.664864,33.809628
2631298661000.0,5.807097870287231,1.9354943316276447,7.276983951436157,0.1160644,0.14080444,-0.0421497,33.701134,-16.690199,33.797127
2631303720000.0,5.818792060777215,2.001761411070883,7.335454903886073,0.12095132,0.1704314,-0.047036625,33.688274,-16.71683,33.773926
2631308613000.0,5.8301025320299305,2.0658540815029367,7.39200726014965,0.12705997,0.17531833,-0.050701816,33.68586,-16.757902,33.74392
2631313600000.0,5.862407497784257,2.164796594314869,7.47443514542274,0.12370021,0.16890424,-0.057421334,33.683723,-16.79791,33.709576
2631318571000.0,5.899419273935861,2.2712052212827984,7.562337884314869,0.1020145,0.15607607,-0.06047566,33.681652,-16.833725,33.67703
2631323751000.0,5.966231470650197,2.35219130882888,7.62783721172077,0.080634214,0.13561209,-0.06078109,33.689713,-16.877987,33.642536
2631328700000.0,6.038847370918319,2.420268943397491,7.682299527894283,0.057726767,0.110872045,-0.051618114,33.697243,-16.91416,33.614655
2631333600000.0,6.1210756551623,2.485527807508799,7.709061879546343,0.028710667,0.0888809,-0.04428773,33.706467,-16.949833,33.588795
2631338630000.0,6.210561017403207,2.55146437985921,7.723190927258506,0.005192355,0.053450707,-0.032070424,33.71522,-16.977716,33.575596
2631343598000.0,6.266608668255936,2.5761611,7.720034128063316,-0.028710667,0.029321533,-0.016493361,33.718594,-16.996384,33.574135
2631348682000.0,6.303750664823114,2.5761611,7.706106091446553,-0.038789943,0.00580322,-0.005497787,33.723312,-17.013124,33.582905
2631353702000.0,6.328283332485571,2.5635097301379246,7.699753,-0.055588737,-0.010079277,0.00061086525,33.72284,-17.020658,33.612564
2631359296000.0,6.34400459013988,2.537307670527243,7.699753,-0.06383542,-0.021380283,0.021380283,33.71614,-17.023417,33.649044
2631363598000.0,6.351659384595711,2.4902580648829438,7.675152372457211,-0.0693332,-0.041233405,0.02076942,33.70952,-17.026321,33.694485
2631368587000.0,6.356359183562857,2.4103606481605357,7.623453749537675,-0.055588737,-0.03145956,0.026267206,33.69214,-17.027555,33.736557
2631373605000.0,6.3495153880980055,2.338915287060717,7.581129563337209,-0.048258353,-0.028099801,0.032070424,33.679333,-17.023447,33.787518
2631378676000.0,6.327802094348565,2.2781179738710544,7.550730952087991,-0.033292156,-0.013744468,0.030543262,33.66468,-17.02491,33.831448
2631383617000.0,6.300161226591432,2.2094869616741537,7.521892746137833,-0.016187929,-0.0012217305,0.025350908,33.647068,-17.025146,33.877644
2631388591000.0,6.247970086041415,2.1051042445929657,7.495797094116358,0.009468411,0.01863139,0.022602014,33.626713,-17.030952,33.917038
2631393564000.0,6.20027087087087,1.9912783554054052,7.476135557957957,0.014049901,0.040317107,0.008857546,33.613758,-17.03131,33.952866
2631398632000.0,6.159277903903904,1.859191037162162,7.467026094294295,0.032375857,0.06811147,0.004276057,33.595695,-17.039831,33.9816
2631403631000.0,6.09738351551241,1.759688360768615,7.4713305765412334,0.03940081,0.09285152,-0.0021380284,33.579132,-17.039549,33.998444
2631408601000.0,5.973533125,1.7501614,7.514201900000001,0.039095376,0.118202426,-0.01863139,33.5641,-17.044264,34.00601
2631413608000.0,5.86439683621005,1.7450804751719933,7.553879506992946,0.052839845,0.15302174,-0.024740042,33.538498,-17.033548,34.001556
2631418594000.0,5.802022119498389,1.7533971040668814,7.58298788180789,0.049785517,0.18417588,-0.03359759,33.517006,-17.022316,33.989567
2631424022000.0,5.735214701201413,1.763101925786219,7.614369536749116,0.050701816,0.20005837,-0.043066,33.5009,-17.009655,33.951893
2631428665000.0,5.703790614699646,1.7866700316784452,7.634009590812721,0.0421497,0.21197024,-0.05681047,33.486523,-16.996445,33.906647
2631433576000.0,5.670552689045937,1.81159851930212,7.65478329434629,0.032375857,0.22174409,-0.062308256,33.48025,-16.987284,33.84288
2631438595000.0,5.636938250347982,1.849106407695367,7.658166438099026,0.022296581,0.22724187,-0.063224554,33.476616,-16.977451,33.777676
2631443602000.0,5.603565883475841,1.892013530294293,7.653399085126267,0.004276057,0.22113322,-0.07422013,33.47882,-16.965963,33.712963
2631448630000.0,5.570142880207972,1.9341747497400348,7.663225000606586,-0.02107485,0.204029,-0.06566802,33.48401,-16.95039,33.646053
2631453710000.0,5.536416610537262,1.976332586828423,7.680088047400346,-0.02687807,0.17989981,-0.06658431,33.4977,-16.938423,33.5822
2631458588000.0,5.503673612599388,2.0213007605504587,7.675813728685015,-0.032070424,0.15760323,-0.06688975,33.516983,-16.931889,33.515804
2631463598000.0,5.469437284770642,2.0751008064220184,7.636686496880734,-0.029626964,0.13408493,-0.058948494,33.536945,-16.924301,33.458374
2631468581000.0,5.442178081262471,2.124459988536187,7.597755376963541,-0.043066,0.10415252,-0.05222898,33.56571,-16.91489,33.40401
2631473828000.0,5.423948729820425,2.1700336050789044,7.556738931725014,-0.05131268,0.06963864,-0.043982297,33.594456,-16.905428,33.359276
2631478645000.0,5.401590348747199,2.2109372708087185,7.523234186188634,-0.03390302,0.04337143,-0.042455133,33.63147,-16.912394,33.317184
2631483663000.0,5.35753774687309,2.250095048278672,7.503655399674068,-0.026267206,0.021380283,-0.038179077,33.66787,-16.912949,33.285023
2631488637000.0,5.318431919497523,2.283461790640481,7.482790275831563,-0.022296581,-0.0027488936,-0.032070424,33.703045,-16.920479,33.263824
2631499019000.0,5.267244,2.3178681112668107,7.429072930875576,0.0143553335,-0.029626964,-0.01038471,33.73394,-16.933693,33.251617
2631503932000.0,5.267244,2.3222931380419447,7.389248198156682,0.022296581,-0.03481932,-0.0021380284,33.766922,-16.942276,33.238224
2631508834000.0,5.267244,2.326708257368569,7.349512631336406,0.037873644,-0.030543262,0.00061086525,33.79736,-16.967978,33.224773
2631513660000.0,5.271079652141665,2.34634254107176,7.356917916373076,0.040927973,-0.03145956,0.005497787,33.82479,-16.99004,33.215397
2631518563000.0,5.275432939745967,2.368109297292787,7.369977733728907,0.050701816,-0.026267206,0.009468411,33.849533,-17.016119,33.203712
2631523677000.0,5.2679097339418295,2.36019652787143,7.430577180400035,0.069027774,-0.011301007,0.016493361,33.863846,-17.045141,33.193264
2631528716000.0,5.255264744370687,2.339121457227705,7.510662202375753,0.069027774,0.0030543262,0.015271631,33.878365,-17.071932,33.181507
2631533620000.0,5.253931205457799,2.325217011184014,7.575570206839646,0.074830994,0.012217305,0.017715093,33.886684,-17.104218,33.166885
2631538662000.0,5.268332107813898,2.320416660274381,7.62357351543891,0.0729984,0.021380283,0.01282817,33.895607,-17.135067,33.148197
2631543567000.0,5.2851309512749145,2.3092768313700844,7.6684895372598305,0.058643065,0.028405234,0.01282817,33.90536,-17.15566,33.11789
2631548646000.0,5.306966319213503,2.2874414178308493,7.712160364338302,0.04886922,0.04642576,0.009773844,33.9149,-17.177284,33.082325
2631553733000.0,5.328524607408944,2.26492812564076,7.753366961253502,0.061391957,0.06352998,0.008857546,33.920258,-17.197458,33.041862
2631558661000.0,5.348113573601744,2.2404420968766217,7.782750154861471,0.03970624,0.07696902,0.013744468,33.922955,-17.206154,32.99898
2631563642000.0,5.368205154367139,2.2197419382531445,7.81444527786085,0.03390302,0.089186326,0.005497787,33.92717,-17.219608,32.948902
2631568600000.0,5.389087278740435,2.211389088503826,7.852033101732782,0.02443461,0.09193522,0.00580322,33.926823,-17.22441,32.90047
2631574073000.0,5.410896,2.2017637625877846,7.893393084156203,0.019242255,0.103847094,0.00580322,33.92756,-17.226511,32.846653
2631578675000.0,5.410896,2.187695098957225,7.926219916992977,0.009468411,0.112399206,0.005497787,33.9286,-17.224936,32.794365
2631583642000.0,5.414064941813756,2.1752933219720023,7.959231719375127,-0.004276057,0.099265605,0.0021380284,33.92892,-17.225805,32.737633
2631588659000.0,5.448182068594035,2.189914991357273,7.968979549857983,0.004886922,0.0888809,-0.0015271631,33.928448,-17.229399,32.67955
2631593611000.0,5.4779334,2.200712325486037,7.975526720387062,-0.008246681,0.08552113,0.0030543262,33.926636,-17.219946,32.621334
2631598658000.0,5.4779334,2.183627097631672,7.958441447932132,-0.009162978,0.070554934,0.0009162979,33.93106,-17.21693,32.56946
2631603608000.0,5.4779334,2.1668702365500176,7.9416845431071055,-0.016798794,0.051923547,-0.0061086523,33.931583,-17.211773,32.522137
2631608601000.0,5.486011776188114,2.156280023811886,7.914937613612462,-0.016798794,0.04337143,0.0015271631,33.92907,-17.206053,32.47863
2631614638000.0,5.497281537175624,2.145399333113033,7.879961206045292,-0.0125227375,0.021380283,0.0015271631,33.93524,-17.201794,32.44332
2631618595000.0,5.500964712314121,2.1490824313344348,7.846813398969774,-0.013133603,0.018325957,0.002443461,33.932434,-17.188263,32.41154
2631623643000.0,5.505663390125377,2.1537810110214792,7.804526279910584,-0.0036651916,0.0061086523,0.0067195175,33.92588,-17.1746,32.394035
2631628636000.0,5.525856788951407,2.1509430422097187,7.776328211048593,0.0036651916,-0.0018325958,0.010995574,33.919235,-17.160372,32.376816
2631633569000.0,5.550021676112531,2.1461100647774938,7.752163323887468,0.015577064,-0.010995574,0.014966198,33.913208,-17.149033,32.364037
2631638597000.0,5.546720075682135,2.1452048,7.724153635729935,0.014966198,-0.011911872,0.016187929,33.892788,-17.136875,32.353176
2631643561000.0,5.537251796853217,2.1452048,7.695749293567019,0.033292156,-0.008246681,0.019242255,33.871624,-17.131266,32.344513
2631648832000.0,5.515276914743841,2.1371579658975364,7.686152498924521,0.03604105,-0.018936822,0.01863139,33.847332,-17.118847,32.347668
2631653642000.0,5.492758138834572,2.1281504555338286,7.681648649687133,0.04184427,-0.025961773,0.019242255,33.82148,-17.11102,32.349525
2631658598000.0,5.4764255382293765,2.103881890643863,7.687988898390342,0.049785517,-0.03023783,0.020463986,33.798607,-17.10395,32.357372
2631663608000.0,5.461944924547284,2.0749201592555333,7.697642976861167,0.057726767,-0.032986723,0.029932396,33.774055,-17.097065,32.367542
2631668588000.0,5.448301368663162,2.093040242527225,7.692767148516711,0.06841691,-0.028405234,0.03176499,33.7576,-17.096365,32.372364
2631673656000.0,5.434631946883214,2.1249354331393167,7.68365407378896,0.06169739,-0.03726278,0.032070424,33.740906,-17.092253,32.382298
2631678650000.0,5.423564561015208,2.145355360049322,7.674114161015208,0.05497787,-0.04734206,0.024129177,33.72795,-17.089634,32.38674
2631683599000.0,5.41382450998767,2.1599655891491985,7.66437410998767,0.058948494,-0.03756821,0.034513887,33.708122,-17.085096,32.390102
2631688594000.0,5.414287067871567,2.174531816074313,7.651272113105816,0.044898596,-0.038789943,0.03023783,33.701614,-17.086052,32.39379
2631693600000.0,5.419127582774637,2.1890536640549274,7.636750164034733,0.05375614,-0.04550946,0.029626964,33.690353,-17.09104,32.397846
2631698670000.0,5.413794615314632,2.1930888,7.616019968555724,0.047647487,-0.034513887,0.033292156,33.67737,-17.090761,32.39724
2631703656000.0,5.404744212585292,2.1930888,7.593393867228961,0.04337143,-0.035430185,0.029932396,33.669144,-17.094126,32.40093
2631708597000.0,5.409120426300347,2.2060911771672447,7.587431275433449,0.036651913,-0.03970624,0.03390302,33.652443,-17.093678,32.40621
2631713599000.0,5.421898007948786,2.227387146581311,7.591690469316262,0.026572637,-0.03481932,0.035430185,33.6369,-17.092327,32.40877
2631718564000.0,5.436230678224486,2.244063439112243,7.591316960887757,0.029321533,-0.03359759,0.032070424,33.618706,-17.086958,32.418297
2631723659000.0,5.453983560160087,2.2529398800800435,7.582440519919957,0.02076942,-0.029321533,0.032986723,33.598232,-17.075926,32.426144
2631728660000.0,5.477521644900508,2.256853174561061,7.572635433320328,0.02076942,-0.025045475,0.03359759,33.583817,-17.078718,32.43038
2631733607000.0,5.529279038876317,2.238368418571986,7.557847705735466,0.01282817,-0.014660766,0.036957346,33.5673,-17.077005,32.43225
2631738588000.0,5.5813921537729225,2.219756619586422,7.542958344284042,0.022602014,-0.022296581,0.032070424,33.552586,-17.080849,32.441532
