timestamp,acc_x,acc_y,acc_z,gyro_x,gyro_y,gyro_z,ori_azimuth,ori_pitch,ori_roll
2877218807000.0,1.9808045496064208,9.20193023200815,-2.9444340492371914,-1.1707232,0.7476991,0.03634648,3.4977129,-27.45683,-22.92779
2877223718000.0,1.975662686481141,9.205903522158724,-2.941629388192616,-1.1707232,0.7528914,0.037873644,3.280775,-27.601034,-22.50141
2877228717000.0,1.9704286865293448,9.209948009526414,-2.938774470546141,-1.1881329,0.7623598,0.03756821,2.7584813,-27.890476,-22.38267
2877233758000.0,1.9651507121830745,9.214026477384088,-2.9358955667942155,-1.1927143,0.7504479,0.032375857,2.2440655,-28.191917,-22.258795
2877238815000.0,1.959855985686528,9.21811789019033,-2.9330075254783083,-1.1863003,0.7370089,0.036957346,1.7301508,-28.50172,-22.13373
2877243774000.0,1.954663866110421,9.222130015186604,-2.930175451741788,-1.1743884,0.7333437,0.030543262,1.2250359,-28.818356,-22.008688
2877248769000.0,1.9494340541961932,9.22617126631715,-2.927322818486309,-1.1542299,0.7339546,0.033292156,0.7219057,-29.148737,-21.877428
2877253783000.0,1.9441843491035131,9.23022788957412,-2.9244593343736023,-1.1484267,0.7415904,0.03390302,0.22449763,-29.485487,-21.74619
2877259466000.0,1.9382341947274264,9.23482577349302,-2.9212137858669185,-1.1713341,0.79290307,0.039095376,359.72177,-29.828707,-21.622303
2877263688000.0,1.9338137210733983,9.238241621795956,-2.9188026111712966,-1.2244794,0.8191703,0.056199603,359.2224,-30.17458,-21.489847
2877268741000.0,1.9285231826144211,9.242329798365056,-2.915916854246385,-1.5632042,0.7867944,0.061086524,358.7298,-30.446735,-21.354263
2877273739000.0,1.923290229672017,9.246373476673458,-2.9130625076976595,-1.2513574,0.77366084,0.05222898,358.2318,-30.881657,-21.22633
2877278716000.0,1.9180792639268496,9.250400164736869,-2.91022015420166,-1.2455542,0.7703011,0.061086524,357.7359,-31.158537,-21.088034
2877284703000.0,1.9118108186955225,9.255244002678529,-2.906800991979327,-1.2513574,0.7583892,0.070554934,357.24927,-31.518892,-20.94328
2877288800000.0,1.9075212212155248,9.258558718570791,-2.904461204502311,-1.2513574,0.74189585,0.077579886,356.76605,-31.889158,-20.793093
2877294890000.0,1.9011449340167967,9.263485889618844,-2.900983219211847,-1.2583824,0.7318166,0.08460484,356.28516,-32.26299,-20.637577
2877298729000.0,1.897125464959996,9.266591868215476,-2.898790774954033,-1.2644911,0.7153232,0.09162979,355.81042,-32.64335,-20.473068
2877303709000.0,1.891911358186652,9.27062098345674,-2.8959467081647867,-1.2550226,0.64934975,0.09010262,355.35068,-33.03087,-20.292553
2877309266000.0,1.886093126993987,9.275116925905682,-2.892773117974457,-1.1713341,0.54458636,0.08307768,354.90466,-33.44118,-20.096748
2877313699000.0,1.881451734358197,9.278703485717836,-2.890241441653829,-0.9932669,0.5112942,0.07666359,354.4624,-33.88299,-19.900366
2877318674000.0,1.8762428626318144,9.282728555662676,-2.887400230353327,-0.9263771,0.44135013,0.067500606,354.0532,-34.320415,-19.671278
2877323720000.0,1.8709596532385828,9.286811068816778,-2.884518471112657,-0.7867944,0.39095375,0.05589417,353.65387,-34.825974,-19.438574
2877328728000.0,1.865716230202256,9.290862837718034,-2.881658413586444,-0.6627888,0.312763,0.03481932,353.2826,-35.34598,-19.185118
2877334866000.0,1.8592896865527009,9.295828843611789,-2.878153015604035,-0.45814893,0.06963864,-0.034208454,352.97174,-35.919666,-18.892113
2877338798000.0,1.855172845622422,9.29901006472196,-2.8759074592555782,0.061391957,0.03359759,-0.03726278,352.63248,-36.62433,-18.636124
2877343747000.0,1.849991196140237,9.30301409912538,-2.8730810964965463,0.057726767,0.06841691,-0.020158553,352.34366,-37.2418,-18.348795
2877348724000.0,1.8447802303950704,9.30704078718879,-2.8702387430005465,0.0106901415,0.07360926,-0.033292156,352.08203,-37.981876,-18.05116
2877353710000.0,1.8395598415653729,9.311074756785768,-2.8673912496248075,-0.0027488936,0.06566802,-0.028099801,351.8149,-38.734703,-17.750093
2877358779000.0,1.83425255095612,9.315175878303434,-2.8644963551359144,0.016187929,0.071776666,-0.029932396,351.55533,-39.482006,-17.455416
2877363908000.0,1.8288824397833323,9.319325543378223,-2.86156719478209,0.01282817,0.07452556,-0.030848695,351.30334,-40.220825,-17.155813
2877368747000.0,1.823815961334294,9.323240581260247,-2.858803652775431,0.014660766,0.07819075,-0.03848451,351.05844,-40.96498,-16.858131
2877373723000.0,1.818606042598519,9.327266460264374,-2.8559618703771803,0.023823744,0.06841691,-0.040927973,350.82144,-41.710236,-16.556334
2877378705000.0,1.8133898418063907,9.331297193624213,-2.8531166613924364,0.022296581,0.07238753,-0.035430185,350.5873,-42.452435,-16.257116
2877384343000.0,1.8074868028529545,9.335858669875268,-2.8498968122844506,0.031154128,0.07086037,-0.038179077,350.36517,-43.19756,-15.956146
2877388753000.0,1.802869491433186,9.339426621323858,-2.847378271212046,0.01985312,0.06780604,-0.03756821,350.14713,-43.93648,-15.653283
2877393735000.0,1.7976532906410574,9.343457354683697,-2.844533062227302,0.02443461,0.070249505,-0.032986723,349.93442,-44.680367,-15.350471
2877398780000.0,1.792371128257218,9.347539058778512,-2.841651874084381,0.0290161,0.08277224,-0.032375857,349.7272,-45.418873,-15.0494
2877403778000.0,1.787138175314814,9.351582737086916,-2.838797527535656,0.028710667,0.092240654,-0.032986723,349.52576,-46.155334,-14.747318
2877409842000.0,1.7807891103602842,9.35648887259355,-2.835334390786662,0.035430185,0.11178834,-0.027794369,349.32425,-46.892937,-14.448058
2877413835000.0,1.776608401857079,9.359719446320131,-2.8330539974755258,0.046731193,0.10598512,-0.02443461,349.13287,-47.628548,-14.146327
2877418794000.0,1.771416282280972,9.363731571316404,-2.830221923739005,0.047647487,0.10781772,-0.0143553335,348.93918,-48.361237,-13.847151
2877423775000.0,1.7662011284982355,9.367761495616955,-2.8273772858520103,0.046120327,0.094989546,-0.013133603,348.7572,-49.092247,-13.545668
2877428731000.0,1.7610121499503055,9.371771193435372,-2.8245469254087365,0.048258353,0.09285152,-0.0067195175,348.5755,-49.8223,-13.24345
2877434610000.0,1.75485678173334,9.37652765297421,-2.821189441743279,0.038179077,0.074830994,-0.0106901415,348.40808,-50.54375,-12.938807
2877438770000.0,1.750501222661631,9.379893339601452,-2.818813675108085,0.041233405,0.073303826,-0.008246681,348.2409,-51.26634,-12.634562
2877443794000.0,1.7452410474750286,9.383958053451275,-2.81594448001789,0.047647487,0.07941248,-0.006414085,348.08282,-51.982204,-12.33049
2877448774000.0,1.7400269407016846,9.387987168692542,-2.813100413228644,0.048563786,0.081855945,-0.013133603,347.93274,-52.692135,-12.028065
2877453733000.0,1.7348348211255775,9.391999293688814,-2.8102683394921235,0.04337143,0.08032878,-0.009468411,347.78574,-53.39844,-11.724388
2877458787000.0,1.729543235657208,9.3960882793172,-2.8073820114694628,0.04062254,0.08735373,-0.011911872,347.64377,-54.099297,-11.426826
2877463849000.0,1.7242432741137006,9.400183737419868,-2.8044911146648115,0.04337143,0.09560041,-0.0067195175,347.50543,-54.796047,-11.127953
2877468738000.0,1.7191244451950505,9.404139228266162,-2.8016990177707104,0.03970624,0.108123146,-0.004581489,347.37057,-55.484364,-10.833666
2877473776000.0,1.7138496118769566,9.408215268945982,-2.798821827312031,0.03634648,0.11789699,0.007330383,347.23718,-56.16928,-10.538198
2877478737000.0,1.7086553982820654,9.412229012060823,-2.795988611380013,0.026267206,0.11942416,0.017104227,347.10785,-56.84559,-10.245004
2877483754000.0,1.7034025521612084,9.416288062495653,-2.7931234139740595,0.017104227,0.10720685,0.01160644,346.98508,-57.514973,-9.953831
2877488773000.0,1.6981476120215673,9.420348731049048,-2.7902570743726085,0.014049901,0.1142318,0.011301007,346.8598,-58.178577,-9.66395
2877493797000.0,1.692887436834965,9.424413444898873,-2.7873878792824134,0.02076942,0.10995574,0.01038471,346.74615,-58.835594,-9.37412
2877498775000.0,1.6876754240804055,9.428440942021568,-2.784544954688665,0.014966198,0.105068825,0.010079277,346.63556,-59.482086,-9.0872345
2877503684000.0,1.6825356549739103,9.43241261405357,-2.7817414358395864,0.017104227,0.10903945,0.010079277,346.5285,-60.12607,-8.80329
2877508779000.0,1.6772011421204591,9.436534771112656,-2.778831692809223,0.018020526,0.11453723,0.015577064,346.42612,-60.76204,-8.519804
2877513858000.0,1.6718833814172838,9.440643983223175,-2.7759310873428418,0.020158553,0.122783914,0.005192355,346.32852,-61.39089,-8.243544
2877518670000.0,1.6668451722218356,9.444537176504497,-2.773182964975401,0.03145956,0.12308934,0.013744468,346.23257,-62.01785,-7.963126
2877523782000.0,1.6614928602087162,9.448673087571436,-2.770263513283308,0.014966198,0.113926366,0.0106901415,346.14398,-62.62906,-7.690575
2877528738000.0,1.6575655801477014,9.451864437859834,-2.767096844012057,0.014049901,0.109650314,0.013133603,346.05634,-63.24185,-7.41757
2877533762000.0,1.6660256932690278,9.44703006514946,-2.760570472402914,0.016493361,0.118507855,0.014660766,345.9721,-63.84372,-7.148603
2877538845000.0,1.6745851588334588,9.44213891935192,-2.753967457496609,0.026267206,0.109650314,0.009773844,345.89304,-64.44176,-6.903935
2877543778000.0,1.682892033440844,9.43739211191158,-2.747559298430545,0.020463986,0.09285152,0.0076358155,345.81686,-65.02908,-6.6605897
2877548774000.0,1.6913049962501885,9.432584682361217,-2.74106929991158,0.017715093,0.08582657,0.018325957,345.7431,-65.61304,-6.4176006
2877553787000.0,1.6997465860346646,9.427760894463702,-2.734557217730721,0.018325957,0.087659165,0.013744468,345.6769,-66.187416,-6.1806736
2877558717000.0,1.7080484088229086,9.423016973790505,-2.728152955781462,0.01282817,0.074830994,0.008246681,345.61874,-66.75253,-5.941316
2877563801000.0,1.7166095583270535,9.418124865737251,-2.7215486418362222,0.019242255,0.08552113,0.01863139,345.5559,-67.31437,-5.7043123
2877568728000.0,1.7249063292961566,9.413383831831196,-2.715148277003768,0.013133603,0.08307768,0.017715093,345.50497,-67.86237,-5.4715652
2877573846000.0,1.7335247327505652,9.408459007083646,-2.70849979573474,-0.0015271631,0.09437868,0.022907447,345.44888,-68.40332,-5.239656
2877578775000.0,1.7418248715990956,9.403716048666164,-2.702096832824416,0.0021380284,0.095294975,0.033292156,345.39883,-68.94032,-5.0079317
2877583870000.0,1.7504045444400904,9.39881335580005,-2.695478229450892,0.0009162979,0.08979719,0.04062254,345.35022,-69.4644,-4.7788515
2877588763000.0,1.7586440614589298,9.394105038588291,-2.689122031942225,-0.0015271631,0.0842994,0.03359759,345.3046,-69.98125,-4.5537195
2877593739000.0,1.7670233454740014,9.389316854152222,-2.68265801420196,0.005192355,0.105374254,0.03604105,345.25443,-70.49374,-4.3288536
2877598728000.0,1.7754245207053505,9.38451616039186,-2.676177108955539,0.004276057,0.11178834,0.044593163,345.21255,-70.99565,-4.1050982
2877603714000.0,1.7838206441175584,9.379718353398642,-2.669700100825924,-0.0036651916,0.12064589,0.0421497,345.16766,-71.48923,-3.8885932
2877608749000.0,1.7922992805757347,9.374873395875408,-2.663159439788496,-0.0143553335,0.1282817,0.030848695,345.12387,-71.9741,-3.6754093
2877613890000.0,1.8009564146435568,9.36992643924642,-2.656481080623964,-0.012217305,0.14782938,0.035124753,345.0757,-72.453445,-3.463162
2877619605000.0,1.8105801301070084,9.364427147837226,-2.649057073110776,-0.002443461,0.14294247,0.03848451,345.03552,-72.92364,-3.2554972
2877623720000.0,1.817509542028636,9.360467465571464,-2.6437115278934944,-0.002443461,0.15302174,0.033292156,344.98846,-73.38388,-3.0545285
2877628703000.0,1.825900613621703,9.35567254534539,-2.6372384168806837,0.007330383,0.14202617,0.034208454,344.94995,-73.84251,-2.8515272
2877633747000.0,1.8343944055373025,9.350818927520724,-2.630686064492841,0.0033597588,0.12217305,0.03390302,344.91373,-74.28933,-2.6530771
2877638931000.0,1.8431239490128108,9.345830593896006,-2.623951846654107,-0.004886922,0.09590584,0.029932396,344.88455,-74.72995,-2.4567783
2877643771000.0,1.8512742172268275,9.341173276237123,-2.6176644982089927,-0.007941248,0.09437868,0.03176499,344.8556,-75.16356,-2.2620573
2877648714000.0,1.8595979312313489,9.336416846239638,-2.61124334875358,-0.017715093,0.089186326,0.03390302,344.83707,-75.58516,-2.0689318
2877653709000.0,1.86800921010098,9.331610378944989,-2.6047546492735494,-0.0125227375,0.09285152,0.025350908,344.81888,-76.00223,-1.8815796
2877658759000.0,1.8765131056548603,9.326750987586031,-2.5981945026520976,-0.013439035,0.09621128,0.029932396,344.80292,-76.40786,-1.6923946
2877663847000.0,1.88508099091786,9.32185503050992,-2.591584992551118,-0.007941248,0.09162979,0.02321288,344.7911,-76.80853,-1.5112067
2877668707000.0,1.8932649379261488,9.317178467736747,-2.5852716633273047,-0.0030543262,0.11209377,0.02565634,344.77203,-77.20172,-1.3307459
2877673773000.0,1.9017957765154485,9.31230368028636,-2.578690732082894,0.0021380284,0.12095132,0.021991149,344.7598,-77.58863,-1.155492
2877678777000.0,1.910222210842502,9.30748855269028,-2.5721903412524494,0.004886922,0.101098195,0.024740042,344.7508,-77.968925,-0.9799412
2877683725000.0,1.9185543445455917,9.302727311414216,-2.565762696602361,0.0076358155,0.09437868,0.016187929,344.7379,-78.34277,-0.8125259
2877689795000.0,1.928775858607385,9.296886419226324,-2.5578775302672696,0.010079277,0.0693332,0.01282817,344.73663,-78.70992,-0.6433221
2877693766000.0,1.935462783210249,9.293065301783471,-2.552719046656619,0.003970624,0.06566802,0.011301007,344.73285,-79.067665,-0.4794473
2877698774000.0,1.9438959532961568,9.28824632516453,-2.546213459670435,0.01038471,0.047036625,0.007941248,344.7418,-79.42199,-0.31747478
2877703780000.0,1.9523257555026376,9.28342927305702,-2.5397104707621203,0.004581489,0.03023783,0.0033597588,344.75253,-79.763435,-0.15883455
2877708762000.0,1.960715143155991,9.27863531508666,-2.5332386587882443,0.010079277,0.022296581,0.003970624,344.767,-80.10224,-0.0018006088
2877713800000.0,1.969198831433308,9.273787470796282,-2.526694100634012,-0.0015271631,0.018020526,0.005192355,344.78635,-80.42675,0.15216227
2877718666000.0,1.9773928820798796,9.269105134488822,-2.520372977176589,0.012217305,0.024129177,0.0015271631,344.80612,-80.75233,0.30221593
2877723779000.0,1.98600286583572,9.264185121019844,-2.513730991102236,0.008552114,0.019242255,-0.007330383,344.8313,-81.061874,0.44926715
2877728787000.0,1.9931639557394905,9.261121457141144,-2.5164619050726302,0.011301007,0.018936822,-0.008246681,344.85406,-81.36919,0.5945091
2877733758000.0,1.9972066129475703,9.262310472506393,-2.5414312451246803,0.022602014,0.01740966,-0.015577064,344.88004,-81.670235,0.73322797
2877738802000.0,2.001308637280211,9.263516948769182,-2.566767264280291,0.020158553,0.018020526,-0.017715093,344.93076,-81.92969,0.92196494
2877743801000.0,2.005374065440177,9.264712661464992,-2.591877248372063,0.016798794,0.035124753,-0.018020526,344.97754,-82.182724,1.1048912
2877748778000.0,2.009421602137948,9.265903111972506,-2.6168767264326247,0.003970624,0.04184427,-0.024740042,345.0274,-82.423096,1.2821954
2877753778000.0,2.013487843546196,9.267099063858694,-2.641991733525815,0.0027488936,0.052534413,-0.035124753,345.0714,-82.65627,1.4540983
2877759701000.0,2.018304713118406,9.268515788463077,-2.671742970928409,0.004276057,0.0571159,-0.040011674,345.11526,-82.87686,1.6222664
2877763768000.0,2.0216121938798755,9.2694885757273,-2.69217151769801,-0.0021380284,0.05131268,-0.043982297,345.15933,-83.08563,1.7845011
2877768729000.0,2.025646718605139,9.270675199188778,-2.7170906277358737,-0.003970624,0.04550946,-0.052534413,345.20236,-83.28681,1.9407436
2877773772000.0,2.0297479296894982,9.27188143626119,-2.7424216238900656,-0.008246681,0.032375857,-0.05497787,345.24902,-83.4753,2.094945
2877778780000.0,2.0338206770839995,9.273079301670396,-2.767576814994605,-0.018936822,0.021380283,-0.051618114,345.2967,-83.651566,2.2454877
2877784021000.0,2.038082911328125,9.2743328984375,-2.7939023654296875,-0.015271631,0.005497787,-0.038179077,345.34915,-83.81923,2.3958023
2877788987000.0,2.042121502294797,9.275520717850862,-2.8188465904746445,-0.01863139,0.00580322,-0.040011674,345.40033,-83.97294,2.5396633
2877793788000.0,2.046025907294997,9.276669070851982,-2.842962020285526,-0.020463986,-0.007941248,-0.046731193,345.4596,-84.116295,2.683836
2877798777000.0,2.050083202972147,9.27786239164402,-2.868021774363112,-0.01740966,-0.0067195175,-0.054061573,345.5144,-84.24945,2.8240156
2877803767000.0,2.0541413118975784,9.279055951626438,-2.893086551442116,-0.015577064,-0.0009162979,-0.05467244,345.57156,-84.37084,2.961632
2877808752000.0,2.058195354581602,9.28024831565697,-2.9181262135140265,-0.0106901415,0.023518313,-0.061086524,345.6231,-84.48466,3.092338
2877813976000.0,2.0624437636049398,9.281497846187658,-2.9443663729249923,-0.013133603,0.05100725,-0.0711658,345.67194,-84.58692,3.2190094
2877818939000.0,2.0664799148267665,9.28268494802989,-2.9692955289656933,-0.006414085,0.09010262,-0.06658431,345.71002,-84.67996,3.344774
2877823777000.0,2.070414410013387,9.283842151074968,-2.9935968098290644,-0.0076358155,0.11148291,-0.06658431,345.7454,-84.76231,3.4638035
2877829237000.0,2.0748547456311943,9.285148130534688,-3.0210223975748285,0.003970624,0.12675454,-0.064751714,345.77097,-84.8367,3.5817256
2877833785000.0,2.0785533988161364,9.286235968370365,-3.0438670080267944,0.0067195175,0.129198,-0.059864793,345.79388,-84.897446,3.698149
2877838777000.0,2.0826131342381315,9.287430006733535,-3.068941831108636,0.0033597588,0.12797627,-0.05131268,345.8132,-84.94727,3.8137739
2877843792000.0,2.0866915743706045,9.288629546475384,-3.094132183223106,0.008552114,0.12858713,-0.044593163,345.83112,-84.98772,3.9280663
2877848772000.0,2.0907415508132194,9.289820714554027,-3.119146730287924,0.018325957,0.13775012,-0.046731193,345.84677,-85.01779,4.0400286
2877853723000.0,2.0947679430556665,9.291004946111732,-3.144015610311601,0.03145956,0.1563815,-0.03848451,345.8591,-85.0348,4.154631
2877858765000.0,2.098868340891744,9.292210943993766,-3.1693415834643743,0.053145275,0.17073683,-0.04153884,345.8701,-85.04744,4.26328
2877863893000.0,2.1030386780800434,9.29343751224824,-3.19509953473915,0.06688975,0.1966986,-0.038789943,345.87204,-85.04713,4.3735437
2877868735000.0,2.1069764262597905,9.294595672054829,-3.219420907608196,0.06780604,0.20799962,-0.035124753,345.87402,-85.03854,4.4812546
2877873770000.0,2.1110711313578965,9.295799995604218,-3.244711719751039,0.08582657,0.21624629,-0.025961773,345.86923,-85.02169,4.5891685
2877878730000.0,2.115104842834879,9.29698637987532,-3.269625806787484,0.09865474,0.21777347,-0.02443461,345.86313,-84.9958,4.694019
2877883744000.0,2.1191824697190698,9.298185680426789,-3.2948111359005354,0.110872045,0.21227567,-0.010995574,345.8564,-84.95681,4.803006
2877888793000.0,2.123288560293118,9.299393352641465,-3.3201722700632392,0.11911872,0.19425514,-0.016798794,345.85294,-84.914635,4.9051313
2877893855000.0,2.1274052230948293,9.300604134331042,-3.345598703244385,0.11453723,0.16340645,-0.011911872,345.85452,-84.857605,5.0123553
2877898937000.0,2.1315381508621725,9.301819699828163,-3.371125596453904,0.12583824,0.11484267,-0.015577064,345.86633,-84.79836,5.1137667
2877903778000.0,2.1354750857936384,9.302977620444372,-3.3954419463215317,0.119729586,0.067500606,-0.015271631,345.8865,-84.72845,5.2159114
2877908715000.0,2.1394900925601426,9.304158503336796,-3.4202405043253474,0.10262536,0.022907447,-0.016798794,345.91968,-84.65396,5.3147254
2877913792000.0,2.1436189540860777,9.305372872882032,-3.4457422825277733,0.08735373,-0.009773844,-0.02565634,345.96274,-84.57589,5.409687
2877918878000.0,2.147755134846548,9.306589395140664,-3.471289267742967,0.0693332,-0.03023783,-0.035124753,346.01477,-84.4934,5.502171
2877923786000.0,2.151746557412884,9.307763341512148,-3.4959421587056427,0.06414085,-0.040011674,-0.03940081,346.07272,-84.40802,5.59176
2877928710000.0,2.1483112271429143,9.30791814744839,-3.515255577335826,0.0580322,-0.06505715,-0.044593163,346.14053,-95.67773,5.6765704
2877933744000.0,2.1209858437850526,9.304802082226244,-3.517652544037628,0.04428773,-0.09285152,-0.0580322,346.21146,-95.76245,5.755998
2877938782000.0,2.0936387477665965,9.301683540988822,-3.520051415361362,0.044593163,-0.11362094,-0.07360926,346.28876,-95.87303,5.8474817
2877944808000.0,2.0609286245813614,9.29795342397876,-3.5229207283023745,0.04428773,-0.13316862,-0.0842994,346.37335,-95.98985,5.934347
2877948793000.0,2.0392973864643413,9.29548669376218,-3.52481820790243,0.049785517,-0.15302174,-0.10323623,346.4635,-96.10804,6.012292
2877953769000.0,2.0122868366850963,9.292406530761504,-3.5271875575862137,0.058337633,-0.16646078,-0.11911872,346.55685,-96.23125,6.0860453
2877958716000.0,1.9854337036951597,9.289344318871564,-3.529543098760988,0.06536258,-0.17440203,-0.12186762,346.65378,-96.35931,6.1562357
2877963961000.0,1.9569629774909512,9.28609764384372,-3.532040534269719,0.07147124,-0.18325958,-0.1301143,346.75403,-96.48753,6.2184815
2877968740000.0,1.931021776245973,9.283139424595282,-3.5343160813233365,0.08277224,-0.19150625,-0.129198,346.85583,-96.62346,6.2808256
2877973786000.0,1.9036312549063283,9.280015931327313,-3.5367187618909357,0.08582657,-0.20738874,-0.12675454,346.9616,-96.76164,6.3394675
2877978736000.0,1.876761837420946,9.276951862425918,-3.5390757315321584,0.064446285,-0.21960606,-0.13622294,347.06787,-96.899,6.3933187
2877984631000.0,1.8447628038701724,9.273302834916072,-3.5418826681048885,0.039095376,-0.23823744,-0.13591751,347.18,-97.04219,6.4488
2877988736000.0,1.822480185935325,9.270761824241278,-3.5438372863629133,0.022602014,-0.23457226,-0.13408493,347.28833,-97.183975,6.5006785
2877993759000.0,1.7952145123940977,9.267652568061134,-3.546229015354401,0.021685716,-0.22082779,-0.14874569,347.3981,-97.322,6.5463924
2877998781000.0,1.7679542670180184,9.264543930884807,-3.548620268190406,-0.0018325958,-0.19639318,-0.15027285,347.5032,-97.45982,6.5952663
2878003781000.0,1.740813441275208,9.26144891179249,-3.5510010456057834,-0.02107485,-0.1518,-0.16065755,347.59738,-97.59262,6.6367874
2878008717000.0,1.7140200181019054,9.258393508944552,-3.553351349070244,-0.038789943,-0.10048734,-0.16584991,347.68195,-97.72355,6.6788125
2878013775000.0,1.6865643587804782,9.255262587630762,-3.555759743503639,-0.04550946,-0.040317107,-0.19120082,347.74985,-97.84571,6.7121468
2878018743000.0,1.6595972343224217,9.252187376660634,-3.5581252839435584,-0.061086524,0.0143553335,-0.2012801,347.80423,-97.96618,6.748391
2878023775000.0,1.6322827072948571,9.249072549446124,-3.560521298334394,-0.04153884,0.06414085,-0.21746802,347.84155,-98.08308,6.7761035
2878028767000.0,1.605185306873235,9.245982482384353,-3.562898266505907,-0.042455133,0.10751228,-0.22693644,347.8645,-98.19327,6.8033032
2878033790000.0,1.5779196333320076,9.242873226204209,-3.5652899954973947,-0.036651913,0.15088372,-0.23915374,347.8724,-98.302734,6.825746
2878038853000.0,1.5504368331848375,9.239739209871326,-3.5677007707082056,-0.031154128,0.17562376,-0.24984388,347.8727,-98.40977,6.8460975
2878043778000.0,1.5237031198281692,9.236690616065392,-3.570045836462352,-0.036957346,0.18753563,-0.24465153,347.86414,-98.516266,6.8678956
2878048781000.0,1.4965460095899128,9.233593739961616,-3.5724280423441788,-0.05497787,0.20097467,-0.24312437,347.8475,-98.617744,6.8860006
2878053766000.0,1.4694866063243308,9.230508005926575,-3.5748016774273097,-0.062308256,0.20189096,-0.24129178,347.83105,-98.72068,6.9053855
2878058752000.0,1.4424217748936,9.227421652887712,-3.577175788665924,-0.058337633,0.20708331,-0.24281894,347.8094,-98.82132,6.9244385
2878063808000.0,1.41497697190247,9.22429196958156,-3.5795832307883537,-0.070554934,0.20525073,-0.2415972,347.78955,-98.918,6.944347
2878068727000.0,1.388275827536693,9.221247089798537,-3.5819254396096016,-0.06505715,0.18234327,-0.2312125,347.7744,-99.01935,6.965705
2878073778000.0,1.360858165371306,9.218120501511477,-3.584330500954616,-0.07360926,0.14294247,-0.22418754,347.76443,-99.11452,6.985616
2878078769000.0,1.3337661931148324,9.215031053453522,-3.586706992970645,-0.09101892,0.1301143,-0.22052236,347.75354,-99.2095,7.007294
2878084840000.0,1.3008118024979118,9.211273081271628,-3.589597732908397,-0.105068825,0.08277224,-0.21746802,347.76392,-99.30378,7.028209
2878088895000.0,1.2788005928204924,9.208763020787757,-3.5915285433922675,-0.10415252,0.06719518,-0.22204952,347.76862,-99.39558,7.048162
2878093789000.0,1.2522351525834294,9.205733616100195,-3.593858848326439,-0.116675265,0.032986723,-0.2180789,347.7924,-99.483505,7.068962
2878098769000.0,1.2252028901435903,9.202650977084245,-3.5962301026321546,-0.11942416,0.022602014,-0.2144137,347.81342,-99.57122,7.088248
2878103774000.0,1.1980349235750367,9.199552862972832,-3.5986132608249477,-0.13408493,0.012217305,-0.21655174,347.84393,-99.65267,7.1055307
2878108768000.0,1.1709266668231175,9.196461557903426,-3.600991181307426,-0.129198,0.028099801,-0.22082779,347.86966,-99.736496,7.1233816
2878113940000.0,1.1428521966747545,9.19326007015433,-3.603453857465892,-0.11026118,0.0009162979,-0.22357668,347.9104,-99.81894,7.1389003
2878118749000.0,1.1167481504753192,9.190283280791338,-3.605743689184002,-0.11209377,-0.027183503,-0.21563543,347.9468,-99.89845,7.1563697
2878123718000.0,1.089775597852114,9.187207450817391,-3.608109705779404,-0.10629055,-0.050701816,-0.20005837,347.98956,-99.98302,7.1741095
2878128972000.0,1.0636996084125756,9.183655413569772,-3.610252429786422,-0.11575896,-0.070554934,-0.1881465,348.03912,-100.06384,7.191848
2878133777000.0,1.073633996211429,9.176262398854291,-3.6072490068531664,-0.122478485,-0.076052725,-0.17715092,348.09143,-100.148056,7.2129884
2878138902000.0,1.0842299873600498,9.168377029360672,-3.604045564078362,-0.11636983,-0.089186326,-0.18295415,348.1101,-100.16204,7.1145477
2878143730000.0,1.0942119278996676,9.160948626645514,-3.601027764718995,-0.10323623,-0.09682214,-0.18020524,348.1301,-100.18187,7.0234256
2878148719000.0,1.1045267376246373,9.153272507932604,-3.597909330376849,-0.09896017,-0.10262536,-0.19517145,348.15298,-100.1982,6.9269624
2878154259000.0,1.115980745617488,9.144748615836088,-3.5944464868700354,-0.0870483,-0.118507855,-0.19242255,348.18222,-100.22449,6.8373485
2878158763000.0,1.125292812765466,9.137818722333792,-3.591631207600237,-0.069027774,-0.119729586,-0.19028452,348.2088,-100.251595,6.745392
2878163839000.0,1.1357874959011538,9.130008744665576,-3.5884583928636693,-0.06658431,-0.116980694,-0.2003638,348.23886,-100.27766,6.6520023
2878168716000.0,1.1458707444537046,9.122504950125014,-3.585409965466065,-0.07941248,-0.11636983,-0.20250183,348.27072,-100.307495,6.563003
2878173690000.0,1.156154541521654,9.11485191054233,-3.5823009070539915,-0.08002335,-0.11881329,-0.19517145,348.30307,-100.34169,6.4754887
2878178699000.0,1.166510701455984,9.107145019655784,-3.5791699714717486,-0.07880162,-0.1151481,-0.18448131,348.33395,-100.37482,6.3902407
2878183739000.0,1.176930954214823,9.09939043190011,-3.576019658967356,-0.09101892,-0.11148291,-0.18081611,348.3659,-100.40585,6.306569
2878188802000.0,1.1873987597144262,9.091600456144755,-3.5728549700368517,-0.10262536,-0.105068825,-0.16371189,348.39743,-100.44225,6.2314963
2878193741000.0,1.1976101939159949,9.08400126786593,-3.569767788794947,-0.124005646,-0.09407325,-0.15454891,348.42676,-100.4735,6.157007
2878198722000.0,1.20790846355722,9.076337458022474,-3.5666543549488394,-0.14538592,-0.09040806,-0.13652839,348.45776,-100.506874,6.0911646
2878203639000.0,1.218074412528492,9.068772119134644,-3.563580925071042,-0.1740966,-0.09162979,-0.1328632,348.48718,-100.53301,6.025363
2878208623000.0,1.2283788847011217,9.061103693465142,-3.56046561603892,-0.20708331,-0.08857546,-0.12461651,348.51563,-100.557045,5.967439
2878213652000.0,1.238776394844812,9.053366030404964,-3.55732217921658,-0.22785273,-0.08460484,-0.1328632,348.54388,-100.57528,5.9069653
2878218635000.0,1.2490787995069736,9.045699143344144,-3.554207495246463,-0.2443461,-0.06291912,-0.12064589,348.56775,-100.591515,5.856567
2878223639000.0,1.2594246218889635,9.03799994550101,-3.551079684974244,-0.2764165,-0.06047566,-0.129198,348.59497,-100.59467,5.7983336
2878228635000.0,1.2697539041872097,9.030313056527328,-3.547956875198064,-0.29779682,-0.056505036,-0.12461651,348.61697,-100.60062,5.7492623
2878233612000.0,1.2800439037865627,9.022655401118598,-3.544845941599976,-0.30695978,-0.04917465,-0.14110987,348.6363,-100.597466,5.69305
2878238646000.0,1.2904517514825935,9.014910045015013,-3.541699379467612,-0.31031954,-0.026572637,-0.13622294,348.65155,-100.59491,5.6459856
2878243633000.0,1.300762426186627,9.007237003519466,-3.538582195249475,-0.3051272,-0.0033597588,-0.1337795,348.664,-100.5897,5.5949273
2878248636000.0,1.311106181058149,8.999539344285012,-3.535455010039261,-0.2996294,0.025350908,-0.14721853,348.66824,-100.582466,5.542973
2878253627000.0,1.3214251258040546,8.99186014835474,-3.532335325573105,-0.27855456,0.015882496,-0.14721853,348.6778,-100.583046,5.4957438
2878258827000.0,1.3321761802377772,8.983859383209994,-3.5290850031479377,-0.28191432,0.009773844,-0.1459968,348.67807,-100.57752,5.4474497
2878263734000.0,1.3423214541043689,8.976309430408982,-3.5260178238901885,-0.28221974,0.014966198,-0.14966199,348.67795,-100.57743,5.398791
2878268726000.0,1.3526424663607426,8.968628695870027,-3.522897514362028,-0.269697,0.016798794,-0.15210545,348.68097,-100.5803,5.351304
2878273724000.0,1.3629758836799244,8.96093872967898,-3.519773454461838,-0.2666427,0.013744468,-0.16401732,348.68362,-100.57915,5.3010283
2878278709000.0,1.373282423363022,8.953268765400798,-3.516657520367711,-0.267559,0.0143553335,-0.160963,348.68564,-100.58213,5.25545
2878283748000.0,1.3837006086113928,8.945515716253803,-3.513507832925323,-0.26358834,0.042455133,-0.172264,348.6798,-100.58358,5.2045207
2878288725000.0,1.393990608210746,8.937858060845073,-3.510396899327235,-0.2687807,0.044898596,-0.17470746,348.68195,-100.58446,5.156725
2878293917000.0,1.4047251225607245,8.929869604569783,-3.507151577398106,-0.28221974,0.04734206,-0.17104226,348.67627,-100.58375,5.1096992
2878298717000.0,1.4146491728072377,8.92248428289771,-3.5041512797748746,-0.28313604,0.055283304,-0.17379116,348.66824,-100.58388,5.061477
2878303708000.0,1.4249681175531437,8.914805086967437,-3.5010315953087185,-0.29260445,0.05681047,-0.17012598,348.6622,-100.58014,5.016813
2878308744000.0,1.43538010027011,8.907056653646487,-3.497883783052345,-0.28863382,0.043982297,-0.16798794,348.65814,-100.57925,4.9715314
2878313719000.0,1.4456659648485273,8.899402075455122,-3.4947740995782666,-0.30451632,0.02076942,-0.15882497,348.65744,-100.57263,4.9297013
2878318980000.0,1.456543137420799,8.891307455180794,-3.491485648370804,-0.310625,-0.003970624,-0.15271631,348.6611,-100.569595,4.8877683
2878323713000.0,1.466328664465955,8.884025220290395,-3.488527229901897,-0.32253686,-0.028710667,-0.14874569,348.67194,-100.56221,4.847507
2878328696000.0,1.4767889933177467,8.863557257078913,-3.481201634842036,-0.32406402,-0.03848451,-0.14049901,348.68622,-100.55752,4.810463
2878333747000.0,1.488146753693823,8.781636391833024,-3.453653033909837,-0.33017266,-0.053145275,-0.12705997,348.7095,-100.55006,4.775335
2878339691000.0,1.5015125283276385,8.685232190086527,-3.421233931961513,-0.33841935,-0.055588737,-0.10629055,348.75287,-100.56218,4.795817
2878343743000.0,1.5106239211298282,8.619513847980738,-3.399133965424735,-0.3368922,-0.062002823,-0.10323623,348.80078,-100.57449,4.813848
2878348728000.0,1.5218332728373598,8.53866341969906,-3.371945334332474,-0.33475417,-0.06627888,-0.08582657,348.84995,-100.58929,4.8413277
2878353707000.0,1.5330291328477508,8.457910303868674,-3.3447894277711168,-0.33841935,-0.07269296,-0.08735373,348.90024,-100.60074,4.8634458
2878358770000.0,1.5444138766181084,8.375794813720201,-3.317175377777112,-0.3213151,-0.073303826,-0.074830994,348.95102,-100.62195,4.893977
2878363769000.0,1.555654708952301,8.294717323052176,-3.289910389446076,-0.310625,-0.081855945,-0.059253927,349.0054,-100.64061,4.923736
2878368765000.0,1.5668887954379234,8.213688488609796,-3.2626617633804926,-0.29993483,-0.06994407,-0.03573562,349.05457,-100.666046,4.9596267
2878373720000.0,1.5780306886597526,8.133324622584578,-3.235636754942749,-0.29077184,-0.062002823,-0.029321533,349.1066,-100.69322,4.993838
2878378711000.0,1.5892535320644243,8.052376881851607,-3.208415399319585,-0.27305678,-0.0571159,-0.025045475,349.1566,-100.72767,5.0337353
2878383884000.0,1.6008856236156903,7.968477330096118,-3.1802013995923506,-0.2742785,-0.03970624,-0.0061086523,349.2012,-100.76199,5.079757
2878388726000.0,1.611773423208041,7.8899461819035634,-3.153792703153288,-0.26053402,-0.018936822,0.018325957,349.24338,-100.80529,5.1281204
2878393704000.0,1.622967034602242,7.80920928481506,-3.1266422506804146,-0.23487769,-0.0033597588,0.049480084,349.2828,-100.85419,5.1834135
2878398777000.0,1.6343742645345003,7.726931607247767,-3.0989736598015707,-0.22296582,0.017104227,0.086132,349.31592,-100.906525,5.247364
2878403772000.0,1.6456061024039326,7.64591899154727,-3.0717304878244707,-0.20738874,0.007330383,0.13041973,349.35458,-100.97078,5.320393
2878409689000.0,1.6589111644006154,7.5499526958315855,-3.039458646265212,-0.20525073,0.005497787,0.1994475,349.38773,-101.042366,5.410763
2878413731000.0,1.6680000710409049,7.484396541144616,-3.0174132206132724,-0.20066923,0.012217305,0.22113322,349.42053,-101.11703,5.498653
2878418711000.0,1.679198179667486,7.403627206572348,-2.990251859963432,-0.20341812,0.034513887,0.2742785,349.45377,-101.203674,5.6136966
2878423784000.0,1.690605409599744,7.321349529005056,-2.962583269084587,-0.19853121,0.064446285,0.33750305,349.48392,-101.29702,5.736438
2878428770000.0,1.7018170099234655,7.240482881981496,-2.935389183903842,-0.1872302,0.106901415,0.40500367,349.50647,-101.398766,5.87487
2878433728000.0,1.7129656489938652,7.160070359730632,-2.9083478132006477,-0.17256944,0.1459968,0.4831944,349.5246,-101.512665,6.032951
2878438785000.0,1.7243369010670822,7.078052182033451,-2.8807664877375454,-0.13530666,0.1908954,0.55863625,349.53177,-101.64375,6.208838
2878443789000.0,1.7355889764822252,6.996893597656016,-2.85347422896409,-0.103847094,0.2171626,0.6264423,349.53616,-101.78695,6.40244
2878448779000.0,1.746809571270707,6.915962075664928,-2.8262583274294104,-0.087964594,0.23243423,0.6908886,349.53418,-101.94562,6.6144934
2878453736000.0,1.7579559617249163,6.835565772155946,-2.799222410814699,-0.06505715,0.23640485,0.745561,349.5305,-102.1215,6.8397975
2878459448000.0,1.7708000574026337,6.742924318526068,-2.7680686573946405,-0.064751714,0.2415972,0.795652,349.52475,-102.30426,7.0786757
2878463856000.0,1.780711957568491,6.671432104310293,-2.7440270353575924,-0.065973446,0.2501493,0.84391034,349.51923,-102.49938,7.328478
2878468741000.0,1.791696447657015,6.592203550216814,-2.717383813113722,-0.073303826,0.26328292,0.8885035,349.5129,-102.69958,7.587331
2878473720000.0,1.802892307667406,6.511450434386427,-2.690227906552365,-0.07269296,0.2660318,0.93492925,349.50925,-102.90849,7.8555017
2878479407000.0,1.8156801879403712,6.419214449303599,-2.6592105053444035,-0.06963864,0.31398472,0.98837996,349.49124,-103.12397,8.136351
2878484416000.0,1.8269435064364643,6.337974771216754,-2.6318909761285294,-0.048258353,0.36163223,1.0467176,349.47473,-103.351395,8.426786
2878488787000.0,1.836772207803289,6.267082650450613,-2.6080511553653856,-0.010995574,0.40042216,1.0769554,349.448,-103.58596,8.72117
2878493737000.0,1.847902857944168,6.186799878134805,-2.581053417370061,0.00061086525,0.464563,1.1508701,349.4055,-103.83673,9.042648
2878498718000.0,1.859103215186939,6.106014324820654,-2.5538866026317364,0.03940081,0.5363397,1.2311989,349.35147,-104.106445,9.371393
2878503733000.0,1.870380025380173,6.024677334282517,-2.526534348884959,0.060170226,0.5873469,1.2938126,349.28793,-104.3833,9.712432
2878508775000.0,1.8817175482105388,5.942902437713566,-2.499034834749116,0.10140363,0.60231316,1.3451253,349.21786,-104.68346,10.068646
2878513863000.0,1.8931585073856485,5.860381479018044,-2.4712844325430128,0.11789699,0.6310238,1.3891076,349.13226,-104.99085,10.437483
2878518741000.0,1.9041272571608416,5.781266456117739,-2.44467938891853,0.093767814,0.6948592,1.4236214,349.0346,-105.30362,10.814272
2878523720000.0,1.9153231171712328,5.700513340287353,-2.4175234823571725,0.06566802,0.77946407,1.4376713,348.92407,-105.62032,11.193748
2878528750000.0,1.8834777669427711,5.65427112059488,-2.3942018,0.03023783,0.8753699,1.41904,348.79208,-105.92774,11.571109
2878533742000.0,1.6089811067018072,5.8072694362575294,-2.3942018,0.025350908,0.95233893,1.3836098,348.64117,-106.23166,11.944553
2878538787000.0,1.3300751048538977,5.960656673805601,-2.403215603641724,0.057726767,1.010982,1.2944235,348.48712,-106.58846,12.422966
2878543703000.0,1.0157485627087488,6.074957318286655,-2.66855607491546,0.082161374,1.0934488,1.1468995,348.29776,-106.923,12.874907
2878549167000.0,0.6663831790063297,6.201999369028006,-2.9634747761033555,0.1255328,1.2336423,0.94714653,348.04407,-107.17273,13.214831
2878553724000.0,0.4234849351766532,6.242615104327959,-3.276155427985171,0.19639318,1.4205672,0.7199047,347.74356,-107.39099,13.508018
2878558725000.0,0.1716088842045004,6.267389736684197,-3.639517679834469,0.30024028,1.629483,0.5002986,347.38678,-107.57772,13.75231
2878563696000.0,0.010447426,6.341587336363636,-3.967409890909091,0.4147775,1.8515326,0.3213151,346.96454,-107.71361,13.863024
2878568788000.0,-0.0123570540905349,6.49665769087168,-4.250185338496072,0.52564955,1.9459113,0.2098322,346.51694,-107.83193,13.935577
2878573663000.0,0.0437913881710367,6.7181919855586925,-4.491830530189593,0.65179324,2.146275,0.19883664,345.99988,-107.981964,13.94202
2878578716000.0,0.3444088587930617,7.174974420774506,-4.651899663945139,0.71929383,2.3600779,0.24556783,345.45917,-108.132126,13.943908
2878585191000.0,0.7679881746251153,7.770843341124236,-4.816212061213035,0.8381071,2.6484063,0.41630468,344.88458,-108.39593,13.991675
2878588719000.0,1.3623807498450198,8.195409487392142,-4.519015758825501,0.9651671,2.6847527,0.4605924,344.33102,-108.65927,14.021783
2878593793000.0,2.217241273276368,8.806024177347743,-4.09158547585658,0.9786061,2.6325238,0.5213735,343.8066,-109.07736,14.201491
2878598685000.0,2.9092095318999216,9.19537896618452,-3.6973588219116498,0.9663888,2.4767532,0.5571091,343.32007,-109.51024,14.387893
2878603715000.0,3.4082480627834246,9.27541358111806,-3.3207259702697423,0.85918194,2.2278256,0.5626069,342.8921,-109.92405,14.5767
2878608770000.0,3.847477593591933,9.249592789623485,-2.961631977750671,0.7079928,1.9181169,0.56016344,342.67227,-110.572975,15.043268
2878613964000.0,4.179171366983818,9.01902514450679,-2.6299381198828984,0.5513059,1.5824465,0.5830709,342.51093,-111.15703,15.476713
2878618865000.0,4.49215388207693,8.80146410701797,-2.316955525079288,0.40530908,1.1814134,0.6392705,342.41135,-111.82189,16.004986
2878623730000.0,4.751386677340341,8.365890726695755,-1.948459362385958,0.33444872,0.6450737,0.69974613,342.42044,-112.430084,16.479277
2878628645000.0,5.008115151606505,7.903779346291154,-1.570368308290361,0.36926803,0.06078109,0.79504114,342.53827,-113.00912,16.919384
2878633746000.0,4.896477070343653,7.353063890802525,-1.354274229756537,0.44868052,-0.5006041,0.915687,342.67105,-113.56996,17.392853
2878638754000.0,4.723490233593829,6.800466539675384,-1.17167685987376,0.5491679,-1.01312,0.9950995,342.9459,-114.13042,17.820436
2878643796000.0,4.267740049238292,6.266135121873237,-1.2448803739890917,0.61422503,-1.4052955,1.0094548,343.27808,-114.71386,18.288355
2878648742000.0,3.782222708012037,5.744983418074102,-1.3517832291517773,0.59986967,-1.6804903,0.9935723,343.7129,-115.293365,18.719822
2878653718000.0,3.430882532079794,5.374366376252745,-1.6438615646750023,0.56230146,-1.8429805,0.95478237,344.2142,-115.86802,19.11581
2878658743000.0,3.12313487960294,5.052839134914575,-2.002134951856448,0.48899764,-1.8661933,0.9285152,344.73755,-116.41542,19.483837
2878663747000.0,2.93327783403426,4.919174119509694,-2.4982155348446,0.4016439,-1.7235563,0.89827734,345.28482,-116.92761,19.761503
2878668722000.0,2.806212486306288,4.88496424567648,-3.065122321694533,0.3200934,-1.6013832,0.8597928,345.82593,-117.40432,20.013151
2878673780000.0,2.76119279825904,5.001427431968625,-3.50363446741917,0.27580565,-1.2922854,0.8481864,346.3082,-117.92259,20.233784
2878678742000.0,2.7521015731777307,5.178707436483643,-3.8763769266118233,0.2593123,-0.9468411,0.8197812,346.72372,-118.39989,20.442158
2878683777000.0,2.759072618421754,5.387601201546254,-3.945922636470275,0.21991149,-0.6747007,0.782213,347.12274,-118.86154,20.61333
2878688814000.0,2.7762194562783256,5.614796937430019,-3.821607972487337,0.16920967,-0.5662721,0.7458665,347.45776,-119.297226,20.785776
2878693773000.0,2.85659547210856,5.84559502605428,-3.7096590522755744,0.08582657,-0.59040123,0.70554936,347.78992,-119.696106,20.924698
2878698788000.0,3.047102025553236,6.091248152776617,-3.614405880250522,0.0012217305,-0.6881397,0.6771441,348.10352,-120.06842,21.05326
2878703746000.0,3.229666488599318,6.400925569692949,-3.738573233064822,-0.073303826,-0.8231409,0.6585127,348.40976,-120.41641,21.156338
2878708845000.0,3.4101491018195604,6.803540618802122,-4.141188427141774,-0.12675454,-0.9059132,0.6337727,348.71732,-120.73149,21.238417
2878713768000.0,3.5420667847821763,7.1196040826536695,-4.400609377541278,-0.17470746,-0.9251554,0.6084218,349.0088,-121.04914,21.326635
2878718774000.0,3.5945192484782176,7.300803258265367,-4.414914567754128,-0.20341812,-0.8689558,0.593761,349.2914,-121.34186,21.403778
2878723643000.0,3.6864136890942696,7.468365082973916,-4.421495007660711,-0.22815818,-0.7620544,0.56596667,349.58688,-121.62425,21.462025
2878728776000.0,3.8782389277264326,7.624854323700965,-4.411398895307045,-0.24678956,-0.6435465,0.54336464,349.85318,-121.88676,21.52019
2878733748000.0,4.090789349130226,7.757116037212878,-4.374068642095147,-0.2864958,-0.5180137,0.5360342,350.08136,-122.13452,21.583553
2878738809000.0,4.351646616511292,7.859595620643921,-4.2902219047573285,-0.32498032,-0.38453966,0.5128214,350.26236,-122.35918,21.647873
2878743662000.0,4.610068918425528,7.941631874362309,-4.170094731879564,-0.35735616,-0.2501493,0.49449542,350.40057,-122.56995,21.753992
2878748772000.0,4.903781975842753,7.985688692407722,-3.9400192948484554,-0.3848451,-0.19761491,0.4633413,350.51514,-122.75812,21.853292
2878753675000.0,5.200140162203519,7.991214877964804,-3.722054849387911,-0.37965274,-0.17134771,0.41691554,350.57742,-122.94791,22.007158
2878758763000.0,5.544993279265493,7.902671707345065,-3.5030267168706963,-0.37507126,-0.1731803,0.3555236,350.62396,-123.1165,22.14777
2878763733000.0,5.856112614269535,7.792836948213734,-3.308734129321528,-0.37598756,-0.15974127,0.30573806,350.62393,-123.28038,22.34854
2878768768000.0,6.069581788674971,7.589296567795738,-3.1895884977967675,-0.3848451,-0.15760323,0.27397305,350.6202,-123.430824,22.53169
2878773698000.0,6.230851375802509,7.393764649177123,-3.091031907137038,-0.4025602,-0.124311075,0.25870144,350.56522,-123.60026,22.794992
2878778775000.0,6.254619338479713,7.203620368665472,-3.043495816327196,-0.45478916,-0.081855945,0.22693644,350.49982,-123.74809,23.04116
2878785226000.0,6.264634667670647,6.955309823917306,-2.990182527303511,-0.528093,-0.020158553,0.18784106,350.39865,-123.9227,23.340193
2878788708000.0,6.145773702726786,6.7799899448404926,-3.005040136285867,-0.65668017,-0.01160644,0.18234327,350.30032,-124.07341,23.631655
2878793699000.0,5.9754017681964005,6.528691404785244,-3.0263366114239885,-0.7021896,-0.010995574,0.14782938,350.1799,-124.237595,23.930567
2878798730000.0,5.752723230674088,6.3224218045763765,-3.096696240445269,-0.7883216,-0.018020526,0.10476339,350.0572,-124.363754,24.219349
2878803682000.0,5.493653802514945,6.156226365697795,-3.204234417563389,-0.8588765,-0.018325957,0.04520403,349.92572,-124.4725,24.489563
2878808731000.0,5.318681530633733,6.035323034737257,-3.296218642452273,-0.93828905,0.010995574,0.012217305,349.81976,-124.57706,24.738914
2878813775000.0,5.199843411483959,5.945006050285377,-3.377028764003149,-0.98899084,0.03573562,-0.031154128,349.70563,-124.65834,24.964901
2878818735000.0,5.102623771355799,5.892323804565048,-3.4921739465321315,-1.0390818,0.056199603,-0.06688975,349.61935,-124.72199,25.144764
2878823726000.0,5.018340605721003,5.864229383424766,-3.6326456610893416,-1.0861185,0.070554934,-0.103847094,349.5218,-124.76695,25.31219
2878828661000.0,4.964085715117313,5.874077297902596,-3.7804461022396016,-1.1322387,0.10781772,-0.1459968,349.43527,-124.802,25.454367
2878833749000.0,4.933772277506221,5.917382273373622,-3.940674511482404,-1.1539245,0.122783914,-0.17592919,349.34784,-124.82753,25.58681
2878838922000.0,4.88682751647503,5.993856633773811,-4.081180547966364,-1.1643091,0.14782938,-0.2012801,349.2718,-124.82526,25.694422
2878843778000.0,4.811008539231165,6.129532790423889,-4.168971061094903,-1.1713341,0.14813483,-0.22388211,349.1958,-124.815094,25.792063
2878849096000.0,4.715926714011863,6.289857997575862,-4.252763258574745,-1.1447614,0.14019357,-0.25167647,349.1343,-124.79468,25.864244
2878853791000.0,4.344873797094473,6.711157585042551,-4.032450595461188,-1.1304061,0.11301007,-0.2864958,349.0756,-124.76596,25.925228
2878858791000.0,3.949716271090862,7.159825942302072,-3.797825821112353,-1.102001,0.0888809,-0.3286455,349.0415,-124.7251,25.944954
2878863863000.0,3.666722685997932,7.550409883391934,-3.514991147631851,-1.0821478,0.0290161,-0.37568212,349.0211,-124.67798,25.94672
2878868729000.0,3.454682031023785,7.89256622099276,-3.2210258222337123,-1.0482447,-0.008857546,-0.39920044,348.9994,-124.63594,25.943481
2878874255000.0,3.3480224185595566,8.245802935595568,-2.8057788872576177,-1.035722,-0.12034045,-0.514654,349.00983,-124.43712,25.787937
2878878771000.0,3.30095692390186,8.523916917590027,-2.4420913070439254,-0.96944314,-0.1518,-0.5561928,349.01578,-124.269806,25.652918
2878883733000.0,3.273271468736181,8.755110413195366,-2.010898970451932,-0.95233893,-0.19730948,-0.6273586,349.0304,-123.97786,25.423521
2878888992000.0,3.2554544027770405,8.964461124259309,-1.5387464899796588,-0.93676186,-0.2489276,-0.6899723,349.05365,-123.69629,25.184984
2878893934000.0,3.214059056774329,9.155071782298656,-1.0843765869966444,-0.9236283,-0.27947086,-0.74372846,349.03943,-123.33689,24.919432
2878898785000.0,3.145854536000419,9.335326925125838,-0.6264312396895975,-0.93523467,-0.31764993,-0.786489,349.03906,-122.97096,24.637863
2878903767000.0,3.0358036926309726,9.437951520149683,-0.1435032402216465,-0.95630956,-0.34605515,-0.8032878,348.99774,-122.544815,24.355448
2878908751000.0,2.889249607810401,9.465430470830936,0.3511164899875263,-0.9492846,-0.3417791,-0.8032878,348.9592,-122.12285,24.0695
2878914010000.0,2.603986428114018,9.481039,0.9248816854822336,-0.947452,-0.34116822,-0.77579886,348.90027,-121.64984,23.782896
2878920164000.0,2.091952662221789,9.481039,1.667043073883249,-0.93309665,-0.36285394,-0.7495316,348.8517,-121.18732,23.497633
2878923770000.0,1.7469383724782068,9.411484713574096,2.076139594396015,-0.9129381,-0.38820487,-0.72356987,348.77795,-120.68046,23.215027
2878928768000.0,1.2154375097447074,9.232661501867996,2.612607777210461,-0.8689558,-0.419359,-0.6954701,348.7213,-120.19392,22.940025
2878933736000.0,0.7220415948429942,9.115373150479844,3.1003212232053743,-0.82863873,-0.43676865,-0.67347896,348.65512,-119.62635,22.62057
2878938726000.0,0.2680072108353166,9.069511123608445,3.5360108137044146,-0.788627,-0.41996986,-0.64751714,348.598,-119.0806,22.312449
2878943671000.0,-0.1564640338240833,9.109160339310758,3.9059701168102583,-0.75502944,-0.37659842,-0.6227771,348.54105,-118.46472,21.951427
2878948784000.0,-0.5489001302805049,9.305378757363254,4.175769942215989,-0.7333437,-0.30024028,-0.57971114,348.481,-117.869965,21.608904
2878953639000.0,-0.9003522198808389,9.54835491611058,4.328570762535748,-0.7324274,-0.17165314,-0.52381694,348.40363,-117.203964,21.220005
2878960155000.0,-1.3227140165138227,10.006409217731171,4.292878363145854,-0.7333437,0.028710667,-0.4633413,348.29492,-116.55891,20.85804
2878963715000.0,-1.5147666818005123,10.25656801157346,4.250893476950261,-0.7333437,0.14110987,-0.4129449,348.19785,-115.851,20.440025
2878968750000.0,-1.697947757381394,10.610150097005036,4.140132640392261,-0.72784597,0.34880406,-0.3894266,348.02524,-115.16038,20.056355
2878973991000.0,-1.8763665422636968,10.959992336845271,4.024960017850693,-0.7415904,0.58062744,-0.33933565,347.86026,-114.42586,19.619423
2878978766000.0,-1.866042365562914,11.021937253311258,3.92171817897351,-0.77946407,0.799928,-0.3173445,347.64597,-113.69877,19.198017
2878983654000.0,-1.8554738680313063,11.085348091360624,3.816033130087297,-0.83199847,1.0207558,-0.28191432,347.4068,-112.949135,18.748222
2878990158000.0,-1.7071253696803943,10.878689616473617,3.4949715364435865,-0.929126,1.2089024,-0.26145032,347.12158,-112.2029,18.3166
2878993759000.0,-1.5480840223294725,10.597593795366796,3.2138751746460748,-1.056186,1.3649784,-0.25534168,346.79037,-111.46472,17.905949
2878998776000.0,-1.2887996563003734,10.081522153037154,2.6790452178985653,-1.1994339,1.5036448,-0.25289822,346.42825,-110.734764,17.506365
2879003775000.0,-0.9923488344800472,9.441564166699427,2.001443346471397,-1.3041973,1.6035212,-0.26816985,346.03873,-110.00757,17.112597
2879008762000.0,0.0296110679424217,9.8711183957663,0.9709300253175276,-1.3845261,1.6823229,-0.2284636,345.634,-109.36612,16.78951
2879013765000.0,1.903929226655377,11.550702171718882,-0.4774067028789162,-1.464244,1.6606371,-0.17745635,345.23593,-108.72833,16.465965
2879018725000.0,3.9615715928701434,13.220782864789635,-1.980445962370196,-1.568091,1.4062119,-0.18234327,344.91058,-108.207535,16.202847
2879023779000.0,8.065386263847554,14.972158616208114,-4.187801103639867,-1.6636915,0.788627,-0.24740042,344.70425,-107.691055,15.922335
2879028730000.0,11.637115769472857,16.47799974429583,-4.462234607395751,-1.5103643,-0.38820487,-0.1020145,344.76447,-107.6254,15.952238
2879034437000.0,13.986069934992132,17.386405070810387,2.665254979740362,-0.61086524,-2.3173172,0.005192355,345.22723,-107.615364,15.900903
2879038928000.0,15.598488531725636,18.010726694010675,7.559507963036173,0.8268061,-5.950133,-0.06261369,346.5296,-108.3532,16.26157
2879043794000.0,16.60253699031429,18.402214140146278,10.613104752717929,2.0164661,-9.808663,0.0018325958,348.44485,-109.186104,16.515577
2879048728000.0,16.744596961133798,18.489159294979583,13.390144957562654,2.740036,10.006278,-0.17287487,343.84705,-109.77816,17.868198
2879053779000.0,12.46857918311314,17.013467725198176,14.621823764833051,2.368019,-7.3025885,-0.23182335,351.39038,-110.45563,17.341312
2879060870000.0,6.222297560208249,14.583244163689262,15.867119091670068,1.1667526,-1.3335189,-0.5122105,346.07855,-110.89891,18.82782
2879064027000.0,1.966207604491629,11.327134957023276,13.48753582033483,-0.7858781,4.4755044,-1.1893547,345.9186,-111.08236,19.263975
2879068755000.0,-4.407816250632911,6.450706598101267,9.923814025316457,-2.8096747,6.955617,-1.4587462,345.16113,-110.552475,19.229586
2879073780000.0,-8.695102573470825,3.294735607853119,7.614539879577465,-3.5121698,9.930531,-1.8133535,342.50497,-109.86376,19.17335
2879078766000.0,-11.971306713933602,0.9600797017002014,5.904380503521127,-4.2928557,9.963212,-2.2156084,340.0242,-109.084854,18.899809
2879083730000.0,-9.91263903362402,0.8599272196789217,2.124128148528391,-4.618752,9.963212,-2.7171285,337.1679,-107.88054,17.877327
2879089103000.0,-5.522214734555544,1.65540482683183,-2.811912293687445,-4.7497826,9.963212,-2.7281241,334.35947,-73.08456,16.78944
2879093791000.0,-2.736797857449345,1.976195203545888,-4.174566124642432,-4.394259,9.158092,-2.5066855,331.9849,-74.25408,15.185323
2879098785000.0,-0.1146020274135883,2.1947115227155343,-4.654351976350815,-3.4999523,6.896974,-2.21683,330.07022,-75.167145,13.577033
2879103712000.0,1.2884748670588235,1.6390986465882351,-5.3838555517647055,-2.5937338,3.9370265,-2.0732768,328.50604,-75.69011,12.448037
2879108732000.0,2.192569797896613,0.7307188907237074,-6.240817604171123,-1.9764545,1.5140295,-2.0393736,327.44687,-76.15665,11.415123
2879113895000.0,3.122193672687225,0.0906304341164953,-7.501466401517376,-1.5238034,-0.0693332,-2.05098,326.898,-76.4379,10.8212595
2879118736000.0,3.993595851718061,-0.1907598682643171,-9.094498418237883,-1.180497,-0.7696902,-2.053729,326.7928,-76.78486,10.304438
2879123770000.0,4.751141081684715,-0.5012138091253645,-9.818652902384423,-1.0439687,-1.0528263,-2.0350976,326.96317,-77.11341,9.978558
2879128938000.0,5.307704709006664,-0.8464893958309039,-9.174482204341942,-1.0885619,-1.3991868,-2.0418172,327.3515,-77.4805,9.679127
2879134393000.0,5.463305848911135,-0.7186187472462242,-8.732934521074815,-1.2583824,-1.7220291,-2.0207422,327.77316,-77.86837,9.544511
2879139037000.0,5.310995412978574,-0.2851193963716192,-8.51423221654373,-1.4596626,-1.7873917,-1.953547,328.21912,-78.23187,9.424229
2879143682000.0,4.93997861704077,0.1738039106367384,-8.366207412734768,-1.6035212,-1.5283848,-1.9639318,328.63965,-78.46992,9.369291
2879148783000.0,3.628624612963812,0.7824869909628949,-8.495999939257901,-1.6945401,-1.1227703,-2.071444,329.0409,-78.68822,9.305319
2879153944000.0,2.312860801575782,1.414337916911547,-8.57016821950498,-1.7214183,-0.86284715,-2.2162192,329.42517,-78.92185,9.185537
2879158738000.0,1.2444211517444042,2.2247221817375014,-7.841275052756139,-1.7363845,-0.8185594,-2.371379,329.7599,-79.17056,9.0292225
2879163987000.0,0.1035488626073805,3.1349645438596494,-7.061501438354507,-1.7162259,-0.6462954,-2.5320365,330.04608,-79.67649,8.579356
2879168738000.0,-0.340788993385187,4.424724110275689,-6.727265159882465,-1.5986344,-0.5021312,-2.615725,330.32312,-80.21478,8.109919
2879173719000.0,-0.806637627504105,5.776922047619047,-6.376848215435139,-1.5170839,-0.14844026,-2.74981,330.5349,-80.91342,7.3743978
2879178786000.0,-0.3975605069666607,6.263530253780288,-5.718168515285115,-1.3277156,0.23945917,-2.83808,330.6858,-81.65003,6.6285863
2879184827000.0,0.5826498308416832,6.347849197895791,-4.764307767034068,-1.1255192,0.6908886,-2.8625145,330.70773,-82.40935,5.858543
2879188804000.0,1.339653750989957,6.079980784074605,-3.813231558249641,-0.8863655,0.7635816,-2.845105,330.76886,-83.27189,5.0101867
2879193766000.0,2.367194728555032,5.505337147468744,-2.386361980815741,-0.82741696,0.7415904,-2.771801,330.71725,-84.10725,4.1754904
2879198660000.0,3.4038541263381816,4.934200800385871,-0.9335941361828436,-0.77213365,0.57818395,-2.6734517,330.67487,-84.74882,3.571956
2879203782000.0,4.510408685297318,4.332390125704958,0.6291716973582664,-0.84391034,0.2678644,-2.5573874,330.67645,-85.339806,3.008156
2879208816000.0,5.717692791578743,3.8748522389604103,1.3085333343916368,-0.9761627,-0.11484267,-2.4120014,330.79834,-85.60002,2.8152966
2879214004000.0,7.073904388210241,3.528585654544574,1.2075388281482915,-1.1850786,-0.39950588,-2.2134702,330.97623,-85.79224,2.6746366
2879218788000.0,8.198293741906019,3.170875643448696,0.8485412220034507,-1.3976597,-0.44593164,-1.9877555,331.24405,-85.60743,2.9256365
2879223787000.0,9.228374399269258,2.7530126175276566,0.168299275685578,-1.6355917,-0.30787608,-1.815186,331.51605,-85.35188,3.2006102
2879228783000.0,10.00493959375,2.7794685499410376,-0.3551926253282232,-1.8967366,-0.07422013,-1.6917913,331.53644,-84.84929,3.4994447
2879233747000.0,10.50948365625,3.27466925807783,-0.7102422033667453,-2.1569653,0.100792766,-1.7195857,331.53387,-84.29776,3.8002677
2879238744000.0,10.690631621995848,4.0212443339729,-0.8429039284462467,-2.3499987,0.14782938,-1.858863,331.42172,-83.64604,4.2152123
2879243783000.0,10.456765905746217,5.090346004153892,-0.6901751226921176,-2.4901922,0.12186762,-1.8161024,331.28726,-82.926956,4.6664624
2879248748000.0,9.829290994781212,6.293626716178242,-0.181494165772782,-2.6175575,0.030848695,-1.779145,331.1487,-82.19523,5.143187
2879253780000.0,8.64435801846648,7.720382542753914,0.8293260250421518,-2.8081474,-0.22113322,-1.7968601,331.0782,-81.43331,5.611032
2879258754000.0,7.455232151146789,9.360836603211007,1.8718439460091745,-3.0647109,-0.4184427,-1.8658879,331.04578,-80.683784,6.0131016
2879263867000.0,6.208615320527523,11.359916014143732,3.00240951456422,-3.2015448,-0.9859365,-1.9205604,331.20276,-79.934975,6.4239707
2879268916000.0,4.977602533944954,13.333972721712538,4.11882366587156,-3.5188892,-1.7357736,-2.0317378,331.5312,-79.21938,6.651615
2879273787000.0,3.1511879111650485,14.8100760407767,4.073383267087379,-3.8997638,-2.5250115,-2.228742,332.03317,-78.49966,6.8554087
2879278736000.0,1.1725359089320384,16.22734279262136,3.811096741669903,-4.2449026,-2.950479,-2.526844,332.6476,-77.76839,7.0080395
2879284457000.0,-1.4057372776640342,17.22904001881642,1.668417535273472,-4.476115,-2.7433958,-3.1380148,333.37823,-77.093735,6.675618
2879289040000.0,-3.536718115969581,17.888017958174906,-0.4625633923954368,-4.5500298,-1.8674151,-3.28279,334.02585,-76.33037,6.381577
2879293796000.0,-5.034187907961876,16.14544298478868,-1.9044375087898333,-4.5372014,-0.5491679,-3.4874296,334.60526,-75.77936,5.499175
2879298780000.0,-6.348427970347549,13.452630057860787,-3.140558325426013,-4.433049,0.9300423,-3.6529741,334.90558,-75.155106,4.548892
2879303771000.0,-6.733062323212684,10.623724003739156,-3.535019142446904,-4.287358,2.3811526,-3.6948185,334.86502,-75.05674,3.2425253
2879308740000.0,-6.566988869957124,7.72930132226543,-3.4306301090238307,-4.0323215,3.5665367,-3.6068537,334.51315,-74.87981,1.8954808
2879314860000.0,-5.39890715416086,4.93638337288473,-2.218460723810472,-3.6459491,4.2366557,-3.5063665,333.9895,-74.58787,0.27064893
2879318793000.0,-4.364097309396775,3.369171351682261,-1.1199125307107307,-3.1535919,4.2357397,-3.4016032,333.33282,-74.25314,-1.3187809
2879323777000.0,-3.016990097191011,1.9921910599157304,0.8356301588202246,-2.7116308,3.6160169,-3.2409456,332.66702,-73.65726,-2.8879077
2879328774000.0,-1.6439346096709468,0.9936052480758426,3.149660670204655,-2.4346035,2.5042422,-3.0433307,332.13254,-73.06439,-4.3572516
2879333777000.0,-0.8121689512114014,0.0344533822684084,5.1975692159144895,-2.375655,1.1554517,-2.888171,331.8767,-72.40682,-5.449271
2879338765000.0,-0.3157559639429929,-0.8969119313420428,7.074483120427553,-2.4367414,-0.02565634,-2.7586675,331.88657,-71.78434,-6.3992004
2879343723000.0,-0.820086252510519,-1.9027221148667604,8.003067677419354,-2.6279423,-0.73853606,-2.6887233,332.0895,-70.64385,-7.200906
2879349691000.0,-2.25152236432779,-3.1795631594670404,8.34661270967742,-2.905275,-1.0088439,-2.6688702,332.50348,-69.47434,-7.9075212
2879353783000.0,-3.436159289578164,-3.595281594761511,8.065778893851668,-3.1905491,-1.169807,-2.5937338,333.1412,-68.093704,-8.395838
2879358781000.0,-4.971389864764268,-3.903207405569341,7.498315270747174,-3.3954945,-1.2379184,-2.5421157,333.83298,-66.68182,-8.846862
2879363842000.0,-5.923788623961182,-3.981384712351125,7.004189422629025,-3.454443,-1.3310753,-2.418721,334.6154,-65.12958,-9.403368
2879368727000.0,-6.084752541561535,-3.762639066784296,6.628607048786943,-3.483459,-1.4132367,-2.2800546,335.40527,-63.568226,-9.909266
2879373720000.0,-6.189281150298582,-3.4978069611338944,6.322925071947622,-3.3637295,-1.45783,-2.1697934,336.2205,-62.04822,-10.620083
2879378717000.0,-5.94826583479387,-2.99511796490395,6.4675342756313405,-3.1267138,-1.5231925,-2.060143,337.04227,-60.599644,-11.256856
2879384340000.0,-5.677057285847902,-2.4294545216778185,6.63025942118138,-2.7476718,-1.7009543,-1.890017,337.87842,-59.257545,-11.865188
2879388730000.0,-5.3522870826311495,-1.878570049868624,6.926894074929781,-2.2293527,-2.014939,-1.641395,338.7345,-58.062584,-12.377246
2879393707000.0,-4.8081505497961405,-1.0839579675962672,7.52717159164628,-1.647809,-2.3961189,-1.2922854,339.60522,-57.039463,-12.7695265
2879398725000.0,-4.404181963699002,-0.3015756114980258,8.208069371603314,-1.040609,-2.787378,-0.9086621,340.52237,-56.095123,-13.01665
2879403711000.0,-4.751669532019819,0.3786127097282651,9.276408555779206,-0.45937067,-3.051272,-0.5345071,341.43924,-55.34905,-13.132636
2879410178000.0,-5.2023719195711084,1.2608385166617635,10.662078331965628,-0.080634214,-3.0592132,-0.12461651,342.31985,-54.709003,-13.010764
2879413844000.0,-7.163984941757287,2.6844343856459334,12.517915369290996,-0.2049453,-2.7333164,-0.01985312,343.15646,-54.103527,-12.880629
2879419667000.0,-10.87038178526316,5.26532840631579,15.836207768421051,-0.43035457,-2.094657,0.1020145,343.83435,-53.622917,-12.698948
2879423646000.0,-13.048798977754348,6.403968830574592,17.22551816889826,-1.0775663,-1.4181237,0.056505036,344.44904,-52.874775,-12.607193
2879428715000.0,-14.911773783552976,6.2453088633632055,16.73418376657881,-1.861001,-1.1099422,-0.106901415,344.98495,-52.041115,-12.555638
2879433712000.0,-16.343486773628317,5.778340149663717,15.647212027964605,-2.46759,-1.0250319,-0.43401974,345.5011,-50.86178,-13.044054
2879438738000.0,-17.11872681380531,4.798641273061947,13.564287292743364,-2.7284296,-0.8145888,-0.8567385,345.95444,-49.598175,-13.617298
2879443761000.0,-17.74492619184553,3.8475692371591945,11.582319728722965,-2.7094927,-0.3830125,-1.258077,346.41113,-48.26072,-14.545738
2879448725000.0,-17.370663546283254,3.0951038455954256,10.29012783595757,-2.4740043,0.18325958,-1.5803084,346.8572,-46.929195,-15.547193
2879453696000.0,-16.995873133090246,2.3415773626253418,8.99611375478578,-2.1233675,0.46211955,-1.7599027,347.3451,-45.747627,-16.7899
2879459153000.0,-15.60245831161208,1.9579107746150572,8.457457717269248,-1.7342464,0.86498517,-1.8020525,347.72522,-44.639584,-18.14322
2879463798000.0,-14.103881338409188,1.772480754495959,8.279596103275203,-1.5238034,0.9605856,-1.8240436,348.15717,-43.575157,-19.470741
2879468718000.0,-12.43412773066506,1.7259578502256996,8.185117389407162,-1.1316279,0.8396343,-1.7684549,348.5559,-42.747604,-20.799253
2879473784000.0,-10.565315953756643,1.9498260113050456,8.25811779386097,-0.7706065,0.6462954,-1.6441438,348.95447,-41.97432,-22.086588
2879478655000.0,-9.034586793357937,2.116158261493966,8.41507668864067,-0.5036584,0.42119157,-1.4993688,349.35092,-41.274406,-23.100525
2879484227000.0,-7.826531959409594,2.2066292700907546,8.771639121272564,-0.344528,0.16035213,-1.3570372,349.78345,-40.65544,-24.029518
2879488716000.0,-7.067401278862624,2.240306787529976,9.123254802672149,-0.24251351,-0.12186762,-1.2211196,350.20102,-40.12837,-24.65105
2879493796000.0,-6.575732678314491,2.211140034532374,9.631590249743065,-0.19730948,-0.419359,-1.0833695,350.6549,-39.650238,-25.182192
2879498927000.0,-6.081684113078086,2.181049532130982,10.161126162015114,-0.15454891,-0.68233645,-0.9211848,351.10342,-39.21721,-25.48171
2879503775000.0,-5.651315649763225,2.1436261959899245,10.890881802921914,-0.17501289,-0.8885035,-0.72692966,351.56882,-38.810974,-25.695404
2879509051000.0,-5.215913623505655,2.0838567884491117,11.694745234046849,-0.24220806,-1.0763446,-0.5421429,352.04797,-38.39169,-25.729628
2879513717000.0,-5.098605370759289,1.8763115631663971,12.484319214862682,-0.33322698,-1.2449434,-0.37812558,352.5251,-37.99469,-25.689606
2879518750000.0,-4.990058284700159,1.642257888937649,13.308625555698969,-0.4361578,-1.3591752,-0.25717425,352.99414,-37.559444,-25.499903
2879523722000.0,-5.150795018020254,1.2593263458002384,13.715194664118348,-0.5513059,-1.4419475,-0.19058995,353.45856,-37.122726,-25.260323
2879528899000.0,-5.308781298866039,0.862647050543917,14.078281096098404,-0.6041457,-1.4321736,-0.16584991,353.91852,-36.614895,-24.947521
2879533775000.0,-5.34916831750913,0.5126251477032482,13.723772092446666,-0.6218608,-1.3344351,-0.18784106,354.36038,-36.099403,-24.633738
2879539116000.0,-5.388682504900662,0.1557201446145695,13.341230430993376,-0.61819565,-1.0983357,-0.24404067,354.79395,-35.504353,-24.3657
2879543741000.0,-5.318283674878587,0.433405250795585,13.137855397880791,-0.56779927,-0.8396343,-0.28985557,355.19492,-34.926407,-24.127869
2879548687000.0,-5.242998785518764,0.7303632043461368,12.920365038145697,-0.4831944,-0.64599,-0.33017266,355.58615,-34.338196,-23.972878
2879553714000.0,-5.061623237530817,1.1233051065731083,12.517673017447374,-0.35643986,-0.5522222,-0.30695978,355.93552,-33.78652,-23.849955
2879558897000.0,-4.826289432154372,1.5704391844339085,12.018765281244074,-0.29016098,-0.34238997,-0.22571471,356.21674,-33.253952,-23.794067
2879563761000.0,-4.630016106754328,2.097254518919686,11.656354355595496,-0.095294975,-0.102319926,-0.17715092,356.46368,-32.843258,-23.760075
2879568742000.0,-4.445001854063003,2.7064475934537886,11.35401411096396,-0.037873644,0.118202426,-0.06841691,356.63788,-32.44231,-23.746504
2879573720000.0,-4.2553800633209775,3.286534226518392,11.083438333333334,0.058948494,0.2874121,0.04734206,356.74042,-32.19905,-23.748787
2879578713000.0,-4.059948936897634,3.8364685427716,10.847103,0.13103059,0.3827071,0.1695151,356.7875,-31.984026,-23.766266
2879583750000.0,-3.93905232814451,4.291022880296345,10.537609981936235,0.12064589,0.39950588,0.28313604,356.7631,-31.893135,-23.75751
2879588962000.0,-3.94736237252976,4.586029542745359,10.093022433780073,0.067500606,0.3753767,0.35460728,356.70972,-31.82173,-23.748075
2879594077000.0,-3.962932394083694,4.869159191438191,9.665863403078404,-0.02443461,0.3231477,0.3998113,356.6059,-31.850508,-23.687826
2879598727000.0,-4.155712246176046,4.972688977392977,9.49807348003848,-0.10293079,0.16615535,0.4392121,356.50977,-31.877274,-23.586718
2879603700000.0,-4.361883042833092,5.083410187189354,9.318628472021803,-0.19120082,-0.03970624,0.41996986,356.43234,-31.964851,-23.480305
2879608723000.0,-4.678543940151117,5.078759659145765,9.096863948682968,-0.24220806,-0.22724187,0.36102137,356.3807,-32.03951,-23.342375
2879613724000.0,-5.115813819708259,4.943055380260258,8.830481057403714,-0.27488935,-0.35185838,0.2959642,356.36105,-32.091255,-23.1772
2879618699000.0,-5.374119288336933,4.675829340172786,8.604129820734341,-0.30482176,-0.44226643,0.24678956,356.38702,-32.160576,-23.029942
2879623722000.0,-5.496906636756332,4.302744609758492,8.405780989200863,-0.2883284,-0.46578476,0.2302962,356.42975,-32.22697,-22.87752
2879628816000.0,-5.53448698501292,3.937024276571921,8.267530807924203,-0.26633725,-0.4569272,0.23732115,356.52634,-32.267143,-22.795954
2879633763000.0,-5.498214382256675,3.5924353078954923,8.185917617427505,-0.2144137,-0.43493605,0.20586158,356.6362,-32.310455,-22.723656
2879638769000.0,-5.31120766984456,3.3330761218652847,8.113609421243522,-0.11636983,-0.39675698,0.14049901,356.7827,-32.31664,-22.704298
2879643830000.0,-4.934511723274611,3.182397774704663,8.05333815580311,0.014049901,-0.33017266,0.063224554,356.92883,-32.338284,-22.70589
2879648770000.0,-4.495699510717101,3.217562800147754,8.108466905043342,0.15668693,-0.23884831,0.007941248,357.091,-32.328827,-22.742186
2879653775000.0,-3.985785456737589,3.4205840287234044,8.268995673758864,0.2968805,-0.19058995,-0.039095376,357.26474,-32.342518,-22.796778
2879658751000.0,-3.4674330950412404,3.7269356997316905,8.505281962436648,0.35460728,-0.10476339,-0.053145275,357.40988,-32.3539,-22.83955
2879663767000.0,-2.932784070217629,4.147017200993739,8.825116139123521,0.43035457,-0.020158553,-0.049785517,357.5529,-32.40003,-22.8993
2879668989000.0,-2.482740604339752,4.561349450102629,9.150510681849282,0.47036624,0.0421497,-0.030848695,357.6475,-32.48052,-22.87748
2879673742000.0,-2.1713048204965304,4.917275794741473,9.43970130143681,0.47128254,0.07880162,0.0106901415,357.72375,-32.571243,-22.865847
2879678770000.0,-1.960125484918679,5.23036155495318,9.544243580581568,0.4184427,0.077579886,0.05955936,357.744,-32.71907,-22.736721
2879683730000.0,-1.908621226269098,5.455107490882209,9.380366060620997,0.32253686,0.043676864,0.10140363,357.75317,-32.85675,-22.604172
2879688919000.0,-1.9337777789349344,5.519924658401417,9.140141847032188,0.18325958,0.022907447,0.13041973,357.71976,-33.019764,-22.383488
2879693789000.0,-2.0623232961118223,5.354652083443253,8.82336941569052,0.03848451,0.04153884,0.13255776,357.67932,-33.15405,-22.16494
2879698680000.0,-2.180320275757088,5.181911130895619,8.551596222656249,-0.0842994,0.06688975,0.1432479,357.6323,-33.319275,-21.928808
2879703779000.0,-2.2825783059600515,4.989194064497423,8.354946117187499,-0.16218472,0.109650314,0.13897185,357.57904,-33.45209,-21.706959
2879709928000.0,-2.4183590291832227,4.765022562419426,8.119086307284768,-0.1966986,0.16401732,0.13500121,357.53278,-33.55852,-21.540281
2879713797000.0,-2.578675186490066,4.673413285748344,7.978400755629138,-0.21594086,0.21135938,0.13500121,357.4781,-33.645878,-21.384068
2879718736000.0,-2.7833279393818984,4.556468799452539,7.798807594701986,-0.226631,0.27366763,0.12797627,357.43118,-33.69828,-21.289688
2879723785000.0,-3.016368659205021,4.392097790271967,7.48508582792887,-0.2501493,0.3662137,0.110872045,357.37173,-33.739906,-21.21563
2879728768000.0,-3.260964947782427,4.202410721548118,7.0957284897489545,-0.25717425,0.48197266,0.09101892,357.2986,-33.78073,-21.163319
2879733725000.0,-3.44115538252675,3.979188852753509,6.6627837150780405,-0.24740042,0.5757405,0.06383542,357.24054,-33.80339,-21.186613
2879738949000.0,-3.6032211750073615,3.728723616354177,6.186408298645333,-0.2098322,0.66798115,0.026572637,357.16977,-33.827217,-21.239902
2879744700000.0,-3.6449058401015706,3.4847498837298976,5.809515305558167,-0.15607607,0.7330383,-0.021991149,357.12558,-33.853912,-21.37843
2879748789000.0,-3.641223009743252,3.3190224022383146,5.577496877616853,-0.07360926,0.7819075,-0.08124508,357.08096,-33.890335,-21.539701
2879753775000.0,-3.54181045093762,3.182441057960199,5.504133180826636,-0.00061086525,0.8060367,-0.106595986,357.05408,-33.939316,-21.7711
2879758741000.0,-3.364353586261003,3.1005378823383083,5.604237136050517,0.03756821,0.82802784,-0.14782938,357.0394,-33.987717,-22.022463
2879763800000.0,-3.1162939984426474,3.1011386109913146,5.864215344474394,0.081855945,0.7968737,-0.1740966,357.04596,-34.043976,-22.290855
2879768741000.0,-2.795070941569332,3.2003398527702904,6.30353505902965,0.09437868,0.7263188,-0.18936823,357.06567,-34.093952,-22.556997
2879773764000.0,-2.5012289744294125,3.369353548755551,6.805879421832077,0.07819075,0.6053675,-0.20616703,357.09024,-34.114937,-22.775276
2879778919000.0,-2.2412072713931632,3.629375305029433,7.392203201807291,0.052534413,0.46028697,-0.20189096,357.1329,-34.135254,-22.968132
2879783911000.0,-2.09709199403185,3.864229405640721,7.72716279037059,0.019242255,0.3155119,-0.22449298,357.17667,-34.12823,-23.0514
2879788773000.0,-2.045117221268046,4.079058384387558,7.86229693905343,-0.009773844,0.2321288,-0.22143865,357.22894,-34.119644,-23.108927
2879793669000.0,-1.9927789885548448,4.295389663685072,7.998376081783003,-0.03573562,0.21991149,-0.22602014,357.26596,-34.11155,-23.063889
2879798778000.0,-2.1487403140115933,4.583844943413951,7.878825369098541,-0.036651913,0.2929099,-0.25473082,357.30646,-34.100063,-23.023455
2879803646000.0,-2.344426519088547,4.872714914351389,7.706435312252648,-0.018325957,0.43004912,-0.2761111,357.33493,-34.087887,-22.99493
2879808748000.0,-2.6885199996418594,5.064306113122269,7.488122502743357,0.025961773,0.59131753,-0.2996294,357.32883,-34.11595,-22.952875
2879813740000.0,-3.058350286870568,5.225250789062388,7.265539302571449,0.07147124,0.754724,-0.30970868,357.29745,-34.147537,-22.94428
2879818857000.0,-3.423694703026099,5.379051468238966,7.053511902956733,0.08093964,0.85154617,-0.29901853,357.24423,-34.241863,-22.986153
2879823779000.0,-3.5176990562039365,5.3177443797277375,7.1516034835688895,0.08827003,0.89858276,-0.2669481,357.16772,-34.344658,-23.0501
2879828682000.0,-3.6113405319517904,5.256673950030348,7.249316409156334,0.0580322,0.86651236,-0.21777347,357.10806,-34.492104,-23.208693
2879833757000.0,-3.707144907268311,5.115541312070254,7.359275798710763,0.011301007,0.81031275,-0.16768251,357.0393,-34.632507,-23.36275
2879838830000.0,-3.802459392414051,4.943067463751869,7.472745216255605,-0.047036625,0.73761976,-0.09254608,356.96497,-34.764297,-23.489195
2879843825000.0,-3.8800725297641554,4.712661968394865,7.540520447765947,-0.103847094,0.6747007,-0.024129177,356.90134,-34.854134,-23.61475
2879848746000.0,-3.94572921791223,4.445345305453278,7.578038653219226,-0.15974127,0.655153,0.030543262,356.831,-34.93318,-23.720074
2879853769000.0,-3.981895329280058,4.170784428652043,7.546777249658688,-0.17531833,0.6252206,0.043982297,356.7705,-34.956425,-23.831575
2879858743000.0,-3.994901974842996,3.897642698789478,7.46440125431874,-0.20311269,0.61666846,0.06047566,356.69803,-34.969692,-23.930534
2879863770000.0,-4.008555249322493,3.66724217398374,7.379747131707317,-0.20830505,0.6337727,0.0693332,356.64307,-34.928738,-24.056541
2879868739000.0,-4.0228845026999895,3.5143977688648,7.293772209936765,-0.20463985,0.6609562,0.08460484,356.584,-34.88747,-24.17605
2879873756000.0,-4.007415889223829,3.394500249994873,7.208132453604019,-0.18020524,0.68966687,0.08857546,356.53287,-34.810356,-24.327738
2879878780000.0,-3.943283831231416,3.3303680889777505,7.124267248641443,-0.15088372,0.70402217,0.07269296,356.48218,-34.73645,-24.479984
2879883778000.0,-3.942185015153712,3.429267417923434,7.142410387616009,-0.11789699,0.7107417,0.06352998,356.42877,-34.65502,-24.651653
2879888874000.0,-4.02357111323956,3.7441965230278416,7.294567296548724,-0.061086524,0.66920286,0.06719518,356.38477,-34.58784,-24.812862
2879893715000.0,-4.100884712304235,4.0433668130220415,7.439110388413573,-0.013133603,0.5852089,0.089186326,356.33588,-34.53136,-24.959929
2879898784000.0,-4.237487474530019,4.270728711097635,7.559501388633803,0.05222898,0.44623706,0.105374254,356.30853,-34.49373,-25.082703
2879903782000.0,-4.399207175560946,4.453181777077017,7.663167780386381,0.07666359,0.28191432,0.1282817,356.29742,-34.4626,-25.17333
2879908967000.0,-4.61541279561306,4.595729737662994,7.659500611644597,0.07849618,0.12522738,0.12522738,356.28995,-34.486877,-25.213371
2879913906000.0,-4.892719198625291,4.6626658933690495,7.492160721621349,0.077579886,0.0070249503,0.1142318,356.30447,-34.517605,-25.222063
2879918695000.0,-5.132910011160715,4.689486234862013,7.307848996550325,0.07452556,-0.057726767,0.0729984,356.33774,-34.558308,-25.228806
2879923723000.0,-5.338104037946429,4.655287060349026,7.078227133725649,0.08674286,-0.08124508,0.02321288,356.39063,-34.59813,-25.222675
2879928670000.0,-5.475628731827112,4.625813871709234,6.941312875245579,0.11789699,-0.08307768,-0.00580322,356.467,-34.644676,-25.271801
2879933745000.0,-5.518597231335953,4.601942427701376,6.936538486738703,0.13347405,-0.04642576,-0.009162978,356.54523,-34.68505,-25.328543
2879938698000.0,-5.482243072995447,4.609942112571768,7.032927319342705,0.15363261,-0.009162978,0.02076942,356.624,-34.737286,-25.44094
2879943737000.0,-5.310270263324094,4.672043572609384,7.305217879825777,0.15363261,0.020158553,0.034208454,356.7015,-34.78266,-25.561958
2879948646000.0,-5.157633107195933,4.748055013492373,7.60562859835745,0.12980886,0.006414085,0.03848451,356.77332,-34.822613,-25.687714
2879953712000.0,-5.029559594876809,4.857154552894016,7.985105084865077,0.12186762,-0.0033597588,0.064446285,356.83014,-34.869038,-25.81258
2879958700000.0,-4.929086622055138,4.965510646038172,8.315328275496434,0.07544186,-0.025045475,0.093767814,356.86743,-34.894135,-25.875937
2879963800000.0,-4.886713802506265,5.078504847888953,8.550733047040678,0.024129177,-0.054367006,0.103847094,356.9067,-34.915733,-25.933249
2879968696000.0,-4.852305375279599,5.174441553451601,8.70983805553413,-0.03726278,-0.073303826,0.10781772,356.92383,-34.921272,-25.926723
2879973772000.0,-4.838244923794832,5.230683604087929,8.64422248476668,-0.10048734,-0.06261369,0.103847094,356.93997,-34.914047,-25.920164
2879978682000.0,-4.819793967692903,5.26160385281247,8.562728998547778,-0.15760323,-0.015577064,0.095294975,356.9313,-34.900433,-25.887589
2879984559000.0,-4.765303839316488,5.1417252858940845,8.344767916061574,-0.20219639,0.05131268,0.09193522,356.9158,-34.875217,-25.862381
2879988809000.0,-4.717061322996516,5.045308573519164,8.185967069686411,-0.22907446,0.14782938,0.08124508,356.87756,-34.856403,-25.855766
2879993745000.0,-4.591108240479606,4.856379303832752,7.992193407870466,-0.25534168,0.24220806,0.08460484,356.82404,-34.829273,-25.861597
2879998739000.0,-4.460303216710504,4.665582645888128,7.803811076941961,-0.2678644,0.31215215,0.09560041,356.75565,-34.800053,-25.894558
2880003779000.0,-4.307960887410135,4.475154734262668,7.659932288935648,-0.26939157,0.3659083,0.116675265,356.66962,-34.770283,-25.94098
2880008701000.0,-4.1591853031211645,4.289185253901455,7.519422091600911,-0.2556471,0.41630468,0.14294247,356.56702,-34.74037,-25.999155
2880013773000.0,-4.011381676716057,4.144266823162988,7.339294665497429,-0.23518312,0.44043383,0.17287487,356.45477,-34.71664,-26.057001
2880018721000.0,-3.86809171630884,4.010529380485838,7.157794035681887,-0.1957823,0.44318274,0.19394971,356.33475,-34.704403,-26.116035
2880023725000.0,-3.775001270673439,3.938357312716328,7.059846088374718,-0.1518,0.4147775,0.22602014,356.21185,-34.695255,-26.15646
2880028705000.0,-3.689771980605719,3.875556852219714,6.97461670462754,-0.10476339,0.3662137,0.24617869,356.0926,-34.69828,-26.189625
2880033786000.0,-3.6749860108081887,3.8700567162122823,6.917416645959057,-0.06719518,0.30115658,0.25717425,355.97025,-34.715385,-26.202417
2880038776000.0,-3.6842589771417487,3.8839661657126223,6.871051814291259,-0.023518313,0.23518312,0.26725355,355.85547,-34.747944,-26.1997
2880043704000.0,-3.748341059929226,3.908607062947544,6.867205395930474,0.01038471,0.19639318,0.25503623,355.7448,-34.78551,-26.184782
2880048718000.0,-3.838300089529559,3.9385933713572014,6.882198497949625,0.0421497,0.13530666,0.2507602,355.64954,-34.834927,-26.146826
2880053708000.0,-4.058975332489487,4.0162444731118585,6.901071848948696,0.04642576,0.06536258,0.25778514,355.56592,-34.88905,-26.102594
2880058826000.0,-4.326924499133726,4.111057166417158,6.921683313372582,0.060170226,-0.011911872,0.26450464,355.49887,-34.950993,-26.044369
2880063718000.0,-4.513746006335415,4.149173618997195,6.900133837994389,0.06688975,-0.079107046,0.258396,355.4482,-35.004795,-25.989458
2880068770000.0,-4.59694443098923,4.105385046637704,6.81255669327541,0.06811147,-0.1337795,0.25625798,355.40894,-35.06077,-25.919231
2880073718000.0,-4.671707599466283,4.064940982110233,6.747273745047727,0.0870483,-0.14385876,0.23182335,355.39627,-35.11392,-25.90142
2880078711000.0,-4.715878097351945,4.03549406893154,6.776720811967567,0.089491755,-0.14110987,0.204029,355.3938,-35.161045,-25.876278
2880084357000.0,-4.7500963,4.03769228754104,6.836312744254363,0.10720685,-0.13652839,0.17684549,355.40585,-35.2027,-25.883064
2880088767000.0,-4.7500963,4.099725677898738,6.927538094176603,0.1160644,-0.12675454,0.16493362,355.41953,-35.239677,-25.894215
2880093713000.0,-4.7500963,4.169298727492656,7.029851151028167,0.122783914,-0.12675454,0.1441642,355.44064,-35.267365,-25.920214
2880098728000.0,-4.745417831233316,4.339234406833956,7.235448883609183,0.11362094,-0.13133603,0.13225232,355.4616,-35.291878,-25.947845
2880103907000.0,-4.743361674375358,4.525597410833492,7.447218627503338,0.10354166,-0.14752395,0.111177474,355.49237,-35.31224,-25.978315
2880108747000.0,-4.778724460947931,4.711251982643525,7.522364635514019,0.08582657,-0.1591304,0.095294975,355.52594,-35.330482,-25.994772
2880114180000.0,-4.819449482370181,4.916761142119242,7.603676259346094,0.051923547,-0.15821409,0.0711658,355.55533,-35.34985,-25.989416
2880118813000.0,-4.880401924535214,5.018348673019507,7.595549012473669,0.042455133,-0.14538592,0.062002823,355.58444,-35.369892,-25.984772
2880123646000.0,-4.943985596666361,5.124321592691638,7.58707092394908,0.022296581,-0.11636983,0.039095376,355.6009,-35.397,-25.980715
2880134498000.0,-4.995509991763703,5.143640803502793,7.480658099536117,-0.03023783,-0.04642576,-0.007330383,355.61414,-35.40789,-25.994894
2880139845000.0,-4.95430197899922,5.0572348303452985,7.412902276921576,-0.041233405,-0.004581489,-0.01863139,355.62405,-35.425034,-26.007168
2880143702000.0,-4.914669272415139,4.98157235630121,7.362460677721421,-0.055588737,0.0143553335,-0.029932396,355.62396,-35.437042,-26.046032
2880148724000.0,-4.83693629086123,4.842211195023344,7.338674659779477,-0.059253927,0.062308256,-0.02565634,355.61267,-35.452717,-26.105968
2880153715000.0,-4.741976901172147,4.676032114333962,7.343422728419589,-0.07574729,0.09560041,-0.01863139,355.60327,-35.459824,-26.167168
2880159868000.0,-4.595094346957035,4.50697739779766,7.425749265047685,-0.069027774,0.1160644,-0.0076358155,355.59082,-35.46261,-26.234163
2880163741000.0,-4.492985601661587,4.412162199587061,7.502330633625013,-0.06169739,0.1142318,0.0009162979,355.57587,-35.462086,-26.301104
2880168695000.0,-4.375736846110772,4.330935781103644,7.620755123640807,-0.06047566,0.09865474,0.018325957,355.56186,-35.446697,-26.355782
2880173737000.0,-4.267582044746488,4.281774484422725,7.758406959682346,-0.07391469,0.04153884,0.036957346,355.55515,-35.431343,-26.39786
2880178718000.0,-4.216276874154262,4.238028506427605,7.866705322868742,-0.06414085,-0.014660766,0.056199603,355.54416,-35.40385,-26.408682
2880185701000.0,-4.199309318064953,4.18146980895636,7.991134067523681,-0.053145275,-0.08032878,0.06688975,355.54456,-35.375862,-26.402687
2880188678000.0,-4.210039134713764,4.163857684652863,8.023310952496955,-0.051618114,-0.1441642,0.070554934,355.5502,-35.340714,-26.355629
2880193731000.0,-4.2837169215590745,4.154033928451076,8.013487042427933,-0.036651913,-0.20189096,0.07422013,355.56488,-35.31387,-26.294336
2880198665000.0,-4.35801704943546,4.149077420781202,7.998088606011596,-0.025961773,-0.25289822,0.06841691,355.593,-35.27641,-26.214977
2880203711000.0,-4.441580883063778,4.15890852343607,7.963680080347879,-0.025045475,-0.3005457,0.05131268,355.6328,-35.239784,-26.12658
2880209150000.0,-4.543576770670559,4.185632557173522,7.908831550648236,-0.0009162979,-0.31703907,0.04184427,355.67548,-35.209896,-26.05067
2880213734000.0,-4.649115036661802,4.234632553533099,7.833447361689705,0.029626964,-0.3222314,0.03481932,355.72742,-35.180374,-25.971048
2880219385000.0,-4.784440979567727,4.291169140452423,7.729407815001374,0.059864793,-0.29046643,0.032375857,355.77975,-35.159435,-25.915245
2880223735000.0,-4.937052437118784,4.298799627676528,7.546273970326953,0.084910266,-0.24831672,0.021685716,355.83313,-35.14278,-25.864777
2880228656000.0,-5.1096963411667735,4.307431725982233,7.339101177305614,0.10842858,-0.21624629,0.01282817,355.88217,-35.141056,-25.850037
2880233744000.0,-5.140850673639175,4.298091732989691,7.272654844226804,0.12614368,-0.19639318,0.0027488936,355.92706,-35.142155,-25.844543
2880238702000.0,-5.126165333206185,4.28340685257732,7.253074833298969,0.15454891,-0.18051068,-0.0030543262,355.96658,-35.150673,-25.846378
2880243722000.0,-5.075042780887442,4.256558563708529,7.265825816710767,0.16401732,-0.15271631,-0.009468411,356.00903,-35.166885,-25.9105
2880248646000.0,-5.01745342880114,4.227763737329534,7.285022200590271,0.16035213,-0.124311075,-0.018936822,356.05008,-35.184425,-25.979105
2880253718000.0,-4.954005068956407,4.208794761162483,7.295238657472479,0.15393804,-0.10629055,-0.020463986,356.09155,-35.204933,-26.04878
2880258804000.0,-4.88966212998679,4.191636733685601,7.303817716001761,0.15057829,-0.07269296,-0.020158553,356.12585,-35.223057,-26.128515
2880263747000.0,-4.804645800441015,4.182190076175202,7.330102510293675,0.14294247,-0.05375614,-0.02687807,356.16776,-35.232944,-26.197527
2880268762000.0,-4.703555122381477,4.177376138618823,7.368613206494938,0.13072516,-0.03634648,-0.011911872,356.19772,-35.243397,-26.268532
2880273727000.0,-4.597141319219492,4.172585083672025,7.421453942088767,0.112399206,-0.022907447,-0.0106901415,356.22266,-35.246956,-26.332762
2880278914000.0,-4.48162990754221,4.167562593013852,7.486742911940148,0.105374254,-0.011911872,0.004276057,356.2376,-35.2542,-26.394014
2880283784000.0,-4.39509740580475,4.211596480738787,7.5596127952506595,0.10903945,-0.0076358155,0.014966198,356.24677,-35.26104,-26.434204
2880288740000.0,-4.319064323746702,4.283157393931399,7.640118653298153,0.1020145,-0.005192355,0.022907447,356.25125,-35.26516,-26.473478
2880293733000.0,-4.24508035302271,4.359999897505064,7.708690251199488,0.09010262,-0.018936822,0.03390302,356.24878,-35.27259,-26.481197
2880298713000.0,-4.173889556562534,4.44136026918648,7.764625649429576,0.08460484,-0.051923547,0.03726278,356.2499,-35.27961,-26.484987
2880303719000.0,-4.144036804094315,4.515892288959971,7.807705794479985,0.067500606,-0.077579886,0.04795292,356.234,-35.295258,-26.457378
2880309634000.0,-4.138859854679217,4.598724344525681,7.84912182226284,0.06688975,-0.10598512,0.060170226,356.22443,-35.313824,-26.421555
2880313844000.0,-4.1371803,4.646153894597126,7.848854184634604,0.06047566,-0.13591751,0.06658431,356.21042,-35.33909,-26.357784
2880318742000.0,-4.1371803,4.690102048563397,7.819555517301686,0.06688975,-0.16187929,0.06352998,356.2007,-35.36701,-26.289406
2880323715000.0,-4.164768679795082,4.704264958319672,7.792557486885245,0.06658431,-0.17073683,0.062308256,356.18417,-35.403625,-26.209684
2880328708000.0,-4.218661003862705,4.68956717267418,7.768061092213115,0.059253927,-0.16737708,0.062308256,356.1707,-35.438805,-26.129011
2880333801000.0,-4.272422539970457,4.664033242983752,7.716445006794682,0.06994407,-0.16401732,0.06352998,356.1539,-35.483818,-26.048222
2880338898000.0,-4.3252971766912856,4.630385514180206,7.644343161004431,0.071776666,-0.1591304,0.061086524,356.13696,-35.523277,-25.970839
2880343695000.0,-4.377091271643384,4.591669911486225,7.584340552076057,0.07696902,-0.13713925,0.05589417,356.12766,-35.56466,-25.911032
2880348728000.0,-4.433203118374078,4.544910079899108,7.528228558866899,0.08399397,-0.098043874,0.05009095,356.11447,-35.605335,-25.857967
2880353708000.0,-4.488822519914305,4.481206886152498,7.468270633674165,0.08032878,-0.07727446,0.04062254,356.10898,-35.639675,-25.825867
2880358855000.0,-4.546423158778849,4.394805852673094,7.40106982985685,0.08307768,-0.048563786,0.032070424,356.0952,-35.675404,-25.805578
2880363758000.0,-4.58941559797023,4.326416474086604,7.360663741407307,0.09407325,-0.024129177,0.024740042,356.09253,-35.70545,-25.807987
2880368742000.0,-4.61709630811908,4.275668553653586,7.3514369343707715,0.09590584,-0.0009162979,0.018020526,356.08636,-35.731785,-25.817883
2880373653000.0,-4.6476214640537625,4.231634374099872,7.339187409849897,0.09560041,0.015882496,0.008857546,356.09293,-35.748158,-25.853687
2880378709000.0,-4.685624399715491,4.198381935602864,7.320185917217699,0.10293079,0.02565634,-0.0015271631,356.09836,-35.764915,-25.893915
2880383748000.0,-4.716005671852479,4.191300478168715,7.302886939155009,0.100792766,0.02443461,-0.010079277,356.1129,-35.765507,-25.945534
2880388787000.0,-4.72964354699025,4.242442376430691,7.289249099618482,0.110872045,0.02321288,-0.0143553335,356.12717,-35.76951,-25.999523
2880394572000.0,-4.74530044472234,4.301155589656634,7.273592242758231,0.09468412,0.030848695,-0.008246681,356.1508,-35.762802,-26.06352
2880398722000.0,-4.745237407232771,4.3361460993172605,7.2663669536163855,0.09773844,0.025961773,-0.020158553,356.18268,-35.75937,-26.127703
2880403707000.0,-4.735051713185406,4.371795975304032,7.261274106592703,0.09865474,0.023518313,-0.021380283,356.20853,-35.75391,-26.18993
2880408863000.0,-4.727928416423138,4.4042633903122494,7.2531909698959165,0.09773844,0.014660766,-0.01985312,356.23837,-35.757664,-26.250694
2880413899000.0,-4.7231017289531625,4.433223817534027,7.243537494155324,0.09285152,0.015882496,-0.019547688,356.26724,-35.75978,-26.3126
2880418704000.0,-4.710100696375601,4.471801485541695,7.251331274216678,0.09865474,0.0143553335,-0.025350908,356.29544,-35.77003,-26.368383
2880423722000.0,-4.691219836794028,4.519003511275906,7.270212084510362,0.10842858,0.014049901,-0.025045475,356.32166,-35.78044,-26.422642
2880428814000.0,-4.667173039581954,4.560587033112645,7.291611102903622,0.115453534,0.004581489,-0.024129177,356.34436,-35.796665,-26.473282
2880433865000.0,-4.639722314035751,4.59718774572023,7.314486452738106,0.121256754,-0.0125227375,-0.025350908,356.36935,-35.81376,-26.521736
2880438765000.0,-4.602933490126504,4.625086327614934,7.326257,0.13591751,-0.021380283,-0.023823744,356.3941,-35.842525,-26.559343
2880443726000.0,-4.554069451455312,4.644631994106756,7.326257,0.14019357,-0.021380283,-0.02321288,356.4211,-35.868595,-26.595133
2880448726000.0,-4.520178579102996,4.668804431732486,7.345558892180988,0.1423316,-0.047647487,-0.018325957,356.4512,-35.903606,-26.611692
2880453717000.0,-4.501207430541774,4.6972612536217495,7.383501288350863,0.13805555,-0.051923547,-0.0125227375,356.47632,-35.936897,-26.63257
2880458959000.0,-4.486758215575662,4.718935151509556,7.424310029655619,0.13469578,-0.0571159,-0.0021380284,356.50217,-35.97587,-26.635012
2880464843000.0,-4.476352917597636,4.734543152802142,7.471133979207829,0.12217305,-0.082161374,0.0061086523,356.53204,-36.010727,-26.63181
2880468727000.0,-4.475654995139911,4.737233222017673,7.484133522974963,0.12034045,-0.081855945,0.012217305,356.55026,-36.051678,-26.623371
2880473724000.0,-4.485723429728592,4.727164839995792,7.469030765958342,0.10781772,-0.082161374,0.018936822,356.57153,-36.0871,-26.608309
2880478684000.0,-4.495412836917073,4.719420701073171,7.454496625092683,0.095294975,-0.09621128,0.02076942,356.591,-36.119682,-26.585268
2880483736000.0,-4.5048532752,4.714700408,7.4403360416,0.08582657,-0.09285152,0.028710667,356.6035,-36.150963,-26.564137
2880488823000.0,-4.508789505196882,4.704243217769338,7.418396812152708,0.07941248,-0.093767814,0.028710667,356.62146,-36.178566,-26.54439
2880493740000.0,-4.504083318009195,4.685418960423745,7.385454189806116,0.08368854,-0.0983493,0.027794369,356.6376,-36.20654,-26.523869
2880498647000.0,-4.506032659483586,4.673482,7.344829865098867,0.07360926,-0.09285152,0.03023783,356.6549,-36.231438,-26.507624
2880503712000.0,-4.520000789882895,4.673482,7.288957635208293,0.052534413,-0.082161374,0.03573562,356.67126,-36.25401,-26.491705
2880508770000.0,-4.533796172858331,4.666870832547824,7.246998546825616,0.062308256,-0.06505715,0.03604105,356.68323,-36.28053,-26.482632
2880513732000.0,-4.546970624480178,4.644913260327141,7.238215563792625,0.05375614,-0.047647487,0.036651913,356.6913,-36.29776,-26.475206
2880518692000.0,-4.553741732639256,4.6255975,7.223864191026319,0.043066,-0.039095376,0.03023783,356.70242,-36.32094,-26.477377
2880523723000.0,-4.513001055173872,4.6255975,7.167845832628687,0.040927973,-0.011911872,0.029932396,356.7043,-36.34427,-26.486107
2880528724000.0,-4.4819455,4.624494739897294,7.1251445,0.03940081,0.0009162979,0.032070424,356.71964,-36.35593,-26.498478
2880533713000.0,-4.4819455,4.619776326387517,7.1251445,0.04795292,0.012217305,0.033292156,356.7298,-36.368755,-26.516405
2880538767000.0,-4.479462843692652,4.618503339024974,7.128454696888215,0.04062254,0.029932396,0.030848695,356.7401,-36.383728,-26.533632
2880543783000.0,-4.467964225005985,4.63000187766696,7.143786135107317,0.03268129,0.031154128,0.03023783,356.75085,-36.40031,-26.549015
2880548653000.0,-4.4568002949812495,4.641165729976861,7.158671323330408,0.030848695,0.032986723,0.029321533,356.75757,-36.414654,-26.569126
2880553773000.0,-4.447029381436745,4.647843890019072,7.182008652574698,0.030543262,0.030848695,0.035124753,356.76352,-36.427876,-26.587193
2880558797000.0,-4.438290194805195,4.652213597402597,7.2082263493506495,0.017104227,0.016798794,0.032986723,356.77386,-36.4356,-26.604477
2880564108000.0,-4.439275800028359,4.6465064818981,7.2287340181019,0.01038471,-0.003970624,0.044898596,356.7747,-36.453022,-26.610973
2880568734000.0,-4.447651269448908,4.6339431684469226,7.241297331553077,0.0067195175,-0.01740966,0.034208454,356.78302,-36.463493,-26.620596
2880573770000.0,-4.460819128819901,4.616092363788047,7.253445014784104,0.004886922,-0.027183503,0.025350908,356.79062,-36.47834,-26.619051
2880578748000.0,-4.480102548720801,4.5919881518353725,7.263086598887653,0.0076358155,-0.044898596,0.03604105,356.80063,-36.49431,-26.611387
2880584621000.0,-4.489593886121437,4.571928238228005,7.272653227757125,0.0033597588,-0.063224554,0.034513887,356.82126,-36.50046,-26.607153
2880588821000.0,-4.48682488157786,4.563621195683601,7.27819123684428,0.009162978,-0.06811147,0.030848695,356.8405,-36.510647,-26.600657
2880593796000.0,-4.483544929767314,4.553781306003029,7.284751140465373,0.01740966,-0.08368854,0.03145956,356.87106,-36.518738,-26.591349
2880598765000.0,-4.4819455,4.541585151387201,7.275620209396517,0.01863139,-0.086132,0.028710667,356.90106,-36.52509,-26.585474
2880604064000.0,-4.4819455,4.526169815249089,7.249927893074119,0.022907447,-0.08277224,0.035430185,356.9302,-36.535366,-26.576004
2880608834000.0,-4.471647946531736,4.522827088367066,7.242640442130084,0.014660766,-0.08552113,0.027488936,356.96405,-36.538734,-26.567793
2880613788000.0,-4.45300244949892,4.527488462625271,7.247301913735508,0.02107485,-0.0852157,0.03359759,356.9911,-36.54953,-26.557404
2880618793000.0,-4.436772813899174,4.538983513329535,7.240488962774139,0.014049901,-0.079107046,0.032070424,357.0229,-36.549946,-26.553759
2880623778000.0,-4.423175496373303,4.55711333313396,7.222359095642267,0.013439035,-0.06688975,0.028099801,357.05188,-36.553738,-26.551134
2880628776000.0,-4.406096340537,4.573423677275704,7.2113357,0.011911872,-0.0711658,0.029321533,357.07925,-36.559517,-26.541338
2880633769000.0,-4.383728971091776,4.586844052231266,7.2113357,0.016798794,-0.06841691,0.030848695,357.103,-36.565834,-26.53664
2880638734000.0,-4.354651338977736,4.593155214612731,7.2113357,0.0015271631,-0.05955936,0.027488936,357.12463,-36.570644,-26.53069
2880643796000.0,-4.3039794861503085,4.577953711675551,7.2113357,0.0061086523,-0.05497787,0.022296581,357.14627,-36.580902,-26.524815
2880648646000.0,-4.259312856004733,4.5681367,7.218800149408401,0.0033597588,-0.04795292,0.02565634,357.1633,-36.592155,-26.514326
2880658793000.0,-4.1844613599961695,4.57249961227499,7.266491145767905,-0.012217305,-0.0693332,0.019547688,357.18857,-36.598682,-26.501898
2880663878000.0,-4.1518216876005365,4.586487890281501,7.289805023592493,-0.009162978,-0.070249505,0.029321533,357.20264,-36.611626,-26.483307
2880668683000.0,-4.123627533953536,4.597861012269938,7.317043515116162,-0.003970624,-0.07727446,0.02687807,357.22504,-36.619415,-26.453335
2880673775000.0,-4.104009685980087,4.6027655766871165,7.366088135049783,-0.010079277,-0.0888809,0.036651913,357.24286,-36.62847,-26.418732
2880678729000.0,-4.091430967075805,4.609645972751374,7.409275567792616,-0.014966198,-0.099265605,0.03176499,357.26157,-36.637337,-26.37789
2880683912000.0,-4.1011789665946585,4.624267844795758,7.4385194136685,-0.016187929,-0.10262536,0.04642576,357.2737,-36.649994,-26.331451
2880688859000.0,-4.10845,4.638137556053811,7.46823435426009,-0.02687807,-0.09743301,0.04795292,357.28937,-36.65399,-26.281403
2880693765000.0,-4.10845,4.651585968819769,7.504096507451579,-0.021380283,-0.09743301,0.04428773,357.30392,-36.662857,-26.228893
2880698700000.0,-4.110421878233262,4.663510616117284,7.537735743057241,-0.03359759,-0.09285152,0.0421497,357.31418,-36.6671,-26.177704
2880703778000.0,-4.133127541880661,4.658969388551685,7.546817913680082,-0.032986723,-0.077579886,0.04337143,357.32172,-36.675404,-26.129976
2880709495000.0,-4.157215585851529,4.653446427956332,7.556541174515284,-0.036651913,-0.07788532,0.037873644,357.33075,-36.676003,-26.079418
2880713775000.0,-4.164375334323144,4.646286791624454,7.560120899231441,-0.029321533,-0.08368854,0.03268129,357.33698,-36.679455,-26.031658
2880718724000.0,-4.1726542117030565,4.638008043912664,7.564260165030568,-0.023518313,-0.059253927,0.029321533,357.34277,-36.67918,-25.995596
2880723790000.0,-4.1790301349128,4.6351743,7.565677,-0.022602014,-0.06352998,0.02687807,357.35645,-36.678703,-25.953882
2880728771000.0,-4.184262452232094,4.6351743,7.565677,-0.021380283,-0.062002823,0.02107485,357.36496,-36.678505,-25.920683
2880733885000.0,-4.167088090964011,4.627983641503409,7.540509770346078,-0.0076358155,-0.049480084,0.026267206,357.37094,-36.67828,-25.890495
2880738750000.0,-4.146982881203072,4.61994167516182,7.512362972123932,-0.0125227375,-0.049785517,0.024129177,357.38205,-36.67183,-25.861048
2880743732000.0,-4.139904868018313,4.62146989293656,7.4959150604316545,-0.020158553,-0.0571159,0.02107485,357.38916,-36.667183,-25.833979
2880748721000.0,-4.14511286412688,4.631885993917593,7.490707118705036,-0.02321288,-0.057726767,0.027794369,357.39285,-36.663624,-25.80737
2880753858000.0,-4.1499162215225045,4.6320151444526765,7.4922220895721425,-0.014049901,-0.05681047,0.014966198,357.40417,-36.660458,-25.782164
2880758949000.0,-4.154431549083164,4.627499911187257,7.496737228542322,-0.01985312,-0.05222898,0.021991149,357.4082,-36.657047,-25.753183
2880763990000.0,-4.164306880030663,4.6255975,7.509269940206975,-0.022907447,-0.05222898,0.01038471,357.4197,-36.65065,-25.73096
2880768736000.0,-4.177372932732848,4.6255975,7.526691070946723,-0.020463986,-0.056199603,0.017715093,357.42465,-36.648193,-25.70446
2880773719000.0,-4.187260786885933,4.6255975,7.541338619629203,-0.027794369,-0.057421334,0.017715093,357.43808,-36.63779,-25.682873
2880778714000.0,-4.192271273635697,4.6255975,7.551359697768933,-0.018936822,-0.06383542,0.011911872,357.4527,-36.632164,-25.659555
2880784732000.0,-4.199203121926109,4.6210359542581605,7.567504466788297,-0.015271631,-0.06719518,0.010995574,357.465,-36.620827,-25.63811
2880789615000.0,-4.205297215377598,4.614941828989378,7.582740050407246,-0.009773844,-0.07513642,0.016187929,357.4791,-36.612278,-25.614723
2880793743000.0,-4.21044905190591,4.609789965563302,7.59561993760344,-0.005497787,-0.08246681,0.013439035,357.49698,-36.601814,-25.59301
2880798716000.0,-4.218300435960591,4.59968596366995,7.599479516995074,0.00061086525,-0.077579886,0.02321288,357.50928,-36.59595,-25.569395
2880803716000.0,-4.228129048440065,4.584943301518884,7.589650801888341,0.003970624,-0.076052725,0.022602014,357.52643,-36.58852,-25.546534
2880808902000.0,-4.24325415969694,4.580289803374988,7.5693729797500735,-0.0012217305,-0.0711658,0.01740966,357.54532,-36.57704,-25.525236
2880813719000.0,-4.261410690150546,4.5848289596871,7.542138041877399,0.007330383,-0.06841691,0.019547688,357.56223,-36.570816,-25.50308
2880818789000.0,-4.268917408106497,4.5872903,7.522692913888338,0.009162978,-0.06566802,0.010079277,357.58542,-36.556915,-25.488771
2880823755000.0,-4.264192653288298,4.5872903,7.51324360158951,0.028710667,-0.052534413,0.021685716,357.59982,-36.553043,-25.473324
2880828714000.0,-4.251080296522736,4.595769262781811,7.497617696522736,0.01740966,-0.0571159,0.023823744,357.62296,-36.537193,-25.464472
2880833954000.0,-4.227110850592282,4.614944819526174,7.473648250592282,0.02321288,-0.03268129,0.019547688,357.63568,-36.530994,-25.463938
2880838759000.0,-4.206605082449708,4.629192458775146,7.472914821405213,0.027183503,-0.04520403,0.025961773,357.65546,-36.524757,-25.451616
2880843746000.0,-4.187673657516599,4.6386581712417,7.506044988009117,0.026267206,-0.04520403,0.01863139,357.67157,-36.515976,-25.450779
2880848722000.0,-4.173749357750822,4.64301246667352,7.516938654810856,0.029321533,-0.043066,0.02565634,357.68143,-36.52103,-25.439428
2880853714000.0,-4.16883469064556,4.6380981074629934,7.487452089021382,0.027488936,-0.040011674,0.027488936,357.69385,-36.522507,-25.430923
2880859545000.0,-4.158983540519131,4.628247164630036,7.45836373419855,0.021991149,-0.035430185,0.030848695,357.70123,-36.523552,-25.415321
2880863770000.0,-4.148753813568178,4.618017473285016,7.441314189280296,0.014660766,-0.03604105,0.032070424,357.70898,-36.523438,-25.399694
2880868828000.0,-4.137401368056132,4.606886138420659,7.422467149962634,0.017104227,-0.02687807,0.026267206,357.7139,-36.52799,-25.389318
2880873727000.0,-4.141297096138835,4.614677635265299,7.430258850203438,0.015271631,-0.02565634,0.032986723,357.7172,-36.53156,-25.374838
2880878685000.0,-4.145239741542805,4.622562967242381,7.438144388026239,0.014660766,-0.021685716,0.029932396,357.71896,-36.53268,-25.366453
2880883895000.0,-4.131468567588474,4.61948215896345,7.44729430910849,0.01160644,-0.011911872,0.03145956,357.71652,-36.534367,-25.35768
2880888744000.0,-4.10901744440147,4.61050175657513,7.456274664610327,0.0070249503,-0.017715093,0.03023783,357.71786,-36.534546,-25.347687
2880893711000.0,-4.098873,4.611644011344743,7.4603324,0.008857546,-0.020158553,0.03573562,357.71127,-36.538597,-25.33914
2880898724000.0,-4.098873,4.621034377652811,7.4603324,0.0076358155,-0.02076942,0.040011674,357.7062,-36.540203,-25.330347
2880903715000.0,-4.098873,4.630272879048437,7.462670052909143,0.01160644,-0.024740042,0.032375857,357.7061,-36.54152,-25.316317
2880908915000.0,-4.098873,4.639788327601032,7.46742770266552,0.0009162979,-0.03390302,0.037873644,357.70306,-36.54144,-25.29805
2880913985000.0,-4.098873,4.647061000613748,7.483768762479542,0.005192355,-0.039095376,0.041233405,357.7065,-36.54651,-25.280357
2880918746000.0,-4.098873,4.651725085822422,7.511752786722586,0.01038471,-0.03756821,0.038789943,357.7104,-36.548954,-25.262604
2880923719000.0,-4.098873,4.654328,7.538340357503215,-0.0027488936,-0.042455133,0.04917465,357.7136,-36.55213,-25.238428
2880929098000.0,-4.098873,4.654328,7.563819439113661,0.01038471,-0.054061573,0.046731193,357.72137,-36.5603,-25.216475
2880933846000.0,-4.101037073772873,4.656492073772872,7.566597930874238,0.011911872,-0.04886922,0.04642576,357.72284,-36.558975,-25.193462
2880938788000.0,-4.105619272824088,4.661074272824087,7.548269613128085,0.006414085,-0.05009095,0.04153884,357.7295,-36.55789,-25.168465
2880943723000.0,-4.110149674594493,4.662205272161448,7.530148195133911,-0.0015271631,-0.06078109,0.04642576,357.73404,-36.55737,-25.139568
2880948712000.0,-4.114655347576386,4.657699458034704,7.512125220916635,0.0076358155,-0.06505715,0.043676864,357.7403,-36.557674,-25.114693
2880953644000.0,-4.119197436460032,4.6496450419351545,7.492785917699837,0.009773844,-0.051923547,0.051618114,357.73874,-36.559963,-25.091158
2880958915000.0,-4.124344185318107,4.629057992761012,7.467052173409462,0.004276057,-0.052839845,0.03756821,357.74667,-36.558662,-25.068878
2880963674000.0,-4.125003220693609,4.617320846441196,7.439054282029234,0.007941248,-0.03970624,0.036957346,357.7444,-36.56361,-25.051504
2880968782000.0,-4.115656122384638,4.621994419996178,7.396992120034394,0.009773844,-0.030848695,0.03726278,357.74612,-36.56461,-25.035866
2880973681000.0,-4.105097980477856,4.627608718713578,7.363893996095571,0.015882496,-0.024740042,0.03359759,357.75452,-36.564808,-25.026358
2880978726000.0,-4.08750075,4.63816709375,7.36037455,0.0125227375,-0.021380283,0.034208454,357.7604,-36.563656,-25.017546
2880984745000.0,-4.06650615530303,4.650763894412878,7.356175631060606,0.0143553335,-0.020158553,0.032986723,357.7621,-36.569527,-25.012154
2880988727000.0,-4.060566,4.654328,7.3549876,0.011301007,-0.016798794,0.032375857,357.76233,-36.57336,-25.007849
2880993735000.0,-4.060566,4.654328,7.3549876,0.007330383,-0.008857546,0.02565634,357.76312,-36.576103,-25.006296
2880998711000.0,-4.051532624571327,4.656586391019975,7.359504240551529,-0.0030543262,-0.01863139,0.036651913,357.75577,-36.58564,-24.993666
2881003718000.0,-4.034579809439633,4.660824683312709,7.367980559607566,0.0012217305,-0.033292156,0.032986723,357.75305,-36.594254,-24.985823
2881009030000.0,-4.020816936573074,4.659579364551836,7.374141,0.01038471,-0.029932396,0.032986723,357.74606,-36.607075,-24.976563
2881013722000.0,-4.016773168970483,4.647447935070194,7.374141,0.0076358155,-0.039095376,0.03634648,357.74484,-36.617622,-24.961765
2881018795000.0,-4.012409802789887,4.635446488683522,7.374685394420227,-0.0036651916,-0.040011674,0.042760566,357.73642,-36.628323,-24.944983
2881023769000.0,-4.00825670793374,4.639599453443767,7.38299158413252,0.014966198,-0.046731193,0.04153884,357.7322,-36.64462,-24.92614
2881030290000.0,-4.003105,4.64505832556226,7.393909631870543,0.00580322,-0.038789943,0.043676864,357.7268,-36.647816,-24.908455
2881033855000.0,-4.003105,4.648179737611995,7.400152260413238,-0.0009162979,-0.038179077,0.046731193,357.72433,-36.655815,-24.888216
2881038784000.0,-4.003105,4.652495429054672,7.4087833729200945,-0.0009162979,-0.04337143,0.038179077,357.71906,-36.66102,-24.869535
2881044654000.0,-4.02515419201463,4.66535267275221,7.419798105089911,0.0027488936,-0.041233405,0.03726278,357.7097,-36.6669,-24.850906
2881048786000.0,-4.049275786244031,4.677413553825053,7.427838608513665,-0.0076358155,-0.03481932,0.036957346,357.7024,-36.668015,-24.833925
2881053770000.0,-4.065733006456749,4.690809223173536,7.431602,-0.0027488936,-0.028099801,0.030848695,357.70105,-36.67209,-24.817205
2881058841000.0,-4.074323789978773,4.703695420882717,7.431602,-0.003970624,-0.031154128,0.03390302,357.69827,-36.673336,-24.79844
2881063701000.0,-4.084863107043609,4.727219785324925,7.416171268383924,-0.0009162979,-0.029321533,0.038179077,357.7009,-36.675095,-24.786612
2881068717000.0,-4.100266290882856,4.773429229617357,7.369961984929457,-0.014049901,-0.021685716,0.0290161,357.70532,-36.670853,-24.777622
2881073764000.0,-4.099330672736358,4.7979803,7.354530255846492,-0.011301007,-0.01985312,0.029932396,357.70755,-36.675835,-24.766111
2881078774000.0,-4.080150223705776,4.7979803,7.3737105546672,-0.02076942,-0.01985312,0.033292156,357.7101,-36.67346,-24.757315
2881083956000.0,-4.0701427,4.804624124151283,7.379288783899144,-0.018020526,0.00030543262,0.03176499,357.7047,-36.678143,-24.758394
2881089038000.0,-4.0701427,4.817772065871229,7.37052348941918,-0.03176499,-0.0070249503,0.022907447,357.7061,-36.675613,-24.754377
2881093664000.0,-4.0654233297632825,4.823171163082588,7.362204733361389,-0.029626964,-0.0067195175,0.028405234,357.69507,-36.68045,-24.749062
2881098775000.0,-4.0448249512151495,4.807722338842714,7.351905624744871,-0.025045475,0.004581489,0.029932396,357.68652,-36.680473,-24.747002
2881103699000.0,-4.020344019066815,4.7979803,7.351977583392119,-0.02687807,0.018020526,0.021685716,357.67282,-36.686317,-24.746433
2881109712000.0,-3.979721516920286,4.7979803,7.375190320568376,-0.033292156,0.016187929,0.01985312,357.6585,-36.69287,-24.743502
2881114643000.0,-3.9622223602806046,4.787677714227844,7.391444919158186,-0.025350908,0.008246681,0.021380283,357.64395,-36.70425,-24.740257
2881118736000.0,-3.958349438395416,4.772185986246418,7.403063684813754,-0.024129177,0.007941248,0.02565634,357.62842,-36.71213,-24.738047
2881123645000.0,-3.953693980501393,4.758145796448468,7.4170300903899715,-0.033292156,0.010079277,0.023518313,357.61295,-36.72095,-24.727356
2881128772000.0,-3.9488093551929966,4.753261222144847,7.431684068324712,-0.032375857,-0.0061086523,0.027183503,357.5993,-36.73351,-24.710945
2881133921000.0,-3.9575771450506623,4.734754181420499,7.449702389321902,-0.031154128,-0.013744468,0.02687807,357.58755,-36.739,-24.697136
2881138750000.0,-3.9891169512081057,4.694202955027279,7.472230822291504,-0.027794369,-0.018020526,0.02687807,357.5777,-36.745495,-24.680109
2881143721000.0,-4.016554963623776,4.662613985164672,7.496808900286816,-0.028405234,-0.022907447,0.029932396,357.56702,-36.75126,-24.659697
2881148850000.0,-4.031129013826526,4.65775586697656,7.525956899238453,-0.027794369,-0.035430185,0.032375857,357.55908,-36.757725,-24.637196
2881153719000.0,-4.047965183859868,4.648711308570534,7.542779152080075,-0.042455133,-0.04520403,0.03756821,357.56088,-36.748726,-24.62049
2881158892000.0,-4.075083224585549,4.625467192758836,7.527283128808258,-0.03940081,-0.04153884,0.032375857,357.5642,-36.743027,-24.605825
2881165746000.0,-4.113351399143673,4.596421423758325,7.506434067117031,-0.03726278,-0.054061573,0.037873644,357.57193,-36.73321,-24.583746
2881168687000.0,-4.142829957183635,4.59374158791627,7.49571455585157,-0.04184427,-0.05131268,0.035430185,357.5786,-36.720707,-24.568575
2881173727000.0,-4.1933474452902,4.58914914567079,7.477344499143673,-0.03573562,-0.053145275,0.03268129,357.59628,-36.703506,-24.558495
2881178714000.0,-4.216159364496942,4.594383245363157,7.465180419133786,-0.03573562,-0.04153884,0.036651913,357.60916,-36.684704,-24.551336
2881184061000.0,-4.220449237915725,4.607252596858507,7.456600941057217,-0.048563786,-0.054367006,0.03145956,357.6299,-36.662827,-24.54097
2881188689000.0,-4.220618064227326,4.616938678590891,7.448919642818217,-0.032070424,-0.038179077,0.035124753,357.64893,-36.65023,-24.547743
2881193704000.0,-4.206596756714675,4.621612447761775,7.43957210447645,-0.025961773,-0.028710667,0.030848695,357.67462,-36.630367,-24.55282
2881198693000.0,-4.190460570619451,4.627688003775895,7.434389314113685,-0.0290161,-0.03268129,0.028099801,357.6944,-36.619637,-24.55836
2881203711000.0,-4.161035037054801,4.642400693744259,7.454006063373813,-0.024129177,-0.03268129,0.03268129,357.71048,-36.61281,-24.566135
2881208814000.0,-4.133466544333084,4.656184911764705,7.469909,-0.021991149,-0.028710667,0.03023783,357.7298,-36.603897,-24.57286
2881213745000.0,-4.115773279411765,4.6650317058823525,7.469909,-0.015577064,-0.03604105,0.035124753,357.74838,-36.598972,-24.574915
2881218763000.0,-4.097985711079916,4.674073524917277,7.471683590193523,-0.0106901415,-0.032986723,0.026267206,357.7593,-36.59396,-24.57629
2881223726000.0,-4.083688260072195,4.683605142334303,7.50027869126642,-0.013133603,-0.034513887,0.02565634,357.76947,-36.590553,-24.57275
2881228764000.0,-4.068446294130569,4.6926355,7.5282182044108605,-0.01282817,-0.030543262,0.026572637,357.7809,-36.591434,-24.567276
2881233762000.0,-4.043212256822775,4.6926355,7.540835245022406,-0.0106901415,-0.04153884,0.034208454,357.79416,-36.59287,-24.557308
2881238728000.0,-4.018139781978737,4.6926355,7.553371504261489,-0.006414085,-0.042455133,0.04062254,357.8025,-36.595886,-24.545155
2881243740000.0,-4.008975838649341,4.696341583953534,7.563512567907068,-0.020463986,-0.040927973,0.0421497,357.81177,-36.59508,-24.53101
2881248653000.0,-4.004343844063792,4.700973481807442,7.572776363614885,-0.024129177,-0.03848451,0.04062254,357.82004,-36.59806,-24.51663
2881254176000.0,-3.999396138259109,4.7096302171236655,7.578962939197645,-0.029626964,-0.04153884,0.040927973,357.8273,-36.59759,-24.494268
2881258791000.0,-3.995329519838057,4.717763666286345,7.583029642546927,-0.040317107,-0.033292156,0.042455133,357.83157,-36.594757,-24.475407
2881263933000.0,-4.004516891259259,4.718618819814815,7.571095243296296,-0.04062254,-0.03634648,0.038179077,357.84097,-36.588295,-24.453249
2881268745000.0,-4.0215848770370375,4.7143517342592585,7.549760350185185,-0.041233405,-0.03634648,0.034513887,357.84732,-36.579536,-24.433573
2881273728000.0,-4.040186475981669,4.718052195135923,7.539034680845745,-0.034208454,-0.025045475,0.03390302,357.85388,-36.573097,-24.414011
2881278717000.0,-4.060092123507967,4.732981521716488,7.54401100179148,-0.030848695,-0.029321533,0.034513887,357.86395,-36.56535,-24.391998
2881283804000.0,-4.056090792791163,4.738177511389392,7.53012967972574,-0.028710667,-0.019547688,0.032070424,357.8736,-36.55596,-24.38209
2881288820000.0,-4.028643609551471,4.7336029728882965,7.498107910218074,-0.03268129,-0.022602014,0.03176499,357.88583,-36.546387,-24.368284
2881293786000.0,-3.996536478494292,4.72690629854983,7.467376816723233,-0.03145956,-0.01282817,0.030543262,357.89743,-36.539722,-24.362167
2881298749000.0,-3.95742948814152,4.7171294999177205,7.438046471870821,-0.028099801,-0.016798794,0.03176499,357.91165,-36.53297,-24.352257
2881303713000.0,-3.9238556216583342,4.715859680699934,7.442378297236109,-0.024740042,-0.0030543262,0.027183503,357.91696,-36.527126,-24.34746
2881308757000.0,-3.896515533440241,4.724973091019715,7.487945110932931,-0.026267206,-0.0036651916,0.02565634,357.9248,-36.52151,-24.33812
2881313765000.0,-3.8663776949363022,4.734436730018199,7.528275126538914,-0.027183503,-0.0036651916,0.027794369,357.92664,-36.521217,-24.327085
2881318796000.0,-3.830271692838026,4.744752730617707,7.559223236056097,-0.032986723,-0.015271631,0.020158553,357.93356,-36.51767,-24.315742
2881323769000.0,-3.807468526646165,4.748045984732272,7.571153369464544,-0.017715093,-0.01740966,0.018325957,357.93423,-36.520664,-24.295536
2881328733000.0,-3.798868719916787,4.743746126266281,7.562553652532562,-0.02107485,-0.018936822,0.023518313,357.93713,-36.5175,-24.273506
2881333824000.0,-3.7938292314060313,4.743347088998164,7.5589280037609425,-0.025350908,-0.021685716,0.023518313,357.93735,-36.51292,-24.244411
2881338783000.0,-3.798961874116503,4.753612106451961,7.569193074808171,-0.02076942,-0.032375857,0.016798794,357.93967,-36.509464,-24.214128
2881343691000.0,-3.807662308501944,4.754003111232931,7.573363991029602,-0.020463986,-0.030848695,0.01985312,357.93546,-36.50864,-24.183678
2881348787000.0,-3.8222551639190674,4.739410306608193,7.568499604305791,-0.015271631,-0.02321288,0.01985312,357.93433,-36.508644,-24.154696
2881353644000.0,-3.836080318892924,4.727371002090489,7.562105358033173,-0.023518313,-0.022907447,0.016798794,357.92987,-36.5037,-24.12593
2881358819000.0,-3.850672508509176,4.7176428248895865,7.5523773332024735,-0.0290161,-0.023518313,0.016493361,357.92337,-36.50105,-24.098635
2881363692000.0,-3.8610391151948784,4.708617186170212,7.538594024025608,-0.032070424,-0.027794369,0.008552114,357.92792,-36.491005,-24.076145
2881368718000.0,-3.86557055906609,4.699554345744681,7.515936804669554,-0.020463986,-0.010995574,0.012217305,357.92535,-36.48503,-24.05645
2881373653000.0,-3.8709885260569936,4.690676984168374,7.502556672564723,-0.03390302,-0.0033597588,0.010995574,357.93463,-36.471416,-24.039438
2881378712000.0,-3.8800123724343454,4.681653184904079,7.520604459545539,-0.03359759,-0.005192355,0.00580322,357.94226,-36.46407,-24.024426
2881384024000.0,-3.8881836,4.674054128775744,7.536374853301732,-0.03726278,0.00030543262,0.004276057,357.95236,-36.451515,-24.014658
2881388747000.0,-3.8881836,4.677750659839817,7.532678206440013,-0.03145956,0.00580322,0.00030543262,357.96436,-36.44047,-24.00618
2881393765000.0,-3.8881836,4.681678077345538,7.528750665903891,-0.036957346,0.009162978,-0.0036651916,357.97604,-36.42231,-24.000376
2881398725000.0,-3.876116794244037,4.6981422071949535,7.515303257244234,-0.033292156,0.011911872,0.0021380284,357.9851,-36.40897,-23.994692
2881403786000.0,-3.8570085013995663,4.722027573250542,7.496195064163217,-0.038789943,0.014966198,-0.004581489,357.99713,-36.389942,-23.992977
2881408812000.0,-3.8526718239880897,4.73653354797618,7.475085880059551,-0.036651913,0.016493361,-0.0036651916,358.00983,-36.37381,-23.98858
2881413819000.0,-3.857133630780683,4.745457161561366,7.452776846096585,-0.035430185,0.020463986,-0.008552114,358.02408,-36.35467,-23.987799
2881418711000.0,-3.854798997197452,4.7407878700955415,7.4365247,-0.03940081,0.018936822,-0.0067195175,358.03513,-36.346497,-23.980026
2881423703000.0,-3.844648809171974,4.720487441050955,7.4263743,-0.03268129,0.022296581,-0.005192355,358.04535,-36.34056,-23.975313
2881428686000.0,-3.835084892130959,4.703966965422171,7.429847116255026,-0.04062254,0.0290161,-0.010079277,358.0501,-36.33171,-23.975264
2881433837000.0,-3.8256401100516944,4.689799841614015,7.444014387995405,-0.030848695,0.02107485,-0.009162978,358.05533,-36.329933,-23.971447
2881439874000.0,-3.817585356682219,4.6794980938621045,7.464998247630897,-0.02687807,0.013133603,-0.011301007,358.0686,-36.324642,-23.968567
2881443719000.0,-3.813767544758943,4.675680321804044,7.480269575054432,-0.023518313,0.007941248,-0.01282817,358.08228,-36.321827,-23.964424
2881448689000.0,-3.816716169734789,4.663187926170047,7.491636431123244,-0.029321533,0.00580322,-0.019547688,358.0956,-36.31269,-23.959608
2881453723000.0,-3.826117419968799,4.644385180284711,7.496336958073322,-0.028405234,-0.006414085,-0.015577064,358.10956,-36.307453,-23.94996
2881458845000.0,-3.835429680236862,4.630467419763138,7.503346431088083,-0.018325957,0.004276057,-0.013744468,358.12567,-36.295742,-23.944334
2881463728000.0,-3.844083180310881,4.621813919689119,7.511999840803109,-0.021991149,0.0009162979,-0.01038471,358.14526,-36.281925,-23.93227
2881468724000.0,-3.855055128817451,4.61774694293915,7.522971764867968,-0.028405234,-0.002443461,-0.011911872,358.1665,-36.268265,-23.925463
2881473876000.0,-3.870504353407786,4.622896684469262,7.538421097004488,-0.030848695,-0.005497787,-0.016187929,358.18774,-36.254948,-23.918127
2881478682000.0,-3.886141468486492,4.6255975,7.550290894905114,-0.028710667,0.005192355,-0.018020526,358.20642,-36.234497,-23.91584
2881483807000.0,-3.904494689015612,4.6255975,7.559467409348415,-0.035430185,0.0076358155,-0.015271631,358.2268,-36.211758,-23.9112
2881488710000.0,-3.9196401868676847,4.626960593433842,7.567040121900416,-0.026572637,0.007941248,-0.016798794,358.24747,-36.194157,-23.910936
2881493747000.0,-3.929209387740528,4.631745193870263,7.571824822257489,-0.032070424,0.027488936,-0.015271631,358.26196,-36.172585,-23.914415
2881498646000.0,-3.938613644178612,4.638993406146231,7.575254,-0.03726278,0.028710667,-0.025045475,358.28732,-36.153866,-23.918379
2881503708000.0,-3.948612151263277,4.6539913233783645,7.575254,-0.04550946,0.03359759,-0.015271631,358.30267,-36.136337,-23.923475
2881509564000.0,-3.966023072977831,4.656703694952067,7.58785626033553,-0.035124753,0.040317107,-0.015271631,358.31766,-36.11912,-23.935125
2881513752000.0,-3.984046277771121,4.644688130991612,7.608883458058718,-0.032375857,0.040317107,-0.015577064,358.3306,-36.099716,-23.944448
2881518662000.0,-4.00517663487118,4.630601115937687,7.63353568843619,-0.03145956,0.033292156,-0.01863139,358.3463,-36.086285,-23.954193
2881523789000.0,-4.02191842907916,4.634833961227787,7.642292,-0.03726278,0.03848451,-0.018020526,358.35864,-36.072483,-23.96583
2881528779000.0,-4.035542366739523,4.648457946308087,7.642292,-0.028710667,0.03390302,-0.0027488936,358.3714,-36.06427,-23.97151
2881533785000.0,-4.062045161980198,4.649169775841584,7.634554704158416,-0.035430185,0.03176499,-0.009468411,358.38834,-36.04131,-23.987902
2881538721000.0,-4.097704585346534,4.640254861819896,7.621182402942009,-0.03145956,0.032070424,-0.0021380284,358.39853,-36.027653,-23.998205
2881543707000.0,-4.126391025050241,4.633083224196142,7.615652675803858,-0.038789943,0.019547688,0.0030543262,358.4102,-36.010044,-24.009417
2881548729000.0,-4.145721738534968,4.628250558440514,7.620485341559486,-0.026267206,0.01985312,0.0015271631,358.41898,-35.998745,-24.023125
2881553717000.0,-4.164477330690805,4.617454254340162,7.617030880724155,-0.033292156,0.016187929,0.0076358155,358.42682,-35.982307,-24.040527
2881558929000.0,-4.183501552815627,4.598430230862316,7.602762664468795,-0.03145956,0.013133603,0.008246681,358.43616,-35.97039,-24.059029
2881563721000.0,-4.197986332637495,4.5856179162183865,7.587718064873545,-0.026267206,0.005192355,0.0125227375,358.443,-35.955143,-24.078335
2881568728000.0,-4.207611089140907,4.580805487715777,7.568468350863108,-0.023518313,0.00580322,0.009773844,358.4503,-35.93919,-24.099579
2881573695000.0,-4.22056651010101,4.579406368686868,7.552714697979798,-0.01985312,0.0018325958,0.012217305,358.4566,-35.926735,-24.122257
2881579241000.0,-4.242026392969697,4.58477131139394,7.54198492460606,-0.02321288,-0.0036651916,0.018020526,358.463,-35.913544,-24.144108
2881588744000.0,-4.228143035625181,4.596874095786191,7.512987635625181,-0.022296581,0.004276057,0.015882496,358.46292,-35.90201,-24.173546
2881593709000.0,-4.210900211430229,4.603771261473745,7.495744811430229,-0.02076942,0.007941248,0.0106901415,358.46436,-35.890316,-24.199781
2881598723000.0,-4.189529350461631,4.6005683985902905,7.489063,-0.014049901,0.005497787,0.009773844,358.46902,-35.883064,-24.228645
2881603719000.0,-4.165779676839075,4.59106855890003,7.489063,-0.008857546,0.011301007,0.0067195175,358.4733,-35.87476,-24.260841
2881608822000.0,-4.135723297168229,4.581401536546621,7.489063,-0.008246681,0.009468411,0.005192355,358.47128,-35.86681,-24.288322
2881613710000.0,-4.103391745357672,4.572163964094721,7.489063,-0.0076358155,0.013133603,0.015271631,358.4653,-35.861313,-24.316065
2881618739000.0,-4.076533719093167,4.575794237882829,7.50693059727766,0.0009162979,0.015577064,0.007941248,358.46457,-35.85351,-24.34188
2881623749000.0,-4.054470044026488,4.58903242449186,7.537819714724547,0.0030543262,0.008857546,0.005192355,358.4618,-35.84637,-24.36327
2881628720000.0,-4.03047527458013,4.604158435980643,7.561568962709934,0.0009162979,0.0106901415,0.017104227,358.44565,-35.842415,-24.38082
