timestamp,acc_x,acc_y,acc_z,gyro_x,gyro_y,gyro_z,ori_azimuth,ori_pitch,ori_roll
596110353000.0,-1.3836453701157851,9.631975804918634,-1.1438524431682893,-5.8896575,-0.8384125,4.373795,264.14615,-15.382383,-4.3188224
596115312000.0,-1.3775303768855918,9.63503328925448,-1.1431468675930785,-5.8896575,-8.988271,7.7246966,263.87607,-15.408985,-1.8196776
596120402000.0,-1.3712538462258452,9.638171541980729,-1.14242265309866,-0.8173377,0.74067414,0.03573562,264.5368,-16.08932,-4.536454
596125342000.0,-1.365162282088488,9.6412173118172,-1.1417197808781434,-1.1859949,0.73975784,0.03268129,263.6029,-15.404013,-1.4847631
596130362000.0,-1.3589720691391898,9.644312405861552,-1.1410055261115457,-1.1676689,0.7449502,0.03481932,264.01807,-16.159342,-1.7153716
596135349000.0,-1.3528225488248171,9.647387153670158,-1.1402959666452066,-1.1685852,0.74220127,0.036957346,264.41324,-16.79356,-1.9477465
596140360000.0,-1.3466434338668622,9.650476698741125,-1.1395829924150431,-1.174083,0.75961095,0.027183503,264.78802,-17.421919,-2.1911755
596145435000.0,-1.3403853998593545,9.653605703178393,-1.1388609121480144,-1.1878275,0.7742717,0.034208454,265.13788,-18.0385,-2.4340231
596150374000.0,-1.3342950688321464,9.656650856462267,-1.138158182209324,-1.2064588,0.7819075,0.03970624,265.4704,-18.64287,-2.6825802
596155323000.0,-1.3281924067034458,9.65970217527213,-1.1374540294523736,-1.2183707,0.7849618,0.044898596,265.78128,-19.236448,-2.9345446
596160344000.0,-1.3220009606439984,9.66279788586908,-1.1367396324039498,-1.2183707,0.77182823,0.063224554,266.06985,-19.81981,-3.183114
596165389000.0,-1.3157799199409683,9.665908393728396,-1.136021820591702,-1.2137892,0.76144356,0.06505715,266.34357,-20.392601,-3.4345505
596170364000.0,-1.309645196948387,9.668975742905818,-1.1353139685072748,-1.2421945,0.75502944,0.06872234,266.5962,-20.948324,-3.6813214
596175364000.0,-1.303479646202074,9.6720585058982,-1.1346025593771976,-1.2357804,0.745561,0.073303826,266.83365,-21.507652,-3.9236186
596180364000.0,-1.2973140954557612,9.675141268890584,-1.13389115024712,-1.2464706,0.72143185,0.086132,267.0551,-22.0468,-4.158072
596185351000.0,-1.2911645751413885,9.678216016699189,-1.133181590780781,-1.2363913,0.6985244,0.1020145,267.26117,-22.586699,-4.3882027
596190368000.0,-1.284978061522538,9.681309261085746,-1.132467762859661,-1.2406673,0.6621779,0.12217305,267.45337,-23.112963,-4.6049695
596195428000.0,-1.2787385241672693,9.684429017234036,-1.131747816820023,-1.2455542,0.6337727,0.12980886,267.6337,-23.635338,-4.8157005
596200360000.0,-1.272656824911106,9.687469854649724,-1.131046082854115,-1.1927143,0.5564982,0.13683382,267.80704,-24.167063,-5.0000687
596205414000.0,-1.266424686216733,9.690585911482424,-1.1303269905054327,-1.1414018,0.46761733,0.14905111,267.97095,-24.691137,-5.1706195
596210413000.0,-1.2602603685805691,9.69366805792221,-1.129615723657181,-1.0180069,0.36743546,0.1441642,268.1383,-25.244587,-5.317665
596215336000.0,-1.2541897673157494,9.69670334636451,-1.1289152702277072,-0.8848383,0.28099802,0.15577064,268.2987,-25.810528,-5.440265
596220467000.0,-1.247862679139883,9.699866877747294,-1.1281852221784217,-0.7461719,0.19914207,0.1469131,268.44638,-26.407814,-5.563381
596225372000.0,-1.24181427385775,9.702891068242822,-1.1274873298218158,-0.6282749,0.07574729,0.13622294,268.6018,-27.031551,-5.650845
596230409000.0,-1.2356030980359145,9.705996643681347,-1.126770656264176,-0.39706242,-0.17501289,0.08460484,268.79282,-27.719435,-5.690699
596235347000.0,-1.2295140001188554,9.709041180412626,-1.1260680686073117,0.073303826,-0.18295415,0.08124508,268.95416,-28.504139,-5.75531
596240342000.0,-1.2233546149232888,9.712120860642017,-1.1253573708863642,0.101098195,-0.1386664,0.08399397,269.15097,-29.221231,-5.776322
596245504000.0,-1.2169893003327952,9.715303505155354,-1.1246229121004725,0.057421334,-0.13072516,0.084910266,269.35358,-30.044287,-5.788006
596250363000.0,-1.2109976181175282,9.718299334231352,-1.1239315647078632,0.061391957,-0.12614368,0.083383106,269.5487,-30.88105,-5.8106527
596255353000.0,-1.2048443984727075,9.72137593169775,-1.123221578396046,0.06658431,-0.12705997,0.08460484,269.741,-31.69803,-5.8339934
596260356000.0,-1.198675148395947,9.724460544347927,-1.1225097424204906,0.06780604,-0.118507855,0.09040806,269.92905,-32.507126,-5.860788
596265317000.0,-1.1925576889454552,9.727519261788972,-1.121803882281628,0.07452556,-0.116980694,0.090713486,270.11813,-33.310978,-5.8867416
596270498000.0,-1.1861689452621258,9.73071362080168,-1.1210667201410418,0.06841691,-0.11453723,0.089491755,270.30362,-34.103394,-5.9146633
596275372000.0,-1.1801587663946198,9.733718698166657,-1.1203732385210423,0.062002823,-0.121256754,0.08582657,270.49,-34.88913,-5.9414406
596280334000.0,-1.174040073833979,9.736778032160297,-1.1196672361003537,0.058643065,-0.11911872,0.09407325,270.67123,-35.66588,-5.969322
596285350000.0,-1.1678547933252776,9.739870659994256,-1.11895355046106,0.049785517,-0.13408493,0.095294975,270.8584,-36.430313,-5.9936595
596290350000.0,-1.1616892425789649,9.74295342298664,-1.1182421413309829,0.06047566,-0.1386664,0.09101892,271.0424,-37.190815,-6.0206614
596295349000.0,-1.1555249249428008,9.746035569426423,-1.1175308744827313,0.052534413,-0.13683382,0.08979719,271.22656,-37.93505,-6.045199
596300429000.0,-1.1492607253845468,9.749167656626684,-1.1168080828065727,0.03726278,-0.14752395,0.08979719,271.41437,-38.67142,-6.06667
596306090000.0,-1.1422800888295712,9.752657960886662,-1.116002625389499,0.04550946,-0.1591304,0.08582657,271.60312,-39.403275,-6.089563
596310353000.0,-1.1370233402632648,9.755286324613968,-1.1153960779651952,0.028710667,-0.16615535,0.082161374,271.79303,-40.11499,-6.111341
596315404000.0,-1.1307949008993394,9.758400531788872,-1.114677412461991,0.029932396,-0.17012598,0.084910266,271.98416,-40.825542,-6.1311154
596320352000.0,-1.124693471880788,9.761451234046136,-1.1139734019868663,0.022296581,-0.17195857,0.07849618,272.1792,-41.51961,-6.152588
596325321000.0,-1.1185661475491022,9.764514883907966,-1.1132664035933957,0.032375857,-0.16646078,0.071776666,272.37338,-42.210445,-6.174697
596330316000.0,-1.1124067623535354,9.767594564137358,-1.1125557058724482,0.034513887,-0.15943582,0.07696902,272.56677,-42.88842,-6.1959853
596335359000.0,-1.1061881878708042,9.770703838891476,-1.1118381786238525,0.030543262,-0.15332718,0.07269296,272.76303,-43.558094,-6.221672
596340380000.0,-1.0999967418113563,9.773799549488428,-1.111123781575429,0.046120327,-0.1441642,0.062002823,272.95795,-44.225086,-6.249982
596345361000.0,-1.0938546201578796,9.77687059798144,-1.1104150758000455,0.044898596,-0.14355333,0.058948494,273.15305,-44.877567,-6.2773323
596350352000.0,-1.08770016740291,9.779947812000437,-1.1097049472064022,0.046120327,-0.13927728,0.057726767,273.3478,-45.525932,-6.309212
596355370000.0,-1.0815124206739102,9.783041672939593,-1.1089909770034567,0.058643065,-0.12950343,0.052839845,273.5431,-46.168007,-6.343801
596360356000.0,-1.0753641334696868,9.786115804195596,-1.1082815598189435,0.054367006,-0.13072516,0.05100725,273.7399,-46.79696,-6.376778
596365341000.0,-1.0692170793756128,9.789189318899002,-1.1075722849162564,0.06169739,-0.11942416,0.04795292,273.9337,-47.423565,-6.4154167
596370362000.0,-1.0630256333161654,9.792285029495954,-1.1068578878678328,0.061391957,-0.1151481,0.046731193,274.1297,-48.037987,-6.45245
596375632000.0,-1.0565271428295513,9.795534261689928,-1.1061080626447313,0.050701816,-0.12797627,0.046731193,274.32794,-48.642628,-6.488783
596380321000.0,-1.050745089339659,9.798425276824185,-1.1054409031625447,0.051618114,-0.11759156,0.04642576,274.52106,-49.241585,-6.530537
596385352000.0,-1.0445413121787188,9.801527152947118,-1.1047250832958608,0.03848451,-0.1255328,0.04886922,274.72107,-49.825016,-6.5658846
596390352000.0,-1.0383757614324058,9.804609915939505,-1.1040136741657836,0.035124753,-0.13591751,0.048563786,274.92056,-50.40265,-6.6033454
596395311000.0,-1.032260768202213,9.807667400275347,-1.1033080985905728,0.03176499,-0.13133603,0.048563786,275.1186,-50.968193,-6.6414447
596400338000.0,-1.0260619234818695,9.810766810187893,-1.102592847851193,0.025045475,-0.1423316,0.06047566,275.3211,-51.524036,-6.6723223
596405345000.0,-1.0198877409645115,9.813853889048463,-1.1018804427483335,0.01740966,-0.14782938,0.053145275,275.5255,-52.06928,-6.709363
596410359000.0,-1.0134631108823955,9.81561158991691,-1.106591752412711,0.019547688,-0.1591304,0.05681047,275.73044,-52.608364,-6.7384076
596415382000.0,-1.006226588532416,9.812958195198146,-1.1292661884376427,0.0067195175,-0.16554448,0.055283304,275.93848,-53.132267,-6.770317
596420500000.0,-0.9988532018337904,9.81025461682454,-1.1523694660756283,0.0015271631,-0.1704314,0.05497787,276.1133,-53.681225,-6.7843237
596425353000.0,-0.991861594634019,9.807691024435496,-1.1742765013193062,0.017104227,-0.16737708,0.059253927,276.288,-54.224125,-6.798141
596430305000.0,-0.9847273603761852,9.805075135395615,-1.1966304346650083,0.005497787,-0.16340645,0.045814894,276.4673,-54.748543,-6.8158555
596435370000.0,-0.9774303295773306,9.80239955421892,-1.2194944638241327,0.009773844,-0.15363261,0.05467244,276.6409,-55.274967,-6.8291187
596440366000.0,-0.9702327055159132,9.799760422223112,-1.2420470185485124,0.01740966,-0.15363261,0.05131268,276.82077,-55.789288,-6.847797
596445337000.0,-0.9630710983883504,9.797134496452264,-1.2644867202168255,0.027183503,-0.1432479,0.04153884,276.9961,-56.297302,-6.869394
596450320000.0,-0.9558922031325372,9.794502231693436,-1.286980591352051,0.027794369,-0.12797627,0.03848451,277.17038,-56.7969,-6.891193
596455344000.0,-0.9486542401052036,9.791848308725672,-1.3096595414992254,0.026267206,-0.12003502,0.03726278,277.34583,-57.28994,-6.9155626
596460360000.0,-0.9414278024967028,9.789198611749898,-1.3323023786684585,0.031154128,-0.11942416,0.03359759,277.52084,-57.776413,-6.9426184
596465357000.0,-0.9342287377579316,9.786558951505093,-1.354859447515081,0.040317107,-0.09743301,0.03573562,277.68857,-58.25585,-6.9730234
596470421000.0,-0.9269331476364312,9.783883898577397,-1.3777189625519624,0.03726278,-0.0870483,0.040011674,277.85986,-58.72511,-7.0021787
596475353000.0,-0.9198277269256804,9.781278574517485,-1.3999826134528113,0.03756821,-0.07544186,0.03023783,278.02777,-59.18898,-7.0376835
596480358000.0,-0.912617136768076,9.77863468828069,-1.4225757952773752,0.03481932,-0.06383542,0.032986723,278.19122,-59.6443,-7.070476
596485359000.0,-0.9054123093198878,9.77599291503989,-1.4451509206129685,0.022296581,-0.0571159,0.024740042,278.35657,-60.08764,-7.1092577
596491224000.0,-0.8969627366376998,9.772894734664506,-1.4716262475662285,0.022907447,-0.050396383,0.0290161,278.5174,-60.527077,-7.1456985
596495426000.0,-0.890909010395491,9.770675032373395,-1.4905945892299284,0.025961773,-0.053145275,0.032070424,278.68082,-60.955334,-7.183929
596500345000.0,-0.8838223184903446,9.768076575550465,-1.5127995565416226,0.02443461,-0.06169739,0.028405234,278.84488,-61.374664,-7.2227235
596505358000.0,-0.8766002029139066,9.765428463321683,-1.535428851344128,0.020158553,-0.057726767,0.029932396,279.0059,-61.787136,-7.2605863
596510374000.0,-0.8693737653054061,9.762778766345908,-1.558071688513361,0.0143553335,-0.050701816,0.034513887,279.16888,-62.19126,-7.2977304
596515346000.0,-0.8622107175004889,9.76015231232606,-1.5805159043039168,0.015882496,-0.040927973,0.033292156,279.33118,-62.58855,-7.336694
596520438000.0,-0.8548747884130716,9.757462468426407,-1.603501814763593,0.0076358155,-0.054367006,0.03176499,279.4976,-62.97464,-7.372416
596525370000.0,-0.8477693677023211,9.754857144366497,-1.625765465664442,0.023823744,-0.046120327,0.032375857,279.6562,-63.360752,-7.4117346
596530375000.0,-0.8405587775447165,9.752213258129704,-1.648358647489006,0.010995574,-0.042760566,0.027488936,279.82086,-63.729015,-7.4504657
596535379000.0,-0.833349628064466,9.749569900141909,-1.670947315191327,0.013439035,-0.036957346,0.02443461,279.98282,-64.09906,-7.4897637
596540359000.0,-0.8261750548407154,9.746939220130075,-1.693427643959824,0.019547688,-0.035124753,0.019547688,280.14615,-64.45909,-7.5305934
596545333000.0,-0.81900912568109,9.744311709612232,-1.7158808879948653,0.018325957,-0.03481932,0.029932396,280.30725,-64.81202,-7.568571
596550358000.0,-0.811769721976402,9.74165725839547,-1.7385643522642824,0.023823744,-0.042760566,0.025350908,280.47278,-65.15989,-7.6107984
596555336000.0,-0.8045980301073598,9.739027634881634,-1.7610356527882942,0.018936822,-0.036651913,0.023823744,280.63324,-65.49909,-7.651028
596561564000.0,-0.7956254915456091,9.735737700119843,-1.7891496061156436,0.027183503,-0.028099801,0.024129177,280.79578,-65.836464,-7.691215
596565370000.0,-0.7901422735356504,9.733727184432086,-1.8063303553712464,0.026572637,-0.022296581,0.015271631,280.95892,-66.16254,-7.7344365
596570497000.0,-0.7827559207408373,9.731018851817494,-1.829474260109416,0.017715093,-0.016798794,0.023823744,281.11816,-66.48379,-7.7736926
596575361000.0,-0.7757484660901701,9.728449448689467,-1.851430950697763,0.013439035,-0.014660766,0.0125227375,281.28018,-66.79688,-7.820579
596580357000.0,-0.768550842028753,9.72581031669366,-1.873983505422143,0.009468411,-0.003970624,0.013439035,281.43637,-67.10339,-7.863215
596585380000.0,-0.7613143196787733,9.723156921974898,-1.8966579414470748,0.008552114,0.005192355,0.01863139,281.59338,-67.40267,-7.9074492
596590453000.0,-0.7540057634610853,9.720477114806217,-1.9195580835841404,0.015271631,-0.0015271631,0.023823744,281.75195,-67.69691,-7.9505677
596595366000.0,-0.746927715620064,9.717881827477273,-1.9417359661623783,0.011911872,0.014049901,0.02565634,281.902,-67.98237,-7.996055
596600354000.0,-0.73974161697748,9.715246921473453,-1.964252407908817,0.0076358155,0.03023783,0.017715093,282.05438,-68.262886,-8.041823
596605361000.0,-0.7325281454651671,9.71260197873866,-1.9868546179778663,0.010995574,0.03848451,0.013133603,282.2044,-68.53918,-8.086607
596610359000.0,-0.7331708355589303,9.710465317874377,-1.9896354827663276,0.018936822,0.04642576,0.013744468,282.3506,-68.8094,-8.133231
596615622000.0,-0.749284726286054,9.709206421188297,-1.9536310120425504,-0.004581489,0.059253927,0.015577064,282.49377,-69.06609,-8.181489
596620363000.0,-0.7638003933841527,9.708072385621373,-1.9211975718560736,-0.008552114,0.055588737,0.009162978,282.58667,-69.43209,-8.209903
596625330000.0,-0.779008011708611,9.70688429140899,-1.887218053314368,-0.0067195175,0.06963864,0.006414085,282.67102,-69.78663,-8.239146
596631074000.0,-0.7965945950900662,9.705510340703146,-1.847923035294726,-0.0021380284,0.07941248,0.006414085,282.75824,-70.13304,-8.268122
596635314000.0,-0.8095763349120318,9.70449614310691,-1.818916963497497,-0.011301007,0.083383106,-0.004276057,282.84476,-70.46737,-8.300985
596640338000.0,-0.824958471908625,9.70329441463439,-1.7845475048396493,-0.016798794,0.09010262,-0.0076358155,282.92752,-70.79741,-8.332362
596645362000.0,-0.8403406089052181,9.702092686161867,-1.750178046181801,-0.021380283,0.099571034,-0.003970624,283.00928,-71.117714,-8.364525
596650300000.0,-0.8554594370280639,9.70091152867833,-1.7163969182255003,-0.007330383,0.1151481,-0.02076942,283.09003,-71.43118,-8.403474
596655336000.0,-0.8708783147977381,9.699706929835251,-1.6819453669116222,-0.011911872,0.12889257,-0.0036651916,283.16608,-71.73665,-8.431918
596660326000.0,-0.8861563529372684,9.698513334079308,-1.6478085041125254,-0.012217305,0.1432479,-0.009162978,283.24142,-72.0345,-8.471538
596665373000.0,-0.9016089097489336,9.69730610406322,-1.6132817011972866,-0.01985312,0.15027285,-0.018020526,283.31454,-72.32417,-8.507027
596670307000.0,-0.9167154909474188,9.696125903369866,-1.5795279374596625,-0.013133603,0.1591304,-0.01863139,283.38364,-72.6108,-8.542078
596675321000.0,-0.9320670106331111,9.694926566872809,-1.545226889348506,-0.0036651916,0.16432275,-0.021685716,283.45337,-72.88776,-8.57951
596680333000.0,-0.9474124068566234,9.693727708770844,-1.5109395233466878,-0.013744468,0.15393804,-0.026267206,283.52588,-73.1544,-8.6161
596685368000.0,-0.9628282228952074,9.692523349125311,-1.4764948130874789,-0.007330383,0.16249016,-0.02565634,283.5922,-73.420906,-8.652876
596690365000.0,-0.9781276931523684,9.691328078986542,-1.4423100629056975,-0.015882496,0.1572978,-0.026267206,283.66644,-73.67375,-8.688627
596695321000.0,-0.9933016324348356,9.690142615947169,-1.4084057959653524,-0.011301007,0.15974127,-0.024129177,283.73663,-73.92516,-8.723661
596700825000.0,-1.0101534003546702,9.688826072652432,-1.3707526310663083,-0.015882496,0.15699236,-0.029626964,283.81104,-74.16449,-8.759423
596705307000.0,-1.0238760791004369,9.687753989249998,-1.3400910240391437,-0.016493361,0.1518,-0.027183503,283.8855,-74.40097,-8.791578
596710321000.0,-1.039227598786129,9.68655465275294,-1.3057899759279872,-0.016798794,0.14385876,-0.022907447,283.96243,-74.6295,-8.823588
596715346000.0,-1.0546127975138122,9.685352685082872,-1.2714136762154695,-0.018936822,0.14385876,-0.023518313,284.03946,-74.85075,-8.855714
596720486000.0,-1.0703500953168554,9.684123209694985,-1.2362506552159993,-0.017715093,0.15424347,-0.02565634,284.11627,-75.066956,-8.886528
596725356000.0,-1.0852607257255753,9.68295831764459,-1.2029347189772013,-0.028405234,0.14996742,-0.025350908,284.1978,-75.27417,-8.91529
596730311000.0,-1.1004316032769526,9.681773093802764,-1.169037293091525,-0.029932396,0.14905111,-0.020463986,284.27594,-75.47816,-8.943529
596735355000.0,-1.1158749748953474,9.680566581379315,-1.1345310133402935,-0.023518313,0.15454891,-0.020463986,284.3544,-75.67481,-8.972538
596740344000.0,-1.1311499513037877,9.679373224820916,-1.100400991595866,-0.023518313,0.15210545,-0.024740042,284.43594,-75.863976,-9.00031
596745363000.0,-1.1465167796449305,9.678172692336128,-1.0660657382113634,-0.013744468,0.16371189,-0.025045475,284.51233,-76.05165,-9.027461
596750357000.0,-1.1618070647088208,9.676978139789997,-1.03190151119359,-0.01160644,0.1591304,-0.023518313,284.59476,-76.2315,-9.05374
596755300000.0,-1.176941201487117,9.675795786318725,-0.9980861779639436,-0.004276057,0.16401732,-0.035124753,284.67252,-76.40627,-9.084346
596760326000.0,-1.1923294619458904,9.67459357945111,-0.963703037196757,-0.010079277,0.16065755,-0.027183503,284.75348,-76.577095,-9.1078415
596765337000.0,-1.2076717964383124,9.673394960546691,-0.9294225122496078,-0.014660766,0.15118915,-0.019242255,284.83597,-76.741905,-9.133987
596770346000.0,-1.2230080074685543,9.672196820037366,-0.895155669411797,-0.0009162979,0.14263703,-0.023823744,284.91992,-76.90285,-9.160816
596775359000.0,-1.2383564654231565,9.670997722737852,-0.8608614623553095,0.0015271631,0.13561209,-0.022296581,285.00607,-77.05792,-9.182907
596780306000.0,-1.253502849125813,9.669814412476397,-0.8270187649069864,-0.007941248,0.13713925,-0.026572637,285.09317,-77.205925,-9.207533
596785332000.0,-1.2688911095845865,9.668612205608785,-0.7926356241398,-0.0033597588,0.11575896,-0.022907447,285.1889,-77.35382,-9.227822
596790339000.0,-1.284221197152648,9.66741454349455,-0.7583824634113274,0.007330383,0.101098195,-0.021685716,285.283,-77.49445,-9.250048
596795423000.0,-1.2997870380146463,9.666198463169252,-0.7236025414733298,0.0021380284,0.08735373,-0.016187929,285.383,-77.62951,-9.268896
596800300000.0,-1.314719100540997,9.665031896736036,-0.6902387178518479,0.004886922,0.07666359,-0.021380283,285.48706,-77.760994,-9.289747
596805297000.0,-1.3300185707981578,9.663836626597265,-0.6560539676700667,0.014660766,0.07544186,-0.010995574,285.59174,-77.892426,-9.304311
596810347000.0,-1.3323851845928707,9.663291605802025,-0.6351521090862113,0.018325957,0.06078109,-0.017104227,285.70444,-78.01356,-9.323965
596816236000.0,-1.3004693394292792,9.664411453320229,-0.6469105773107567,0.018325957,0.065973446,-0.010079277,285.81104,-78.136154,-9.337601
596820366000.0,-1.278086517129121,9.665196810808798,-0.6551568795297026,0.0125227375,0.04062254,-0.007941248,285.95255,-78.12524,-9.406924
596825320000.0,-1.251237969508059,9.666138859476684,-0.6650484488257458,0.020463986,0.036957346,-0.0036651916,286.08466,-78.11887,-9.473312
596830302000.0,-1.2242376739392,9.667086232602124,-0.6749959252554767,0.022907447,0.028099801,-0.005497787,286.22427,-78.109726,-9.538538
596835355000.0,-1.1968525889312822,9.668047107030633,-0.6850851662027729,0.021991149,0.021380283,-0.009468411,286.3628,-78.10184,-9.602021
596840313000.0,-1.169982363031964,9.668989916335311,-0.6949847222322001,0.018325957,0.0012217305,-0.009468411,286.50623,-78.09437,-9.663049
596845432000.0,-1.1422395864328088,9.669963341270904,-0.7052057442803319,0.017104227,-0.014966198,-0.0067195175,286.64908,-78.08694,-9.7231865
596850360000.0,-1.1155319476204164,9.67090044579964,-0.7150453998093792,0.024129177,-0.022602014,0.00030543262,286.79364,-78.081345,-9.780627
596855336000.0,-1.0885641694689423,9.671846677969889,-0.7249808961390342,0.017715093,-0.03481932,-0.0027488936,286.94293,-78.0717,-9.838447
596860396000.0,-1.0611411474740753,9.672808883512785,-0.7350841138697524,0.017104227,-0.040927973,-0.00030543262,287.0907,-78.06707,-9.891761
596865338000.0,-1.034357634687784,9.673748650270294,-0.7449517229656436,0.027794369,-0.055588737,-0.015882496,287.24356,-78.05818,-9.949503
596870425000.0,-1.0067882843146834,9.674715990111542,-0.7551088511467037,0.02687807,-0.0729984,-0.011301007,287.3966,-78.05276,-9.999684
596875419000.0,-0.9797229539110536,9.675665645147358,-0.7650802877765864,0.031154128,-0.074830994,-0.013744468,287.5485,-78.0444,-10.055422
596880334000.0,-0.953085769502996,9.676600277606516,-0.7748939864221358,0.032070424,-0.07238753,-0.021380283,287.70248,-78.0352,-10.1100855
596886362000.0,-0.9204166041699804,9.677746557253272,-0.7869299936317742,0.02321288,-0.08857546,-0.018020526,287.8604,-78.027214,-10.160834
596890334000.0,-0.898890073860966,9.678501869588526,-0.7948608198820534,0.04917465,-0.098043874,-0.027794369,288.01477,-78.0195,-10.216928
596895426000.0,-0.8712936256400443,9.679470160225767,-0.8050279314798434,0.048563786,-0.10354166,-0.03573562,288.17078,-78.00774,-10.270337
596900353000.0,-0.8445914063972162,9.680407074595305,-0.8148655903255447,0.046731193,-0.10903945,-0.036651913,288.3279,-77.99887,-10.3234
596905361000.0,-0.8174502020196877,9.681359391859894,-0.8248649805222714,0.051618114,-0.116980694,-0.04886922,288.48627,-77.98608,-10.380813
596910359000.0,-0.7903631933378011,9.6823098075325,-0.8348444038855382,0.051618114,-0.12217305,-0.052534413,288.6435,-77.974144,-10.435106
596915341000.0,-0.7633628977689418,9.68325718065794,-0.8447918803152691,0.06169739,-0.12217305,-0.05100725,288.8,-77.96255,-10.490402
596920358000.0,-0.7361729172653354,9.684211209355317,-0.8548092406621096,0.06658431,-0.1142318,-0.062308256,288.9545,-77.94605,-10.549549
596925321000.0,-0.7092755935181959,9.685154969455986,-0.8647187801082667,0.06658431,-0.09712757,-0.06688975,289.1044,-77.932236,-10.605737
596930304000.0,-0.6822698783797724,9.68610253274062,-0.8746682532213436,0.052534413,-0.09254608,-0.07086037,289.25433,-77.91443,-10.6638775
596935358000.0,-0.6548793738022906,9.68706359732833,-0.8847594908519859,0.06352998,-0.074830994,-0.08155051,289.39432,-77.89702,-10.725116
596940354000.0,-0.6278032042595324,9.68801363268254,-0.8947349208485607,0.05375614,-0.06658431,-0.087659165,289.53418,-77.87518,-10.784997
596945485000.0,-0.5999953928256068,9.688989339528511,-0.9049799030968444,0.051618114,-0.04886922,-0.093462385,289.66504,-77.853165,-10.84749
596950333000.0,-0.5737213195783507,9.689911231321387,-0.9146598239582124,0.057726767,-0.029321533,-0.09437868,289.79163,-77.83073,-10.909445
596956134000.0,-0.5422823965364092,9.691014344830151,-0.9262425840483104,0.05681047,-0.012217305,-0.09407325,289.9127,-77.80609,-10.971908
596960416000.0,-0.519075799662492,9.69182860651685,-0.9347923821358473,0.050701816,0.0036651916,-0.09590584,290.02734,-77.7809,-11.034526
596965348000.0,-0.4923464825718427,9.692766471682376,-0.9446400243982784,0.065973446,0.02321288,-0.08857546,290.13464,-77.76075,-11.093778
596970402000.0,-0.4649559779943608,9.693727536270083,-0.9547312620289208,0.07086037,0.030543262,-0.0852157,290.24002,-77.7372,-11.153564
596975318000.0,-0.438313374016739,9.694662358888442,-0.9645469573578164,0.080634214,0.0290161,-0.081855945,290.34125,-77.71795,-11.210377
596980330000.0,-0.4111504913609536,9.695615436789826,-0.9745543342879268,0.09040806,0.018325957,-0.07452556,290.44205,-77.701096,-11.263957
596985355000.0,-0.3839171543008335,9.696570986760785,-0.9845876681015354,0.086437434,0.008246681,-0.060170226,290.54202,-77.686424,-11.313506
596990322000.0,-0.3569981522754373,9.69751550749825,-0.9945051942810764,0.090713486,-0.013439035,-0.04428773,290.64746,-77.67593,-11.359052
596995347000.0,-0.3297648152153172,9.69847105746921,-1.004538528094685,0.09437868,-0.03359759,-0.021991149,290.75397,-77.67014,-11.397676
597000312000.0,-0.3028566523290494,9.699415197888278,-1.014452060907534,0.07971791,-0.06688975,0.0033597588,290.8692,-77.667564,-11.429453
597005309000.0,-0.275775063216727,9.700365423401689,-1.024429487587455,0.07696902,-0.09743301,0.007941248,290.98837,-77.66661,-11.459995
597010444000.0,-0.2474081722127205,9.703489599679315,-1.0346923012613576,0.076358154,-0.11056661,0.023823744,291.11005,-77.67358,-11.479532
597015344000.0,-0.2072787435649385,9.758667632816676,-1.0447247042544094,0.070554934,-0.14110987,0.032375857,291.2444,-77.67851,-11.498664
597020314000.0,-0.1677836146531204,9.808620999419448,-1.0639605842380262,0.06872234,-0.17867808,0.048563786,291.30524,-77.81372,-11.40617
597025788000.0,-0.1322766924121916,9.823838560522496,-1.1451192681857765,0.06414085,-0.21044308,0.05375614,291.37326,-77.94408,-11.315885
597030335000.0,-0.1061230815994651,9.83693739426044,-1.2105687100288007,0.06658431,-0.22327125,0.06841691,291.39798,-78.10581,-11.202112
597035325000.0,-0.115954033450936,9.85659918504423,-1.2597234949495988,0.061086524,-0.22785273,0.077579886,291.43,-78.2619,-11.090616
597040320000.0,-0.125693207544791,9.874882679495686,-1.3108088184472462,0.057421334,-0.22357668,0.08307768,291.40988,-78.44614,-10.963401
597045361000.0,-0.1348460512276045,9.884035231680729,-1.3748786907763768,0.044898596,-0.21960606,0.10048734,291.39227,-78.629036,-10.833122
597050344000.0,-0.1456846880747207,9.8911671076692,-1.4375970752464091,0.02443461,-0.22143865,0.1020145,291.30383,-78.8319,-10.694514
597055301000.0,-0.2214406210551018,9.828780007791233,-1.4777031278513095,0.015882496,-0.21044308,0.11178834,291.21368,-79.03367,-10.552474
597060321000.0,-0.2981593589129823,9.765600011546043,-1.518318900309772,0.009773844,-0.20799962,0.118507855,291.0285,-79.258736,-10.39951
597065341000.0,-0.3944025377383137,9.6615639163338,-1.5921422873798985,0.009162978,-0.18875736,0.13041973,290.8423,-79.476234,-10.246599
597071962000.0,-0.5130902756361881,9.532980011232013,-1.7141685975254477,0.020463986,-0.16493362,0.13194689,290.661,-79.68183,-10.098698
597075333000.0,-0.5584162192435943,9.48765431905932,-1.801987643769744,0.029321533,-0.13103059,0.13103059,290.3221,-79.921875,-9.927694
597080273000.0,-0.6248386937083188,9.421232213057213,-1.9306812327483327,0.03573562,-0.04917465,0.12950343,289.73877,-80.20401,-9.722228
597085375000.0,-0.6821546372986823,9.384170628477303,-2.051014108272328,0.038789943,0.05375614,0.12583824,289.17578,-80.45208,-9.522889
597090325000.0,-0.7342101291544656,9.358142814604683,-2.1638009997437777,0.05009095,0.15760323,0.12064589,288.62256,-80.66835,-9.329464
597095704000.0,-0.7958160244199475,9.382941667716535,-2.280926976272966,0.060170226,0.2657264,0.10842858,287.92416,-99.11696,-9.108758
597100313000.0,-0.8514248554225722,9.433916481889764,-2.378242442624672,0.076052725,0.35643986,0.09437868,287.24243,-98.94445,-8.89393
597105304000.0,-0.923548319491833,9.50725995753176,-2.422031846315789,0.09712757,0.4089743,0.08979719,286.46582,-98.79373,-8.65025
597110394000.0,-1.003169683738657,9.591304541016337,-2.435302012105263,0.1282817,0.43096542,0.07819075,285.71646,-98.69538,-8.415898
597115304000.0,-1.066972788446556,9.669969086935868,-2.355982695458432,0.16035213,0.41630468,0.07422013,284.89633,-98.62869,-8.144677
597120367000.0,-1.1176483915249409,9.748285639429929,-2.1671007578527317,0.18020524,0.3744604,0.06872234,284.1239,-98.61488,-7.882179
597125316000.0,-1.1720682444345978,9.77422158738036,-2.00525717045374,0.20586158,0.3203988,0.06963864,283.40936,-98.643295,-7.6202903
597130312000.0,-1.235670370560085,9.710619549805031,-1.88229314259128,0.22021692,0.2443461,0.07696902,282.74484,-98.70911,-7.36366
597135388000.0,-1.2924215411924989,9.649393964176951,-1.7649974533819524,0.21135938,0.14996742,0.076358154,282.19305,-98.78525,-7.14043
597141470000.0,-1.2877535403910885,9.607382931799968,-1.6949788548725755,0.17562376,0.06383542,0.0852157,281.67697,-98.87515,-6.9171877
597145298000.0,-1.2848155089757975,9.580941262622217,-1.6509092733050168,0.13927728,-0.008857546,0.087659165,281.19867,-98.973206,-6.7119584
597150309000.0,-1.2725009662446471,9.583416649227331,-1.6172660380748465,0.09101892,-0.060170226,0.089491755,280.75186,-99.07228,-6.509753
597155292000.0,-1.254731064987898,9.61007166347049,-1.5994960904300874,0.042455133,-0.098043874,0.105068825,280.33423,-99.17037,-6.308546
597160311000.0,-1.2333471407371313,9.634389132719058,-1.607206559147692,0.00030543262,-0.11362094,0.09621128,279.91653,-99.26752,-6.11598
597165321000.0,-1.207841815318508,9.65564357056791,-1.645464591662975,-0.032986723,-0.115453534,0.09162979,279.51703,-99.35828,-5.9228873
597170325000.0,-1.182680705761358,9.671606302945582,-1.6769098768247628,-0.048563786,-0.102319926,0.089186326,279.12466,-99.44507,-5.73214
597175352000.0,-1.1586454216175737,9.66679915576635,-1.681716923614578,-0.0421497,-0.06811147,0.082161374,278.73578,-99.5347,-5.547739
597180347000.0,-1.1342540400661645,9.669281657415915,-1.6783367107149425,-0.03756821,-0.02076942,0.0720821,278.34592,-99.628586,-5.363652
597185369000.0,-1.107736107921338,9.700219429516633,-1.6429794217055689,-0.021685716,0.034513887,0.054367006,277.95255,-99.73107,-5.1865005
597190623000.0,-1.080415967997865,9.732504497554034,-1.6018505867206263,0.00580322,0.10354166,0.0421497,277.5529,-99.837425,-5.007445
597195369000.0,-1.0602026851907853,9.760802781108245,-1.5209976243440362,0.02321288,0.16584991,0.017104227,277.14694,-99.95015,-4.8392076
597200291000.0,-1.0392398158320733,9.790150474250645,-1.4371463220225915,0.04886922,0.22907446,-0.0018325958,276.72357,-100.06481,-4.6670494
597205309000.0,-0.988924487628562,9.84849313937111,-1.2963791076973468,0.06841691,0.27152961,-0.015271631,276.29663,-100.183685,-4.5025873
597211467000.0,-0.9164867819030462,9.930589384703572,-1.1032117445135932,0.07971791,0.3417791,-0.03940081,275.85156,-100.30853,-4.346112
597215308000.0,-0.8774748176581286,9.973047156403556,-1.021126874845792,0.08368854,0.35888332,-0.04062254,275.41577,-100.414055,-4.1828895
597220373000.0,-0.8369047766231051,10.013616932671198,-0.9805568867642448,0.07391469,0.3735441,-0.053450707,274.96777,-100.519806,-4.0302997
597225272000.0,-0.8095390245273061,10.045472105323544,-0.9427155609224416,0.06811147,0.37782016,-0.05955936,274.4821,-100.59774,-3.852528
597230306000.0,-0.7984767036415787,10.06759683180358,-0.9058411066314824,0.053145275,0.35979962,-0.0571159,274.00876,-100.66715,-3.6815424
597235345000.0,-0.7874033951506808,10.089743533578094,-0.8689300269389628,0.040011674,0.33750305,-0.062308256,273.53485,-100.726105,-3.5084546
597240347000.0,-0.7888785138291579,10.11543613774614,-0.9084571071646482,0.013133603,0.32406402,-0.056199603,273.07437,-100.771996,-3.3375754
597245301000.0,-0.79326452355459,10.141752287695294,-0.9654752793935472,0.0061086523,0.30176744,-0.04886922,272.63205,-100.816185,-3.1748292
597250315000.0,-0.8502205442513565,10.141165828699672,-1.056105529054733,0.006414085,0.28893927,-0.058948494,272.1867,-100.846794,-3.0184388
597255322000.0,-0.9369545944161586,10.12510398184498,-1.1653261882963757,-0.010995574,0.28160888,-0.051923547,271.7566,-100.86487,-2.8616214
597260368000.0,-1.0243642243605546,10.108917027734975,-1.2753975776579352,-0.016493361,0.27397305,-0.05009095,271.34213,-100.893196,-2.7176754
597265306000.0,-1.088969458222686,10.05913021585736,-1.38898399008915,-0.017715093,0.2669481,-0.0421497,270.93863,-100.91334,-2.5754316
597270381000.0,-1.144283155823217,9.989988154021246,-1.5088302787367225,-0.034208454,0.25595254,-0.0421497,270.54608,-100.924614,-2.4404488
597275322000.0,-1.192312856418562,9.928569712907542,-1.592328729399338,-0.035124753,0.25442538,-0.03573562,270.2088,-100.95293,-2.3374865
597281280000.0,-1.2445459430321808,9.860264794380678,-1.660633522061827,-0.033292156,0.23457226,-0.044593163,269.88403,-100.97532,-2.2433221
597285331000.0,-1.2800605845010915,9.813822494120132,-1.7070757367438911,-0.03940081,0.23090707,-0.042455133,269.58383,-101.01014,-2.157432
597290343000.0,-1.3090798956049194,9.754924806845263,-1.7886688501287062,-0.04734206,0.2144137,-0.05375614,269.2956,-101.0433,-2.081707
597295390000.0,-1.3321202758127564,9.695020010773192,-1.8808304671942035,-0.03481932,0.21013765,-0.059864793,269.00925,-101.07728,-2.0055995
597300311000.0,-1.3380128957507085,9.65887447875354,-1.964683333711048,-0.03359759,0.20952678,-0.058337633,268.74115,-101.1187,-1.9434317
597305311000.0,-1.3334912715769591,9.636266357884796,-2.046072663267233,-0.025045475,0.21044308,-0.0580322,268.47675,-101.16323,-1.8849717
597310372000.0,-1.346441704652645,9.614514050031868,-2.100465253877204,-0.015577064,0.21533,-0.069027774,268.22833,-101.221924,-1.8329768
597315380000.0,-1.3770093365200764,9.594135735181643,-2.125938280433397,-0.010079277,0.22693644,-0.087659165,267.9804,-101.27934,-1.7839117
597320371000.0,-1.380617642691751,9.58103765014472,-2.122262404486252,-0.0070249503,0.23884831,-0.10262536,267.73956,-101.35163,-1.7360898
597325326000.0,-1.3677414549204052,9.572453345694646,-2.1008020915340087,-0.02321288,0.25992316,-0.10354166,267.49597,-101.416985,-1.689494
597330333000.0,-1.3504268814549791,9.569125983303518,-2.0536169736434107,-0.03481932,0.2782491,-0.11056661,267.25397,-101.48726,-1.6557999
597335369000.0,-1.3264610869807194,9.573919242297755,-1.9673400134366923,-0.05131268,0.3100141,-0.1160644,267.00546,-101.5484,-1.6208065
597340309000.0,-1.2909491974601175,9.582554206129304,-1.924940210243493,-0.070554934,0.33169982,-0.11911872,266.7565,-101.598724,-1.5871973
597345361000.0,-1.2350925187447523,9.59778761922754,-1.9503295855583545,-0.09010262,0.37782016,-0.12980886,266.49426,-101.64192,-1.5549947
597350895000.0,-1.1753584724531076,9.60292728466348,-1.9632454,-0.112399206,0.40866885,-0.14446963,266.2132,-101.66617,-1.5240359
597355307000.0,-1.128738893527032,9.599042647664582,-1.9632454,-0.12797627,0.453262,-0.14385876,265.91943,-101.68382,-1.4894732
597360353000.0,-1.0489488677131131,9.600103564819998,-1.9494366439283717,-0.116980694,0.4908302,-0.15454891,265.60962,-101.708824,-1.4507247
597365309000.0,-0.9117223815463532,9.613383352173102,-1.9051700235590372,-0.122783914,0.5045747,-0.15699236,265.29907,-101.721405,-1.4098469
597370324000.0,-0.7956540089900747,9.624691,-1.8674773,-0.122478485,0.54000485,-0.1518,264.96384,-101.74045,-1.3584793
597375414000.0,-0.8006418183730686,9.624691,-1.8674773,-0.11636983,0.5717699,-0.15790866,264.63046,-101.75679,-1.3122383
597380365000.0,-0.7809723163310565,9.621981872882108,-1.8765078588840596,-0.118507855,0.6035349,-0.15149458,264.2738,-101.76336,-1.2349545
597385426000.0,-0.6691854260125965,9.609083573405483,-1.9195028339661135,-0.10629055,0.6224717,-0.15149458,263.9183,-101.77277,-1.1630934
597390780000.0,-0.5523359317140468,9.5951402458194,-1.9639020033444816,-0.081855945,0.6469063,-0.14630222,263.55347,-101.783875,-1.090613
597395361000.0,-0.4826406360167224,9.57679939264214,-1.978574685886288,-0.06505715,0.68386364,-0.14263703,263.18695,-101.792946,-1.0196762
597400400000.0,-0.4059773321488295,9.55662485451505,-1.99471431638796,-0.04428773,0.7031059,-0.13683382,262.81442,-101.820564,-0.9224773
597405320000.0,-0.3229766493124348,9.537973033715314,-2.01418229409982,0.00061086525,0.72021013,-0.12308934,262.4414,-101.85583,-0.82402754
597410363000.0,-0.2314986018088834,9.51967705455062,-2.0370517904536416,0.025045475,0.74036866,-0.11636983,262.0705,-101.88736,-0.7285379
597415388000.0,-0.1507657464693712,9.50085660060852,-2.05166471148073,0.06994407,0.7504479,-0.086437434,261.7017,-101.94007,-0.60503286
597420512000.0,-0.0810901047906693,9.480949392900609,-2.0566415393914808,0.10476339,0.7715228,-0.06566802,261.33328,-101.992874,-0.48514214
597425322000.0,-0.0293810905301884,9.458005394748554,-2.0489208933689365,0.124005646,0.7706065,-0.03848451,260.9724,-102.058304,-0.34080455
597430321000.0,0.0096798066013944,9.42959763729417,-2.027614964040944,0.14935656,0.77488256,-0.016187929,260.61508,-102.13109,-0.1962027
597435447000.0,0.0497330489891707,9.40046817846017,-2.0057677558522475,0.16554448,0.7733554,0.006414085,260.26477,-102.20731,-0.037408948
597440372000.0,0.0939606153239436,9.345075270422535,-1.9750073290140848,0.1704314,0.7703011,0.03176499,259.92505,-102.283516,0.1222468
597445609000.0,0.1425249759366197,9.278850731602112,-1.9396878208450703,0.17256944,0.74372846,0.054061573,259.603,-102.3597,0.27962396
597450304000.0,0.214027254288253,9.189302400390972,-1.9292066582193,0.16829337,0.7171558,0.07391469,259.2795,-102.43283,0.44902804
597455300000.0,0.3160618576790474,9.066010762573308,-1.9377095359161187,0.16798794,0.6795876,0.099571034,258.9776,-102.504486,0.6171247
597460344000.0,0.4034511626518159,8.956664799031477,-1.9392908782760288,0.1441642,0.64812803,0.12339478,258.67767,-102.56652,0.7938196
597466438000.0,0.4543227945530266,8.877531331719128,-1.9166812824600483,0.13439035,0.6377433,0.14508049,258.3928,-102.62993,0.9687803
597470332000.0,0.4864122290358559,8.830306718274949,-1.9103277250495705,0.12492194,0.6264423,0.15515977,258.12903,-102.69636,1.1490326
597475359000.0,0.526186352247191,8.782577629213483,-1.9341921865168537,0.12461651,0.6044512,0.17287487,257.88098,-102.76112,1.3288709
597480257000.0,0.5649398146480502,8.736073336748182,-1.957444251817581,0.10445796,0.59406644,0.2003638,257.63608,-102.819565,1.5083636
597485310000.0,0.610663189345672,8.673393614445992,-1.99629559480796,0.1001819,0.58001655,0.22876903,257.40686,-102.881134,1.6846133
597490358000.0,0.6581715622553436,8.606090392760626,-2.0398448987470315,0.09621128,0.5662721,0.24862215,257.18842,-102.93605,1.8586924
597495502000.0,0.6978346375191424,8.51682125459418,-2.085199309724349,0.089491755,0.55955255,0.26419923,256.98102,-102.999466,2.0388675
597500348000.0,0.7200442339969372,8.396888784264931,-2.129618595444104,0.08735373,0.5522222,0.2846632,256.78537,-103.06265,2.2182736
597505274000.0,0.7364379452400179,8.285520255091969,-2.170215328559892,0.09590584,0.54519725,0.2947425,256.60138,-103.14329,2.4002447
597510422000.0,0.7320143143382682,8.205895083624943,-2.1967571139703903,0.116980694,0.5448918,0.2950479,256.424,-103.22576,2.5784948
597515552000.0,0.72696387765723,8.1311456974911,-2.2285882254365146,0.1255328,0.548557,0.29352075,256.25876,-103.3227,2.761881
597520336000.0,0.7114305970333955,8.138912094507544,-2.3489711908204782,0.13591751,0.54367006,0.28955013,256.10138,-103.42382,2.93772
597525286000.0,0.6953583271571453,8.146947977708086,-2.473531324317681,0.14660765,0.5580254,0.29565877,255.94342,-103.536835,3.118405
597530306000.0,0.687014200684262,8.157409855571848,-2.5312795703079183,0.16646078,0.58093286,0.3118467,255.79008,-103.653244,3.2950668
597536606000.0,0.6820994206256109,8.17215450366569,-2.555853419281525,0.16584991,0.6123924,0.31490102,255.63496,-103.7638,3.4654243
597540326000.0,0.6881281361519981,8.175620311003444,-2.571786196043886,0.17165314,0.64568454,0.32986724,255.49069,-103.90929,3.6407905
597545465000.0,0.7314826077568671,8.159854935613037,-2.599375551533595,0.18509217,0.65393126,0.35827246,255.35097,-104.0545,3.8155813
597550262000.0,0.7719518430727957,8.145138744574357,-2.6251288378313444,0.19058995,0.6533204,0.3915646,255.20206,-104.205894,3.9983757
597555306000.0,0.7969961052368352,8.07302232429214,-2.6306974848901827,0.19486602,0.66889745,0.4111123,255.05276,-104.35802,4.181016
597560418000.0,0.8142693129002381,7.973701309208785,-2.626379136755756,0.20677789,0.66889745,0.43890667,254.91602,-104.51343,4.36812
597565307000.0,0.8153263027732032,7.851716846497916,-2.5805799949883097,0.2134974,0.66553766,0.45478916,254.78209,-104.67801,4.5648017
597570319000.0,0.7958086005997763,7.690695965334959,-2.478111929927824,0.20891592,0.636827,0.48991394,254.66356,-104.84309,4.766356
597575346000.0,0.7486592099123528,7.540884488797589,-2.374080168803068,0.20952678,0.571159,0.52412236,254.5624,-105.01663,4.9652967
597580295000.0,0.6707699429562677,7.406741692431297,-2.270227845996531,0.21960606,0.48991394,0.5537493,254.48038,-105.19064,5.163177
597585352000.0,0.5698029473534986,7.289056449950723,-2.151981347411114,0.21319197,0.37720928,0.57360244,254.41933,-105.35014,5.3604803
597590324000.0,0.4145847664422712,7.224081482503221,-2.003982611515428,0.20311269,0.2452624,0.5742133,254.39064,-105.50929,5.547104
597595300000.0,0.2592417116928208,7.159054242354635,-1.8558648098627848,0.19547687,0.1001819,0.5739079,254.3797,-105.65358,5.71779
597600315000.0,0.1514490069253808,7.202682397221261,-1.779528557470568,0.18661933,-0.0580322,0.5534439,254.41,-105.79035,5.867214
597606335000.0,0.0566260202113919,7.3324400265495155,-1.7396030649151664,0.16432275,-0.2284636,0.53878313,254.48581,-105.91998,6.0019336
597610330000.0,0.0104206163429262,7.4261354401934705,-1.727567910713422,0.16035213,-0.41783184,0.5195409,254.57587,-106.006226,6.097807
597615341000.0,-0.0166592421097944,7.557666252575575,-1.7391735563724304,0.16065755,-0.59681535,0.5131268,254.70969,-106.08675,6.178513
597620311000.0,-0.0435175331714631,7.688120879903264,-1.750684244643289,0.17654006,-0.77213365,0.50762904,254.8771,-106.1495,6.228937
597625328000.0,-0.0165543427899891,7.775121903373232,-1.824613902456086,0.21533,-0.91690874,0.52198434,255.08444,-106.22004,6.270768
597630268000.0,0.0202165445223068,7.852340715125136,-1.909186963547334,0.2593123,-1.0122037,0.5345071,255.32307,-106.295784,6.3004537
597635356000.0,0.0600038503003076,7.902362527507692,-2.009181654338461,0.3371976,-1.0815369,0.5549711,255.57996,-106.38949,6.327031
597640317000.0,0.1038597354847179,7.873125293784615,-2.14074930785641,0.41080686,-1.1087204,0.56779927,255.8482,-106.494545,6.350487
597645301000.0,0.1311213341816033,7.82344197266102,-2.2565047140831203,0.4801401,-1.1157454,0.5757405,256.14075,-106.63926,6.3901815
597650322000.0,0.1216501576974591,7.728730306716565,-2.3370097290328933,0.5647449,-1.0818423,0.57451874,256.42606,-106.80703,6.4307637
597655325000.0,0.0961991881139952,7.675175417825377,-2.420413283427119,0.623388,-1.0509937,0.57360244,256.72546,-107.01917,6.484948
597660355000.0,0.0306183147249954,7.723268024832093,-2.5122264879106915,0.66614854,-1.0280862,0.569021,257.01416,-107.24641,6.5379205
597665404000.0,-0.0303770808986334,7.784491999394568,-2.5953147,0.70096785,-0.97524637,0.5635232,257.29562,-107.50701,6.601658
597670379000.0,-0.0468602558899844,7.961686077841203,-2.5953147,0.7086037,-0.90194255,0.5647449,257.56268,-107.76842,6.667344
597675967000.0,-0.0653744230963501,8.160713316104479,-2.5953147,0.7119634,-0.7819075,0.5519168,257.80695,-108.04401,6.7276173
597680311000.0,-0.0636076039461172,8.288354502377178,-2.62275503977813,0.729984,-0.74220127,0.5479461,258.05182,-108.322395,6.787912
597685329000.0,-0.0591276531136384,8.431712966439825,-2.658594609014636,0.7293731,-0.6411031,0.54183745,258.2437,-108.5907,6.8570075
597690310000.0,-0.0524846718970465,8.435289092941765,-2.7216907992157515,0.7199047,-0.5357288,0.52870387,258.40802,-108.84265,6.9222403
597695572000.0,-0.0440760024822292,8.351202016852996,-2.8057775240947773,0.7272351,-0.37568212,0.5012149,258.52652,-109.09205,6.9932637
597700320000.0,-0.035703689974996,8.250121782704252,-2.8565225213091257,0.72021013,-0.19150625,0.47219884,258.60245,-109.32771,7.0702186
597705308000.0,-0.0242920531729574,8.059928127281415,-2.826091431581462,0.68752885,-0.013744468,0.4550946,258.63467,-109.55165,7.1544356
597710332000.0,-0.0127980549184583,7.868361783086479,-2.7954407108934545,0.65087694,0.15241088,0.44073927,258.63565,-109.79112,7.252806
597715335000.0,-0.0037399635372552,7.718366431363906,-2.7051348903026198,0.6041457,0.3155119,0.42638394,258.5883,-110.01154,7.3597345
597720368000.0,0.0044316173105874,7.583535275273374,-2.5907327567262866,0.5555819,0.43157628,0.42546764,258.50992,-110.215805,7.4744716
597725367000.0,-0.0186955845458341,7.540216685974568,-2.4555030175365347,0.50243664,0.50854534,0.43127087,258.40674,-110.41165,7.606325
597730315000.0,-0.0951391874795976,7.652633856139685,-2.2846291574112736,0.45448375,0.5439755,0.4361578,258.28543,-110.59035,7.741082
597735314000.0,-0.15322891,7.73806,-2.1547816,0.41172317,0.5693264,0.42119157,258.13742,-110.73626,7.8803797
597740335000.0,-0.15322891,7.73806,-2.1547816,0.37659842,0.57787853,0.4016439,257.98697,-110.86699,8.01749
597745300000.0,-0.1482569820078987,7.931965125931245,-2.1812985135266136,0.3417791,0.5766568,0.37812558,257.79758,-110.93159,8.137337
597750426000.0,-0.1350380489749573,8.447503339377075,-2.251799394614487,0.29901853,0.5723807,0.3454443,257.60626,-110.97839,8.246174
597755319000.0,-0.1121531779788084,8.89558199810076,-2.3303862022590964,0.27214047,0.5467244,0.32345316,257.41864,-111.01866,8.354687
597760354000.0,-0.0350332697570971,9.126942110305878,-2.470166187215114,0.24312437,0.539394,0.30909783,257.22693,-111.041756,8.454303
597765340000.0,0.047835819453664,9.325581686882344,-2.5960255,0.23915374,0.52748215,0.3100141,257.0224,-111.03556,8.541436
597770336000.0,0.1638146477288831,9.37018866338803,-2.6584755,0.21410827,0.5143485,0.30634892,256.82062,-111.012886,8.619582
597775525000.0,0.285077100816434,9.402857902818017,-2.7228951379510136,0.20219639,0.49327368,0.31123585,256.63116,-111.01023,8.70642
597780359000.0,0.4110645254499166,9.21184466956369,-2.775728665806338,0.18203785,0.47525316,0.3295618,256.4477,-110.99906,8.791869
597785356000.0,0.5413001814063735,9.014390568080064,-2.8303437131156177,0.15057829,0.46120325,0.34238997,256.27863,-111.00004,8.889629
597790366000.0,0.6335593291670485,8.708436916613215,-2.873787181682397,0.12705997,0.43463063,0.3594942,256.12244,-110.99955,8.987058
597795406000.0,0.7131715164665995,8.363450694676075,-2.913593298423898,0.084910266,0.4071417,0.39400807,255.97539,-110.98914,9.087687
597800348000.0,0.7423559770107991,8.029185570539957,-2.9026933652699785,0.035430185,0.38545597,0.4120286,255.858,-111.01251,9.217294
597805351000.0,0.7340773194902808,7.693899854514039,-2.8530212472570198,-0.017715093,0.35643986,0.44135013,255.75632,-111.02893,9.351432
597810328000.0,0.7105324410929738,7.417498660752306,-2.8119378928317955,-0.06811147,0.27152961,0.45753807,255.70566,-111.07777,9.4984045
597815410000.0,0.6376109709723208,7.317711360539389,-2.7965860929737403,-0.0888809,0.15943582,0.48166725,255.67545,-111.12446,9.645063
597820682000.0,0.5619631963804116,7.214193326945824,-2.7806603375916725,-0.07666359,0.036651913,0.5155703,255.6813,-111.19202,9.795761
597825419000.0,0.3480662651746612,7.552300909703406,-2.975085697751739,-0.03604105,-0.09010262,0.5540548,255.72247,-111.26485,9.938851
597830394000.0,0.0759110160717685,8.047763181764921,-3.247240895847675,0.07391469,-0.20555615,0.60139686,255.79843,-111.363556,10.078866
597835746000.0,-0.2097948961033797,8.571052220675945,-3.5432280254473163,0.25686884,-0.2666427,0.6606508,255.89752,-111.4986,10.217672
597840432000.0,-0.3510575568687872,8.879599623757455,-3.8517755061630217,0.45906523,-0.26816985,0.70249504,256.0143,-111.66885,10.355764
597845345000.0,-0.4991632872017892,9.20309373202452,-4.175269695825049,0.7180721,-0.20189096,0.73761976,256.14108,-111.89171,10.445766
597850362000.0,-0.5672864634519454,9.407845171932156,-4.395805310276023,0.9831876,-0.07788532,0.7415904,256.25272,-112.16415,10.541412
597855338000.0,-0.5712483986697705,9.514817174592617,-4.530511024941803,1.2311989,-0.01160644,0.72356987,256.36307,-112.493385,10.63845
597860330000.0,-0.5559109211886196,9.598525466596415,-4.590995769567966,1.4376713,0.050701816,0.70341134,256.4695,-112.903015,10.719719
597865358000.0,-0.4341351135932561,9.552859676501582,-4.240890460484721,1.5183055,0.036651913,0.67011917,256.5756,-113.329956,10.788618
597870323000.0,-0.2460803240035482,9.509718279716145,-3.6277238383205206,1.6734654,-0.12705997,0.5992588,256.7133,-113.831245,10.831169
597875365000.0,0.1441693529016361,9.471645365464225,-2.2190176623299824,1.7715092,-0.48258355,0.55955255,256.90607,-114.32787,10.848144
597880321000.0,0.5471651150445075,9.418449410838305,-0.9539007183987088,1.7614299,-1.069625,0.56077427,257.15253,-114.77397,10.830536
597885355000.0,1.0234610899638072,9.309985742834783,-0.0814773334999512,1.5738943,-1.6212363,0.6056729,257.484,-115.19082,10.776445
597890340000.0,1.4829965269117795,9.1947104002836,0.4174665110503393,1.3066407,-1.8148806,0.67011917,257.67227,-115.34682,10.784171
597895342000.0,1.890559415982984,9.04430031601337,-0.6936273639076268,1.0503827,-1.5473217,0.7495316,257.88867,-115.464935,10.799874
597900309000.0,2.262773793541061,8.882144774255089,-1.777154496393532,0.8344419,-0.9645562,0.8151997,257.95526,-115.41225,10.890838
597905370000.0,2.513744728488372,8.666398040697675,-2.803053448255814,0.6417139,-0.27275133,0.8530733,257.92593,-115.313095,11.036146
597910460000.0,2.7581203,8.445143637848707,-3.807451109223423,0.5006041,0.36651915,0.8564331,257.91415,-115.43002,11.320313
597915313000.0,2.7581203,8.110305745748514,-3.970976515774483,0.410196,0.84238315,0.83016586,257.763,-115.51237,11.653178
597920302000.0,2.7581203,7.766084389126246,-4.139084542414342,0.355829,1.128879,0.7812967,257.67017,-115.807785,12.070032
597925355000.0,2.6951239782354848,7.613331481349335,-4.08549450638988,0.33383787,1.2287555,0.72173727,257.50275,-116.0763,12.491284
597930997000.0,2.58120562971132,7.578279618456049,-3.87080213211158,0.29077184,1.1475104,0.68325275,257.31192,-116.31477,12.898903
597935323000.0,2.498679119103555,7.539688119072643,-3.7267484517465226,0.26145032,0.97310835,0.6560693,257.17596,-116.61328,13.295351
597940340000.0,2.4293689927047915,7.430772228315302,-3.672290454672849,0.23793201,0.7632761,0.61941737,257.0737,-116.88725,13.65076
597945335000.0,2.382107926152913,7.31981938557559,-3.637552002288488,0.2302962,0.5681047,0.58246,256.9742,-117.10622,13.962545
597950340000.0,2.41534774684466,7.199324531206657,-3.674946849375867,0.2321288,0.39950588,0.54244834,256.92453,-117.309906,14.231665
597955305000.0,2.4483219146237865,7.079792672676837,-3.712042836546463,0.24098633,0.30970868,0.5180137,256.9033,-117.50368,14.47721
597960350000.0,2.4881369647721976,6.994734239727942,-3.744170028156154,0.25625798,0.16584991,0.51007247,256.9422,-117.69122,14.682884
597965343000.0,2.5282331784682754,6.9145419984161,-3.775355972141992,0.28344148,0.03145956,0.47403142,256.99854,-117.8712,14.8582945
597970399000.0,2.5344478271570794,6.864647788772124,-3.844145022455752,0.32375857,-0.061086524,0.44806966,257.09546,-118.08294,15.038128
597975248000.0,2.530167091694321,6.826120722612463,-3.9211991547750737,0.3390302,-0.12003502,0.42852196,257.21674,-118.28618,15.19276
597980311000.0,2.519713241864735,6.823382580546771,-4.049422330837499,0.36254853,-0.14110987,0.40042216,257.3491,-118.51677,15.342885
597985330000.0,2.5050036244516987,6.847898524237478,-4.211227763990615,0.35705075,-0.11056661,0.37751472,257.4818,-118.737045,15.483649
597990330000.0,2.523956756350899,6.918019149710631,-4.356691642339324,0.3286455,-0.03726278,0.36682457,257.61478,-118.975685,15.63131
597995392000.0,2.563333658087116,7.016461095674688,-4.494510387247436,0.27977628,0.043982297,0.34666604,257.73358,-119.19781,15.770743
598000430000.0,2.5817987194545773,7.087993083350703,-4.584507373371547,0.24129178,0.11209377,0.34391713,257.85184,-119.44099,15.919152
598005302000.0,2.589903317265937,7.144725479598749,-4.649344325117248,0.19486602,0.16249016,0.3295618,257.94965,-119.66011,16.062397
598010407000.0,2.6116598041982386,7.189869782326438,-4.716245086524677,0.16401732,0.21991149,0.30818152,258.03558,-119.88684,16.216974
598015364000.0,2.6554085523141517,7.209313647818964,-4.779437700133115,0.13713925,0.29138273,0.28680122,258.10315,-120.09566,16.370777
598020311000.0,2.690772669259944,7.207939182388408,-4.826400669259944,0.09193522,0.3585779,0.269697,258.15338,-120.297485,16.526451
598025344000.0,2.7142094262374794,7.175127771564719,-4.849837426237479,0.038179077,0.40378192,0.23640485,258.1866,-120.479324,16.673567
598030269000.0,2.755659161059568,7.1649356788780025,-4.860870225570103,0.0012217305,0.41416663,0.20311269,258.2123,-120.663284,16.826523
598035353000.0,2.835870821616232,7.198708946995578,-4.8482051894129885,-0.04642576,0.3921755,0.17959438,258.23285,-120.823074,16.969864
598040575000.0,2.9131722632333767,7.234864415567145,-4.843214760286832,-0.11881329,0.3304781,0.16646078,258.26172,-120.97397,17.112852
598045427000.0,2.9333663673620167,7.283330307648849,-4.919952355975663,-0.17715092,0.24037547,0.16187929,258.30334,-121.110176,17.240843
598050254000.0,2.9534564210777923,7.331546478522382,-4.996294560095611,-0.22632557,0.19547687,0.16707164,258.33926,-121.231735,17.371666
598055297000.0,2.9019083611409338,7.389996945318898,-5.069202308361387,-0.23640485,0.118507855,0.17195857,258.40768,-121.344986,17.481718
598060413000.0,2.8216691307160406,7.452405070148303,-5.140526218724411,-0.26419923,0.058948494,0.18387043,258.48508,-121.44218,17.587713
598065434000.0,2.6811099472935296,7.523329823286223,-5.09410460258629,-0.2669481,0.03848451,0.18448131,258.5766,-121.553314,17.687819
598070812000.0,2.478084682011345,7.607511216229209,-4.9455493097298335,-0.28955013,0.030848695,0.14935656,258.67657,-121.64708,17.772781
598075353000.0,2.334778387676084,7.696472085252224,-4.81426159778075,-0.33261612,0.013439035,0.12950343,258.7873,-121.74019,17.85766
598080292000.0,2.208218562981034,7.811864685968364,-4.665367674942945,-0.34513888,-0.00030543262,0.08093964,258.88934,-121.82251,17.923166
598085901000.0,2.064889019875777,7.943799177570739,-4.4942253768115945,-0.3707952,0.008857546,0.030848695,258.95526,-121.8405,17.960194
598090364000.0,1.9616492267857144,8.072848986309523,-4.30249425,-0.39584067,0.030848695,-0.022602014,259.0133,-121.847046,17.982983
598095330000.0,1.8467738486801244,8.21644328391132,-4.089154170289855,-0.42943826,0.10934488,-0.08979719,258.99835,-121.77811,17.975971
598100329000.0,1.722805434869512,8.389560168019552,-3.705089765540717,-0.48258355,0.204029,-0.15393804,258.96606,-121.69205,17.961138
598105303000.0,1.5939159706642227,8.58081539556603,-3.210320814873004,-0.54519725,0.3005457,-0.204029,258.905,-121.589005,17.943266
598110316000.0,1.4847295899900892,8.738068177799802,-2.795391196194252,-0.605062,0.37934732,-0.258396,258.75592,-121.40071,17.898796
598115405000.0,1.4219374327552032,8.815350871655104,-2.5683734279980177,-0.67347896,0.43096542,-0.30573806,258.58398,-121.19234,17.85217
598120461000.0,1.3450737457912458,8.85267465717784,-2.3747345106825835,-0.72784597,0.46578476,-0.35002577,258.27975,-120.84701,17.77716
598125339000.0,1.2402126225589225,8.805010510254055,-2.255574043832262,-0.77274454,0.4886922,-0.38637227,257.96317,-120.4881,17.696304
598130261000.0,1.1224657384224497,8.752845505119453,-2.1383590044747818,-0.80909103,0.52320606,-0.40775254,257.58997,-120.07405,17.603481
598135444000.0,0.971880688260144,8.68884695324232,-2.021655573204399,-0.8393288,0.54000485,-0.41813725,257.21643,-119.65486,17.503853
598140327000.0,0.8300117320682594,8.628552735836177,-1.9117071157679184,-0.86070913,0.550695,-0.4156938,256.8208,-119.213715,17.39472
598145440000.0,0.6289460938709037,8.56196401469712,-1.7750853600993048,-0.8781188,0.5354234,-0.42638394,256.4292,-118.7707,17.277433
598150459000.0,0.4093794822055611,8.49513929428997,-1.6318897513803376,-0.8927795,0.5149594,-0.43585235,256.04092,-118.33225,17.160849
598155298000.0,0.252262002229458,8.435389506990997,-1.4694959702164336,-0.893085,0.49754974,-0.4364632,255.6398,-117.86716,17.0209
598160439000.0,0.110811045305497,8.374094331928749,-1.2856097557556023,-0.90377516,0.46211955,-0.44257188,255.2518,-117.401886,16.872293
598165303000.0,-0.0320348744205634,8.350976,-1.0399750493755446,-0.92087936,0.4025602,-0.45020768,254.86087,-116.90318,16.69354
598170432000.0,-0.1889659921173395,8.350976,-0.7308682793745764,-0.9263771,0.29901853,-0.45234573,254.49605,-116.41266,16.506502
598175351000.0,-0.3644328479342569,8.353051710140175,-0.5086596364915157,-0.93737274,0.19914207,-0.4605924,254.12093,-115.88656,16.297974
598180288000.0,-0.5620978508697434,8.356927572833838,-0.349752463223215,-0.95386606,0.109650314,-0.47311515,253.77492,-115.36537,16.079329
598186353000.0,-0.814569370574466,8.347037176046035,-0.1713784170399883,-0.9630291,0.057421334,-0.48655418,253.39375,-114.78952,15.836695
598190332000.0,-1.000398489037355,8.309870995318443,-0.0896136161706817,-0.9984592,0.06047566,-0.5222898,253.02231,-114.2078,15.583113
598195462000.0,-1.2352395468364985,8.265859221954608,0.0179098266330708,-1.0711522,0.10140363,-0.55955255,252.62343,-113.565094,15.294564
598200338000.0,-1.3866409051690598,8.283162133672997,0.1520081887811023,-1.1578951,0.13591751,-0.59223384,252.22656,-112.91672,14.999438
598205268000.0,-1.539718980759611,8.300656669106068,0.2875916435370078,-1.2815952,0.16432275,-0.63071835,251.8025,-112.20739,14.668326
598210343000.0,-1.3765415098666445,8.381139852042539,-0.5875510370543551,-1.3854424,0.2302962,-0.6658431,251.35992,-111.48973,14.337021
598215351000.0,-1.1660457763082377,8.47019627743079,-1.607645900606009,-1.4923438,0.32650748,-0.6792821,250.90369,-110.75424,14.007233
598220528000.0,-0.4513460488747302,9.055708614941938,-3.987543849758504,-1.6029104,0.5647449,-0.6649268,250.36424,-109.96414,13.668566
598225345000.0,0.6295271711437675,10.013324353817696,-7.310754776055905,-1.6713274,1.1163563,-0.51068336,249.72165,-109.20035,13.3933525
598230319000.0,0.8393961735633526,11.640420398739536,-8.127552447239207,-1.529912,1.7712038,-0.1881465,249.21188,-108.69657,13.2295265
598235354000.0,0.3313957104949676,13.79488605295833,-6.875694301815445,-0.8686504,1.7394388,0.24617869,248.76141,-108.34679,13.128896
598240321000.0,-0.2017865665559738,15.48229500237765,-6.293689959054884,0.5708536,-0.093767814,0.37690386,249.13551,-108.796005,13.1879835
598245345000.0,-0.7833095554967308,16.61197529720626,-6.56538508186051,3.300505,-2.4422393,-0.13958271,249.64503,-109.596275,13.132542
598250349000.0,0.4895796112071533,17.44455268323398,-4.67713486362146,6.0133576,-3.7372735,-1.054048,250.02078,-110.225945,12.7290125
598255626000.0,4.552859544798808,17.892680477794336,0.4857538256035765,6.797403,-8.347168,-0.5873469,252.03854,-111.23813,12.113499
598261466000.0,9.049648404411323,18.3886187609538,6.199468046766021,6.1117067,-8.393899,1.6823229,253.14305,-112.57195,11.84751
598265440000.0,5.201316912043988,16.551318325684676,8.63172473189172,0.9083566,-5.6657753,2.6584857,254.66116,-112.87414,11.22093
598270337000.0,-0.0205500783123611,14.136267264248705,11.52780302353812,-1.2363913,-1.9428569,3.1325169,256.068,-113.99237,11.137557
598275427000.0,-4.662854318438136,8.553486024997579,8.256164156283306,-3.5240817,-0.047647487,2.4804184,256.62915,-113.21989,11.574797
598280320000.0,-8.985116328204631,2.6376164877918797,3.988384167861641,-4.541172,1.3359623,1.4715744,256.378,-112.37974,12.361733
598285447000.0,-10.805498277616056,0.4940961759460701,-0.445690469779378,-4.601037,2.2947154,0.61575216,255.43611,-110.71472,12.64023
598290326000.0,-11.804145931208826,-0.4472810475716255,-4.655042487206986,-3.6361754,2.830444,0.021685716,254.19464,-109.05899,12.760266
598295293000.0,-12.766293932754216,-0.7840287767910067,-8.257886958303526,-2.1368067,2.5967882,-0.53786683,253.26569,-107.82824,12.356348
598300352000.0,-13.449581550638731,2.256106674695963,-8.213324845988758,-1.0479393,2.147802,-0.95233893,252.20406,-106.61794,11.82037
598305325000.0,-13.562878729020708,5.166180924801495,-7.998910438113031,-0.86284715,1.9898936,-0.9569204,251.5216,-106.14942,11.296464
598310311000.0,-11.533338219212206,7.783024571461934,-7.129107279308734,-1.1136073,2.1340578,-0.8063421,250.86371,-105.77869,10.717064
598315325000.0,-9.492400369998442,10.41456368986455,-6.254419546006539,-1.1872166,2.4288,-0.8008443,250.18643,-105.221725,9.881691
598320426000.0,-7.683262228922549,11.493545241497571,-5.167383668476708,-1.073901,2.5708263,-0.9111055,249.50641,-104.69312,9.072504
598325373000.0,-6.072002084624178,11.68310530837382,-4.007456992054872,-0.8362745,2.4440718,-1.0415252,248.81183,-104.20757,8.27574
598330358000.0,-4.297025699725383,11.841430719497842,-3.2387828776775205,-0.5476407,2.1316142,-1.1111639,248.06464,-103.68842,7.6231523
598335355000.0,-2.391449694478226,11.9728494670459,-2.802284047587289,-0.19914207,1.7119498,-1.0989466,247.38123,-103.259094,6.950886
598340307000.0,-0.7063374010693181,11.991394424256637,-2.443561771372292,0.21777347,1.2360858,-1.0088439,246.76462,-102.91158,6.4454026
598345440000.0,0.8291218148672732,11.894563636431856,-2.148458422587,0.6612616,0.7464773,-0.8854492,246.27524,-102.68445,5.9351664
598350255000.0,2.093418222053232,11.699211754146106,-1.9046433225628996,1.0381655,0.5036584,-0.82833326,245.87404,-102.653435,5.6782484
598355297000.0,3.097347520912548,11.304671685057844,-1.709326333905024,1.1911873,-0.028405234,-0.75228053,245.70157,-102.703255,5.4234796
598361212000.0,4.257616724326107,10.836231779408129,-1.4914524040062649,1.4248432,-0.7672467,-0.72204274,245.66153,-102.96327,5.438642
598365308000.0,4.871997444662435,10.45143535372187,-1.4623501399884593,1.509448,-0.97494096,-0.7360926,245.62433,-103.21995,5.4595566
598370326000.0,5.624673825191658,9.980022154480258,-1.426697024548677,1.450805,-1.3387111,-0.8014552,245.8578,-103.56258,5.5978236
598375316000.0,6.327988068736598,9.66690489827601,-1.6813583078308605,1.2293663,-1.5558738,-0.8707884,246.10555,-103.87291,5.718899
598380321000.0,6.981661202067073,9.531236729908226,-2.2692530601681105,0.84788096,-1.5870279,-0.8912524,246.39926,-104.11701,5.818722
598385360000.0,7.489714576146349,9.353914574692444,-2.8313518169995207,0.35185838,-1.4129313,-0.84574294,246.751,-104.32861,5.906272
598390309000.0,7.095950067670555,8.937433175746925,-3.206185313260904,-0.20158553,-1.0824533,-0.74097955,247.06523,-104.42761,6.014249
598395301000.0,6.698764287450072,8.517333126537785,-3.584275596820578,-0.7360926,-0.7290677,-0.6753115,247.38908,-104.544304,6.2125483
598400315000.0,6.3368926467341655,8.027453296300243,-3.9045623558693663,-1.1643091,-0.4877759,-0.63407815,247.65332,-104.557724,6.446593
598405320000.0,5.9975453025274055,7.498362843422655,-4.189176352101096,-1.4471397,-0.31429017,-0.57818395,247.841,-104.489914,6.720327
598410758000.0,5.635848843426125,6.929086578466809,-4.492280256865096,-1.6187929,-0.19272798,-0.5308419,247.99876,-104.410614,6.988776
598415356000.0,5.394462310835118,6.499117142201285,-4.692178375785868,-1.6884315,-0.09315695,-0.47616947,248.11841,-104.30921,7.2821717
598420346000.0,5.13249650012848,6.032490894492506,-4.909118700582441,-1.6771306,-0.03481932,-0.4251622,248.23743,-104.25315,7.5625224
598425326000.0,4.65671346340172,5.5350282724272,-4.871090437359365,-1.6194037,-0.009773844,-0.38789943,248.34189,-104.21222,7.8559346
598430622000.0,4.039931699801456,4.989574840130708,-4.699062793150232,-1.5488489,-0.03604105,-0.35979962,248.44855,-104.19797,8.158422
598435341000.0,3.5713326443718443,4.596400645411346,-4.538823228601129,-1.4450017,-0.10598512,-0.35521814,248.57924,-104.24672,8.434068
598440314000.0,3.3072968686763686,4.445523192931392,-4.350226400693001,-1.3454307,-0.19822577,-0.34208453,248.72812,-104.32693,8.714782
598445357000.0,3.045804113575674,4.364146628891377,-4.172725214195883,-1.215011,-0.2519819,-0.35308012,248.85886,-104.39123,8.929984
598450318000.0,2.808435498277199,4.511478884658454,-4.041763190076665,-1.1447614,-0.3652974,-0.3454443,249.03723,-104.477234,9.143655
598455266000.0,2.571688893057111,4.658425065173573,-3.911144344008959,-0.9807441,-0.49113566,-0.34483343,249.21698,-104.5795,9.329864
598460323000.0,2.313473634228188,5.1638916644295305,-3.7357901718120807,-0.7993172,-0.5946773,-0.34422258,249.42542,-104.7073,9.511046
598465697000.0,2.0414614898749743,5.752303745439639,-3.5415016659971306,-0.62125,-0.68203104,-0.33414328,249.66776,-104.87564,9.686947
598470353000.0,1.886097001414224,6.433165731912277,-3.317594158393113,-0.441961,-0.75136423,-0.33964106,249.89706,-105.06002,9.865805
598476217000.0,1.692540968,7.303400626666667,-3.0131189866666666,-0.2678644,-0.78984874,-0.32467487,250.12048,-105.21975,10.00518
598480306000.0,1.5647475367832169,7.953321346386946,-2.7246708233100234,-0.1142318,-0.77091193,-0.33017266,250.34772,-105.40753,10.131537
598485384000.0,1.4060449093146852,8.760437368578089,-2.366456156270396,0.022296581,-0.7742717,-0.35033122,250.57834,-105.521736,10.167925
598490344000.0,1.263215584909776,9.618220596172913,-1.8881890908387864,0.11881329,-0.79320854,-0.39370266,250.80551,-105.654854,10.195533
598495264000.0,1.1230671946658737,10.477797669343644,-1.3976697737656156,0.1826487,-0.8695667,-0.44959682,251.04742,-105.80375,10.209598
598500357000.0,1.1215136175978198,11.11965910920771,-0.909910400700798,0.2003638,-0.95081174,-0.50335294,251.2448,-105.838135,10.141693
598505269000.0,1.144406960794238,11.696571931477518,-0.4428858361378236,0.1704314,-1.0183123,-0.5543602,251.4543,-105.86761,10.057386
598510464000.0,1.1455232463220308,11.995070807948862,-0.2450390212729294,0.11453723,-1.0693196,-0.5919284,251.61438,-105.767006,9.911656
598515340000.0,1.1411970950528072,12.20272633991106,-0.1282328556920511,0.03268129,-1.0818423,-0.6264423,251.77646,-105.650116,9.755871
598520312000.0,1.1363691044059878,12.29709244187281,-0.1875890917231129,-0.052839845,-1.0454959,-0.65240407,251.87482,-105.44083,9.594167
598525356000.0,1.13124060040344,12.327863572990765,-0.346572822904767,-0.13836098,-0.9825767,-0.68111473,251.96301,-105.21475,9.42855
598530313000.0,1.079451905812798,12.396384299185216,-0.5349061463364467,-0.2284636,-0.9410379,-0.70554936,252.03468,-104.941216,9.2514105
598535348000.0,1.0123742890103338,12.47783533008744,-0.7361390017468203,-0.3182608,-0.90469146,-0.7290677,252.08473,-104.65336,9.075758
598540344000.0,0.9057522526529204,12.531960354844276,-0.9035379733456992,-0.42760566,-0.87109387,-0.7641924,252.14893,-104.34722,8.882809
598546199000.0,0.7654628965145371,12.585173621602967,-1.087365389327927,-0.55924714,-0.7635816,-0.79137594,252.17789,-104.02312,8.69799
598550359000.0,0.593631938635399,12.600852445033956,-1.227109643590832,-0.6197228,-0.6056729,-0.8063421,252.2066,-103.6997,8.493902
598555294000.0,0.3127908654233871,12.595837324596774,-1.402635297983871,-0.7315111,-0.41630468,-0.84879726,252.19067,-103.33584,8.288537
598560318000.0,0.0915321393978273,12.613052709121558,-1.5088447895205097,-0.8374963,-0.2443461,-0.9056077,252.15955,-102.957924,8.054441
598565376000.0,-0.0763140000758569,12.64934355122682,-1.5542086263626147,-0.9443977,-0.09254608,-0.97249746,252.07704,-102.55532,7.8207064
598570337000.0,-0.2491136913240997,12.643494095370004,-1.478386847653344,-1.0332786,0.046731193,-1.0296134,251.9697,-102.11728,7.539063
598575408000.0,-0.4374504627590028,12.57815304629996,-1.2285523434665613,-1.1142182,0.1282817,-1.103528,251.83255,-101.65253,7.245394
598580485000.0,-0.6260100739944598,12.512734685793433,-0.9784222354491492,-1.2049317,0.204029,-1.1734722,251.66559,-101.14731,6.917713
598585366000.0,-0.5466155136744824,12.467104737292487,-0.8041698738832792,-1.269378,0.22388211,-1.2238685,251.49092,-100.631325,6.583316
598590362000.0,-0.4401643231627588,12.422067631353755,-0.6322102130583604,-1.3454307,0.19303341,-1.2638801,251.3089,-100.09322,6.2407413
598595347000.0,-0.2558588335566155,12.3472486546039,-0.6566795847677313,-1.4150693,0.10629055,-1.29198,251.12192,-99.48425,5.85617
598600351000.0,-0.0074020665138946,12.247865499481543,-0.8405375967378681,-1.4611896,-0.0106901415,-1.3041973,250.95416,-98.87223,5.471066
598605309000.0,0.2710611628138398,12.075443970086749,-1.1152076481463755,-1.4633276,-0.13255776,-1.3271047,250.8082,-98.25004,5.0985804
598610324000.0,0.5727606625246785,11.85515600717918,-1.45042929004487,-1.3921618,-0.25259277,-1.3426818,250.69635,-97.64713,4.7297845
598616260000.0,0.8253620699211046,11.57369382790927,-1.8593832560157797,-1.2986995,-0.3213151,-1.344209,250.64023,-97.0998,4.393503
598620307000.0,0.9629620654832348,11.37493783530572,-2.142227686903353,-1.241889,-0.364992,-1.3494014,250.60995,-96.569984,4.0581317
598625322000.0,0.9982824411528544,11.10727180524862,-2.44319678160221,-1.2162327,-0.36132678,-1.3582588,250.62643,-96.135765,3.775583
598630289000.0,0.936960920243094,10.82694502762431,-2.706003495801105,-1.2428054,-0.34147367,-1.3686435,250.64832,-95.71214,3.49845
598635314000.0,0.8109752865416744,10.522387077687023,-2.8816784642843887,-1.2873985,-0.3200934,-1.3884968,250.70425,-95.35633,3.2503276
598640315000.0,0.5931558078373863,10.188989708000744,-2.926131385019492,-1.3536774,-0.3118467,-1.4080443,250.75534,-94.99709,3.006723
598645265000.0,0.3846583309911672,9.868500160410097,-2.948121795141956,-1.3909402,-0.31581733,-1.423316,250.84369,-94.66201,2.7523096
598650306000.0,0.194292864617981,9.571530000236592,-2.90243411488959,-1.4633276,-0.29779682,-1.4566082,250.9198,-94.30715,2.495582
598655268000.0,0.0069107094615141,9.279213806072557,-2.8574624288328074,-1.5561792,-0.23884831,-1.4779885,250.99146,-93.92487,2.196266
598660360000.0,-0.2398139706747611,8.838099221847175,-2.739879190529383,-1.6331482,-0.15974127,-1.5088371,251.04877,-93.53472,1.8941293
598665340000.0,-0.5023273171730613,8.351677580759269,-2.5970409875182128,-1.6948457,-0.044898596,-1.5561792,251.07608,-93.13308,1.5911539
598670312000.0,-0.6991069,7.9870567,-2.4899697,-1.7278323,0.03481932,-1.6224581,251.09447,-92.69232,1.2338101
598675323000.0,-0.6991069,7.9870567,-2.4899697,-1.7492126,0.18020524,-1.690875,251.05917,-92.2542,0.8735774
598680278000.0,-0.6038758140708467,7.741653598816064,-2.284856625383596,-1.7327193,0.18295415,-1.7037032,251.03976,-91.79703,0.452935
598685678000.0,-0.3491715723584012,7.085300579304793,-1.7362629637052471,-1.765706,0.058948494,-1.7626517,251.01361,-91.38578,0.009217341
598690266000.0,-0.1645061408494318,6.7277001835937495,-1.427223155184659,-1.822211,-0.03970624,-1.8038851,250.99066,-91.11927,-0.4297236
598695346000.0,-0.0361676041448863,6.811613732700892,-1.4617757627333603,-1.8353447,-0.093767814,-1.8081611,250.98935,-91.10719,-0.8653444
598700262000.0,0.0264188030943363,6.930966186988673,-1.5143262333746528,-1.8154916,-0.14630222,-1.8014416,250.9929,-91.29763,-1.2678653
598705317000.0,-0.0418673719328061,7.135824712934388,-1.6095130393588373,-1.7767016,-0.23273966,-1.7702875,251.01952,-88.340385,-1.6545407
598710351000.0,-0.1098698655206668,7.339832194558666,-1.704304410540714,-1.7293595,-0.3390302,-1.7333301,251.07788,-87.931816,-2.0029097
598715404000.0,-0.1781290232678778,7.544609668664245,-1.7994535560675358,-1.6389514,-0.43493605,-1.6936239,251.15439,-87.51113,-2.331425
598720398000.0,-0.2455911712571062,7.746996113485788,-1.8934917181021589,-1.5335772,-0.50915617,-1.6572775,251.25107,-87.09869,-2.6403995
598725362000.0,-0.3468070491242916,7.917166108681526,-1.8820346651001127,-1.4114041,-0.5644395,-1.6123788,251.38324,-86.69974,-2.938712
598730306000.0,-0.4648633589210427,8.070997015700794,-1.817640288492633,-1.2925909,-0.6206391,-1.5628988,251.53174,-86.33139,-3.2154162
598735600000.0,-0.5946057384254921,8.239078535145266,-1.7457701583880036,-1.1914927,-0.7131852,-1.5329664,251.73663,-85.969986,-3.5144265
598740383000.0,-0.7624213746851837,8.44201840921871,-1.6364948478486836,-1.1279627,-0.7583892,-1.5057828,251.93896,-85.64237,-3.7903697
598745262000.0,-0.9336052528601856,8.64903150677345,-1.5250262632529608,-1.1090258,-0.82986045,-1.4923438,252.18,-85.289406,-4.093498
598750315000.0,-1.2027367789968175,9.019147549477193,-1.2776561458175482,-1.0842859,-0.8717047,-1.4770721,252.4202,-84.964264,-4.3783417
598755673000.0,-1.5409842579784816,9.501247382179118,-0.9394087074329444,-1.0919216,-0.88331115,-1.473407,252.66711,-84.64818,-4.6527433
598760422000.0,-1.833592361281468,9.916970041957493,-0.6461096613583249,-1.1203269,-0.87017757,-1.4752395,252.92116,-84.28625,-4.964962
598765339000.0,-1.9517676804172224,10.049917222962904,-0.5094694743957336,-1.2009611,-0.8542951,-1.4874569,253.17285,-83.92523,-5.26891
598770359000.0,-2.0724185045094505,10.185649345933651,-0.3699669853674222,-1.3121386,-0.8176431,-1.5176947,253.3963,-83.44872,-5.6544514
598775321000.0,-2.17528897957734,10.274607606464215,-0.2611861114615521,-1.4676038,-0.74097955,-1.5641204,253.6005,-82.96,-6.0369034
598780300000.0,-2.259968232285562,10.312713623867875,-0.1849747265503463,-1.627345,-0.63499445,-1.6239853,253.78287,-82.45617,-6.4211025
598785349000.0,-2.3281206544759825,10.319036037663755,-0.1111055973411572,-1.8044959,-0.5174029,-1.6957619,253.94122,-81.87637,-6.846596
598790391000.0,-2.332513597889374,10.209214287117904,-0.0496056294122998,-1.9437732,-0.4184427,-1.7696766,254.07333,-81.27649,-7.278476
598795395000.0,-2.3320698411859087,10.093884041925358,0.0055149315494244,-2.0662518,-0.36865717,-1.8536706,254.19086,-80.615776,-7.744787
598800342000.0,-2.1800420605720263,9.779913636693408,-0.1266830806479246,-2.127949,-0.35369098,-1.9352211,254.29039,-79.94066,-8.218675
598805325000.0,-2.026907952870596,9.463658425601674,-0.2598431159783048,-2.1484132,-0.35369098,-1.9886718,254.39828,-79.230156,-8.710897
598810358000.0,-1.8867945676065208,9.158434776561393,-0.3746721020099236,-2.1358902,-0.3820962,-2.024102,254.51047,-78.5171,-9.205138
598815319000.0,-1.8269246319603052,8.933922664408914,-0.3821558468961172,-2.1288655,-0.44684792,-2.0751092,254.63397,-77.800995,-9.70205
598820320000.0,-1.766571971575963,8.707600335669843,-0.3896999323982043,-2.117259,-0.5235115,-2.1138992,254.80197,-77.12343,-10.172078
598825342000.0,-1.726601205671499,8.523200041500717,-0.3715921583479369,-2.1013765,-0.5882632,-2.1465805,254.98329,-76.45481,-10.63738
598830303000.0,-1.7001097660028677,8.36803581583559,-0.337531712206468,-2.1022928,-0.6383542,-2.1740694,255.17996,-75.79485,-11.094386
598835415000.0,-1.6546854629965648,8.199783758002289,-0.2931111944589095,-2.0909917,-0.657291,-2.194228,255.3965,-75.14036,-11.5486965
598840409000.0,-1.4735401548137057,7.972299030124196,-0.1793687918100942,-2.0937407,-0.679893,-2.2101104,255.62418,-74.495544,-11.99159
598845254000.0,-1.297799462353563,7.7516014917642915,-0.0690199850753105,-2.1041253,-0.6765333,-2.2107213,255.8707,-73.843094,-12.434927
598850340000.0,-1.1486725359945873,7.682387560487145,-0.0055465124005412,-2.1013765,-0.65240407,-2.2171354,256.1123,-73.205505,-12.868744
598855269000.0,-1.0117962164701333,7.650449774830853,0.0446414707898704,-2.132836,-0.6374379,-2.2180517,256.34912,-72.578156,-13.2858
598860316000.0,-0.8703651551405194,7.61970751547492,0.0445554885158306,-2.1704042,-0.6160576,-2.2052236,256.58496,-71.95316,-13.684602
598865309000.0,-0.7300271297225187,7.589938684631804,0.0275448179877267,-2.234545,-0.6133087,-2.2030854,256.81537,-71.33161,-14.072111
598870479000.0,-0.6033843013720734,7.558849557160936,0.0464942757445686,-2.3014348,-0.59712076,-2.1930063,257.06302,-70.70785,-14.448264
598875359000.0,-0.499879630036912,7.529276715988188,0.0957822067802151,-2.3796256,-0.5742133,-2.182316,257.30008,-70.086655,-14.810859
598880290000.0,-0.4054206665540275,7.492088100589391,0.11492168,-2.4523184,-0.5555819,-2.1691825,257.57574,-69.460526,-15.164618
598885339000.0,-0.3151738436493124,7.449339735265226,0.11492168,-2.5375342,-0.5320636,-2.1355848,257.83258,-68.83947,-15.498948
598890313000.0,-0.2382076297276636,7.42896729546106,0.1386335421634018,-2.6230555,-0.48899764,-2.1111503,258.12415,-68.18247,-15.850126
598895365000.0,-0.1688592867558528,7.424343979264214,0.1802425479464882,-2.7214046,-0.43890667,-2.0793853,258.39584,-67.53043,-16.179937
598900305000.0,-0.137930699118213,7.400820356178365,0.2088237422621935,-2.8038714,-0.39950588,-2.0415115,258.69717,-66.8556,-16.516079
598905304000.0,-0.1459411480757968,7.356762993558102,0.2248446485417886,-2.8802297,-0.3652974,-1.9984456,258.9761,-66.18483,-16.833742
598910360000.0,-0.1573662694769852,7.304268318868927,0.2559696189879877,-2.951701,-0.33750305,-1.9691241,259.27478,-65.49129,-17.153244
598915316000.0,-0.1977299576028489,7.18317722814925,0.4174243820282768,-3.0024028,-0.33078352,-1.9507982,259.56155,-64.80689,-17.453934
598920471000.0,-0.2505579757287329,7.033570830848984,0.5715246667493838,-3.0329459,-0.3643811,-1.9352211,259.87387,-64.1043,-17.75317
598925325000.0,-0.3335189862462819,6.820242460338235,0.6742382974436985,-3.030808,-0.42852196,-1.9486601,260.18896,-63.40951,-18.041992
598930501000.0,-0.4219833847709696,6.592762516835218,0.7837656465318262,-2.9911017,-0.50610185,-1.9651535,260.52838,-62.677696,-18.344961
598935354000.0,-0.505154301964027,6.393027394075527,0.9715368869925838,-2.9342911,-0.54458636,-1.9798143,260.87106,-61.961758,-18.637144
598941315000.0,-0.6073479918225215,6.149709089728072,1.214855206584264,-2.903748,-0.6206391,-1.9883664,261.24182,-61.26075,-18.909082
598945518000.0,-0.6481382527965158,5.96497514143624,1.3728075424592323,-2.8163943,-0.6246097,-1.9932534,261.61218,-60.52704,-19.220566
598950340000.0,-0.676202297680543,5.745140390985516,1.5458690394307708,-2.805704,-0.623388,-2.003638,261.9981,-59.79585,-19.516243
598955291000.0,-0.7180471599257375,5.498153978555442,1.6824987778229907,-2.7892108,-0.5757405,-2.0152445,262.3741,-59.013336,-19.856548
598960359000.0,-0.7723592454964394,5.226593318697864,1.786185520854527,-2.7592783,-0.5021312,-2.032654,262.7389,-58.248966,-20.191528
598965270000.0,-0.8293350026351413,4.904793046720936,1.866091567209366,-2.7269025,-0.37293324,-2.0592268,263.0959,-57.42875,-20.568653
598970306000.0,-0.8910932675285832,4.529832284331839,1.9322611433183936,-2.687807,-0.21166481,-2.0912971,263.42273,-56.62864,-20.951443
598975314000.0,-1.005693040614183,4.001179274420875,2.364700368971332,-2.617252,-0.06566802,-2.1273382,263.73935,-55.78421,-21.384493
598980312000.0,-1.2053601241590486,3.223751885745984,3.3842771979763917,-2.5378397,0.038179077,-2.1609359,264.02576,-54.96178,-21.825764
598985361000.0,-1.4200347265947153,2.483470127755861,4.419164359836249,-2.436436,0.03634648,-2.182927,264.31967,-54.084023,-22.321278
598990310000.0,-1.709312083252698,2.031915374209155,5.4633847205061405,-2.3182335,-0.057726767,-2.2094996,264.61588,-53.23817,-22.810102
598995374000.0,-2.0053113829326383,1.5698678349162636,6.531869648053592,-2.2452352,-0.27916542,-2.2531765,264.9909,-52.11336,-23.379791
599000311000.0,-2.4289654900084243,1.040901325385004,7.377749214625105,-2.2403483,-0.5821546,-2.2968533,265.4235,-51.012985,-23.90766
599005305000.0,-3.025286702780118,0.4083173070513901,7.990187626284752,-2.282498,-0.79045963,-2.3060162,265.8951,-49.934803,-24.396477
599010444000.0,-3.626142424563492,-0.2686081479071428,8.539821725817461,-2.3970351,-0.81153446,-2.2828035,266.44855,-48.545177,-24.94782
599015312000.0,-4.077541439960317,-1.1492061553642856,8.317821878801588,-2.5485299,-0.6365216,-2.2241604,267.01215,-47.16497,-25.463623
599020370000.0,-4.546558740674604,-2.0641742576071427,8.087157288373016,-2.720183,-0.321926,-2.1853704,267.56006,-45.505978,-26.134502
599025323000.0,-4.982694559817352,-3.0901162831050226,7.6568245205479455,-2.8350255,0.03940081,-2.1658227,268.0619,-43.86779,-26.79649
599030298000.0,-5.402265387442922,-4.224511856327462,7.061137394814089,-2.853657,0.18967366,-2.1853704,268.55548,-42.24766,-27.438223
599035440000.0,-6.129343833490731,-5.368393849247989,7.070476980657572,-2.8081474,0.3109304,-2.2275202,268.98386,-40.444683,-28.289593
599040574000.0,-6.972015769727178,-6.499121883525708,7.328437764637986,-2.6300802,0.16126843,-2.2992969,269.4745,-38.703106,-29.07496
599045266000.0,-7.936420957964387,-7.501017526418216,7.891794685511337,-2.122146,-0.25717425,-2.3536637,270.0495,-36.919613,-29.939129
599050317000.0,-9.240222509526127,-8.53652757283254,8.946132374973242,-1.921782,-0.8518516,-2.4969118,270.75543,-35.12783,-30.699167
599055254000.0,-10.575172167958655,-9.531071270323991,9.999834563903796,-1.5045611,-1.5155567,-2.754086,271.6869,-33.19385,-31.540874
599060352000.0,-12.064789325581396,-10.525766967799642,11.1303907960644,-1.1398746,-2.2375994,-3.0699034,272.81912,-31.326773,-32.18154
599065431000.0,-13.13960701904762,-11.120425496428572,11.92685819970238,-0.8335256,-2.8044822,-3.372587,274.19556,-29.219564,-32.84623
599070376000.0,-13.515458415873017,-11.049953359523808,12.16176581329365,-0.6450737,-3.0766227,-3.6658022,275.7215,-27.22306,-33.335743
599075251000.0,-13.5551891063562,-10.660511408275644,12.350220896633102,-0.5864306,-3.0369165,-3.8744128,277.4359,-25.005836,-33.85358
599080646000.0,-12.8723668061674,-9.526538599118943,12.464024330396477,-0.5888741,-2.7855456,-3.9000692,279.15237,-22.94293,-34.22482
599085312000.0,-12.281810948395217,-8.54579399716803,12.562450061988672,-0.65301496,-2.4743097,-3.7314703,280.86237,-20.958948,-34.526615
599090376000.0,-11.79771578454486,-7.3893179993451215,12.975425316306485,-0.745561,-2.2446244,-3.428481,282.45505,-19.105305,-34.738747
599095392000.0,-11.357295592571802,-6.2208565432687815,13.460786315464496,-0.77396625,-2.252871,-3.1273246,283.9251,-17.382076,-34.84758
599100356000.0,-11.231348938007054,-5.430402342425044,13.75349020978836,-0.74464476,-2.48164,-2.9315424,285.2709,-15.932566,-34.743706
599105304000.0,-11.25642098633157,-4.820317563977072,13.95406616005291,-0.71593404,-2.7614164,-2.869234,286.50482,-14.56478,-34.55134
599110524000.0,-11.262564935084429,-4.059304689155722,13.741808556660413,-0.6844745,-2.948952,-2.8866436,287.65805,-13.406303,-34.17367
599115319000.0,-11.241887599624766,-3.208090063752345,12.997426459287054,-0.6908886,-2.9969049,-2.8900034,288.73416,-12.300715,-33.72905
599120290000.0,-11.220451304615384,-2.325631689846154,12.22572189076923,-0.6786713,-2.9608638,-2.891225,289.79382,-11.300016,-33.22324
599125318000.0,-11.195462633169743,-1.644394449871465,11.974071474994156,-0.68111473,-2.9208522,-2.8139508,290.76923,-10.342255,-32.69038
599130353000.0,-11.169169005764587,-1.0433914807197944,11.925239976396352,-0.66553766,-2.867096,-2.6685648,291.65945,-9.43511,-32.16049
599135328000.0,-11.122576084183674,-0.4268546877834467,11.834432873015873,-0.6795876,-2.7605,-2.5772405,292.5994,-8.657245,-31.685474
599140312000.0,-10.969246036564629,0.30822856883031,11.523262502645505,-0.675617,-2.844494,-2.3499987,293.4121,-7.9524136,-31.155922
599145448000.0,-10.804474684816991,1.0440861354496158,11.174786412524476,-0.64934975,-2.896723,-2.110234,294.16565,-7.3656263,-30.65418
599150530000.0,-10.547895688431993,1.4729393055806597,10.445369953193252,-0.6411031,-2.8142562,-1.8365663,294.79755,-6.830857,-30.160654
599155271000.0,-10.30853303163127,1.8730166136466335,9.76489702251845,-0.68111473,-2.4514022,-1.5445728,295.331,-6.432885,-29.7219
599160311000.0,-9.944700628504672,2.1877559621495326,9.010858177180683,-0.8170323,-1.924531,-1.2134838,295.73022,-6.0686517,-29.352339
599165344000.0,-9.40507747926402,2.3238348176985983,8.208461911750389,-0.9294315,-1.3002267,-0.90102625,296.005,-5.747304,-29.113146
599170268000.0,-8.787524421037295,2.28732772763209,7.802125766317016,-1.0225884,-0.6817256,-0.63591075,296.18704,-5.5181103,-29.022789
599175325000.0,-7.964366530885781,1.8922118323038075,8.183130637529137,-1.1481212,-0.23884831,-0.43279803,296.26297,-5.293337,-29.054789
599180317000.0,-7.02015513853702,1.299652097457627,8.879353541109129,-1.2950343,-0.061391957,-0.2828306,296.28152,-5.0946255,-29.161552
599185504000.0,-5.675993598706512,0.1253570572033897,10.485700386448112,-1.4242324,-0.06169739,-0.20280726,296.24335,-4.8935614,-29.3366
599190345000.0,-4.421494656289028,-0.970606368644068,11.98489550468332,-1.4950926,0.04428773,-0.12370021,296.1516,-4.6400905,-29.483297
599196224000.0,-3.4839587881686045,-2.1102289086434105,13.28175627873062,-1.5204436,0.34269542,-0.01740966,296.018,-4.387687,-29.677277
599200305000.0,-3.052228493197674,-2.829779281627907,13.986158430523256,-1.4902058,0.75900006,0.08827003,295.8523,-4.149406,-29.927822
599205312000.0,-2.7939895122713865,-3.726646188023599,14.781406097935104,-1.4566082,1.1841623,0.21868975,295.71942,-3.6729565,-29.984674
599210378000.0,-2.789219004031465,-4.647354975712881,15.52083487512291,-1.4065173,1.5558738,0.35979962,295.53986,-3.23629,-30.137264
599215366000.0,-2.967923871505587,-5.383012165947854,15.811314267986669,-1.3775011,1.8002199,0.4990769,295.39804,-2.673897,-30.266617
599220387000.0,-3.335561717898452,-5.948608966281121,15.65577548010194,-1.387275,1.9446895,0.6762278,295.19604,-2.1570597,-30.463568
599225365000.0,-3.767712410839446,-6.361731605541973,15.128950873675633,-1.4535538,2.101682,0.89949906,294.9997,-1.5393308,-30.672655
599230328000.0,-4.279034364229829,-6.598024201711492,14.160538116870416,-1.5778649,2.2064452,1.0320568,294.7802,-0.94017684,-30.90014
599235645000.0,-4.822015812602059,-6.842599503017395,13.112242796237132,-1.6447546,2.5460863,1.4862351,294.46152,-0.3641633,-31.228212
599240337000.0,-5.2247823309194175,-6.9223551750088745,12.01560168175364,-1.8194622,2.626415,1.6285667,294.20966,0.27061477,-31.503773
599245308000.0,-5.6514985207224,-7.006853351792687,10.853751089235,-1.8307631,2.7537806,1.9199494,293.83704,0.8110728,-31.967976
599250296000.0,-6.000592051393428,-7.011271844624118,9.913436011482885,-1.765706,2.7693577,2.1661282,293.4404,1.3388038,-32.40754
599255312000.0,-6.322878680328574,-6.986480568794082,9.04987267585584,-1.5922203,2.713769,2.345417,292.97794,1.7894973,-32.847736
599260472000.0,-6.71627051884469,-6.911809812799462,8.162899010821704,-1.3643675,2.643214,2.4840834,292.49188,2.1862867,-33.41475
599266380000.0,-7.260997246063139,-6.751347712672588,7.149454121501605,-1.1432343,2.5399778,2.561358,291.9765,2.5118175,-33.940147
599270329000.0,-7.625101146839317,-6.644092324486902,6.472051638779014,-0.7669413,2.375655,2.5488353,291.4521,2.7304451,-34.55037
599275322000.0,-7.948182162842276,-6.494254506994796,6.265030497893031,-0.6401868,2.1389446,2.457511,290.93756,2.949164,-35.095093
599280340000.0,-8.22283708291393,-6.338480129019875,6.293725812965964,-0.4129449,1.8185458,2.298075,290.4563,3.0650365,-35.55191
599285360000.0,-8.43812588402941,-6.0372137735162585,6.362831801622073,-0.17959438,1.4388931,2.072971,290.02005,3.1464343,-36.078835
599290364000.0,-8.561627547335709,-5.514147280679148,6.493598538618965,0.038789943,0.9859365,1.8197676,289.6503,3.2101078,-36.47888
599295340000.0,-8.684438154172666,-4.994007618737209,6.623633567255363,0.23457226,0.51343226,1.5961909,289.3421,3.2359858,-36.788677
599300534000.0,-8.43170981332202,-4.012247372931693,6.755638961137039,0.41905355,-0.0061086523,1.4517213,289.08997,3.2467635,-36.945423
599305318000.0,-8.089600432244378,-2.982031544675434,6.876154639439966,0.623388,-0.5308419,1.3707817,288.88812,3.2393234,-36.95817
599310339000.0,-7.356918848739496,-1.5286675663865543,6.802269073109244,0.84299403,-1.033584,1.3255776,288.684,3.1264362,-36.841377
599315375000.0,-6.046500395331465,0.5022556859757241,6.419500957441644,1.0824533,-1.4355333,1.3014483,288.49673,2.9782512,-36.603493
599320344000.0,-4.948596316303341,2.1132476272872656,6.0842637817018765,1.3353515,-1.7800614,1.2886202,288.27374,2.6457531,-36.187847
599325363000.0,-4.410529269657436,2.590630608585136,5.869845731318912,1.5522085,-1.9422461,1.2592987,288.07382,2.2809496,-35.716133
599330445000.0,-3.86570824334652,3.074005844878377,5.652736240972982,1.7198911,-2.269059,1.2034045,288.01215,1.6885239,-34.87467
599335304000.0,-3.308677215862633,3.437411982951758,5.324312826471791,1.7617353,-2.5714374,1.1664472,287.97577,1.0849123,-34.022835
599340290000.0,-2.7327885082583814,3.798562578495503,4.972923304374489,1.8044959,-2.7769935,1.0885619,287.99292,0.46538693,-33.13614
599345388000.0,-2.309830382438929,4.0187469568919845,4.679273129176886,1.7330247,-2.8927524,1.031446,287.8384,-0.24278487,-32.269867
599350250000.0,-1.921543564093005,4.215174428058472,4.405188408819778,1.5763378,-2.9437597,0.9755518,287.7385,-0.920913,-31.384153
599355307000.0,-1.647862576135788,4.323995523323763,4.250132148961324,1.368949,-2.950479,0.9184359,287.5144,-1.6491832,-30.51885
599360365000.0,-1.3942526963857458,4.418076544367506,4.115146079885155,1.1297953,-2.9083295,0.87964594,287.32806,-2.322128,-29.663918
599365330000.0,-1.1698347402117748,4.488762123676408,4.113317513765354,0.8775079,-2.850908,0.83199847,287.1145,-2.9790893,-28.81041
599370310000.0,-0.967833495484964,4.539262403218976,4.23451860652266,0.63407815,-2.7757716,0.7849618,286.93207,-3.5724297,-27.982208
599375373000.0,-0.8741488632429487,4.616289677885271,4.64164325534814,0.40866885,-2.698192,0.7156286,286.7526,-4.1238804,-27.15852
599380340000.0,-0.8482227001757733,4.707031231700504,5.208777602915928,0.22113322,-2.6013696,0.6188065,286.60944,-4.6141844,-26.370026
599385367000.0,-0.8219833561575147,4.798868918640141,5.7827627781169095,0.043676864,-2.4807239,0.5045747,286.48486,-5.047139,-25.587961
599390491000.0,-1.1282675407692309,4.843976565384615,6.478203295192308,-0.11056661,-2.3261747,0.35338554,286.40918,-5.4226027,-24.853535
599395333000.0,-1.5509189699038464,4.867199154326923,7.179525966225961,-0.2489276,-2.1383338,0.18173242,286.37927,-5.7418704,-24.173836
599400360000.0,-1.9590264771253476,4.834163012940925,7.754865143005772,-0.35460728,-1.9181169,-0.008552114,286.39502,-6.009907,-23.504354
599405647000.0,-2.373958849739899,4.772825185256182,8.288865103370627,-0.4783075,-1.6551393,-0.22693644,286.46982,-6.2156587,-22.914957
599410594000.0,-2.7622074684885627,4.71543191240647,8.788524230271504,-0.58459806,-1.3417655,-0.46700647,286.6259,-6.35549,-22.445713
599415347000.0,-3.4629855304191257,4.431129150995298,9.1944519839952,-0.6808093,-1.0088439,-0.7293731,286.84677,-6.4401374,-22.073381
599420253000.0,-4.210252364849454,4.1209427983895175,9.608033623887168,-0.7690793,-0.8304713,-1.0345002,287.14813,-6.4702125,-21.762447
599425356000.0,-5.107825845937372,3.756924753939829,9.772050232910356,-0.79779,-0.4908302,-1.1972959,287.50018,-6.4352255,-21.65548
599430241000.0,-5.983924251330332,3.402655525787966,9.891735732296356,-0.8268061,-0.16920967,-1.5360206,287.98865,-6.3283668,-21.613293
599435381000.0,-6.711569007458564,3.153256312154696,9.867417787292815,-0.795652,0.16157386,-1.87444,288.58224,-6.1171346,-21.801922
599440365000.0,-7.399677283218232,2.922513547651933,9.83033422859116,-0.7473936,0.51343226,-2.1728477,289.24295,-5.8772645,-22.087345
599445454000.0,-7.976599313272972,2.5519802413022536,9.819172421017145,-0.68203104,0.84207773,-2.3695462,290.0421,-5.5288143,-22.611883
599450367000.0,-8.46151951161626,2.11691161321518,9.823704476594106,-0.65087694,1.1139128,-2.4269676,290.8537,-5.18434,-23.189173
599455349000.0,-8.691638162547529,1.6799710100126743,9.927076364385298,-0.65576386,1.2950343,-2.332589,291.65088,-4.8410583,-23.873924
599460356000.0,-8.701767183935361,1.2444204990494296,10.11446392110266,-0.70463306,1.3417655,-2.1233675,292.4037,-4.5168977,-24.55439
599465362000.0,-8.591107726518002,0.917435741789748,10.192167015348971,-0.7761043,1.2528846,-1.8035797,293.06354,-4.179848,-25.22452
599470485000.0,-8.411133358770151,0.6427379002606429,10.211111581523312,-0.82650065,1.0836749,-1.3875804,293.61633,-3.8834677,-25.845966
599475495000.0,-8.187239710037561,0.4153920099697412,10.021975030571786,-0.8222246,0.90377516,-0.8897252,294.04425,-3.5778902,-26.37321
599480308000.0,-7.941960813313856,0.2230164953860601,9.709365558222038,-0.7501425,0.76052725,-0.33322698,294.3165,-3.347737,-26.831684
599485649000.0,-7.71702652187379,-0.0147155832094463,9.385363867982964,-0.6203337,0.6960809,0.2312125,294.43127,-3.1625867,-27.199068
599490307000.0,-7.540871096585366,-0.2323193243414634,9.11249559512195,-0.44990227,0.6759224,0.7333437,294.3871,-3.0772548,-27.516745
599495545000.0,-7.316452814796992,-0.491032415606015,8.815060738947368,-0.2519819,0.657291,1.0928379,294.21606,-3.0644085,-27.77693
599500338000.0,-6.916107627508771,-0.8315558071157896,8.612587601403508,-0.03268129,0.61178154,1.2999213,293.93713,-3.1467028,-28.008617
599505339000.0,-6.47025039873234,-1.1635523447261469,8.408862529610992,0.15821409,0.535118,1.3750577,293.60236,-3.2549748,-28.203424
599510361000.0,-5.693027863121734,-1.224054663750726,8.292511430133539,0.33964106,0.45845437,1.3921618,293.22717,-3.4327219,-28.37543
599515518000.0,-4.922404384710178,-1.2790958667275218,8.184887221816522,0.48716503,0.40591997,1.4037683,292.84677,-3.599155,-28.478214
599520366000.0,-4.727451855855773,-1.1943339746234596,8.312030502510268,0.59498274,0.37873647,1.3665055,292.48517,-3.7916832,-28.562761
599525319000.0,-4.528276964062072,-1.1077362742126882,8.441927505248744,0.6637051,0.3032946,1.3304645,292.14218,-3.9906433,-28.499016
599530300000.0,-4.432031736792452,-0.9552774556603774,8.54288561572327,0.689056,0.18203785,1.248914,291.83585,-4.186855,-28.415998
599535374000.0,-4.357811152156334,-0.7850064613207547,8.638935569541779,0.7110472,0.0143553335,1.1371256,291.56192,-4.382804,-28.300331
599540369000.0,-4.312521097721519,-0.575198364556962,8.625300665822785,0.7302894,-0.1600467,1.0033462,291.35208,-4.5696416,-28.092684
599545463000.0,-4.28507568607595,-0.3327637278481012,8.53839029113924,0.74006325,-0.31245756,0.8524625,291.19318,-4.7345085,-27.853277
599550362000.0,-4.264471625900446,-0.065956334336301,8.449398603197087,0.7180721,-0.42730024,0.70432764,291.10504,-4.8933334,-27.551916
599555404000.0,-4.249815750060704,0.2467025695953056,8.35169225414812,0.6606508,-0.5155703,0.54153204,291.07483,-5.017102,-27.231672
599560350000.0,-4.209686901564697,0.5499996522011251,8.268200018196202,0.57848936,-0.5717699,0.37751472,291.1009,-5.1440277,-26.90335
599565310000.0,-4.142878064715189,0.8506386637341772,8.197215904272152,0.47525316,-0.6078109,0.22174409,291.1761,-5.226643,-26.574095
599570357000.0,-4.068269562319299,1.1257222990915554,8.139476804328934,0.35246924,-0.6218608,0.09132435,291.30072,-5.3085904,-26.264874
599575329000.0,-3.97047261213366,1.283702129852279,8.135715499486531,0.23640485,-0.59223384,-0.018020526,291.46265,-5.3472967,-25.974728
599580284000.0,-3.873010044118808,1.441141804313137,8.131967055099139,0.11789699,-0.5748242,-0.119729586,291.65967,-5.3903446,-25.701813
599585352000.0,-3.69232381207631,1.5000216229301722,8.127689025467678,-0.0021380284,-0.5510005,-0.16920967,291.86688,-5.3966455,-25.451868
599590326000.0,-3.476161824078533,1.5088445536951287,8.123277467957028,-0.10873401,-0.52503866,-0.1740966,292.0838,-5.370602,-25.219145
599595362000.0,-3.283819927820203,1.4840633759400677,8.116286565683906,-0.19883664,-0.48563787,-0.14202617,292.30054,-5.343173,-25.004618
599600317000.0,-3.11868594323828,1.4290187144127595,8.107112271822137,-0.25259277,-0.4364632,-0.10415252,292.508,-5.3003025,-24.808592
599605313000.0,-3.0790697096988486,1.300158757013286,8.134034486979628,-0.31031954,-0.38056904,-0.06536258,292.69324,-5.2360506,-24.603859
599610466000.0,-3.201459393179805,1.072863605771479,8.208342663950399,-0.33261612,-0.34238997,-0.042760566,292.8639,-5.1721787,-24.414942
599615346000.0,-3.3266294402234635,0.8814942608938547,8.274521351955308,-0.33383787,-0.2950479,-0.034513887,293.0139,-5.088825,-24.238516
599620339000.0,-3.4931043313577845,0.7847065628224436,8.32485116387337,-0.30940324,-0.27122417,-0.037873644,293.1541,-5.010185,-24.072052
599625316000.0,-3.6590457559873695,0.6882290196016517,8.375019694599628,-0.30268374,-0.22388211,-0.0421497,293.27927,-4.889556,-23.945623
599630356000.0,-3.8131611727047146,0.6162425784119107,8.383342243176179,-0.26175576,-0.1826487,-0.064446285,293.40518,-4.784854,-23.82898
599635338000.0,-3.960129448019167,0.5550057288251904,8.375177594763413,-0.21746802,-0.12614368,-0.0729984,293.52124,-4.686948,-23.733513
599640294000.0,-4.1076328751112765,0.4938236133234421,8.358467800074184,-0.15027285,-0.06383542,-0.087659165,293.63904,-4.587947,-23.681242
599645368000.0,-4.260837044788576,0.4307396026854599,8.326925154859051,-0.080634214,0.0061086523,-0.1001819,293.75262,-4.50363,-23.64896
599650258000.0,-4.396788079715931,0.38307226,8.306196815585412,-0.020158553,0.07971791,-0.10354166,293.85083,-4.435846,-23.654457
599655297000.0,-4.493117820614203,0.38307226,8.32101708522073,0.03970624,0.13500121,-0.11026118,293.94925,-4.3868194,-23.674871
599660332000.0,-4.589371094165067,0.38307226,8.33582559040307,0.090713486,0.19211712,-0.1151481,294.04013,-4.351888,-23.728962
599665355000.0,-4.679314714425184,0.4576793821119744,8.42794313787607,0.1282817,0.23304509,-0.115453534,294.12817,-4.33074,-23.792648
599670409000.0,-4.76610717021319,0.5782242654732018,8.567775002590157,0.14538592,0.2648101,-0.1133155,294.2135,-4.318868,-23.868088
599675361000.0,-4.7979803,0.62249243,8.619126,0.1600467,0.28069258,-0.10995574,294.29272,-4.322189,-23.963207
599680332000.0,-4.7979803,0.62249243,8.619126,0.16218472,0.29168814,-0.10476339,294.36835,-4.328255,-24.062967
599685301000.0,-4.765077244482676,0.6745889717892294,8.635577585020405,0.15485434,0.29993483,-0.09101892,294.4289,-4.3631616,-24.163607
599690341000.0,-4.71872973195967,0.747972585712571,8.658751421941265,0.15974127,0.29749137,-0.09010262,294.49088,-4.4010754,-24.261686
599695374000.0,-4.677515100722312,0.8000169106781702,8.664391160313,0.15210545,0.3036,-0.099571034,294.5454,-4.4359508,-24.362923
599700307000.0,-4.653817895144463,0.781059274885634,8.6122576445626,0.14294247,0.2929099,-0.10262536,294.5975,-4.472515,-24.455755
599705357000.0,-4.626507557528547,0.7553110577704665,8.560408557770467,0.13408493,0.28252518,-0.11026118,294.64163,-4.523393,-24.540728
599710355000.0,-4.58945334121347,0.7089932269208439,8.514090726920843,0.115453534,0.27580565,-0.1255328,294.68896,-4.567542,-24.621803
599715336000.0,-4.556192453229398,0.6648522384855234,8.470738988864143,0.10262536,0.2764165,-0.13591751,294.735,-4.610736,-24.693604
599720378000.0,-4.541527624215428,0.6306343925936425,8.441409841263413,0.07971791,0.26816985,-0.1441642,294.78497,-4.644639,-24.75959
599725383000.0,-4.523892755630631,0.6007945136468469,8.41631774936937,0.07452556,0.24312437,-0.14966199,294.83917,-4.6706424,-24.815004
599730883000.0,-4.490675976351351,0.5865587100432432,8.40682702864865,0.058948494,0.18784106,-0.16554448,294.8994,-4.6860127,-24.858412
599735818000.0,-4.4615516251501885,0.574298307097037,8.40103066327258,0.013439035,0.16676621,-0.19058995,294.96292,-4.68815,-24.895895
599740331000.0,-4.443948443712453,0.5698975232257407,8.431836334181856,0.0061086523,0.11789699,-0.19883664,295.02725,-4.6967497,-24.909203
599745534000.0,-4.423462624441327,0.5654404310772623,8.466306817416575,-0.029321533,0.071776666,-0.20952678,295.0996,-4.6790776,-24.917109
599750318000.0,-4.40050671142399,0.574622815460467,8.475488894979456,-0.051923547,0.032986723,-0.22174409,295.17444,-4.6626024,-24.913513
599755586000.0,-4.376873125382932,0.5839128134792123,8.483144039387309,-0.08857546,0.0070249503,-0.22632557,295.24945,-4.6323113,-24.894672
599760346000.0,-4.381407198189775,0.579378721734633,8.45140581380545,-0.11209377,-0.0027488936,-0.23609942,295.32834,-4.5987396,-24.870798
599765659000.0,-4.387059247081908,0.5725509954618636,8.414780901791104,-0.13652839,0.00061086525,-0.23426682,295.40643,-4.5564313,-24.842411
599770346000.0,-4.400609242402898,0.5409344214610585,8.365097192594083,-0.16035213,0.017104227,-0.23151793,295.48474,-4.508727,-24.816366
599775521000.0,-4.416215742354544,0.5070102783499446,8.311173423375076,-0.17592919,0.051923547,-0.22296582,295.5594,-4.4560776,-24.806892
599780344000.0,-4.443758281114235,0.4952063196677741,8.27969594275492,-0.17470746,0.08277224,-0.20861048,295.6286,-4.4045024,-24.80124
599785327000.0,-4.472214526322515,0.4830107720598007,8.24717421645796,-0.172264,0.12064589,-0.18997909,295.69717,-4.345164,-24.81353
599790313000.0,-4.526073716398352,0.461189048081243,8.238994942530887,-0.16890424,0.16310102,-0.17134771,295.75815,-4.2900953,-24.835163
599795477000.0,-4.5955064127667535,0.4334159453669038,8.243623885623363,-0.1704314,0.19792034,-0.15393804,295.8109,-4.2383375,-24.864267
599800614000.0,-4.669876944037902,0.4005421494474153,8.248234721174594,-0.16646078,0.21655174,-0.13744467,295.8537,-4.195589,-24.89972
599805306000.0,-4.741542743080965,0.3668171239928699,8.252450434093255,-0.15485434,0.23945917,-0.121256754,295.8888,-4.158006,-24.944567
599810475000.0,-4.82233868247993,0.3284761342670175,8.253849563786009,-0.15149458,0.25137106,-0.106595986,295.92236,-4.1176496,-24.997917
599815356000.0,-4.901176200654389,0.2906340833947244,8.250695995884774,-0.13041973,0.24251351,-0.098043874,295.95175,-4.087496,-25.04976
599820302000.0,-4.981063593584294,0.2522880920785266,8.247500432098766,-0.1255328,0.24129178,-0.09315695,295.984,-4.0492344,-25.113932
599825324000.0,-5.051249546523355,0.2280413540843949,8.261847998673037,-0.1151481,0.21410827,-0.076358154,296.00983,-4.021615,-25.165709
599830299000.0,-5.106042719515216,0.2238265071496815,8.299781493453645,-0.09987647,0.18478674,-0.0693332,296.03656,-3.997093,-25.214727
599835332000.0,-5.15793183868694,0.2234719975702346,8.33021832725808,-0.0842994,0.15515977,-0.062002823,296.06372,-3.9665732,-25.275051
599840323000.0,-5.191622822545565,0.2427239696797905,8.32059264776961,-0.07086037,0.12767084,-0.058643065,296.09,-3.9408896,-25.325747
599845349000.0,-5.2263187275257525,0.2672721989352218,8.303099718997624,-0.045814894,0.11575896,-0.04886922,296.11118,-3.9258866,-25.37322
599850472000.0,-5.265195020998416,0.3158676748732171,8.24964464421553,-0.032070424,0.10629055,-0.051923547,296.1355,-3.9109294,-25.412632
599855320000.0,-5.304977958759522,0.3655964307072905,8.202070878128401,-0.022296581,0.09896017,-0.054367006,296.16193,-3.9041145,-25.456879
599860361000.0,-5.362285337303393,0.4372306364338708,8.16864165293303,-0.011911872,0.105374254,-0.047036625,296.1857,-3.902245,-25.501196
599865349000.0,-5.413139344629051,0.5036023461243626,8.138042126089816,-0.00580322,0.124311075,-0.043066,296.2192,-3.9082844,-25.557646
599870346000.0,-5.428883716976476,0.5429635194859352,8.122297548239843,0.004886922,0.13622294,-0.03940081,296.2501,-3.919261,-25.612633
599875323000.0,-5.444565074025333,0.5821671536305313,8.10661598651094,0.005497787,0.15821409,-0.02565634,296.2871,-3.9403713,-25.689262
599880437000.0,-5.449203,0.6237408929194919,8.115302029701079,0.008246681,0.16890424,-0.020158553,296.3251,-3.964268,-25.764519
599885358000.0,-5.449203,0.6642477394919301,8.133305201079171,-0.0012217305,0.1731803,0.007330383,296.35114,-3.9896135,-25.841639
599890303000.0,-5.427580264441305,0.6929269413352167,8.146772343245855,0.004886922,0.16707164,0.008552114,296.3881,-4.0238614,-25.92455
599895433000.0,-5.39105585436027,0.7148415873838376,8.157729704408593,-0.012217305,0.15088372,0.016798794,296.4142,-4.0537844,-26.003038
599900916000.0,-5.34915734478384,0.7359262239777495,8.167528122035717,-0.01282817,0.13439035,0.035430185,296.4411,-4.096985,-26.075558
599905348000.0,-5.253888159266127,0.7027892062359715,8.134391061042255,-0.026267206,0.094989546,0.043982297,296.46948,-4.131915,-26.13532
599910340000.0,-5.14658135102957,0.6654652006928857,8.097067006782472,-0.021380283,0.076358154,0.05131268,296.49594,-4.1736727,-26.191317
599916145000.0,-5.098780307545699,0.6264118010777094,8.105296996881226,-0.024740042,0.04520403,0.053450707,296.52252,-4.2098703,-26.23139
599920295000.0,-5.071235639781686,0.59886696793208,8.115626337174044,-0.023518313,-0.004276057,0.055588737,296.54773,-4.2489295,-26.259928
599925307000.0,-5.043104965476887,0.575219238829725,8.112166055002925,-0.027488936,-0.050396383,0.048258353,296.57437,-4.276912,-26.26581
599930302000.0,-5.019112848532977,0.5592245331706094,8.096171449552788,-0.015271631,-0.09101892,0.03634648,296.60266,-4.308636,-26.259476
599935335000.0,-4.995048776606998,0.5431818421562246,8.082150947518308,-0.009162978,-0.12889257,0.030543262,296.62915,-4.3286643,-26.23766
599940344000.0,-4.971629684149716,0.5275690622262001,8.078247677135883,0.009162978,-0.15485434,0.032070424,296.6573,-4.3540854,-26.20884
599945315000.0,-4.948388256997559,0.5120747262245728,8.074374018307566,0.0061086523,-0.16768251,0.02076942,296.6922,-4.3684072,-26.173038
599950543000.0,-4.927011989679177,0.4929504602118644,8.06593771125908,0.004886922,-0.18570304,0.004276057,296.72836,-4.3870783,-26.130077
599955288000.0,-4.908673799757869,0.4746123085875706,8.05676844874899,0.005497787,-0.17623462,-0.01160644,296.76672,-4.403795,-26.093254
599960329000.0,-4.922187573586212,0.5527977004924213,8.054094,0.00030543262,-0.14782938,-0.021380283,296.80963,-4.4113326,-26.056868
599965488000.0,-4.948797367715627,0.6706409701561898,8.054094,-0.016798794,-0.12492194,-0.033292156,296.8569,-4.413717,-26.023706
599970329000.0,-4.9755665116702685,0.7726492798703304,8.052142595245446,-0.02321288,-0.0983493,-0.027794369,296.8978,-4.414488,-26.000963
599975368000.0,-5.015296825316455,0.822312288607595,8.037243915611814,-0.03359759,-0.062002823,-0.032070424,296.94336,-4.407503,-25.98904
599980332000.0,-5.055398214618895,0.8710993439749873,8.026129577319587,-0.035124753,-0.021380283,-0.027488936,296.99316,-4.424336,-26.000305
599986466000.0,-5.110002580868684,0.9306675126246408,8.031093690721649,-0.027794369,0.03756821,-0.028099801,297.04327,-4.439801,-26.027456
599991535000.0,-5.153794575256223,0.9771287550512444,8.035235445827233,-0.026267206,0.09254608,-0.02107485,297.0857,-4.46768,-26.068039
599995325000.0,-5.171508617227916,0.9806715634455831,8.038778143240606,-0.034208454,0.12950343,-0.015271631,297.12674,-4.494735,-26.119448
600000254000.0,-5.194546219570522,0.9852790839141043,8.043385519375304,-0.029321533,0.15210545,-0.008552114,297.1741,-4.5307293,-26.196655
600005311000.0,-5.212177494539692,0.9684542925652068,8.035539072844722,-0.022296581,0.16523905,-0.0070249503,297.2198,-4.565307,-26.279594
600010357000.0,-5.227883851182254,0.9448947371008368,8.023759264361745,-0.008857546,0.17440203,-0.0027488936,297.2613,-4.6039276,-26.365385
600015374000.0,-5.2401399214565885,0.9110595986928868,8.02229265186049,-0.0033597588,0.17654006,0.002443461,297.30328,-4.6444726,-26.450768
600020486000.0,-5.245329850598961,0.8539703293533341,8.043052260044524,-0.0070249503,0.16737708,-0.01038471,297.3492,-4.6840935,-26.533676
600025330000.0,-5.21984405,0.7872888206741573,8.059474266853933,-0.009162978,0.15424347,-0.00030543262,297.38876,-4.721668,-26.620176
600035349000.0,-5.086667965882353,0.6160627465538664,8.084841275611367,-0.0021380284,0.124311075,-0.009162978,297.43857,-4.7565346,-26.697845
600040332000.0,-5.035116636392765,0.5432875477633075,8.0924015,0.0018325958,0.0870483,-0.014660766,297.4814,-4.7840366,-26.762728
600050340000.0,-4.979899049762952,0.4423756655141798,8.103942140031032,0.01038471,0.055283304,-0.019242255,297.5269,-4.8134823,-26.819212
600055627000.0,-4.95807655963279,0.4030951513783294,8.130128991466252,0.020158553,0.037873644,-0.019547688,297.56696,-4.820793,-26.847578
600060335000.0,-4.941063925280761,0.370653585216821,8.150998773178129,0.02321288,0.018325957,-0.016798794,297.6087,-4.82145,-26.85336
600065421000.0,-4.9370711713829,0.3506898073891302,8.158984447741618,0.020158553,0.002443461,-0.032070424,297.65576,-4.8210025,-26.855759
600070290000.0,-4.93324877289122,0.3315778069481104,8.166629404377407,0.02443461,-0.0125227375,-0.01740966,297.6905,-4.8187404,-26.846432
600075359000.0,-4.938549793637145,0.3321057675437088,8.178757355689308,0.016798794,-0.02443461,-0.026267206,297.7368,-4.808114,-26.834955
600080321000.0,-4.947629727429063,0.3411857487417598,8.192377137861852,0.02443461,-0.01863139,-0.04153884,297.77933,-4.803892,-26.824657
600085385000.0,-4.995827039874082,0.3626122699265477,8.179898877229801,0.01863139,-0.01740966,-0.042760566,297.81635,-4.7912145,-26.80971
600090353000.0,-5.067146995502923,0.3911402745195623,8.15137104392145,0.016798794,-0.004276057,-0.049480084,297.8583,-4.779307,-26.800964
600095854000.0,-5.142745,0.4213795,8.117410927870207,0.009468411,0.011301007,-0.055588737,297.9067,-4.763204,-26.795397
600100359000.0,-5.142745,0.4213795,8.046077183424615,0.008857546,0.036957346,-0.04886922,297.9511,-4.7498145,-26.796684
600105617000.0,-5.149043388295029,0.4263086640245858,7.969819907001603,0.015271631,0.06505715,-0.039095376,298.00497,-4.7428527,-26.821917
600110576000.0,-5.246344657936932,0.502457338161411,7.99943343292357,0.0033597588,0.09193522,-0.027488936,298.05408,-4.7329044,-26.853397
600115293000.0,-5.338897609923392,0.5748899447158382,8.027601814003207,-0.004276057,0.09896017,-0.015882496,298.10065,-4.7277207,-26.895084
600120326000.0,-5.34156981400824,0.59376204,8.034941,-0.00580322,0.11789699,-0.01282817,298.14404,-4.7221828,-26.946484
600125638000.0,-5.31162741338042,0.59376204,8.034941,-0.008246681,0.129198,0.007941248,298.1772,-4.7189684,-26.99564
600130342000.0,-5.280792599612956,0.5760774271419841,8.038477808820533,-0.018936822,0.122478485,0.025350908,298.21378,-4.7287045,-27.061096
600135393000.0,-5.246304270778163,0.5514428492198004,8.043404565950295,-0.03481932,0.12797627,0.026572637,298.24768,-4.73736,-27.131306
600140359000.0,-5.210859403321694,0.538964484854204,8.065257937152024,-0.051923547,0.12034045,0.030848695,298.2705,-4.7477508,-27.18755
600145334000.0,-5.1748910030669055,0.5299723965273191,8.092234061290933,-0.042455133,0.10598512,0.029932396,298.29437,-4.7605524,-27.241917
600150313000.0,-5.1351983035310615,0.5240543247770086,8.099308025146764,-0.04550946,0.093767814,0.03573562,298.3157,-4.762609,-27.285378
600155359000.0,-5.092856469972838,0.5198201325786383,8.095073992114255,-0.05681047,0.070249505,0.038179077,298.3388,-4.76468,-27.320509
600160356000.0,-5.058623851103101,0.5183986770093727,8.094903745277577,-0.05100725,0.05375614,0.03390302,298.36032,-4.7666316,-27.346989
600165312000.0,-5.038092147166547,0.5218206610151406,8.101747634679162,-0.054061573,0.043982297,0.040927973,298.37756,-4.76554,-27.367702
600171559000.0,-5.012212091780822,0.5261340456164383,8.11037430479452,-0.04917465,0.03634648,0.047036625,298.39685,-4.7628217,-27.382818
600175360000.0,-5.018824077919741,0.5216473186287565,8.111555,-0.049785517,0.03176499,0.044898596,298.41632,-4.758061,-27.395714
600180310000.0,-5.035885410473277,0.5131165810905165,8.111555,-0.04886922,0.028099801,0.043982297,298.43323,-4.756108,-27.406248
600185544000.0,-5.055576953674833,0.5047041002494432,8.114421701113585,-0.04642576,0.03390302,0.0421497,298.4506,-4.753618,-27.414051
600190315000.0,-5.0759293242019305,0.497920003895323,8.121205942687453,-0.03481932,0.05009095,0.038789943,298.46814,-4.753554,-27.423798
600195623000.0,-5.09857245619896,0.49037232344098,8.128753784706754,-0.027794369,0.064751714,0.042455133,298.4788,-4.7527843,-27.440405
600200304000.0,-5.119626779563444,0.4934800562556968,8.120583102902375,-0.02687807,0.07666359,0.036651913,298.49292,-4.751872,-27.460766
600205334000.0,-5.142736144718957,0.5011831471408011,8.105176792436236,-0.016798794,0.079107046,0.04153884,298.50208,-4.7570777,-27.48169
600210314000.0,-5.165181555417858,0.5051088307202627,8.098966602266708,-0.0067195175,0.092240654,0.03756821,298.51883,-4.7577715,-27.51265
600215332000.0,-5.185542325611693,0.489838298253363,8.13968808950323,-0.010995574,0.09468412,0.04062254,298.53177,-4.7590985,-27.540255
600220502000.0,-5.206803387302992,0.4709238383477953,8.165057733840976,0.0009162979,0.08674286,0.043066,298.54425,-4.7724023,-27.56926
600225371000.0,-5.227446843651497,0.4461516691738976,8.152671616920488,-0.013133603,0.077579886,0.045814894,298.55554,-4.7784553,-27.59774
600230524000.0,-5.248526064703998,0.4205079742321557,8.140067625610829,-0.015271631,0.0711658,0.047036625,298.56628,-4.7838583,-27.631197
600235318000.0,-5.255881895658095,0.4057963737707282,8.136389844548585,-0.011911872,0.06841691,0.04642576,298.57678,-4.7872853,-27.662266
600241218000.0,-5.264934753945366,0.3876907328190339,8.131863580829927,-0.011911872,0.06872234,0.056505036,298.58038,-4.78789,-27.695644
600245374000.0,-5.2724395314130765,0.3726811374971861,8.128111166479075,0.00030543262,0.050701816,0.055588737,298.58832,-4.790992,-27.722502
600250354000.0,-5.282199526296941,0.3531610356246802,8.123231041645349,0.0030543262,0.040927973,0.063224554,298.59003,-4.7942257,-27.750498
600255335000.0,-5.250501659486986,0.3114331639994342,8.146771886080725,0.0125227375,0.03481932,0.055588737,298.60117,-4.796029,-27.774761
600260314000.0,-5.187548017389664,0.252976168364768,8.191738773293098,0.01282817,0.014966198,0.047036625,298.61084,-4.797105,-27.79165
600265314000.0,-5.146098817698855,0.2181920920017611,8.204453208687996,0.016798794,0.0036651916,0.043066,298.6254,-4.797763,-27.807674
600270422000.0,-5.131740395117895,0.2134060344340084,8.175736763330399,0.015577064,-0.016798794,0.035124753,298.64453,-4.7956057,-27.815601
600275294000.0,-5.118948507117699,0.2215231748054713,8.157891336718814,0.016493361,-0.017715093,0.02565634,298.65823,-4.7812667,-27.813622
600280346000.0,-5.1070600657383896,0.2492628920468507,8.15392844016709,0.015882496,-0.009468411,0.01863139,298.67358,-4.765782,-27.808954
600286022000.0,-5.094067703325195,0.2809005891842748,8.14787875831299,0.021991149,-0.00061086525,0.01863139,298.68915,-4.753357,-27.801615
600290306000.0,-5.087160217644582,0.3085305535449112,8.130610044111458,0.011911872,0.005192355,0.005192355,298.7106,-4.7343144,-27.796616
600295349000.0,-5.079028926727839,0.3410557426837276,8.1102818168196,0.021685716,0.016493361,0.0012217305,298.72543,-4.7298837,-27.795366
600300307000.0,-5.059953274304635,0.3648446342251655,8.086223929139074,0.016798794,0.03848451,0.016187929,298.7375,-4.720211,-27.798908
600305296000.0,-5.0328320413528855,0.3829254970993377,8.059102790586566,0.008246681,0.04337143,0.013133603,298.75635,-4.709397,-27.801525
600310344000.0,-5.0182467,0.4008234529405395,8.0445175,0.0106901415,0.051923547,0.019547688,298.761,-4.7136006,-27.810648
600315553000.0,-5.0182467,0.4188278117765948,8.0445175,0.013744468,0.060170226,0.023823744,298.767,-4.715157,-27.821056
600320307000.0,-5.014630346951774,0.4369835613739763,8.046928389444949,0.00061086525,0.067500606,0.021380283,298.77362,-4.716297,-27.832293
600325366000.0,-4.999935463360631,0.4614750595996361,8.056724927358204,0.011301007,0.064751714,0.024129177,298.7772,-4.725434,-27.842508
600330253000.0,-4.99187960770691,0.4776586986142749,8.058944433940773,-0.004276057,0.03940081,0.018325957,298.7846,-4.724234,-27.853853
600335377000.0,-5.001194675930145,0.473001174229309,8.040314492027335,-0.004276057,0.021991149,0.0125227375,298.79095,-4.7299848,-27.866167
600340312000.0,-5.011095869970248,0.4700721514855853,8.024555354160254,-0.01160644,0.011911872,0.014966198,298.79443,-4.7353516,-27.869694
600345343000.0,-5.025925216045963,0.4750153167395096,8.01961210115933,-0.024129177,-0.004276057,0.005192355,298.80435,-4.736882,-27.867071
600350326000.0,-5.041161898018018,0.4797807745045045,8.016727444144143,-0.012217305,-0.012217305,-0.0027488936,298.81934,-4.7410316,-27.866209
600355315000.0,-5.058379431423424,0.4840851578558559,8.021031917387386,-0.020158553,-0.034208454,-0.0021380284,298.83524,-4.7369647,-27.85697
600360783000.0,-5.07792544642487,0.4866427119336787,8.026694809326425,-0.011911872,-0.034513887,-0.01863139,298.85364,-4.7404766,-27.854002
600365347000.0,-5.100572345492227,0.4685251832207254,8.04028275958549,-0.017715093,-0.04337143,-0.029932396,298.8708,-4.7392097,-27.842607
600370476000.0,-5.130787482893167,0.4521088369517805,8.052894673027772,-0.009468411,-0.043676864,-0.04184427,298.8985,-4.741156,-27.835379
600375330000.0,-5.202072761185892,0.4719102539802351,8.041013993184528,-0.006414085,-0.036957346,-0.044593163,298.9262,-4.7402296,-27.828178
600381159000.0,-5.287676775847674,0.4956890879025388,8.02674689742716,-0.005192355,-0.014966198,-0.047036625,298.95468,-4.7384205,-27.824968
600385411000.0,-5.314511144947065,0.5072624047335725,8.040811397672586,-0.011301007,-0.005192355,-0.051618114,298.98416,-4.7350745,-27.820786
600390317000.0,-5.339176661982676,0.5195952061772684,8.061366030973838,0.0030543262,0.021685716,-0.041233405,299.00775,-4.7391148,-27.827663
600395328000.0,-5.359971466527197,0.5289032221757322,8.071069132322176,0.007330383,0.03970624,-0.03940081,299.03787,-4.7426877,-27.85118
600400304000.0,-5.374925699832636,0.5338879666108787,8.06608428378661,0.0027488936,0.038179077,-0.034513887,299.06293,-4.749513,-27.875988
600405304000.0,-5.375144039275608,0.5152371007196755,8.073032765421619,0.0036651916,0.06261369,-0.032375857,299.08777,-4.764218,-27.908457
600410325000.0,-5.361537612337295,0.4744177867534427,8.09117457328806,-0.00030543262,0.06505715,-0.029932396,299.11124,-4.777131,-27.933662
600415289000.0,-5.342771521406411,0.4465554253821566,8.101978,-0.0033597588,0.057421334,-0.019242255,299.12497,-4.7948704,-27.965654
600420375000.0,-5.315297128231644,0.4373972640415531,8.101978,-0.005497787,0.047036625,-0.02076942,299.14178,-4.810305,-27.997097
600425246000.0,-5.2921313938677415,0.4251919518365765,8.098135123963099,-0.0076358155,0.036651913,-0.015271631,299.15387,-4.816127,-28.024727
600430373000.0,-5.276905288968137,0.4023528382091635,8.082909138305295,-0.012217305,0.029932396,-0.016798794,299.16876,-4.819641,-28.050095
600435310000.0,-5.2622434438561125,0.3803601126428405,8.068247408016125,0.005192355,0.03604105,-0.01985312,299.1858,-4.8217306,-28.077583
600440351000.0,-5.260849936093438,0.3862269451391131,8.060488063906561,0.0070249503,0.03359759,-0.009162978,299.19897,-4.820587,-28.099876
600445521000.0,-5.265551587408603,0.4050331674731744,8.055786412591397,-0.005192355,0.026572637,-0.0070249503,299.2156,-4.8188415,-28.122406
600450766000.0,-5.260632134163012,0.42502635989391,8.044176391104763,-0.0018325958,0.034208454,-0.009162978,299.23123,-4.816539,-28.14625
600455348000.0,-5.251679542772621,0.4429314725635009,8.030747761093542,-0.008857546,0.038179077,0.004276057,299.24118,-4.8111706,-28.166151
600460364000.0,-5.2311588198850645,0.45010993,8.014076320397947,-0.015882496,0.028710667,0.0106901415,299.2502,-4.811055,-28.185091
600465359000.0,-5.204555251727121,0.45010993,7.996340567138355,-0.007941248,0.02443461,0.004886922,299.2585,-4.813139,-28.206102
600470324000.0,-5.178111464759316,0.45010993,7.978711334919359,-0.02107485,0.0076358155,0.0012217305,299.26547,-4.8140407,-28.217571
600475363000.0,-5.166828252450981,0.4533960851470588,7.969546112745098,-0.009773844,0.0015271631,0.005497787,299.27155,-4.823291,-28.230577
600480361000.0,-5.179177327012384,0.4616287685681114,7.9736625425696595,-0.015577064,0.004886922,0.002443461,299.28125,-4.823396,-28.24169
600485466000.0,-5.191501547369951,0.4714436507178146,7.975735891601278,-0.0076358155,-0.00580322,0.008857546,299.28583,-4.8307657,-28.244846
600490340000.0,-5.200544864138331,0.4940520701191513,7.957649116419645,0.005497787,0.004886922,0.005497787,299.2937,-4.836237,-28.255295
600495651000.0,-5.2103642108948,0.5168569360698291,7.941206918407824,-0.0018325958,0.005497787,0.008246681,299.30237,-4.839974,-28.262465
600500431000.0,-5.21873224727173,0.512672939725802,7.970494761749383,-0.002443461,0.0070249503,0.005192355,299.31345,-4.8473897,-28.273039
600505258000.0,-5.22718256350425,0.5084478036687688,8.000070581793254,-0.004276057,0.015577064,0.003970624,299.32242,-4.8582754,-28.289358
600510314000.0,-5.2289367,0.5180083495384892,8.027085248140514,0.00030543262,0.014049901,0.0009162979,299.3332,-4.869831,-28.303106
600515307000.0,-5.2289367,0.5308635504328345,8.052795685724528,-0.0027488936,0.007941248,0.0076358155,299.34094,-4.8800635,-28.317406
600520485000.0,-5.222682014282671,0.5206645510171477,8.079307632655235,0.013133603,0.007941248,0.0036651916,299.3502,-4.893755,-28.331352
600525414000.0,-5.212626780786026,0.4955265722707423,8.104445585152838,0.010995574,0.0076358155,-0.009773844,299.36057,-4.901534,-28.343428
600530348000.0,-5.216473093537247,0.4850721206956093,8.08813982979773,0.011911872,0.00061086525,-0.008857546,299.36612,-4.9181867,-28.349888
