timestamp,acc_x,acc_y,acc_z,gyro_x,gyro_y,gyro_z,ori_azimuth,ori_pitch,ori_roll
455341932000.0,-1.3518348450959317,9.7876642305312,0.5268916280865635,-1.7754798,-3.5964692,-1.4248432,192.36276,-161.89975,-25.824926
455346908000.0,-1.3496908129180454,9.787426000034994,0.5266534010728962,-0.34697145,8.102822,0.036651913,191.57545,-162.07867,-22.532705
455351966000.0,-1.347511449020186,9.787183843714695,0.5264112482925244,-2.611449,0.73884153,0.03268129,192.44627,-160.7884,-25.697277
455356921000.0,-1.34537646520961,9.786946618612465,0.526174026658135,-1.1786644,0.7449502,0.030543262,191.66992,-160.58711,-23.6203
455361904000.0,-1.343229416909287,9.786708052984933,0.5259354645180415,-1.1771374,0.75228053,0.036651913,191.71075,-159.4329,-23.517063
455366897000.0,-1.341078059862626,9.786469008598369,0.5256964236259111,-1.1808025,0.7703011,0.035124753,191.75124,-158.64203,-23.408676
455371933000.0,-1.338908175206711,9.786227905547946,0.5254553241000209,-1.1945469,0.77396625,0.03970624,191.7994,-157.84032,-23.299217
455377069000.0,-1.3366952030874133,9.785982014907168,0.5252094370537598,-1.2012665,0.75655663,0.038789943,191.84904,-157.03363,-23.189714
455382080000.0,-1.3345360902973435,9.785742108754336,0.5249695344079625,-1.1963795,0.72784597,0.03848451,191.90396,-156.21967,-23.079857
455387762000.0,-1.332087860627981,9.785470077870205,0.5246975075004748,-1.1511755,0.6973027,0.035124753,191.96297,-155.40941,-22.973587
455391914000.0,-1.3302988691483617,9.785271297118548,0.5244987296546656,-1.1181889,0.81183994,0.063224554,192.01613,-154.58856,-22.831663
455396934000.0,-1.3281358784865875,9.785030960082585,0.5242583961320348,-1.2681563,0.7715228,0.06261369,192.08879,-153.73187,-22.739008
455402030000.0,-1.325940141352643,9.784786984477948,0.5240144240939222,-1.2528846,0.7648033,0.062002823,192.14896,-152.91896,-22.603392
455406979000.0,-1.3238077427898698,9.78455004663114,0.5237774897107549,-1.2571607,0.75502944,0.07819075,192.22063,-152.05733,-22.474499
455411949000.0,-1.321666295859787,9.784312103390356,0.5235395499483098,-1.2528846,0.7480045,0.07513642,192.28815,-151.20193,-22.347496
455416915000.0,-1.3195265724282386,9.784074351653183,0.5233018016866795,-1.2513574,0.7309003,0.09040806,192.36826,-150.33867,-22.218262
455421935000.0,-1.3173635817664644,9.783834014617224,0.5230614681640489,-1.269378,0.70432764,0.09987647,192.44879,-149.4714,-22.092236
455426985000.0,-1.3151876648656755,9.783592241304152,0.5228196983853067,-1.2614367,0.6395759,0.10445796,192.54134,-148.60934,-21.975618
455431999000.0,-1.313027259451704,9.78335219152361,0.5225796521138983,-1.1835514,0.573297,0.10140363,192.63918,-147.76047,-21.862947
455436999000.0,-1.3108728862826062,9.78311281200572,0.5223402760953418,-1.0760391,0.5329799,0.103847094,192.74623,-146.92061,-21.755083
455441914000.0,-1.3087551374573831,9.782877501939632,0.5221049694691008,-1.0064005,0.45998153,0.096516706,192.86801,-146.09373,-21.669378
455446936000.0,-1.3065912850463413,9.78263706915186,0.5218645401960628,-0.8576548,0.3848451,0.09560041,193.00017,-145.31487,-21.588669
455451908000.0,-1.3044489763669902,9.78239903015927,0.5216265046832101,-0.7324274,0.33750305,0.08307768,193.13655,-144.55188,-21.518126
455456907000.0,-1.302295034072526,9.78215969851728,0.5213871765398574,-0.62125,0.13347405,0.040927973,193.31113,-143.82906,-21.501186
455462126000.0,-1.300046299358622,9.781909834176506,0.5211373158516881,-0.23273966,-0.023823744,0.0030543262,193.48558,-143.21176,-21.481663
455466911000.0,-1.2979845642357952,9.781680747977884,0.5209082330019296,0.05681047,0.0009162979,0.01038471,193.66649,-142.59892,-21.461832
455471935000.0,-1.2958198500754856,9.781440219438307,0.520667707978484,0.028099801,0.030543262,0.014966198,193.87032,-142.01056,-21.477886
455476909000.0,-1.293676679646867,9.781202084693907,0.520429576715224,-0.014049901,0.015271631,0.013439035,194.08072,-141.49278,-21.493504
455481906000.0,-1.2915235991016707,9.780962848803728,0.5201903443222787,-0.006414085,0.019242255,0.00580322,194.28249,-140.98145,-21.494692
455486920000.0,-1.2893631936876992,9.780722799023186,0.5199502980508703,-0.004276057,0.017715093,0.0125227375,194.4929,-140.45763,-21.493528
455491911000.0,-1.2872126983903058,9.780483850388428,0.5197113529091473,-0.0021380284,0.03145956,0.011911872,194.69708,-139.9393,-21.487131
455496934000.0,-1.2850484151046302,9.780243369724753,0.5194708757609054,-0.007941248,0.024740042,0.011301007,194.90837,-139.42041,-21.479982
455501924000.0,-1.2828983506818703,9.780004468965895,0.5192319784943861,0.0067195175,0.017104227,0.016187929,195.11867,-138.90854,-21.46536
455506906000.0,-1.2807517332561813,9.77976595121427,0.5189934642294963,-0.00030543262,0.015577064,0.014966198,195.3281,-138.393,-21.44849
455511964000.0,-1.278572369358322,9.77952379489397,0.5187513114491247,0.0036651916,0.01740966,0.01160644,195.53929,-137.88599,-21.428333
455516930000.0,-1.276432645926774,9.7792860431568,0.5185135631874943,0.0036651916,0.022602014,0.012217305,195.7507,-137.37856,-21.40376
455521927000.0,-1.2742795653815775,9.77904680726662,0.518274330794549,0.007330383,0.02687807,0.007941248,195.96,-136.87712,-21.377375
455526921000.0,-1.2721277774602826,9.778807715004149,0.5180352420272147,-0.0015271631,0.01863139,0.004581489,196.17097,-136.37549,-21.34889
455531905000.0,-1.269980298285326,9.778569101500716,0.5177966320119177,0.0067195175,0.019547688,0.00580322,196.37848,-135.88222,-21.314665
455536862000.0,-1.2678444527254822,9.778331780646678,0.5175593146271208,0.00580322,0.013744468,0.00580322,196.58783,-135.38867,-21.281282
455541947000.0,-1.2656534552125096,9.77808833167698,0.5173158692162488,0.004581489,0.008552114,0.006414085,196.79642,-134.90045,-21.244347
455546924000.0,-1.2641385,9.778266775671655,0.5166620539872608,0.002443461,0.013133603,0.0076358155,197.00328,-134.4155,-21.20379
455551963000.0,-1.2641385,9.779462807574106,0.5149876090740557,0.003970624,0.008552114,0.005192355,197.21187,-133.93555,-21.163898
455556886000.0,-1.2641385,9.78063130629523,0.513351710620452,0.009162978,0.013744468,0.01038471,197.4208,-133.44629,-21.104584
455561926000.0,-1.2641385,9.781827575552692,0.5116769334101814,0.0036651916,0.016798794,0.0012217305,197.6267,-132.96146,-21.047949
455566894000.0,-1.2641385,9.78300675524933,0.5100260815886289,0.00061086525,0.0143553335,-0.0018325958,197.8333,-132.48106,-20.986712
455571965000.0,-1.2641385,9.784210382512144,0.5083410031693268,0.0018325958,0.0143553335,0.007941248,198.03761,-132.0042,-20.92162
455576920000.0,-1.2641385,9.785386476593636,0.5066944712096262,0.0061086523,0.011301007,0.0106901415,198.23967,-131.53339,-20.857822
455581898000.0,-1.2641385,9.786568029840389,0.5050402964174184,0.013744468,0.021380283,0.0030543262,198.43658,-131.06847,-20.790154
455586890000.0,-1.2641385,9.7877529060573,0.5033814694662933,0.0021380284,0.015577064,0.0070249503,198.6389,-130.60245,-20.72071
455591888000.0,-1.2641385,9.788939206404285,0.5017206487327748,0.012217305,0.01863139,-0.0009162979,198.83105,-130.15132,-20.651077
455596913000.0,-1.2641385,9.790131915336572,0.5000508559784871,0.006414085,0.021685716,0.009162978,199.02652,-129.6951,-20.57582
455601951000.0,-1.2641385,9.791327709884008,0.4983767433623475,0.0018325958,0.020158553,0.004276057,199.21632,-129.25015,-20.504839
455606936000.0,-1.2641385,9.792510924615842,0.496720242490681,0.0009162979,0.022296581,0.008857546,199.40565,-128.80669,-20.42694
455611899000.0,-1.2641385,9.793688917537423,0.4950710521544562,0.006414085,0.0143553335,-0.00030543262,199.59262,-128.37178,-20.354174
455616900000.0,-1.2641385,9.79487592994944,0.4934092345297412,0.012217305,0.016187929,0.0012217305,199.7769,-127.9395,-20.27486
455621901000.0,-1.2641385,9.796062942361456,0.4917474169050262,0.010995574,0.011301007,0.008857546,199.96219,-127.51258,-20.197552
455626931000.0,-1.2641385,9.7972568380688,0.4900759626654108,0.01160644,0.04550946,-0.02321288,200.1285,-127.09896,-20.122433
455631910000.0,-1.2641385,9.798438628670564,0.4884214555761376,-0.02443461,0.013744468,-0.0125227375,200.31903,-126.67356,-20.045012
455636885000.0,-1.2641385,9.799619469852283,0.4867682776751263,-0.019547688,0.004276057,0.0027488936,200.48825,-126.26771,-19.96505
455641875000.0,-1.2641385,9.800803871359175,0.4851101153181322,-0.00580322,0.002443461,0.009773844,200.66187,-125.86055,-19.887362
455646898000.0,-1.2641385,9.80199610558144,0.4834409871579755,0.015577064,0.009773844,0.002443461,200.83336,-125.4617,-19.808916
455651940000.0,-1.2641385,9.803192849548925,0.4817655453535738,0.017104227,0.005192355,0.0143553335,201.01013,-125.062546,-19.725416
455656981000.0,-1.2641385,9.804389356161396,0.4800904358462377,0.0125227375,0.0009162979,0.0015271631,201.17775,-124.67772,-19.648376
455661940000.0,-1.2641385,9.805566399662933,0.478442574698275,0.012217305,-0.0015271631,-0.0033597588,201.34674,-124.29631,-19.566444
455666955000.0,-1.2641385,9.806756735045107,0.4767761049146426,0.008552114,0.00030543262,0.0009162979,201.51285,-123.91913,-19.485111
455671920000.0,-1.2641385,9.807935202676711,0.4751262499842867,0.01038471,0.0036651916,0.0070249503,201.67645,-123.54906,-19.404387
455676896000.0,-1.2641385,9.809116281213443,0.4734727397862099,0.011301007,0.013133603,0.002443461,201.8347,-123.18448,-19.324045
455681893000.0,-1.2641385,9.810302344205413,0.4718122513497571,0.009162978,0.021380283,0.0021380284,201.99153,-122.82325,-19.240717
455686957000.0,-1.2641385,9.811504309983146,0.4701294990099137,0.009468411,0.01160644,0.0009162979,202.14763,-122.469124,-19.15987
455691920000.0,-1.2641385,9.81268230290473,0.4684803086736889,-0.003970624,0.0061086523,0.004276057,202.29866,-122.11604,-19.076353
455696903000.0,-1.2641385,9.81386504292654,0.4668244723961534,-0.0009162979,0.019242255,0.008552114,202.44496,-121.77218,-18.991886
455701951000.0,-1.2641385,9.815063211024093,0.4651470368093585,0.003970624,0.027488936,0.003970624,202.59108,-121.43205,-18.910295
455706947000.0,-1.2641385,9.816249036661048,0.4634868806699712,0.004581489,0.016493361,0.007330383,202.73824,-121.09486,-18.826517
455711946000.0,-1.2641385,9.817435574363042,0.4618257276393873,0.004581489,0.022296581,0.009468411,202.87556,-120.764946,-18.741451
455716999000.0,-1.2641385,9.81863492923565,0.4601466305672648,0.0061086523,0.014966198,0.007330383,203.0172,-120.44096,-18.659851
455721903000.0,-1.2641385,9.81979891821156,0.4585170457579062,-0.0033597588,0.015271631,0.00580322,203.15332,-120.11928,-18.576302
455726976000.0,-1.2641385,9.821003020184396,0.4568313027444731,0.009162978,0.015577064,-0.003970624,203.28802,-119.80989,-18.496723
455731968000.0,-1.2641385,9.822187896401308,0.4551724757933478,0.0030543262,0.0076358155,0.003970624,203.4248,-119.496544,-18.414217
455736909000.0,-1.2641385,9.82336066751264,0.4535305959925647,0.002443461,0.014049901,0.0061086523,203.55354,-119.19508,-18.334522
455741989000.0,-1.2641385,9.824566430970556,0.4518425268996728,0.0061086523,0.008552114,0.0015271631,203.68588,-118.89809,-18.2572
455747443000.0,-1.2649764892081086,9.824463209566863,0.4496071370001458,0.007941248,0.004581489,0.0125227375,203.81604,-118.602295,-18.174791
455751804000.0,-1.28020345144378,9.80009993007146,0.4404709691986291,0.0021380284,0.013133603,0.011911872,203.94034,-118.313614,-18.096395
455756821000.0,-1.2977209175149482,9.772071823392151,0.4299605005308444,-0.00061086525,0.016798794,0.0067195175,204.06894,-118.02188,-18.012207
455761804000.0,-1.311205180677444,9.749189,0.419744659647806,0.0018325958,0.015577064,0.0033597588,204.1946,-117.73487,-17.927988
455766784000.0,-1.3066158365665896,9.749189,0.4105659618418014,-0.009773844,0.01863139,0.008552114,204.31638,-117.44863,-17.84274
455771783000.0,-1.3015007702092225,9.748716529509732,0.4026983899614864,-0.0033597588,0.02107485,0.008552114,204.44287,-117.171585,-17.76577
455776852000.0,-1.291394533902363,9.743663886228791,0.4077514553513063,-0.016493361,0.028405234,0.013744468,204.5662,-116.89087,-17.685774
455781893000.0,-1.284214117768799,9.74145713925298,0.4154910788617325,-0.013744468,0.03145956,0.021380283,204.69568,-116.61012,-17.603014
455786791000.0,-1.288836976347689,9.750702373706511,0.4339821511491081,-0.01863139,0.03604105,0.018325957,204.81996,-116.331184,-17.521523
455791802000.0,-1.292869,9.756759813663422,0.4487724517263536,-0.01282817,0.025350908,0.018020526,204.95605,-116.04682,-17.43637
455796784000.0,-1.292869,9.743235022961352,0.4397557849343286,-0.016798794,0.028710667,0.012217305,205.08374,-115.76644,-17.352476
455802022000.0,-1.292869,9.729308093794218,0.4324120827693551,-0.026267206,0.03145956,0.01740966,205.22672,-115.47501,-17.267166
455806835000.0,-1.292869,9.719990507176066,0.4510468765696381,-0.03481932,0.03359759,0.021685716,205.36565,-115.19003,-17.184063
455811975000.0,-1.293284842283889,9.710466149031742,0.4680159922798961,-0.02687807,0.027488936,0.021991149,205.51662,-114.90004,-17.100344
455816801000.0,-1.2978983017368737,9.705852593232182,0.4541756042862847,-0.025350908,0.03573562,0.025961773,205.6607,-114.6116,-17.013678
455821978000.0,-1.302802477839851,9.702731741154562,0.4405331,-0.02565634,0.018325957,0.0143553335,205.83006,-114.31247,-16.932907
455826858000.0,-1.306946734645739,9.719309114569478,0.4405331,-0.027183503,0.022907447,0.020463986,205.9892,-114.01594,-16.84421
455831797000.0,-1.3111410961957968,9.736086911146582,0.4405331,-0.031154128,0.023823744,0.018325957,206.18036,-113.70349,-16.76106
455836808000.0,-1.303979343177254,9.747656004862066,0.4566196346422154,-0.025961773,0.023823744,0.02076942,206.36658,-113.398544,-16.675089
455841810000.0,-1.2938528970087728,9.757782133812492,0.4768725534140154,-0.023823744,0.014660766,0.02076942,206.5501,-113.10109,-16.591507
455846816000.0,-1.2962111198270538,9.762108189623223,0.4487612471278567,-0.016187929,0.022907447,0.025045475,206.77333,-112.76628,-16.498281
455851869000.0,-1.299947343607165,9.765844491429895,0.4151352057975602,-0.023823744,0.025350908,0.023823744,206.99332,-112.440315,-16.407953
455856889000.0,-1.3041267850037437,9.766661979890896,0.3960110500074874,-0.02076942,0.02687807,0.016798794,207.27261,-112.0542,-16.300756
455861857000.0,-1.309215836495882,9.761572822120012,0.4061891529917638,-0.02076942,0.034513887,0.020463986,207.53893,-111.67835,-16.1903
455866845000.0,-1.3120226,9.767541890209932,0.416190612886745,-0.01985312,0.046120327,0.02076942,207.90599,-111.20079,-16.05131
455871884000.0,-1.3120226,9.787213469732997,0.4260263752605476,-0.013439035,0.032986723,0.015882496,208.25719,-110.74768,-15.913448
455876891000.0,-1.3120226,9.806760125552008,0.435799675956247,-0.012217305,0.03481932,0.018325957,208.76888,-110.09224,-15.702442
455881950000.0,-1.3175672293438838,9.827316200791294,0.4460777380283547,-0.008857546,0.038179077,0.017104227,209.24121,-109.4845,-15.494604
455886885000.0,-1.3279555155291791,9.848092664688426,0.4564660404846686,-0.0076358155,0.030543262,0.01282817,209.67899,-108.917,-15.289012
455891843000.0,-1.3268250707223326,9.85888522014579,0.4444577661696487,-0.01160644,0.03726278,0.0076358155,210.07846,-108.318665,-15.045099
455896886000.0,-1.3204240366070246,9.865286387939031,0.4220541300563287,-0.010995574,0.025350908,0.008552114,210.45825,-107.7573,-14.806856
455901990000.0,-1.3139455757455267,9.871764984095426,0.3993795001292246,0.0012217305,0.028710667,0.005497787,210.83052,-107.157524,-14.535549
455906897000.0,-1.303205609572062,9.87956576856962,0.3720762332724147,0.005497787,0.034208454,0.005192355,211.18149,-106.59248,-14.270326
455912061000.0,-1.289782573437076,9.888514116710397,0.340756014964263,-0.00030543262,0.022602014,-0.00061086525,211.5141,-106.06395,-14.014839
455916944000.0,-1.2774584117266616,9.873395638073356,0.32172236355374,0.009773844,0.021991149,-0.0070249503,211.82137,-105.57141,-13.763957
455921906000.0,-1.2653266996510937,9.832956457067484,0.313634518907327,-0.004581489,0.03145956,-0.00580322,212.11104,-105.10378,-13.519546
455931906000.0,-1.2545617,9.813265468734269,0.3172525849924478,0.0106901415,0.020463986,-0.002443461,212.38249,-104.6734,-13.2822695
455936925000.0,-1.253309053828528,9.826430336165744,0.32561144,0.014049901,0.023518313,-0.009468411,212.63243,-104.2671,-13.05367
455941884000.0,-1.2442406270192858,9.830964644261982,0.32561144,0.01282817,0.018325957,-0.007330383,212.87549,-103.88395,-12.829177
455947155000.0,-1.2361101227393616,9.836083000748005,0.3263134627393617,0.01863139,0.017104227,-0.014660766,213.09894,-103.52519,-12.613344
455951953000.0,-1.2437480027925532,9.843720641539228,0.3339513427925532,0.019242255,0.008246681,-0.0143553335,213.31581,-103.18309,-12.401129
455956938000.0,-1.2516835659574468,9.85165595611702,0.3418869059574468,0.027183503,0.0070249503,-0.021991149,213.52753,-102.85823,-12.19435
455961913000.0,-1.2545617,9.852078299327989,0.3349424373168164,0.038789943,-0.0033597588,-0.023518313,213.73482,-102.55046,-11.992073
455966906000.0,-1.2545617,9.848206713140636,0.3194564078892397,0.042760566,0.007941248,-0.017715093,213.92696,-102.260056,-11.795224
455971930000.0,-1.2553786456630824,9.84332315985663,0.3080917130322581,0.033292156,-0.0018325958,-0.02107485,214.12482,-101.989235,-11.609023
455976925000.0,-1.2602773774603175,9.833526003174605,0.3178891868571428,0.042455133,-0.01160644,-0.025350908,214.31145,-101.73391,-11.426385
455981945000.0,-1.2614319043841336,9.823097347860124,0.3328290320772442,0.04184427,-0.013133603,-0.02076942,214.49495,-101.49183,-11.248241
455986965000.0,-1.2488860964509394,9.810551277922755,0.3662845373660403,0.04886922,-0.008857546,-0.029932396,214.67207,-101.26918,-11.080006
455991896000.0,-1.236562714196242,9.798227638308976,0.3991469072025052,0.04886922,-0.019242255,-0.02443461,214.85641,-101.0515,-10.910441
455996949000.0,-1.2354081,9.801069728206526,0.4062225247413871,0.053145275,-0.005497787,-0.033292156,215.0252,-100.8534,-10.751847
456001897000.0,-1.2354081,9.805377245341331,0.4105299519207344,0.049480084,-0.014966198,-0.02687807,215.19725,-100.66083,-10.591913
456006956000.0,-1.246385713001912,9.803905539435943,0.4310135228130975,0.052534413,-0.0061086523,-0.03176499,215.35913,-100.482635,-10.439847
456011929000.0,-1.2615627131293818,9.80011121016571,0.4575733007695984,0.04428773,-0.013133603,-0.03359759,215.52219,-100.31233,-10.289383
456016984000.0,-1.2771592658902389,9.797073,0.4814233167758693,0.05497787,-0.009773844,-0.032986723,215.67802,-100.156715,-10.146802
456021939000.0,-1.293063134470046,9.797073,0.493351182921659,0.05589417,-0.0143553335,-0.04428773,215.83246,-100.014244,-10.011959
456026921000.0,-1.309053663887725,9.797073,0.505344044503561,0.050701816,-0.016798794,-0.042455133,215.97496,-80.121254,-9.878729
456031896000.0,-1.3151344453145055,9.800184910301668,0.4920115101781129,0.055283304,-0.011301007,-0.029321533,216.11118,-80.24805,-9.7491255
456036929000.0,-1.3190015854300383,9.80405213117779,0.4726758055624198,0.05222898,-0.0076358155,-0.036957346,216.24367,-80.361115,-9.628484
456041897000.0,-1.3316039769418846,9.798074618487869,0.45968673,0.047036625,-0.0030543262,-0.037873644,216.36925,-80.47051,-9.5068
456046941000.0,-1.3634017627609554,9.770819278634567,0.45968673,0.04734206,-0.007941248,-0.032375857,216.49184,-80.571945,-9.388947
456051914000.0,-1.390380514921171,9.749189,0.4570714412331081,0.049785517,-0.010079277,-0.03573562,216.6063,-80.664055,-9.277003
456056993000.0,-1.3995097028434684,9.749189,0.4433775735557432,0.05467244,-0.010079277,-0.028099801,216.71748,-80.754395,-9.163571
456061884000.0,-1.4086066516579143,9.749597082220555,0.4305482258754688,0.050701816,-0.0067195175,-0.03268129,216.82697,-80.82609,-9.065689
456066925000.0,-1.4230933435858966,9.756840541635407,0.4233049101650412,0.04734206,-0.009468411,-0.034513887,216.93443,-80.89547,-8.967575
456071919000.0,-1.4374449681620405,9.764016466316578,0.4161291278484621,0.043982297,-0.01863139,-0.03359759,217.03392,-80.95776,-8.875005
456077012000.0,-1.444321429419102,9.771895978260869,0.4171320398039914,0.04520403,-0.00580322,-0.03390302,217.1247,-81.014725,-8.786009
456081990000.0,-1.4400739411617962,9.78039104347826,0.4298743803920171,0.042760566,-0.0067195175,-0.027794369,217.219,-81.06907,-8.697156
456086903000.0,-1.4344750649838371,9.786815009792736,0.4405331,0.050396383,-0.0015271631,-0.0290161,217.30603,-81.1142,-8.617917
456091915000.0,-1.420784509174748,9.782251411770298,0.4405331,0.044898596,-0.004581489,-0.02443461,217.39299,-81.15809,-8.5372925
456097103000.0,-1.4090398749073023,9.77792,0.4383467040227015,0.036651913,-0.0033597588,-0.02443461,217.47684,-81.196495,-8.461238
456101930000.0,-1.423032294112751,9.77792,0.4138600836458569,0.036651913,-0.007941248,-0.02107485,217.5607,-81.23424,-8.384823
456106927000.0,-1.43751750620507,9.77792,0.3885110797048808,0.03268129,-0.010079277,-0.015271631,217.64738,-81.271255,-8.305698
456111914000.0,-1.4478038469988577,9.771096176377538,0.3649656323754284,0.03848451,0.002443461,-0.018325957,217.72873,-81.30472,-8.230352
456116900000.0,-1.452000123139116,9.754310984181387,0.3439840238228315,0.022907447,0.00580322,-0.009773844,217.81068,-81.33774,-8.151935
456121903000.0,-1.4529829152400282,9.739613,0.3250731030480056,0.02076942,0.008246681,-0.01038471,217.88559,-81.36416,-8.08602
456126920000.0,-1.431783256777268,9.739613,0.3208331713554536,0.031154128,0.010079277,-0.009773844,217.95761,-81.3909,-8.019093
456133014000.0,-1.4077905,9.73923971863581,0.3186475365408039,0.022907447,0.01160644,-0.009162978,218.03662,-81.41241,-7.9553723
456137195000.0,-1.4077905,9.735488061463506,0.3449086039857584,0.01863139,0.007941248,-0.0030543262,218.11443,-81.43533,-7.891455
456141922000.0,-1.4077905,9.731246472500702,0.3745991243905181,0.01038471,0.007941248,-0.0021380284,218.19016,-81.45817,-7.826754
456146935000.0,-1.4077905,9.73619995186649,0.3984826352797541,0.015577064,0.019547688,0.004276057,218.26141,-81.4835,-7.7605586
456151908000.0,-1.4077905,9.744566036100132,0.4193985185401844,0.022907447,0.022907447,-0.0030543262,218.33336,-81.5033,-7.699554
456156957000.0,-1.3926957463548293,9.753501883256678,0.4331126965945787,0.0027488936,0.021685716,0.002443461,218.40265,-81.52039,-7.6356626
456161941000.0,-1.3600002869165282,9.762843652118605,0.4377834834817496,0.00580322,0.018936822,0.0067195175,218.46967,-81.53761,-7.575901
456166893000.0,-1.334501064699793,9.768343,0.4380323258799172,0.00030543262,0.022602014,-0.0018325958,218.53206,-81.54593,-7.5211916
456171967000.0,-1.3187813819875778,9.768343,0.431744452795031,0.0067195175,0.028710667,0.007330383,218.59221,-81.56051,-7.461902
456176936000.0,-1.303386998188406,9.768343,0.4255866992753623,0.0106901415,0.024740042,-0.005497787,218.65848,-81.56946,-7.407606
456181888000.0,-1.2913477401550704,9.76682174015507,0.428985643556417,0.011911872,0.015271631,0.0021380284,218.7222,-81.58519,-7.346565
456191857000.0,-1.2761644853530685,9.761820717483811,0.4702817410866481,0.021685716,0.011301007,-0.0030543262,218.78427,-81.59526,-7.294452
456196933000.0,-1.2551788331791551,9.770814769657724,0.4732797052605612,0.019547688,0.015271631,-0.0070249503,218.85011,-81.60934,-7.2362113
456201955000.0,-1.2344164326241136,9.779713140425532,0.4762457761985815,0.010995574,0.011911872,-0.013133603,218.91777,-81.61955,-7.1796007
456206900000.0,-1.2167618801324505,9.787497,0.47884035,0.02565634,0.005497787,-0.008857546,218.98317,-81.63361,-7.1228285
456211959000.0,-1.221411945513005,9.787497,0.47884035,0.0290161,0.004581489,-0.016798794,219.04652,-81.63955,-7.07289
456217213000.0,-1.2251112034308351,9.787857018207871,0.47884035,0.025961773,0.00061086525,-0.01282817,219.11923,-81.65361,-7.013645
456221910000.0,-1.2175275855264267,9.79164851041052,0.47884035,0.034513887,0.007941248,-0.011911872,219.18729,-81.6667,-6.9592924
456226910000.0,-1.2094547540335496,9.79568458897412,0.47884035,0.026572637,0.0076358155,-0.014049901,219.25655,-81.67547,-6.9078045
456231988000.0,-1.2010550241716933,9.79988439662558,0.47884035,0.0290161,-0.00580322,-0.016187929,219.32573,-81.68697,-6.8573
456237019000.0,-1.192631056901827,9.804096468222744,0.47884035,0.034208454,0.00030543262,-0.023518313,219.3879,-81.69551,-6.81068
456241946000.0,-1.1893977349385032,9.81039734813425,0.4657248917354596,0.04337143,-0.005192355,-0.017104227,219.45436,-81.70926,-6.761407
456246888000.0,-1.1943308749843653,9.82026383427142,0.4311928753564727,0.042760566,-0.005192355,-0.022296581,219.51634,-81.71757,-6.7190013
456251945000.0,-1.2056169282903069,9.81941684539698,0.4224477264783244,0.03726278,-0.020158553,-0.022602014,219.57512,-81.7323,-6.6731377
456256903000.0,-1.2241193245494395,9.805539758402338,0.4455757459522649,0.050396383,-0.025350908,-0.024129177,219.62996,-81.74833,-6.6304564
456261886000.0,-1.2370568623670095,9.790477984964388,0.4745256033544359,0.05589417,-0.025961773,-0.020463986,219.68849,-81.76619,-6.587893
456266894000.0,-1.2412739215774202,9.773609836190978,0.5124791670720127,0.049480084,-0.04428773,-0.031154128,219.75272,-81.78045,-6.5502167
456271919000.0,-1.245584906326034,9.756966006082724,0.5470780126520681,0.06261369,-0.054061573,-0.0290161,219.8097,-81.79687,-6.5129313
456276933000.0,-1.2504529188158962,9.742362171938362,0.5568140376317924,0.05681047,-0.06047566,-0.02443461,219.86981,-81.80704,-6.4783864
456281922000.0,-1.2530962385890438,9.732234161512029,0.5650316,0.07086037,-0.06414085,-0.027488936,219.92815,-81.81555,-6.447643
456286924000.0,-1.2434129651708106,9.746758869415808,0.5650316,0.0580322,-0.06963864,-0.030543262,219.9873,-81.81946,-6.4161773
456291943000.0,-1.2317796535744898,9.760217408880507,0.5664829816012343,0.060170226,-0.067500606,-0.01863139,220.0358,-81.830826,-6.382275
456296953000.0,-1.2112157207783305,9.768443153780217,0.5747085718978228,0.06169739,-0.06627888,-0.02076942,220.08537,-81.836075,-6.353801
456301900000.0,-1.190910376358649,9.77656546116921,0.5828307266278073,0.06414085,-0.062308256,-0.015882496,220.13022,-81.84863,-6.3169055
456306897000.0,-1.1835697839271575,9.77792,0.5960481882185273,0.052534413,-0.061391957,-0.005497787,220.17442,-81.859604,-6.279919
456311912000.0,-1.178816453365004,9.77792,0.6103081799049881,0.05375614,-0.06414085,-0.008552114,220.21779,-81.87136,-6.246297
456316980000.0,-1.1779473,9.77792,0.6093265016106898,0.05681047,-0.06078109,-0.00061086525,220.25218,-81.89029,-6.2038674
456321863000.0,-1.1779473,9.77792,0.6051044436114121,0.051923547,-0.062002823,-0.0015271631,220.28825,-81.90512,-6.165666
456326997000.0,-1.1885181043195003,9.783205236590808,0.6112669404801429,0.049785517,-0.05681047,0.0067195175,220.31186,-81.92561,-6.121897
456331937000.0,-1.2054067761624274,9.791649307987504,0.6239334399535922,0.04795292,-0.04917465,-0.00030543262,220.33511,-81.94139,-6.083901
456336880000.0,-1.2145629586368627,9.793690023251171,0.6371438664534478,0.038179077,-0.057421334,-0.005192355,220.36226,-81.957375,-6.0427413
456341945000.0,-1.2097224744536472,9.78400935814789,0.651665354383794,0.043982297,-0.056505036,-0.004581489,220.38425,-81.97527,-6.003552
456346847000.0,-1.2066777,9.776465780727367,0.6593455110963632,0.04734206,-0.053450707,-0.0009162979,220.40736,-81.98549,-5.969195
456351966000.0,-1.2066777,9.772127698876206,0.6550075198389523,0.04337143,-0.043676864,-0.009773844,220.42815,-81.9927,-5.9393616
456356929000.0,-1.2082982889002385,9.76955842475315,0.6491971613363977,0.042760566,-0.03848451,-0.01038471,220.44507,-82.00302,-5.906068
456362924000.0,-1.2278464387129724,9.78421933299285,0.6247619434525026,0.04520403,-0.04184427,-0.009773844,220.46155,-82.01137,-5.875887
456366860000.0,-1.240680720224719,9.79384491011236,0.6087190714606742,0.037873644,-0.03023783,-0.014049901,220.46263,-82.01962,-5.847383
456371940000.0,-1.2449849,9.800302553363228,0.60333884,0.046731193,-0.032375857,-0.006414085,220.46828,-82.03385,-5.8157477
456376985000.0,-1.2449849,9.804635823766816,0.60333884,0.044898596,-0.020158553,-0.010995574,220.46696,-82.04088,-5.790394
456382025000.0,-1.2500341959013987,9.80665,0.6184867435214713,0.040927973,-0.016798794,-0.01740966,220.47531,-82.049065,-5.7687254
456386951000.0,-1.259263446962731,9.80665,0.6461745256167466,0.052839845,-0.017715093,-0.010079277,220.48106,-82.06175,-5.745297
456391938000.0,-1.258373566128218,9.804728315244825,0.6511914648409894,0.043066,-0.004581489,-0.01160644,220.47882,-82.06711,-5.725281
456396940000.0,-1.2462829165572942,9.800698014554936,0.6310403569729093,0.048258353,-0.01160644,-0.014660766,220.48253,-82.07873,-5.7036877
456401920000.0,-1.2339923308779837,9.796601116381517,0.6143314071509066,0.061391957,-0.003970624,-0.010079277,220.47614,-82.085915,-5.6828556
456406982000.0,-1.2190929061469111,9.791635056346683,0.6292308111382031,0.059253927,0.011301007,-0.011301007,220.4699,-82.08913,-5.665204
456411895000.0,-1.2048354979518403,9.78504067930621,0.6453304105083495,0.051923547,0.0070249503,-0.0143553335,220.4687,-82.09927,-5.642828
456416949000.0,-1.1914391106836424,9.767178456591935,0.6721232316726635,0.05100725,0.0067195175,-0.012217305,220.46213,-82.11076,-5.6205387
456422266000.0,-1.177223618861518,9.748899537217044,0.7002647889147803,0.04795292,-0.00061086525,-0.016187929,220.4594,-82.11822,-5.59893
456426967000.0,-1.1622367244474034,9.742904979760318,0.7242438011984021,0.065973446,0.00580322,-0.011301007,220.45268,-82.13171,-5.5752964
456432734000.0,-1.1438513979027962,9.735551094873502,0.75366030063249,0.058643065,0.002443461,0.0021380284,220.45023,-82.13785,-5.548776
456437327000.0,-1.1285601399481302,9.72853293097967,0.7755066748933322,0.049480084,-0.008552114,-0.0021380284,220.44868,-82.14436,-5.5266514
456441947000.0,-1.1026491793524638,9.702621815778466,0.7718050704425667,0.06261369,-0.0125227375,-0.0021380284,220.44576,-82.157196,-5.500449
456446849000.0,-1.0751566406425166,9.67512911302602,0.7678775239019493,0.061086524,-0.008552114,-0.0061086523,220.44188,-82.16167,-5.4725733
456451927000.0,-1.0394497681993056,9.647280742328986,0.771383586802102,0.05681047,-0.007941248,0.0061086523,220.43976,-82.17121,-5.4408755
456456914000.0,-0.9991160895749274,9.620391560852022,0.7803466488542742,0.045814894,-0.013133603,0.007330383,220.43872,-82.175804,-5.414334
456461932000.0,-0.9543339667047342,9.596536923068935,0.7942982915708057,0.03756821,-0.010995574,0.0143553335,220.44162,-82.18592,-5.376471
456466887000.0,-0.9050678812084718,9.576830612333888,0.8140047000477575,0.026572637,-0.0067195175,0.02076942,220.44536,-82.19297,-5.339566
456471893000.0,-0.8703877754968596,9.56509427049815,0.8214696750993719,0.033292156,-0.0143553335,0.029626964,220.45753,-82.20638,-5.2966285
456476917000.0,-0.8496900884969457,9.560954646648886,0.8173301376993891,0.01985312,-0.02321288,0.040317107,220.4685,-82.21451,-5.2528033
456481907000.0,-0.8287155078866958,9.554973023723669,0.8158152394572025,0.013744468,-0.03634648,0.057726767,220.49112,-82.229256,-5.1986656
456486908000.0,-0.805991268559499,9.541338678496867,0.8249049484759916,0.004276057,-0.029932396,0.05009095,220.51068,-82.23726,-5.1505218
456491920000.0,-0.783776510879445,9.528542577970512,0.8331822,-0.010079277,-0.04642576,0.061086524,220.54204,-82.253265,-5.0921288
456496941000.0,-0.7670947413503904,9.524372056114483,0.8331822,-0.019242255,-0.03634648,0.06811147,220.56377,-82.26574,-5.039618
456501957000.0,-0.7504295838204683,9.52020568733738,0.8331822,-0.03359759,-0.04184427,0.07452556,220.5983,-82.27591,-4.9822044
456506923000.0,-0.766442411746409,9.507675272501809,0.8331822,-0.03573562,-0.06536258,0.08368854,220.63414,-82.28816,-4.92351
456511866000.0,-0.790901537302883,9.493000022940992,0.8331822,-0.042760566,-0.067500606,0.08735373,220.6647,-82.29602,-4.8667603
456516949000.0,-0.8031238495733548,9.469993790299858,0.8373066419400281,-0.04184427,-0.08552113,0.09468412,220.70595,-82.311455,-4.8103933
456521855000.0,-0.8125792241497283,9.446355341517409,0.8420343316965184,-0.050701816,-0.09590584,0.09773844,220.74483,-82.322754,-4.755888
456526935000.0,-0.8299228879378775,9.402996221647014,0.8507061556705973,-0.06078109,-0.106901415,0.11301007,220.78038,-82.335045,-4.698151
456531902000.0,-0.8481639061604832,9.357393723708178,0.8598266552583645,-0.07360926,-0.119729586,0.10873401,220.81917,-82.34158,-4.6462374
456536944000.0,-0.8523358,9.295388181997245,0.8545446699625764,-0.076052725,-0.124311075,0.119729586,220.85597,-82.350746,-4.5892534
456541915000.0,-0.8523358,9.229749832972228,0.8451678189088044,-0.089186326,-0.13836098,0.129198,220.89844,-82.353424,-4.5346913
456546910000.0,-0.8452520354719983,9.177469177359992,0.8463008822640008,-0.10567969,-0.13744467,0.14049901,220.93675,-82.35186,-4.485825
456551973000.0,-0.8356056934049537,9.129237467024767,0.8511240532975232,-0.119729586,-0.13683382,0.14202617,220.9782,-82.347855,-4.437917
456556919000.0,-0.8052158142076502,9.1066324,0.8628231809836066,-0.14385876,-0.14905111,0.1563815,221.01927,-82.34183,-4.384009
456561892000.0,-0.7673614765524093,9.092436745454544,0.877018539076006,-0.15363261,-0.14813483,0.1685988,221.05553,-82.335846,-4.3320947
456566903000.0,-0.7537019181727326,9.042536730157408,0.8896635634363288,-0.16279559,-0.15241088,0.1731803,221.09428,-82.32635,-4.2814865
456571890000.0,-0.7497242799950029,8.978894851586574,0.9015965028899808,-0.17470746,-0.122478485,0.17745635,221.12177,-82.31593,-4.2300825
456576876000.0,-0.7126582191861628,8.91724824275145,0.917260289110178,-0.20891592,-0.14202617,0.18448131,221.16689,-82.30117,-4.172121
456581976000.0,-0.6003447668766246,8.85864974245151,0.9416762663147372,-0.22937989,-0.15943582,0.22052236,221.20105,-82.29197,-4.107315
456586883000.0,-0.5144851414926457,8.81615930869802,0.9549608608316688,-0.22724187,-0.16310102,0.24220806,221.23488,-82.27503,-4.046065
456591882000.0,-0.4753649028236789,8.80311942582168,0.946267461853096,-0.22113322,-0.16279559,0.25045475,221.27087,-82.25765,-3.9798856
456596920000.0,-0.4432546276287761,8.781711476665375,0.9341726074990316,-0.23640485,-0.16279559,0.26389378,221.31429,-82.24534,-3.8895624
456601984000.0,-0.4667330193018977,8.697189060708752,0.8966071955315646,-0.25778514,-0.14966199,0.29260445,221.35216,-82.235794,-3.7954752
456606975000.0,-0.4907186332588397,8.616364237103934,0.857539783514465,-0.2733622,-0.129198,0.29840767,221.38914,-82.229675,-3.7012854
456612050000.0,-0.527916173190724,8.571727464181846,0.7868644852211848,-0.29718593,-0.12614368,0.3115413,221.42543,-82.22029,-3.599527
456616881000.0,-0.5633252993800705,8.529236774529313,0.7195871717128425,-0.3145956,-0.11911872,0.321926,221.4555,-82.20909,-3.5060127
456621946000.0,-0.611099750759906,8.475368037090647,0.6684185007843314,-0.32345316,-0.09132435,0.33750305,221.47758,-82.195854,-3.4108198
456627011000.0,-0.6725337286774018,8.409545947349375,0.6420896328134612,-0.3484986,-0.093767814,0.35643986,221.50525,-82.17518,-3.3136606
456631874000.0,-0.7230201591487814,8.346273923153873,0.6167808360394689,-0.3659083,-0.08246681,0.36377025,221.52167,-82.16111,-3.2235844
456636942000.0,-0.7450896491451436,8.280064992269917,0.590297434216988,-0.36926803,-0.07422013,0.36132678,221.53905,-82.14492,-3.133454
456642228000.0,-0.7664660830466831,8.210789992628994,0.5643884406224405,-0.39187005,-0.07544186,0.3811799,221.55371,-82.114456,-3.0460799
456646945000.0,-0.769829513714541,8.146885547464821,0.5576616495272131,-0.40561453,-0.06627888,0.39858958,221.56299,-82.08479,-2.9632354
456651906000.0,-0.7733669272280546,8.079675466383739,0.55058689637406,-0.41233405,-0.05467244,0.40561453,221.56593,-82.05263,-2.880524
456657100000.0,-0.7382143336093339,7.958222073391043,0.513485539397817,-0.44165558,-0.05222898,0.42546764,221.5677,-82.01387,-2.7918684
456661955000.0,-0.6419686637749341,7.7613561174256676,0.4303642940365073,-0.4728097,-0.05100725,0.4343252,221.56671,-81.97234,-2.7073827
456666893000.0,-0.5560716412269353,7.577794329134608,0.3666755696166678,-0.4877759,-0.04795292,0.44776422,221.56342,-81.923615,-2.6142702
456671906000.0,-0.513577532116838,7.453580674405937,0.3797506764363042,-0.49541172,-0.028710667,0.47983465,221.5541,-81.871124,-2.5169623
456676954000.0,-0.4707867356301491,7.328499778920133,0.3929170716538435,-0.52503866,0.0018325958,0.5027421,221.5521,-81.82373,-2.3974025
456681879000.0,-0.3996483985229828,7.182827418907978,0.4255885707403076,-0.5519168,0.013744468,0.5207626,221.54907,-81.77666,-2.2736275
456686940000.0,-0.2470543910191598,6.9691958120446165,0.5127851620653053,-0.571159,0.0070249503,0.5381723,221.54211,-81.72474,-2.1476192
456692090000.0,-0.0852698422257982,6.749997464427882,0.5904770323774032,-0.6010914,0.028405234,0.56138515,221.52496,-81.656975,-2.0078034
456696944000.0,0.1312728985652579,6.5255804807233,0.5550427501549928,-0.63529986,0.056505036,0.59498274,221.50702,-81.583885,-1.8642429
456701883000.0,0.3516075909358854,6.297233656966206,0.5189879664927586,-0.657291,0.07238753,0.61941737,221.49779,-81.496216,-1.7035292
456706905000.0,0.4815914997818182,6.193233899636363,0.5012326429454546,-0.6731735,0.12217305,0.64934975,221.46977,-81.4024,-1.5394449
456711977000.0,0.5699070760956938,6.146751761913875,0.4919362784976077,-0.6924158,0.14110987,0.68477994,221.44525,-81.30249,-1.3715389
456716891000.0,0.5936339934472838,6.10004151607717,0.4908433591047554,-0.7113526,0.18875736,0.70616025,221.41714,-81.21385,-1.1561818
456721891000.0,0.5774268348756134,6.051420133440514,0.4948951445168387,-0.72601336,0.24037547,0.7483099,221.38136,-81.12084,-0.93228334
456726877000.0,0.5485101186007237,5.997713063886053,0.5083198774918809,-0.7489208,0.28771752,0.79779,221.34048,-81.01658,-0.68402725
456731950000.0,0.476381482509047,5.925584625498747,0.5534002821100492,-0.7696902,0.34330627,0.83291477,221.28317,-80.90623,-0.43750516
456736907000.0,0.3981450350525282,5.8582744565537554,0.6003957512322042,-0.80878556,0.3839288,0.8723156,221.21022,-80.769455,-0.17849703
456741902000.0,0.2337596458654884,5.825397204712813,0.6802400587137948,-0.84879726,0.41080686,0.90469146,221.12665,-80.624115,0.0786189
456747190000.0,0.0676019393784854,5.791084012474317,0.7785582385162899,-0.8915578,0.42730024,0.93187493,221.0287,-80.43855,0.3253987
456751930000.0,-0.015671587533754,5.764436642353977,0.9817456704211917,-0.94806284,0.4392121,0.95233893,220.92567,-80.23731,0.5698947
456757899000.0,-0.1205364993774581,5.730880070149692,1.2376160883621956,-1.006095,0.4175264,0.9630291,220.80751,-79.991936,0.78373903
456761931000.0,-0.2143170934105193,5.714778379424413,1.445063535593781,-1.058324,0.44684792,0.97005403,220.67282,-79.735176,0.99065715
456766912000.0,-0.3721142342209725,5.706888363380748,1.7646027593284817,-1.1481212,0.453262,0.9761627,220.55199,-79.45522,1.1940103
456771886000.0,-0.5296896163513066,5.699009435494542,2.0836929217168376,-1.1976013,0.44715336,0.95417154,220.39777,-79.11418,1.3462396
456776983000.0,-0.5311362785633968,5.871415109507426,2.3154874816145004,-1.2620476,0.42913285,0.9294315,220.2461,-78.75168,1.4910619
456781892000.0,-0.515356271905681,6.056830062096165,2.528517402601325,-1.3396275,0.34483343,0.9101892,220.1167,-78.38094,1.6270571
456786975000.0,-0.4349594270018995,6.196717538254538,2.7761553086428874,-1.4178182,0.28863382,0.9257663,219.9291,-77.908264,1.7153661
456791933000.0,-0.2996693519005909,6.286910914679189,3.041724697688898,-1.5228871,0.27672195,0.91232723,219.75583,-77.41862,1.7854373
456796941000.0,-0.0985781696419373,6.408436868488826,3.2138950944753675,-1.6056592,0.24740042,0.90010995,219.58319,-76.87245,1.8602706
456801970000.0,0.1414904266769128,6.548476991983052,3.3299282083492563,-1.6545285,0.2284636,0.8949176,219.4118,-76.31851,1.9273797
456806898000.0,0.3828762287468982,6.686634268920596,3.431645499751861,-1.7012597,0.24007004,0.8940013,219.22699,-75.70106,2.0138366
456811951000.0,0.6530526783622829,6.831728823407775,3.4916846689826304,-1.7290541,0.24037547,0.8918633,219.0517,-75.08796,2.0953794
456816889000.0,0.901575627953111,6.958815167448152,3.5170368634806133,-1.7376062,0.23090707,0.8866709,218.88425,-74.46608,2.2346344
456821940000.0,1.1153042522633,7.050413298944996,3.455971594301172,-1.7272215,0.2312125,0.8793405,218.71503,-73.85398,2.36723
456826984000.0,1.3216229482829724,7.1332212366722185,3.390166051717028,-1.7082846,0.2125811,0.85918194,218.56976,-73.251945,2.5532815
456831899000.0,1.441080446538187,7.1145558917202,3.2707085534618128,-1.6716328,0.20769419,0.84116143,218.42145,-72.66925,2.731965
456837073000.0,1.566832856705528,7.094906960940598,3.1449561432944724,-1.6337591,0.2003638,0.81153446,218.3034,-72.12213,2.9600337
456841942000.0,1.6833661225287355,7.138298179259259,2.97248681712218,-1.6001616,0.1957823,0.79045963,218.18675,-71.59428,3.180242
456846943000.0,1.8016219528735635,7.232087303703704,2.7522862936994468,-1.5592335,0.19608775,0.7666359,218.07367,-71.09043,3.3865314
456851930000.0,1.8792168728164065,7.351125299975488,2.505108527232617,-1.5244142,0.18906279,0.75533485,217.98132,-70.62601,3.6364207
456856903000.0,1.7936085814445626,7.572928657602745,2.147110103349947,-1.4993688,0.16432275,0.7357872,217.89655,-70.18031,3.8732636
456861905000.0,1.7075010661737071,7.79602545930223,1.787024015221832,-1.4630222,0.13439035,0.7113526,217.84277,-69.80842,4.150809
456866891000.0,1.609430069742949,7.963943035299893,1.7648420749196716,-1.4318681,0.09285152,0.68325275,217.80109,-69.45025,4.4183154
456871854000.0,1.5076170749018207,8.112420145947876,1.858170660906819,-1.3878858,0.024129177,0.6591236,217.77686,-69.11382,4.678967
456877014000.0,1.4205498696258965,8.411601917367708,2.035550981407249,-1.3179418,-0.052839845,0.6084218,217.80046,-68.92592,4.908324
456881996000.0,1.3539625763520062,8.83517128697422,2.2815540682302773,-1.2336423,-0.14813483,0.57879484,217.84866,-68.75878,5.1382656
456887026000.0,1.2867337354913744,9.262821613975577,2.529927317270789,-1.1456778,-0.22357668,0.5488624,217.9029,-68.600365,5.3316903
456891915000.0,1.221389440666796,9.67848412862958,2.771338214797441,-1.0586295,-0.29779682,0.52778757,217.9845,-68.4704,5.523197
456897070000.0,1.1524899029656912,10.116761948846676,3.025883761279318,-0.9978484,-0.33628133,0.5186246,218.07814,-68.36169,5.7086415
456901935000.0,1.102335841731319,10.499576828297265,3.1949326469783585,-0.9230174,-0.3100141,0.4981606,218.17688,-68.285355,5.881515
456906965000.0,1.0777486102082483,10.838880520620664,3.239189612372397,-0.86193085,-0.2959642,0.46609017,218.25159,-68.17466,5.9863253
456911880000.0,1.0534361855739718,11.104389218802073,3.31523628839779,-0.79473567,-0.2510656,0.44501534,218.31049,-68.08921,6.079972
456917054000.0,1.0273638627992634,11.273859384898712,3.4499432364640885,-0.7672467,-0.19425514,0.41263947,218.36546,-68.01458,6.156992
456921947000.0,0.9638055642422472,11.390589269163254,3.573465880046811,-0.70432764,-0.13988814,0.3753767,218.4122,-67.957886,6.2282414
456926930000.0,0.5968112547521525,11.171190232550364,3.6692034597174623,-0.6383542,-0.13225232,0.33078352,218.45932,-67.91342,6.2860293
456932007000.0,0.2228939139371395,10.947652422218509,3.766747046309454,-0.57543504,-0.11453723,0.3371976,218.4731,-67.85706,6.3396125
456936879000.0,0.2863762774462217,10.85147280805295,3.7830763032542745,-0.56321776,-0.03176499,0.27947086,218.47803,-67.81437,6.3555975
456941851000.0,0.5139940260838389,10.798945945394374,3.7699445190292336,-0.5537493,-0.01740966,0.2666427,218.49086,-67.78359,6.3895397
456946886000.0,0.7241744655997064,10.682929459949676,3.739602430488572,-0.46914452,-0.0030543262,0.23365596,218.4451,-67.715614,6.3310437
456951942000.0,0.9170841736642902,10.510326271021178,3.693913323002726,-0.40194935,0.008246681,0.21960606,218.39621,-67.64741,6.274856
456956934000.0,1.0383355698643897,10.265033958814666,3.6591675277749873,-0.3494149,-0.0021380284,0.21471913,218.36758,-67.5843,6.271904
456961900000.0,1.1195503469814163,9.978393246207936,3.6305035063987945,-0.30940324,-0.0125227375,0.22602014,218.33609,-67.537605,6.26846
456966913000.0,1.167658076317826,9.712985358844268,3.6173985358844263,-0.3023783,-0.008246681,0.22785273,218.31589,-67.48032,6.305665
456971913000.0,1.1964815779086766,9.461808989422996,3.6132808989422993,-0.31031954,-0.005497787,0.23915374,218.29703,-67.4296,6.348083
456976955000.0,1.230834985190782,9.223889885153003,3.677526361843596,-0.30909783,-0.0070249503,0.27275133,218.28003,-67.35477,6.4202595
456981892000.0,1.2754899823290518,9.022942607857953,3.8829391341896486,-0.31887165,-0.0421497,0.34269542,218.26662,-67.273125,6.5059843
456986923000.0,1.3256821048166787,8.785979836089146,4.080869211358735,-0.35063666,-0.09132435,0.3555236,218.2536,-67.15717,6.6048
456991922000.0,1.3945166457225018,8.420296112913372,4.231444994203811,-0.36102137,-0.11759156,0.35643986,218.23837,-67.04326,6.7164416
456997289000.0,1.475688292987316,8.050458509986878,4.398541197113281,-0.3417791,-0.11453723,0.3484986,218.21391,-66.883965,6.831041
457001955000.0,1.6874210872430384,8.170983521285901,4.649362982898381,-0.31398472,-0.11728613,0.36651915,218.19536,-66.726875,6.9525046
457006980000.0,1.915444510118093,8.300781674260097,4.919482887221169,-0.27275133,-0.106595986,0.38545597,218.16344,-66.52702,7.079779
457011938000.0,2.114055937677485,8.427991071754565,5.147084242849898,-0.24862215,-0.06383542,0.38820487,218.12363,-66.33458,7.2011023
457016950000.0,2.2276437340939825,8.553748980138607,5.248502096737661,-0.24801129,-0.031154128,0.40866885,218.07986,-66.14807,7.3286905
457021848000.0,2.338647929394861,8.67664647320825,5.347613159854632,-0.25381452,0.02687807,0.42119157,218.01624,-65.92723,7.483843
457026926000.0,2.408181747854849,8.76009407675844,5.43138741704446,-0.2556471,0.100792766,0.43218717,217.9379,-65.709885,7.634912
457031867000.0,2.4680267322307614,8.83374905759315,5.509646146629049,-0.25717425,0.18051068,0.44012842,217.8421,-65.49426,7.7775693
457036923000.0,2.4916842009837343,8.909189026784844,5.559691120853219,-0.24984388,0.23945917,0.42485678,217.737,-65.26736,7.930559
457041890000.0,2.505583431537937,8.983318611181454,5.601388957650726,-0.25900686,0.2828306,0.4147775,217.61446,-65.038925,8.0753565
457046881000.0,2.506070326283368,9.044939568275154,5.630326633572896,-0.269697,0.31520647,0.3930918,217.48813,-64.80738,8.210433
457051888000.0,2.5019677392197126,9.102375701488706,5.65494241298768,-0.28160888,0.33353242,0.37690386,217.35599,-64.578224,8.336843
457056883000.0,2.4995465,9.138300088607592,5.683659281593691,-0.2846632,0.34391713,0.35308012,217.22061,-64.34607,8.45477
457062103000.0,2.4995465,9.143487050632912,5.719967149201079,-0.28008172,0.33933565,0.33841935,217.08688,-64.118774,8.56651
457066885000.0,2.495664448402327,9.099265178146869,5.730684292201332,-0.27366763,0.30695978,0.31031954,216.96225,-63.892002,8.669629
457071934000.0,2.487511171149144,9.001425425427874,5.718454312469437,-0.25961772,0.26542094,0.28619036,216.84435,-63.675243,8.76789
457076937000.0,2.481953859066837,8.873863620480279,5.710898739864865,-0.23579398,0.22449298,0.27366763,216.73589,-63.460632,8.864181
457083186000.0,2.4983468142074505,8.431251891709277,5.743684878378378,-0.19914207,0.19272798,0.25625798,216.64105,-63.261684,8.953574
457087543000.0,2.509734637344044,8.134579682661082,5.761366179798325,-0.17867808,0.15118915,0.23793201,216.55988,-63.05844,9.047204
457091914000.0,2.520466185660571,8.034418527687574,5.693399408306273,-0.1423316,0.122783914,0.22357668,216.48653,-62.87571,9.136671
457096859000.0,2.532607001589472,7.921104203426765,5.6165072360280295,-0.13072516,0.10293079,0.20952678,216.41219,-62.671635,9.229549
457101940000.0,2.5517988359382726,7.872135,5.572122019388663,-0.115453534,0.110872045,0.20647246,216.33937,-62.482674,9.319273
457106897000.0,2.5752791480462958,7.872135,5.553337985458502,-0.09407325,0.12461651,0.20555615,216.27258,-62.303596,9.405414
457111900000.0,2.582991213391483,7.885868789635711,5.566945063417137,-0.08552113,0.14813483,0.19914207,216.20816,-62.122784,9.496258
457116884000.0,2.578093186752181,7.910358667111339,5.606128867378143,-0.07696902,0.1685988,0.1966986,216.14142,-61.951088,9.584108
457121898000.0,2.573463225619224,7.930810187652495,5.653958991127541,-0.060170226,0.20463985,0.19333886,216.06516,-61.784615,9.672133
457126918000.0,2.569019876081331,7.9485830754528655,5.707277700924214,-0.052839845,0.2657264,0.19761491,215.97743,-61.62096,9.753113
457131907000.0,2.559929446148271,7.949453507486022,5.69879803760613,-0.05589417,0.28527406,0.18661933,215.89145,-61.45781,9.827581
457136992000.0,2.544802755787948,7.929284464154069,5.613079616607993,-0.03481932,0.29901853,0.16371189,215.79353,-61.30734,9.890641
457141884000.0,2.514943715042968,7.892943624521399,5.567453216353272,-0.013439035,0.29352075,0.14996742,215.69177,-61.150658,9.950755
457146919000.0,2.469813912907343,7.839608524546924,5.555145076814431,0.029932396,0.28985557,0.13164146,215.59116,-61.011864,9.999787
457153211000.0,2.4166626122881354,7.7652687724576275,5.553614497881356,0.05955936,0.28008172,0.09590584,215.5014,-60.88704,10.043939
457157032000.0,2.3882358294491524,7.710999400889831,5.569120040324859,0.10445796,0.2434298,0.077579886,215.42108,-60.7808,10.090128
457161904000.0,2.351990007415254,7.641802756483051,5.588890519985876,0.1255328,0.19700404,0.052839845,215.34871,-60.673756,10.123917
457166894000.0,2.284181838259009,7.543610545507652,5.594617039246339,0.14996742,0.17287487,0.01985312,215.28482,-60.584663,10.151579
457171905000.0,2.153883222116176,7.389621410564423,5.570926314299819,0.18020524,0.12034045,-0.008246681,215.24385,-60.50688,10.183074
457176943000.0,2.022882537995722,7.234802559667599,5.547107940266579,0.19730948,0.07666359,-0.051923547,215.20097,-60.4282,10.199269
457181906000.0,1.9405549474733172,7.173862897734699,5.399117282106295,0.20891592,0.028099801,-0.08032878,215.17526,-60.35923,10.219217
457187063000.0,1.8641331419926552,7.122543468816861,5.231369498323487,0.2125811,-0.008857546,-0.112704635,215.16472,-60.299152,10.230991
457191889000.0,1.830925515360051,7.09671512212997,5.0653312495768805,0.21685717,-0.029932396,-0.1386664,215.1552,-60.23812,10.220303
457196896000.0,1.796472430704135,7.069918078644419,4.893065706378732,0.2180789,-0.028405234,-0.16920967,215.15443,-60.19259,10.201758
457201923000.0,1.7408887312415415,7.06195376462711,4.707484027779756,0.20738874,-0.025350908,-0.18936823,215.16052,-60.147717,10.182259
457206966000.0,1.6686462026426383,7.068833998603889,4.511397215756109,0.2180789,0.0021380284,-0.19853121,215.16225,-60.111877,10.154839
457211936000.0,1.5974494215328727,7.075614637680746,4.318148860460147,0.21960606,0.03359759,-0.22113322,215.17273,-60.09652,10.123195
457216930000.0,1.4507116903305295,7.129661149460447,3.9753441283031696,0.22388211,0.07269296,-0.23457226,215.17372,-60.085194,10.087421
457221902000.0,1.2807850459597248,7.19844111649248,3.586940267142493,0.21319197,0.105374254,-0.26542094,215.17339,-60.07455,10.038985
457226966000.0,1.1442512814515362,7.25129803224579,3.2564104800247318,0.22540927,0.14019357,-0.28160888,215.16312,-60.095913,9.990079
457231997000.0,1.0617575250927425,7.278796014838771,3.0226782500998763,0.23182335,0.17379116,-0.29626966,215.14851,-60.115307,9.930592
457236963000.0,0.9767372200506758,7.313251042905405,2.784844866554054,0.24129178,0.20280726,-0.3118467,215.1491,-60.209934,9.843289
457241916000.0,0.8839610613833571,7.363856101066856,2.5318188711948797,0.25717425,0.21777347,-0.32650748,215.146,-60.306423,9.75207
457247109000.0,0.7830360321970768,7.415079280103725,2.2674808446566086,0.27397305,0.21105394,-0.35277468,215.15198,-60.442028,9.649408
457251920000.0,0.6526993508015086,7.44404304252711,2.032150775876159,0.28405234,0.20097467,-0.36560285,215.15454,-60.57681,9.547145
457256934000.0,0.5168631170627063,7.474228930033003,1.7868909619361937,0.30940324,0.17959438,-0.37232238,215.18007,-60.76332,9.433725
457261890000.0,0.3522097119392131,7.526888149356703,1.5128390548200634,0.32895094,0.16462818,-0.3912592,215.20903,-60.949795,9.316745
457266877000.0,0.1562914184122692,7.602583983964199,1.2056035426160732,0.35735616,0.13530666,-0.4083634,215.24684,-61.14222,9.205577
457271898000.0,-0.0466726536273693,7.694283166583449,0.8908891932852521,0.39645153,0.09865474,-0.42149702,215.30136,-61.3926,9.073726
457276936000.0,-0.2608105820009246,7.814735574276468,0.5652210969893667,0.44623706,0.06169739,-0.44012842,215.36517,-61.65172,8.942185
457281919000.0,-0.4900772986444462,7.949357534997209,0.2578139645498764,0.4972443,0.034513887,-0.4550946,215.44559,-61.976532,8.7852955
457286882000.0,-0.7894829274938202,8.146434897233075,0.0114675823060361,0.5540548,0.00580322,-0.4709771,215.5367,-62.31391,8.630304
457291872000.0,-1.0905174001833984,8.344584411147435,-0.2362189877920422,0.6096435,-0.03268129,-0.49602258,215.64731,-62.728764,8.443375
457296934000.0,-1.2703194930842685,8.39617108936683,-0.3221676137406137,0.6533204,-0.06505715,-0.52687126,215.76416,-63.15285,8.255334
457302012000.0,-1.392043582858997,8.378137998980254,-0.3311842154241216,0.70066243,-0.08093964,-0.5540548,215.88693,-63.589634,8.066262
457306975000.0,-1.459390534170511,8.310312718264138,-0.3196801305586879,0.7464773,-0.09285152,-0.5681047,216.01994,-64.103615,7.815493
457311927000.0,-1.4836981872031438,8.20092749701008,-0.2913211357457714,0.77824235,-0.12614368,-0.6047566,216.16545,-64.62445,7.558353
457316858000.0,-1.493201116282079,8.079264046797498,-0.2559653157494069,0.8323039,-0.13347405,-0.6264423,216.29709,-65.16095,7.277612
457321897000.0,-1.4342278276328086,7.89540629178348,-0.1865849232762562,0.8857546,-0.14294247,-0.6575964,216.4399,-65.70241,6.9915967
457329769000.0,-1.3420988877147582,7.608180999568686,-0.0781978525184386,0.95447695,-0.13561209,-0.70280045,216.57428,-66.24675,6.6918993
457331950000.0,-1.3993682417815916,7.36143898490142,0.1436980862966595,1.0479393,-0.12034045,-0.72295904,216.70605,-66.80485,6.3937917
457336932000.0,-1.5407143862907346,6.776557935907651,0.674964821900705,1.0824533,-0.096516706,-0.7654142,216.83723,-67.36227,6.079425
457341991000.0,-1.6996185504742842,6.2538539859107125,1.3265840118788617,1.1133019,-0.014966198,-0.8145888,216.94398,-67.90507,5.767973
457346969000.0,-1.873866268705944,5.822383550735358,2.0982524226351056,1.061073,0.0720821,-0.88453287,217.04578,-68.4298,5.440551
457351798000.0,-1.8759450697590825,5.613881218710263,2.659618802520436,0.8576548,0.13927728,-0.8888089,217.07365,-68.7936,5.08074
457356856000.0,-0.7210526458496822,6.8512660203451405,1.9501848595367848,0.4428773,0.3943135,-0.68844515,217.01149,-69.0642,4.734916
457361806000.0,0.277135862693638,8.579085877208152,1.8153460886967263,-0.051923547,0.21227567,-0.4792238,216.96481,-69.02397,4.4095416
457366805000.0,1.0586389356481072,11.210850251125033,2.6390926714638665,-0.41996986,-0.6411031,0.067500606,216.97441,-68.863914,4.2755632
457371767000.0,1.9336124231864409,13.73539384542373,3.802563769627119,-1.131017,-1.7159204,0.4343252,217.2141,-68.65804,4.375981
457376824000.0,3.8106134562033898,15.437280625310734,8.421190496259888,-2.3832908,-1.1829406,1.3243558,217.13933,-68.136505,4.6850595
457381795000.0,4.513955527574239,16.79452346085615,11.292326010026995,-3.5573738,0.07147124,1.6716328,217.22768,-67.44517,5.1264563
457386800000.0,2.8872649973968376,17.51544323621288,10.770121430871578,-3.3771684,0.3472769,0.8927795,217.45969,-66.82328,5.528851
457391788000.0,0.6483829308621174,18.14045356295048,8.615531739633061,-3.0677652,0.24190263,0.14996742,217.33417,-65.43272,6.0948653
457396796000.0,-3.4325146201628747,18.490630567911637,1.6030320410465233,-2.2913556,0.05467244,-0.204029,217.1994,-64.326355,6.4952407
457401860000.0,-6.964657402038962,18.3550393672151,-5.068443882557787,-1.5378532,-0.4111123,-0.35643986,217.16797,-63.48199,6.5460577
457407568000.0,-6.3963285448672655,14.45398463500555,-9.37781161123448,0.051618114,-0.45112398,-0.6924158,217.14108,-63.16747,6.4241214
457411812000.0,-5.745809342570935,11.847738819485404,-11.860223897691446,1.0812315,-0.2574797,-0.9221011,217.32407,-63.857918,5.813456
457416820000.0,-3.604578360693583,10.545441346079528,-10.440865888538594,1.6300939,-0.18753563,-0.947452,217.55333,-64.82745,5.2076855
457421810000.0,-1.541349516498679,9.704382972697916,-7.9904925228495935,2.038152,-0.44409904,-0.9660834,217.98729,-66.260254,4.7527313
457426866000.0,0.2070704497602504,11.073741621489384,-0.4661270013699976,2.4223862,-1.0454959,-0.9984592,218.48244,-67.81344,4.3155837
457431843000.0,1.828637311621461,12.126702146703623,6.051993770144525,2.6575692,-1.8145752,-1.0650436,219.1275,-69.20263,4.1872506
457436825000.0,2.8157423455949315,11.295455791922391,6.897409382696496,2.6612344,-2.564107,-1.1102476,219.92609,-70.62208,4.1001825
457441809000.0,3.776827375572005,10.45092391117093,7.58815840460969,2.4798074,-2.9211576,-1.169807,220.63164,-71.09805,4.1710496
457446821000.0,4.523782835733512,9.494013039030955,6.994631445323015,2.1713204,-2.7550023,-1.3359623,221.4015,-71.540085,4.21783
457453367000.0,5.465672515149182,8.266873893166506,6.2318078818094325,1.8820758,-2.1050417,-1.6533068,222.15402,-71.83115,4.2973485
457457015000.0,5.418597796227141,7.967613250240616,6.01660888585178,1.6081028,-1.1695015,-1.7537941,222.7655,-72.03447,4.3481884
457461893000.0,5.355650844773821,7.5674505813282,5.728851017901828,1.5464053,-0.20555615,-1.8622227,223.26727,-72.3257,4.3465643
457466890000.0,4.732706125892857,7.14317551796875,5.614680555580357,1.4486669,0.50854534,-1.8741345,223.57437,-72.52363,4.287163
457471881000.0,3.834034412912088,6.712305547355769,5.590059517239011,1.4272866,0.90377516,-1.8695531,223.7078,-72.72393,4.1517696
457476956000.0,2.795680721849934,6.265260895887908,5.554887154574068,1.4511104,1.0216721,-1.8961257,223.72899,-72.93586,3.9619558
457481907000.0,1.553624623657224,5.8127287885775205,5.501931310853894,1.4886786,0.9275989,-1.9437732,223.69984,-73.13731,3.7582114
457486872000.0,0.3335914193811075,5.426134398310261,5.457676321539088,1.509448,0.7153232,-1.9755383,223.64034,-73.31403,3.4173234
457491883000.0,-0.853442253664495,5.152579348218648,5.428366970297232,1.5149459,0.40958515,-1.9813415,223.63516,-73.48511,3.094318
457496855000.0,-1.737675572019329,4.964784446965895,5.36319887199145,1.4987578,0.23304509,-1.9740111,223.63025,-73.60283,2.629617
457501885000.0,-2.185322948471332,4.902113806783756,5.242334109329988,1.4844025,-0.1386664,-1.9034561,223.75816,-73.70243,2.2315652
457506863000.0,-2.516572114140139,4.743721675696636,5.039538916106051,1.4819591,-0.47067168,-1.7467692,223.89844,-73.71257,1.7571076
457511932000.0,-2.5078166268644604,4.284058319451709,4.575497541951483,1.5112807,-0.67011917,-1.5580118,224.09018,-73.70763,1.342769
457517151000.0,-2.4758144630996317,3.803829159641294,4.101050938118939,1.5210545,-0.66675943,-1.3768903,224.31158,-73.6397,0.9616914
457521891000.0,-2.2148171199261992,3.297416353840213,3.703711784252982,1.5189165,-0.5021312,-1.1817188,224.51448,-73.56573,0.65079784
457526896000.0,-1.9392281531365316,2.762691439697932,3.284158521573844,1.5238034,-0.25717425,-0.9746355,224.69423,-73.55264,0.37861887
457531906000.0,-1.5652746968550368,2.30228978958231,2.977455199076167,1.5128077,0.015271631,-0.73731434,224.79361,-73.526665,0.16010498
457536907000.0,-1.1510596836855036,1.873953770958231,2.7185708527076167,1.462106,0.25503623,-0.51893,224.81197,-73.48499,-0.018699352
457541882000.0,-0.651798569169675,1.6331694843195732,2.728842866347512,1.3997977,0.47219884,-0.32436943,224.77081,-73.49675,-0.12755387
457546910000.0,-0.1038416836823105,1.4820089897661275,2.872445300659237,1.2968669,0.6600399,-0.15088372,224.65298,-73.477516,-0.19827397
457551927000.0,0.3973331725290988,1.3741675125290986,3.008191396325241,1.1661417,0.80878556,-0.013439035,224.47714,-73.56197,-0.28211012
457556905000.0,0.5836190955586964,1.5604534355586963,3.091425559444629,1.0454959,0.929126,0.09162979,224.24727,-73.613716,-0.33941287
457561850000.0,0.7686700978450283,1.7455044378450284,3.174107949285001,0.9254609,1.0225884,0.17684549,223.97537,-73.686775,-0.34807196
457566896000.0,0.8633077666831454,2.062475494562027,3.1827725528039545,0.788627,1.0546589,0.22204952,223.68306,-73.71516,-0.34261972
457571929000.0,0.9191552269504094,2.4310686063649003,3.1604335904680982,0.66675943,1.042747,0.25992316,223.37193,-73.70826,-0.31918836
457576924000.0,0.9462162108541392,2.851535068988173,3.133994352036793,0.5503896,0.9761627,0.25961772,223.07277,-73.663376,-0.25898114
457581922000.0,0.7868762666859396,3.631462132325887,3.0794832260972407,0.45081854,0.8677341,0.25259277,222.78674,-73.583176,-0.18579853
457586898000.0,0.6282376988226019,4.407956143363995,3.0252120450897944,0.37293324,0.75533485,0.22052236,222.53777,-73.488045,-0.09068958
457591940000.0,0.1845186952136583,5.62923246837067,2.9361517226882463,0.28252518,0.6114761,0.18234327,222.32922,-73.35672,0.011223706
457596856000.0,-0.298682391801046,6.897635423665252,2.843228503898154,0.23945917,0.5571091,0.16340645,222.12874,-73.213036,0.11043568
457601932000.0,-1.2016128365754484,9.452721594406794,2.672842692116325,0.22479841,0.48899764,0.10720685,222.01215,-73.052444,0.20290142
457606917000.0,-2.1804197119464703,12.245802084241229,2.4885485635240627,0.18875736,0.49693888,0.05100725,221.89151,-72.87457,0.28429586
457611883000.0,-2.8526463676571785,14.295159819205503,2.382149670295068,0.14569137,0.58184916,-0.0009162979,221.79156,-72.74996,0.27072236
457616883000.0,-3.2071210314044416,15.578258036284016,2.3571866841622358,0.105374254,0.6817256,-0.06780604,221.69063,-72.61957,0.23356238
457621877000.0,-3.433908074472493,16.1741782721553,2.2635191388475406,0.07788532,0.7987063,-0.11911872,221.52905,-72.730225,-0.036046326
457626919000.0,-3.563580321859894,16.240866681884448,2.1153221741579067,0.051618114,0.893085,-0.1704314,221.3529,-72.82156,-0.31955716
457632278000.0,-3.693837522865939,16.292111187983956,1.952501758428958,0.06505715,0.94989544,-0.22907446,221.15932,-72.97469,-0.66367525
457636904000.0,-3.623575405989365,15.862272969680008,1.6838526454146845,0.11789699,0.99173975,-0.2929099,220.94966,-73.117455,-1.0142114
457641910000.0,-3.5475416495941787,15.397125948316074,1.393135511876108,0.19639318,1.0112875,-0.3371976,220.7358,-73.293846,-1.3936015
457646902000.0,-3.3087316471820545,14.757800592973672,1.0938581482202447,0.29993483,1.0137309,-0.39828414,220.52238,-73.47456,-1.7809594
457651924000.0,-3.0323252454579164,14.075700756766777,0.7907026602892103,0.41996986,0.99265605,-0.43157628,220.31207,-73.66584,-2.1571176
457656935000.0,-2.730073749314688,13.448755549870343,0.612626507205038,0.5326745,0.9468411,-0.4636467,220.12158,-73.896866,-2.5292497
457661914000.0,-2.4165446253380254,12.852608831820708,0.4978130173921097,0.65148777,0.9053023,-0.49480084,219.93834,-74.14495,-2.896021
457666898000.0,-2.1516795627463443,12.402987825492689,0.4766820450890019,0.7672467,0.85154617,-0.5299256,219.78365,-74.43995,-3.2233615
457671891000.0,-1.935089539383344,12.099001653766688,0.5488787182207565,0.88117313,0.78893244,-0.5555819,219.64409,-74.74929,-3.5431786
457677262000.0,-1.6977689640093483,11.778604294728645,0.6445423771652384,0.9972375,0.7165449,-0.5891795,219.5387,-75.08166,-3.820938
457681903000.0,-1.424622312464295,11.605483304855882,1.0100202514290662,1.1074986,0.63255095,-0.6243043,219.45529,-75.42538,-4.093275
457687100000.0,-1.1187522094520903,11.41162211451571,1.419283020778153,1.2144,0.5543602,-0.66523224,219.40088,-75.76841,-4.3325157
457691883000.0,-0.9497754041988328,11.240368973639615,1.592660229297684,1.3213016,0.5299256,-0.70280045,219.35637,-76.122185,-4.5716934
457696871000.0,-0.8238541847674637,11.064978458858972,1.6826039842967426,1.3888022,0.46395215,-0.72234815,219.34601,-76.47468,-4.802527
457701955000.0,-0.7059877731088335,10.851206275939484,1.7499803140849195,1.428203,0.43768495,-0.76144356,219.35551,-76.76836,-4.9988294
457706963000.0,-0.5983162619326501,10.612456902781846,1.7967940422254758,1.4978416,0.4260785,-0.7974846,219.37941,-77.0709,-5.1901755
457711904000.0,-0.5188282319581281,10.363391021859606,1.804838869396552,1.5387696,0.42943826,-0.82863873,219.40799,-77.347,-5.3678393
457716901000.0,-0.4648043746818555,10.09818258030583,1.775371287571839,1.5662584,0.43218717,-0.85062987,219.44035,-77.619484,-5.5459995
457721896000.0,-0.4699615747292419,9.83868144920062,1.7055391775485649,1.5748106,0.44012842,-0.8717047,219.47842,-77.87196,-5.7172446
457726926000.0,-0.5237889303249097,9.581966618102117,1.6020250288464843,1.582141,0.4364632,-0.8897252,219.51852,-78.11391,-5.886946
457731912000.0,-0.5834548729474243,9.31388081582581,1.50659184669145,1.6019942,0.45051312,-0.9126327,219.54451,-78.34524,-6.056817
457736896000.0,-0.6645693538396176,8.99956219575146,1.4356167222304832,1.5995506,0.45356745,-0.92485,219.57368,-78.55742,-6.2215776
457741882000.0,-0.738437095845475,8.702731871534427,1.3792212618266588,1.5848899,0.45142943,-0.9300423,219.58258,-78.76302,-6.4076843
457746936000.0,-0.7988831630671884,8.436768855965365,1.3510131167596369,1.5683966,0.45020768,-0.93767816,219.59018,-78.94926,-6.5912285
457752481000.0,-0.8610303882086928,8.147529157859477,1.3207171845239092,1.5525141,0.4560109,-0.94042706,219.58374,-79.11304,-6.79263
457756884000.0,-0.8469053754191441,7.956841758060465,1.3065921127376268,1.5442673,0.46853364,-0.93492925,219.57501,-79.25878,-6.987085
457761992000.0,-0.8305186924009714,7.735621853864836,1.2902053612762752,1.5381587,0.4654793,-0.9233228,219.55362,-79.37751,-7.1964483
457767761000.0,-0.8205375922992377,7.525716699237724,1.2924953671689416,1.5244142,0.47616947,-0.9049969,219.52396,-79.479546,-7.39646
457771945000.0,-0.8169859763446198,7.390755144619749,1.303150289204042,1.5054774,0.47555858,-0.88056225,219.49757,-79.56841,-7.584212
457776939000.0,-0.7953339821758154,7.248174221081941,1.2976421474343676,1.4831808,0.46731192,-0.8570439,219.46692,-79.641685,-7.767905
457781964000.0,-0.7331218937211615,7.147677619053302,1.2497866678699283,1.4724907,0.46944994,-0.82558435,219.43243,-79.70803,-7.9364567
457786906000.0,-0.6697562545096004,7.082909739667877,1.204955153399066,1.464244,0.46273044,-0.795652,219.39314,-79.75972,-8.099901
457791943000.0,-0.5996641646185781,7.10293629751946,1.1649025081992734,1.466382,0.45906523,-0.7528914,219.35144,-79.81098,-8.24515
457796862000.0,-0.5310813712437908,7.219560926122528,1.1022674150092528,1.4520267,0.44837508,-0.73945236,219.3097,-79.85986,-8.380233
457801950000.0,-0.4598919306516022,7.523302335141716,0.9931102896172204,1.4425583,0.43401974,-0.7150178,219.26953,-79.913536,-8.494766
457806867000.0,-0.4246749648787576,7.792844384070475,0.8807565899872855,1.4208726,0.40286562,-0.6774496,219.23434,-79.97558,-8.588355
457811930000.0,-0.4687103556498047,8.013021199981836,0.7486503992816276,1.4086553,0.376293,-0.6563747,219.20328,-80.03192,-8.674987
457816895000.0,-0.5155523052096144,8.22974741140302,0.6199068470542203,1.3949108,0.34025195,-0.63407815,219.17804,-80.11582,-8.736187
457821943000.0,-0.5966205973185339,8.457510849556815,0.4963742331502037,1.378112,0.30909783,-0.62949663,219.16104,-80.19055,-8.792102
457826925000.0,-0.6766289632627964,8.682296398067555,0.3744567445468338,1.3723087,0.28619036,-0.6203337,219.13492,-80.27098,-8.856732
457831914000.0,-0.7938791686400624,8.912019728986989,0.2669522722008478,1.3891076,0.2864958,-0.6230826,219.11322,-80.340034,-8.919001
457836935000.0,-0.9368014700238756,9.146318627832189,0.1685467655120596,1.395827,0.27152961,-0.6377433,219.10434,-80.39723,-8.977329
457841936000.0,-1.0791544732543974,9.37968425084052,0.070533234551966,1.4385877,0.28008172,-0.6560693,219.0812,-80.44285,-9.05857
457846930000.0,-1.2213082221312674,9.612723227305947,-0.0273431049030843,1.4850134,0.27183503,-0.6774496,219.06902,-80.47202,-9.139644
457851916000.0,-1.3845533435792907,9.790354613942112,-0.0693762147843456,1.5424347,0.25809056,-0.70280045,219.0422,-80.48216,-9.232071
457856897000.0,-1.569294328760701,9.911894668976762,-0.054791397012026,1.5781704,0.2302962,-0.7415904,219.02426,-80.47112,-9.32885
457861907000.0,-1.739995217254675,9.944983186427606,-0.0405421833285135,1.6313156,0.20738874,-0.7703011,218.98502,-80.41032,-9.471883
457866936000.0,-1.897841730711394,9.898557769809138,-0.0266145496171197,1.6679676,0.18509217,-0.81397796,218.95514,-80.31775,-9.623702
457871937000.0,-2.040670930897724,9.813257760965126,-0.0385775908156686,1.7168368,0.16493362,-0.8558222,218.90968,-80.16918,-9.811948
457876940000.0,-2.1670404455406858,9.68220770206115,-0.0807007620375109,1.7693712,0.17348573,-0.8906415,218.86324,-79.99568,-10.003101
457881892000.0,-2.2719706746253747,9.526105009490507,-0.1285932697852148,1.8270979,0.18936823,-0.93187493,218.80705,-100.242714,-10.238025
457886954000.0,-2.3494577073926077,9.327544646053946,-0.1867085039050949,1.8738291,0.204029,-0.9642508,218.74922,-100.50004,-10.471475
457891904000.0,-2.3885203267871518,9.14755102838955,-0.2245276578759054,1.9129245,0.21685717,-0.9779953,218.67007,-100.81244,-10.73825
457896904000.0,-2.374505839335626,8.986384349528059,-0.2350385307814443,1.9462167,0.22510384,-1.0054842,218.58846,-101.14691,-11.008283
457901874000.0,-2.3605754388088096,8.826184670739737,-0.24548633844955,1.9947804,0.2406809,-1.0268645,218.48938,-101.524506,-11.298969
457906914000.0,-2.2850621353152434,8.630690272346367,-0.2328986877673583,2.0195205,0.2507602,-1.0421361,218.39014,-101.91269,-11.585418
457911934000.0,-2.1795490870311256,8.419664476256983,-0.2089184572605746,2.037541,0.2648101,-1.0555751,218.28592,-102.31077,-11.866979
457916941000.0,-2.021309845077837,8.129908408061969,-0.1671025652410318,2.0726657,0.28008172,-1.0708468,218.17307,-102.73389,-12.15581
457921904000.0,-1.8390119911559,7.804631663683537,-0.117060024497255,2.0925188,0.29749137,-1.0699304,218.05693,-103.15489,-12.433148
457927201000.0,-1.652120242519685,7.468484391545793,-0.0703714742353916,2.1108449,0.3200934,-1.0742066,217.92422,-103.585,-12.704264
457931974000.0,-1.585818762598425,7.312202614307916,-0.1177296381506423,2.1300871,0.3484986,-1.0763446,217.78748,-104.01131,-12.963108
457937011000.0,-1.5176907876061398,7.154181387475506,-0.1601018824702808,2.1361957,0.3717115,-1.0699304,217.63744,-104.42896,-13.199576
457941923000.0,-1.4677612781352056,7.062003705045722,-0.1332167611221423,2.1746802,0.39736784,-1.0809261,217.48221,-104.85097,-13.430241
457946867000.0,-1.4175064949869365,6.969225516541477,-0.1061564924036577,2.2033908,0.4196644,-1.0891727,217.30824,-105.28759,-13.656682
457951980000.0,-1.362368695739033,6.867653189764367,-0.0799962580828443,2.2366831,0.42821655,-1.102001,217.13544,-105.72601,-13.876868
457956913000.0,-1.307369191533948,6.766454098351495,-0.055796470030176,2.2617285,0.42638394,-1.1087204,216.9643,-106.15942,-14.087347
457962000000.0,-1.2506526949008103,6.662095740756263,-0.030841205115535,2.2901337,0.4288274,-1.1160508,216.7887,-106.62928,-14.313507
457966889000.0,-1.196143759960883,6.561799296824066,-0.0068572675948588,2.3261747,0.42760566,-1.1279627,216.61824,-107.09783,-14.533372
457971888000.0,-1.155878575874481,6.477042336871251,0.0241519387376096,2.3548856,0.4260785,-1.1328496,216.44083,-107.60117,-14.768603
457976930000.0,-1.1469655669958467,6.428020694970005,0.0687170171008768,2.3805418,0.4166101,-1.1533136,216.26813,-108.10642,-15.002295
457981919000.0,-1.131521625200642,6.379611625200642,0.1069685558075842,2.3936756,0.40225476,-1.1640037,216.09087,-108.639786,-15.243064
457986903000.0,-1.083637625200642,6.331727625200642,0.1165453608075842,2.4034493,0.4089743,-1.17897,215.91098,-109.17351,-15.481177
457991928000.0,-1.038337063628739,6.284054959835989,0.1158007395446836,2.4318545,0.40225476,-1.1795808,215.73563,-109.732834,-15.732276
457996906000.0,-1.0072389674028517,6.239629174354674,0.0669323402596216,2.4416285,0.42455134,-1.1914927,215.54993,-110.287125,-15.979955
458002240000.0,-0.9750276462179358,6.193484032296506,0.0146369822330842,2.453235,0.43493605,-1.2027937,215.36603,-110.860954,-16.23092
458006909000.0,-0.9569649770349424,6.166390158190264,-0.0305196638477075,2.4758368,0.44623706,-1.2156218,215.17586,-111.43177,-16.475737
458012117000.0,-0.9346916999043592,6.137881078224101,-0.0723529533399778,2.506991,0.45265114,-1.2250903,214.97574,-112.02366,-16.721203
458016903000.0,-0.8931623208144569,6.1286520917547564,-0.026209192799557,2.5347853,0.4529566,-1.2431108,214.77388,-112.613754,-16.963856
458022081000.0,-0.8432814222195386,6.107129543699508,0.0266989285938202,2.5631905,0.44593164,-1.2522738,214.56526,-113.22561,-17.207094
458026950000.0,-0.7500768441792287,5.978973384234196,0.1043694079961689,2.5995371,0.4297437,-1.2596041,214.35916,-113.83729,-17.44708
458031969000.0,-0.6540008989780961,5.846869099092196,0.1844326932950779,2.6203065,0.40866885,-1.2779301,214.1529,-114.46275,-17.694715
458037015000.0,-0.5088590042385787,5.655477085448393,0.0178572578257191,2.6426032,0.38026363,-1.2904528,213.95398,-115.08551,-17.936722
458041893000.0,-0.3458284598667512,5.443043177453468,-0.2588006530054991,2.6367998,0.34574974,-1.3026701,213.76212,-115.69972,-18.17809
458046878000.0,-0.2453153344480615,5.247877434152116,-0.7608020371115713,2.6111436,0.32895094,-1.310306,213.5693,-116.318634,-18.418959
458051932000.0,-0.1641453523152806,5.056889381671106,-1.3385412747795202,2.5787675,0.33536503,-1.319469,213.37872,-116.92757,-18.657125
458056892000.0,-0.2166494738211229,4.9157642874071295,-2.051793663218283,2.5415049,0.37140608,-1.3213016,213.1768,-117.5564,-18.867002
458061940000.0,-0.3166741054848114,4.788460259945453,-2.829257824978839,2.4975226,0.4297437,-1.3182472,212.96646,-118.168,-19.06732
458066887000.0,-0.5094181325650275,4.685135013670021,-3.614960017486235,2.4404066,0.5198463,-1.3267993,212.72186,-118.83003,-19.233364
458071938000.0,-0.7665718596582495,4.5932942256028095,-4.43234152087526,2.3854287,0.6282749,-1.3213016,212.45992,-119.467545,-19.376797
458076921000.0,-1.0781489987788382,4.469914284350968,-5.181390603233577,2.317928,0.73426,-1.3142766,212.14447,-120.17797,-19.490755
458081904000.0,-1.4451333243620867,4.315161963031595,-5.875565763411471,2.239432,0.84940815,-1.2974777,211.81328,-120.846405,-19.572037
458086892000.0,-1.8444263507680343,4.074148301536068,-6.540541906066498,2.1560488,0.8900307,-1.2886202,211.43541,-121.65465,-19.6782
458092781000.0,-2.3872403169356406,3.5971300838712814,-7.25881068630177,2.0949624,0.9477574,-1.2791518,211.03253,-122.42975,-19.750355
458096907000.0,-2.780464750130653,3.173634510301508,-7.744260122472362,1.9712621,0.99082345,-1.2770138,210.58647,-123.30837,-19.860355
458101964000.0,-3.291534115175879,2.453269942713568,-8.299135610251255,1.8445076,0.99265605,-1.2666291,210.14407,-124.15448,-19.950747
458106864000.0,-3.748422042894345,1.733070696875,-8.843040986235119,1.7125608,0.97005403,-1.2632693,209.65237,-125.10954,-20.102444
458111993000.0,-4.13216765015811,0.92446381171875,-9.427796120070685,1.5842791,0.9071349,-1.1951579,209.18579,-126.0092,-20.22805
458116893000.0,-4.504747449428572,0.1801534253333333,-9.970249182857144,1.5131133,0.84391034,-1.1053606,208.68224,-127.0392,-20.432148
458121902000.0,-4.92007408374026,-0.4179169246060606,-10.43126193038961,1.4792101,0.8014552,-1.0283916,208.2003,-128.0242,-20.615557
458127966000.0,-5.42428718255293,-1.128627911341474,-10.97966238882544,1.4764613,0.7501425,-0.93523467,207.70145,-129.14545,-20.848253
458131901000.0,-5.771901791575156,-1.3967877387595538,-11.19485223508741,1.484708,0.6899723,-0.8332202,207.23141,-130.23068,-21.053944
458136897000.0,-6.213244253246069,-1.7372519059211105,-11.468064044979354,1.5195273,0.6545421,-0.7333437,206.73431,-131.44395,-21.3111
458141886000.0,-6.8221393720170695,-1.7956478906375195,-11.622929437031877,1.5809193,0.63346726,-0.64476824,206.26668,-132.63004,-21.53795
458146931000.0,-7.571143614178714,-1.631540174429542,-11.686047738721475,1.6600263,0.61544675,-0.56077427,205.82771,-133.79327,-21.732813
458151947000.0,-8.165181441687345,-1.412422579751861,-11.663574129627792,1.7531832,0.6096435,-0.51068336,205.3615,-135.05087,-21.986431
458156889000.0,-8.357784548387096,-1.0507054593548388,-11.419297569032258,1.8524488,0.58459806,-0.48716503,204.91971,-136.29471,-22.215895
458161909000.0,-8.501780029871693,-0.6948906888271853,-11.196411884322371,1.9318613,0.5561928,-0.4822781,204.4518,-137.564,-22.554888
458166892000.0,-8.492212629911789,-0.3759837737249398,-11.049714748596632,1.9734001,0.5039638,-0.48624873,204.0028,-138.81537,-22.87903
458171960000.0,-8.48248202927025,-0.051636945360866,-10.900515253541831,1.9682078,0.4700608,-0.49113566,203.55894,-140.0047,-23.22176
458176945000.0,-8.434421620411351,0.3006783288674824,-10.791951454308771,1.9251418,0.464563,-0.47433686,203.1294,-141.16342,-23.546003
458181959000.0,-8.280236877896382,0.7465637673105963,-10.787784216783823,1.8310685,0.44806966,-0.4474588,202.71597,-142.27957,-23.85997
458187357000.0,-8.110910256670902,1.228029802668361,-10.798703073274035,1.6939293,0.4746423,-0.42149702,202.31346,-143.28392,-24.14342
458191945000.0,-7.901547049555273,1.665366619822109,-11.110422306226177,1.5402967,0.50762904,-0.41263947,201.92114,-144.23514,-24.41173
458197017000.0,-7.644255199817101,2.148322654412437,-11.471372914342329,1.4727961,0.573297,-0.40133846,201.54915,-145.08841,-24.604465
458201937000.0,-7.1307771614083215,2.611530081024234,-11.988441592897424,1.3381003,0.66675943,-0.38759398,201.17477,-145.86465,-24.770288
458206917000.0,-6.611037195701875,3.0803863786922725,-12.511815987044658,1.2483032,0.77457714,-0.3830125,200.81114,-146.58466,-24.838583
458211948000.0,-6.247088907304571,3.340005590730457,-12.85019318539086,1.1808025,0.85154617,-0.39614612,200.44354,-147.25807,-24.885748
458216923000.0,-6.084270822084579,3.334917532208458,-12.95195435583084,1.1432343,0.8863655,-0.4083634,200.07428,-147.89786,-24.910439
458221921000.0,-5.938870734733012,3.241215678168945,-12.958044906578818,1.1362094,0.86742866,-0.43279803,199.75589,-148.46463,-24.757406
458226932000.0,-5.80673363614908,3.080763349759072,-12.89197598770774,1.1606439,0.79901177,-0.45662177,199.44878,-149.01508,-24.610247
458231874000.0,-5.680654203237237,2.859294553289915,-12.8034913212336,1.1948525,0.6780604,-0.49449542,199.15038,-149.56587,-24.457981
458236954000.0,-5.554846721195288,2.5750630796762763,-12.691662718609328,1.2565498,0.52412236,-0.528093,198.87524,-150.11623,-24.33388
458241954000.0,-5.383172383604299,2.2664256020758704,-12.619769109534309,1.3326025,0.35705075,-0.56046885,198.6115,-150.68971,-24.237724
458246915000.0,-5.156246072802425,1.926035976384679,-12.593585446403967,1.396438,0.21013765,-0.57360244,198.37485,-151.26125,-24.1755
458251907000.0,-4.96308197704918,1.570203833670082,-12.604746985194671,1.428203,0.10842858,-0.58246,198.14043,-151.86995,-24.14332
458256984000.0,-4.863447932786885,1.1716673757213116,-12.719326188114753,1.421178,0.028710667,-0.5897904,197.92917,-152.4695,-24.140896
458261913000.0,-4.790431639732805,0.804115340589807,-12.832357301335971,1.396438,0.022907447,-0.5858198,197.71393,-153.10663,-24.118784
458266925000.0,-4.766681554824344,0.4716139137951509,-12.95110772587828,1.3322971,0.059864793,-0.56321776,197.51257,-153.71356,-24.10119
458271862000.0,-4.668633446317322,0.1873374041863173,-13.09012315691412,1.2168436,0.086437434,-0.55833083,197.29422,-154.35048,-24.077545
458276920000.0,-4.381897806841339,0.0040147319068413,-13.287547621542942,1.1001683,0.094989546,-0.55833083,197.08293,-154.95197,-24.04404
458281908000.0,-4.208905018162672,-0.148783874632434,-13.497357098184736,1.0158689,0.12461651,-0.5204572,196.86511,-155.56656,-23.989094
458286898000.0,-4.391028657917962,-0.2110892968869722,-13.756163991174406,0.9236283,0.17470746,-0.50946164,196.6415,-156.13733,-23.927988
458291904000.0,-4.635115505442782,-0.2613689747949858,-14.01862847440356,0.8793405,0.21655174,-0.48380527,196.43018,-156.71083,-23.803232
458296900000.0,-5.0723631223938535,-0.2729773232203801,-14.28949005887586,0.7831292,0.21991149,-0.45142943,196.22923,-157.23077,-23.672935
458301933000.0,-5.512848962288718,-0.2846716422005661,-14.562357623857665,0.70402217,0.22479841,-0.40591997,196.01796,-157.75693,-23.53977
458306918000.0,-5.996452197752605,-0.2405023860371545,-14.8778512384232,0.6407976,0.20097467,-0.3576616,195.82724,-158.24417,-23.409353
458312009000.0,-6.504552497897599,-0.1786467175831445,-15.213639481105574,0.5897904,0.15699236,-0.27763826,195.66747,-158.69199,-23.27473
458316907000.0,-6.860147223958058,-0.2076890332972067,-15.49369166649044,0.5540548,0.105374254,-0.20280726,195.48969,-159.14304,-23.202719
458321911000.0,-7.12194866440215,-0.3048089395620759,-15.747047550709311,0.53786683,0.046120327,-0.14202617,195.34312,-159.56514,-23.13701
458326945000.0,-7.362006604314064,-0.406437253989071,-15.92211176464385,0.5332854,0.014660766,-0.11148291,195.18341,-159.98422,-23.128885
458331895000.0,-7.543792471440897,-0.5155087457923497,-15.908477791391046,0.52412236,0.011301007,-0.086437434,195.04837,-160.37819,-23.121716
458336877000.0,-7.684748158952959,-0.5725811584522004,-15.830555784522003,0.48838675,-0.010995574,-0.06811147,194.90483,-160.78368,-23.152103
458341899000.0,-7.657380068854325,-0.4174957400455236,-15.493016800455235,0.44318274,-0.038789943,-0.0580322,194.77191,-161.16873,-23.181074
458346950000.0,-7.618401450029967,-0.2080430030866047,-15.090126838852262,0.3735441,-0.06536258,-0.027183503,194.62785,-161.5439,-23.23966
458351944000.0,-7.482245509934073,0.4548215267905305,-14.151367454525024,0.27397305,-0.13652839,-0.004276057,194.49632,-161.88676,-23.314838
458356904000.0,-7.347016542598142,1.1131731623913697,-13.21899930349116,0.16187929,-0.23457226,0.03726278,194.38284,-162.1651,-23.411757
458361884000.0,-7.163333863713528,1.665581947621574,-12.484854352608313,0.04520403,-0.36010507,0.073303826,194.28712,-162.40555,-23.531069
458366912000.0,-6.912142185623342,2.074300821255526,-12.020788179664017,-0.07849618,-0.4474588,0.09682214,194.20755,-162.60413,-23.661047
458371946000.0,-6.648451751623214,2.474447593267406,-11.562344226550795,-0.17928895,-0.5002986,0.12522738,194.15373,-162.61478,-23.83949
458376964000.0,-6.3268273247927285,2.8296742743981618,-11.135111977225051,-0.25961772,-0.52870387,0.13836098,194.10822,-162.5975,-24.031029
458381902000.0,-6.016775410585976,3.15400216049952,-10.726990984053794,-0.32375857,-0.5348125,0.15882497,194.08833,-162.46692,-24.20473
458386914000.0,-5.735513573775217,3.3522686956772336,-10.376566484149857,-0.35888332,-0.516792,0.15668693,194.06522,-162.32834,-24.377846
458391937000.0,-5.458373221396227,3.5467513234339623,-10.024741910943396,-0.4083634,-0.46883908,0.1469131,194.04927,-162.09537,-24.510431
458396902000.0,-5.234086184981132,3.6947808311698114,-9.67036831471698,-0.4251622,-0.42577308,0.1328632,194.03004,-161.87059,-24.638584
458402300000.0,-4.992196996326156,3.8533243998367177,-9.28509545310746,-0.453262,-0.37598756,0.12980886,193.99567,-161.58093,-24.722141
458406959000.0,-4.8282761743035,3.935284763302378,-8.952700835901624,-0.45142943,-0.33169982,0.119729586,193.95374,-161.30869,-24.797792
458412249000.0,-4.646300285875797,4.021991209529194,-8.584987900104982,-0.45173484,-0.29565877,0.10842858,193.90855,-160.99478,-24.845821
458416912000.0,-4.538111757086328,4.018384925236211,-8.383035527820399,-0.44135013,-0.26358834,0.1020145,193.86177,-160.69826,-24.884878
458421857000.0,-4.423380409270775,4.014560546975693,-8.168869866026004,-0.4120286,-0.22021692,0.08827003,193.81915,-160.40852,-24.914158
458426933000.0,-4.297278918247027,3.997736658779601,-7.946599212459467,-0.38912117,-0.19822577,0.06780604,193.77513,-160.13345,-24.94318
458431889000.0,-4.166694624643805,3.9697543727621114,-7.727404736051882,-0.35613444,-0.18387043,0.0571159,193.72932,-159.87996,-24.964388
458436904000.0,-4.003202982402292,3.936087196480458,-7.522675033333333,-0.30848694,-0.17256944,0.054061573,193.68512,-159.64218,-24.981518
458441885000.0,-3.80798284407612,3.897043168815224,-7.3372158,-0.26725355,-0.16523905,0.036957346,193.63571,-159.42355,-24.9997
458446893000.0,-3.621320501358942,3.85325833832216,-7.171293237796702,-0.22052236,-0.15149458,0.02443461,193.58554,-159.22112,-25.00958
458451949000.0,-3.4414660581627103,3.80500464018844,-7.022145497698858,-0.17348573,-0.14080444,0.014660766,193.53386,-159.03862,-25.020823
458456881000.0,-3.2262838409475463,3.702417906260576,-6.806922030607257,-0.13255776,-0.13744467,0.01160644,193.48404,-158.87302,-25.016645
458461901000.0,-2.923495448392555,3.480975598307953,-6.440864413949991,-0.09590584,-0.12461651,0.0018325958,193.43024,-158.72629,-25.00982
458466910000.0,-2.670957552752716,3.2644416421469344,-6.121059921101087,-0.0729984,-0.121256754,0.0015271631,193.40349,-158.59157,-24.98982
458471937000.0,-2.617770948628245,3.0649924783281164,-5.983661579451298,-0.05009095,-0.10842858,0.0027488936,193.37381,-158.47174,-24.965574
458477217000.0,-2.567667622271525,2.855343013499445,-5.846010945217169,-0.046120327,-0.108123146,0.004276057,193.35718,-158.36108,-24.92653
458481900000.0,-2.579148624754672,2.6678218510965097,-5.788606532212646,-0.025045475,-0.10170906,-0.00030543262,193.33875,-158.26466,-24.883621
458486885000.0,-2.5913700207355577,2.4682077160167246,-5.727500190374606,-0.01282817,-0.09193522,-0.0033597588,193.32239,-158.1816,-24.845837
458491934000.0,-2.6485965890506225,2.2812301439107228,-5.699784716642407,-0.007330383,-0.06841691,0.0061086523,193.30737,-158.10371,-24.802277
458496941000.0,-2.726149617677503,2.102858016108685,-5.688151762348375,0.009468411,-0.047647487,0.0015271631,193.28816,-158.03639,-24.759352
458501955000.0,-2.803586132839791,1.928844798838549,-5.674397815799273,0.0143553335,-0.02076942,-0.005192355,193.256,-157.98941,-24.720661
458506988000.0,-2.880507989901587,1.7707276977923574,-5.653030390336022,0.038789943,0.004886922,-0.009773844,193.22253,-157.95338,-24.677656
458512584000.0,-2.9664450297726077,1.603043972501322,-5.627105416710735,0.057726767,0.03481932,-0.021991149,193.16806,-157.94254,-24.650793
458516945000.0,-3.0371199815441567,1.545620603014278,-5.587350900475939,0.067500606,0.056199603,-0.022296581,193.1158,-157.93492,-24.61912
458521986000.0,-3.122258879138844,1.4930490437792616,-5.544682859390591,0.08093964,0.06658431,-0.024740042,193.05391,-157.964,-24.611164
458527014000.0,-3.247915001358508,1.6039221359275462,-5.540987015043365,0.11056661,0.07513642,-0.019547688,192.99326,-157.99803,-24.59747
458531946000.0,-3.3711719613400875,1.712678319395195,-5.537361735743342,0.12217305,0.0870483,-0.016798794,192.92297,-158.03795,-24.600222
458536918000.0,-3.468986105355404,1.8168889925998053,-5.597219060370009,0.13897185,0.103847094,-0.010079277,192.8551,-158.08446,-24.598545
458541938000.0,-3.5366030016012115,1.915713636979336,-5.732452961484366,0.13744467,0.1151481,0.0033597588,192.79068,-158.12685,-24.5943
458546931000.0,-3.622668790816028,2.010903508160281,-5.924616898098859,0.13561209,0.12644911,0.0021380284,192.72426,-158.15433,-24.613878
458551946000.0,-3.7209997542556303,2.104552142556303,-6.15405600836502,0.13561209,0.14782938,-0.0027488936,192.65923,-158.17975,-24.627062
458557703000.0,-3.8321367183047466,2.207433640729649,-6.455898618658681,0.1282817,0.17134771,0.009773844,192.6092,-158.19193,-24.635185
458561924000.0,-3.912844735892549,2.280804572774299,-6.694354013730829,0.12797627,0.19364429,0.008246681,192.5524,-158.20775,-24.640738
458566892000.0,-4.00016043264708,2.350247720272548,-6.965782930815445,0.12797627,0.19730948,-0.0070249503,192.50423,-158.21756,-24.642866
458571880000.0,-4.073656853014873,2.3887457321122425,-7.221270088819694,0.14202617,0.20952678,-0.013133603,192.45543,-158.2296,-24.636728
458576891000.0,-4.147492170268884,2.4274212608469483,-7.47793531511466,0.14538592,0.20922135,-0.021991149,192.41016,-158.24103,-24.626556
458581890000.0,-4.253942275543617,2.474985864722435,-7.777716979022768,0.14477506,0.1994475,-0.027183503,192.36507,-158.25487,-24.616663
458586947000.0,-4.38196527374435,2.5286729034450413,-8.10809945237486,0.15577064,0.19272798,-0.043982297,192.315,-158.27463,-24.60912
458591857000.0,-4.519794773319491,2.5815606698222164,-8.462044272709576,0.15393804,0.19058995,-0.053145275,192.27032,-158.30215,-24.591938
458596901000.0,-4.698448331066701,2.6379776396379446,-8.916513843693226,0.15118915,0.17898351,-0.06811147,192.22258,-158.3341,-24.582129
458601893000.0,-4.875260099558785,2.6938129912081497,-9.366298161367766,0.14660765,0.17898351,-0.07971791,192.17104,-158.37393,-24.563824
458606897000.0,-5.008728074985983,2.7666572898523643,-9.770706473089142,0.14202617,0.15943582,-0.09040806,192.12088,-158.41354,-24.55574
458611941000.0,-4.959077666950103,2.911095071874416,-9.982849044197346,0.13530666,0.14294247,-0.095294975,192.07013,-158.45093,-24.547945
458617090000.0,-4.9361725578070885,3.042192479957262,-10.199537154004863,0.13255776,0.1301143,-0.08552113,192.01404,-158.51422,-24.534414
458621902000.0,-5.180665842016063,3.0082350990715496,-10.403281793898756,0.115453534,0.112399206,-0.061086524,191.96524,-158.56876,-24.525625
458627465000.0,-5.4633167439392825,2.968978052133225,-10.638824485446907,0.121256754,0.1142318,-0.08368854,191.93053,-158.61697,-24.488073
458631943000.0,-5.667196595177105,2.948184577731649,-10.801855574065897,0.09254608,0.10323623,-0.09590584,191.9106,-158.6463,-24.455523
458636936000.0,-5.853041206510026,2.943960837567353,-10.937015435738893,0.06658431,0.08979719,-0.10170906,191.88707,-158.67862,-24.42591
458641964000.0,-6.038218563035201,2.939424821765483,-11.05957481296138,0.048258353,0.07086037,-0.09407325,191.8353,-158.7332,-24.441927
458646890000.0,-6.1995144214702,2.93209316225814,-11.041245759888104,0.024740042,0.04184427,-0.09193522,191.7847,-158.77945,-24.464907
458651950000.0,-6.36519794637501,2.924562062561194,-11.022418108943974,0.00580322,0.011301007,-0.10445796,191.71965,-158.83118,-24.518465
458656948000.0,-6.421980296148739,2.9139628130810094,-10.94833788379814,0.0015271631,-0.025350908,-0.10751228,191.66373,-158.87758,-24.578377
458661935000.0,-6.376676272623791,2.9003716533295387,-10.821486334092205,0.008246681,-0.07727446,-0.10415252,191.613,-158.92131,-24.649342
458666924000.0,-6.3241265500853725,2.8849681321001706,-10.66386686112692,0.014049901,-0.124005646,-0.09682214,191.54593,-158.96939,-24.765675
458671887000.0,-6.261006247960538,2.866933733162588,-10.460979873079111,0.026572637,-0.17470746,-0.08552113,191.48915,-159.0185,-24.892527
458676927000.0,-6.183698707324741,2.847340366551399,-10.264018795504558,0.053450707,-0.19517145,-0.07727446,191.43323,-159.06706,-25.021616
458681896000.0,-6.075239855391386,2.8249005906161586,-10.091981034030178,0.07269296,-0.22571471,-0.070249505,191.38847,-159.11426,-25.16193
458687300000.0,-5.957286215655454,2.800496374646338,-9.904882611207167,0.09590584,-0.27000242,-0.06383542,191.35909,-159.15985,-25.314344
458691878000.0,-5.806211178086452,2.7672255183995023,-9.680225086296256,0.13469578,-0.269697,-0.061391957,191.32892,-159.21259,-25.458906
458696906000.0,-5.626520246190526,2.7272941712449463,-9.41568020457137,0.14172074,-0.2855795,-0.052534413,191.30992,-159.26004,-25.613949
458701980000.0,-5.47656937752809,2.7061324015557475,-9.17458787182368,0.15515977,-0.28496864,-0.042760566,191.29002,-159.31119,-25.75452
458706942000.0,-5.336925316853932,2.6897037642178048,-8.944585448055316,0.15088372,-0.27214047,-0.032986723,191.2729,-159.35696,-25.89157
458711882000.0,-5.199422742287794,2.6566382251772374,-8.712259027399885,0.15668693,-0.25717425,-0.029626964,191.26195,-159.39532,-26.015245
458716900000.0,-5.061302989365779,2.605994355834451,-8.47285119927189,0.13744467,-0.23640485,-0.018325957,191.25337,-159.42282,-26.12923
458721897000.0,-4.934398379776328,2.557944632889096,-8.258955302749301,0.12156218,-0.204029,-0.013133603,191.24487,-159.44525,-26.229471
458726916000.0,-4.822408726467848,2.5131487247903075,-8.079772091332712,0.09896017,-0.17592919,-0.0070249503,191.23732,-159.45883,-26.321825
458731859000.0,-4.703975554101191,2.463782136524661,-7.878983861840313,0.07819075,-0.14905111,-0.00030543262,191.23012,-159.45903,-26.39976
458736904000.0,-4.559148997102371,2.397951966663639,-7.602497102597875,0.057726767,-0.12614368,0.00061086525,191.21951,-159.4536,-26.469873
458742109000.0,-4.421206601140431,2.3346921753766754,-7.340084085074503,0.037873644,-0.09132435,0.015882496,191.19746,-159.43991,-26.520624
458746901000.0,-4.390645025780405,2.3155910711063017,-7.29042148522434,0.019547688,-0.07941248,0.01160644,191.17003,-159.4244,-26.572704
458751957000.0,-4.358399757620911,2.295437652243403,-7.238022882377424,0.003970624,-0.05497787,0.0070249503,191.13988,-159.39902,-26.609652
458756929000.0,-4.327241049323574,2.300644926769829,-7.191442010007413,-0.007330383,-0.040927973,0.005192355,191.10938,-159.37117,-26.6461
458762001000.0,-4.295735009145663,2.318648505865456,-7.146433179762788,-0.01740966,-0.016493361,0.00580322,191.07426,-159.34096,-26.673508
458766923000.0,-4.282886349349877,2.345644572975269,-7.133358068930059,-0.02687807,0.0030543262,0.01160644,191.03568,-159.30914,-26.696657
458771879000.0,-4.286919801342738,2.3819464832667627,-7.149492213843801,-0.03634648,0.0015271631,0.008246681,190.99489,-159.27701,-26.720087
458777016000.0,-4.295276818826699,2.4198450279257706,-7.165885305178091,-0.050701816,0.01985312,0.0070249503,190.95218,-159.23793,-26.73015
458781901000.0,-4.323281958954405,2.45718523100868,-7.179887850872992,-0.041233405,0.029932396,0.0125227375,190.91249,-159.2033,-26.74278
458786927000.0,-4.3521009229670335,2.495610533076923,-7.200643260659341,-0.05222898,0.048258353,0.0009162979,190.8644,-159.16656,-26.750694
458791913000.0,-4.380722206703297,2.5337722613286715,-7.257885927752247,-0.05100725,0.056199603,0.008857546,190.82469,-159.13307,-26.756357
458796939000.0,-4.410337655917131,2.5715906783223854,-7.31425595492673,-0.044898596,0.06688975,0.008857546,190.77785,-159.0937,-26.760586
458801975000.0,-4.4444560851440125,2.6057092602324405,-7.362996495401718,-0.04550946,0.07941248,0.0061086523,190.73222,-159.05377,-26.762344
458806919000.0,-4.481762152871738,2.642232656958635,-7.4114822651324275,-0.032375857,0.0852157,0.003970624,190.68658,-159.01956,-26.762764
458811988000.0,-4.539547847782958,2.6952028270112094,-7.464452485467712,-0.03359759,0.096516706,-0.0012217305,190.63799,-158.98375,-26.759895
458816910000.0,-4.593846353497482,2.742900315668719,-7.521328493303488,-0.018936822,0.101098195,-0.0033597588,190.5934,-158.95938,-26.760893
458821890000.0,-4.638327479406827,2.7695888797425856,-7.610290652229062,-0.022907447,0.11178834,-0.009468411,190.54494,-158.93233,-26.759058
458827188000.0,-4.685500043178622,2.797648176687764,-7.703415014767932,-0.008552114,0.11178834,-0.005497787,190.4961,-158.91699,-26.763918
458831894000.0,-4.725117150070323,2.817456812869198,-7.762840675105485,0.0070249503,0.12217305,-0.0012217305,190.44408,-158.90247,-26.764486
458836915000.0,-4.767386060759494,2.838591356487342,-7.82624404113924,0.0033597588,0.124311075,0.00030543262,190.40158,-158.88745,-26.768654
458841902000.0,-4.821476869960543,2.853450983507233,-7.9591695334502415,0.004276057,0.11911872,0.00061086525,190.3606,-158.87749,-26.772104
458846923000.0,-4.880502918298991,2.866099368978518,-8.119382797632618,0.009468411,0.118507855,0.005192355,190.32141,-158.86731,-26.773567
458851926000.0,-4.928687102888318,2.8690957397304238,-8.238893494223364,0.0015271631,0.12095132,0.007941248,190.2791,-158.8589,-26.778067
458856897000.0,-4.963608218356868,2.860365495048597,-8.308736363286265,0.010079277,0.12736541,0.0033597588,190.23651,-158.85658,-26.782309
458861932000.0,-4.998815010936052,2.855216885295026,-8.37915036638863,0.0036651916,0.1337795,0.0036651916,190.19579,-158.84953,-26.77941
458866904000.0,-5.033138092431264,2.8601201753372467,-8.447796324580374,-0.007330383,0.13836098,-0.004886922,190.15157,-158.84552,-26.777288
458871857000.0,-5.0708610452962,2.856311754943057,-8.521811271030721,-0.0125227375,0.13836098,0.005192355,190.11743,-158.84062,-26.773947
458876934000.0,-5.117393312412671,2.8330455485022488,-8.610222204421476,-0.014049901,0.13591751,0.007330383,190.07916,-158.83632,-26.77235
458881905000.0,-5.158457082512655,2.8145585451449606,-8.698058797514957,-0.032375857,0.14019357,0.0067195175,190.03957,-158.82924,-26.768106
458886909000.0,-5.184921265006903,2.810147886442706,-8.790683689553612,-0.03634648,0.1328632,0.0076358155,190.00378,-158.82498,-26.767477
458892111000.0,-5.211135690583592,2.8051025094164084,-8.880856238793347,-0.038179077,0.124005646,0.012217305,189.96725,-158.81921,-26.766283
458896899000.0,-5.22406320059205,2.7964841994079506,-8.911020053848324,-0.03940081,0.119729586,0.011301007,189.93057,-158.81345,-26.76665
458902449000.0,-5.237289578838174,2.787025546141079,-8.945436399170124,-0.03176499,0.11575896,0.006414085,189.8993,-158.81638,-26.767597
458906901000.0,-5.209769896957123,2.790956935131397,-8.961162283540803,-0.03481932,0.10781772,0.00030543262,189.86919,-158.81664,-26.771122
458911933000.0,-5.178664991470724,2.795400499686492,-8.97893691295528,-0.024129177,0.09865474,0.00580322,189.83931,-158.82631,-26.775356
458916884000.0,-5.149322990840094,2.805921623178924,-8.983045,-0.01863139,0.09437868,0.004276057,189.80675,-158.8355,-26.781952
458921852000.0,-5.120269097095002,2.818373260970078,-8.983045,-0.0009162979,0.09712757,-0.0018325958,189.77544,-158.85,-26.788961
458926942000.0,-5.069105334193453,2.8167454688882336,-8.962854855057506,-0.008857546,0.087964594,-0.00061086525,189.74953,-158.8563,-26.790743
458931923000.0,-4.995252204364494,2.7991614078442937,-8.920652961663226,-0.0033597588,0.08460484,0.002443461,189.72202,-158.87054,-26.790901
458936888000.0,-4.921636306030669,2.7816338304335004,-8.878586629460337,-0.007941248,0.08277224,-0.0027488936,189.70392,-158.8815,-26.790415
458941964000.0,-4.838251740609336,2.77004359590172,-8.82835590958231,0.00061086525,0.082161374,0.004276057,189.69104,-158.89459,-26.788763
458946887000.0,-4.754847508383293,2.760776405228501,-8.777386530221131,0.0021380284,0.08307768,0.002443461,189.67455,-158.90636,-26.788841
458951913000.0,-4.701791666869616,2.7379388641557094,-8.742596610985167,-0.009468411,0.0842994,0.011911872,189.66573,-158.91386,-26.77434
458956939000.0,-4.6612624573223655,2.709880248234989,-8.714538060172291,-0.02321288,0.07513642,0.0143553335,189.656,-158.92204,-26.763655
458961958000.0,-4.6207896951421725,2.681860711166526,-8.686518588120991,-0.027794369,0.074830994,0.016187929,189.65488,-158.92119,-26.73864
458966934000.0,-4.569404283571256,2.659582527857085,-8.651893855714171,-0.02565634,0.079107046,0.018020526,189.65523,-158.91833,-26.715057
458971981000.0,-4.510930887007017,2.640091395669005,-8.61291159133801,-0.026572637,0.08032878,0.022907447,189.65758,-158.91304,-26.692295
458976954000.0,-4.4556407792531125,2.620144421178423,-8.56586650307054,-0.034513887,0.0852157,0.024740042,189.66202,-158.91095,-26.663082
458981920000.0,-4.4122264,2.596463772,-8.475091319999999,-0.03573562,0.089186326,0.019242255,189.6658,-158.91068,-26.634645
458986927000.0,-4.368453585477178,2.5725876120248965,-8.383566684149377,-0.032070424,0.09407325,0.028710667,189.67175,-158.90851,-26.594458
458991887000.0,-4.329749431970131,2.5604290027350878,-8.323622373708432,-0.03023783,0.08735373,0.027488936,189.67418,-158.90791,-26.558933
458996867000.0,-4.292480075366849,2.552146947512373,-8.273929177563602,-0.03481932,0.08307768,0.028710667,189.67935,-158.90509,-26.520924
459001806000.0,-4.277378824402108,2.551512361623429,-8.225220585326307,-0.04337143,0.069027774,0.03390302,189.68578,-158.90111,-26.488306
459006829000.0,-4.292003145358735,2.5612618580259428,-8.176472848804217,-0.027794369,0.061391957,0.025961773,189.6886,-158.90384,-26.457195
459011787000.0,-4.295271978762635,2.568941309074753,-8.140433108297234,-0.0290161,0.06291912,0.034208454,189.69775,-158.88976,-26.42071
459016780000.0,-4.284649638853716,2.5742527008663783,-8.119188317560813,-0.028405234,0.05222898,0.022602014,189.70143,-158.88412,-26.39327
459021786000.0,-4.275158002490546,2.573323571617009,-8.114392498754727,-0.021991149,0.051923547,0.017104227,189.69974,-158.87733,-26.366741
459026838000.0,-4.266232072410294,2.568860559976017,-8.118855463794851,-0.01282817,0.052839845,0.022296581,189.6992,-158.87178,-26.343327
459031786000.0,-4.249431646817691,2.581280900550162,-8.130929831391585,-0.0143553335,0.04795292,0.016798794,189.69736,-158.86446,-26.323742
459036781000.0,-4.223630074002157,2.6122429495792883,-8.151570981877024,-0.014966198,0.06291912,0.016187929,189.69595,-158.85852,-26.298033
459041780000.0,-4.218604868559837,2.6240451,-8.169058486004058,-0.026267206,0.06566802,0.013744468,189.6858,-158.85649,-26.274923
459046782000.0,-4.226378362109533,2.6240451,-8.184605067261664,-0.025045475,0.067500606,0.013133603,189.67474,-158.85728,-26.248615
459051814000.0,-4.236415774876182,2.6275118929761367,-8.196879328905899,-0.027794369,0.062308256,0.020158553,189.6702,-158.85007,-26.216831
459056853000.0,-4.258143484579018,2.649239716118865,-8.191447543280054,-0.025961773,0.0729984,0.010079277,189.65868,-158.8469,-26.183224
459061835000.0,-4.269413867703895,2.6715627691309085,-8.199222005252206,-0.020158553,0.070554934,0.01038471,189.65878,-158.83807,-26.153025
459066827000.0,-4.264676142602319,2.695250899940541,-8.227647613814291,-0.027183503,0.06505715,0.008246681,189.65459,-158.82849,-26.123026
459071836000.0,-4.273499057896742,2.7119248570299104,-8.259138703086302,-0.035124753,0.06688975,0.0125227375,189.64438,-158.8199,-26.093689
459076922000.0,-4.305977077595732,2.7165645118403505,-8.296256619832349,-0.03359759,0.057726767,0.004886922,189.63261,-158.8141,-26.071001
459081847000.0,-4.335421135824266,2.7238356238965302,-8.330290247793062,-0.03390302,0.05589417,0.0067195175,189.622,-158.80069,-26.03932
459086833000.0,-4.359928334079244,2.7385400247382465,-8.359699049476495,-0.03481932,0.05222898,0.005192355,189.61003,-158.78943,-26.012579
459091845000.0,-4.381092761237785,2.74966651237785,-8.389813205211727,-0.02565634,0.050701816,0.007941248,189.60284,-158.78174,-25.98968
459096834000.0,-4.394926646123778,2.753124974571118,-8.420939653854505,-0.026267206,0.053145275,0.007941248,189.5946,-158.7724,-25.967802
459101953000.0,-4.409121005059717,2.7566735550416213,-8.452877174520449,-0.025045475,0.047647487,0.007941248,189.59377,-158.76616,-25.95202
459106910000.0,-4.425239838173104,2.755537326971149,-8.473646811201954,-0.025961773,0.047647487,0.0036651916,189.59073,-158.76021,-25.935118
459111900000.0,-4.44320355680857,2.751046373865238,-8.487119482943333,-0.015271631,0.047036625,0.0036651916,189.58977,-158.7573,-25.919743
459116887000.0,-4.455071980047465,2.7466865587325304,-8.49834196009493,-0.016493361,0.043066,0.0106901415,189.58597,-158.74754,-25.902359
459121877000.0,-4.459272492484838,2.7424861340159974,-8.506742984969677,-0.021991149,0.040011674,0.004276057,189.57841,-158.74149,-25.886919
459126903000.0,-4.469363161540804,2.7373238988936257,-8.515424741067804,-0.025961773,0.046731193,0.0106901415,189.57726,-158.73502,-25.871386
459131958000.0,-4.508673482947625,2.727496254405197,-8.52525202639058,-0.023518313,0.051618114,0.0106901415,189.5731,-158.73074,-25.85893
459137775000.0,-4.5437618678751415,2.7125537353682327,-8.53874239351325,-0.039095376,0.038789943,0.016187929,189.57149,-158.72066,-25.847929
459141912000.0,-4.553423521655016,2.696451012697122,-8.551624531295724,-0.022602014,0.038789943,0.008857546,189.56406,-158.72124,-25.83418
459146854000.0,-4.564965192667859,2.677214934514713,-8.567013345634855,-0.024129177,0.03268129,0.009468411,189.55804,-158.71548,-25.830366
459151925000.0,-4.574270675918579,2.6780630759185784,-8.583510047912714,-0.016493361,0.028710667,0.007330383,189.54903,-158.71762,-25.827337
459156905000.0,-4.582497769932724,2.6862901699327235,-8.599964364800758,-0.021991149,0.028710667,0.006414085,189.541,-158.71588,-25.824795
459161915000.0,-4.584275977009178,2.6971113617192746,-8.605027999776135,-0.018020526,0.022602014,0.005192355,189.53464,-158.722,-25.827513
459166881000.0,-4.577178239705992,2.711306873382583,-8.594381356764421,-0.011911872,0.024740042,0.00061086525,189.52612,-158.72778,-25.82858
459171960000.0,-4.569918995291396,2.725825400111932,-8.58349245224237,-0.0076358155,0.021380283,0.0027488936,189.52605,-158.72763,-25.8318
459176928000.0,-4.55399459634098,2.723733129002302,-8.561020232081912,-0.0143553335,0.017715093,-0.00061086525,189.52286,-158.7276,-25.835672
459181903000.0,-4.53508651633463,2.716169857512501,-8.534549156996588,-0.00580322,0.018020526,0.007330383,189.52351,-158.7307,-25.837765
459186867000.0,-4.519279156002683,2.711209843997317,-8.508914229184633,0.004886922,0.017104227,0.008552114,189.51965,-158.73341,-25.840876
459191905000.0,-4.5146564277666,2.7158325722334005,-8.485800346651336,0.008552114,0.015577064,0.003970624,189.51646,-158.73624,-25.843786
459196939000.0,-4.508112357615385,2.718531188846154,-8.462052533076923,0.0033597588,0.010995574,0.0106901415,189.52557,-158.73535,-25.84669
459201973000.0,-4.489570151057692,2.709260158173077,-8.43423919903846,-0.00030543262,0.018325957,0.01160644,189.53018,-158.73714,-25.847939
459207031000.0,-4.470990436498516,2.699970371847181,-8.408781573071217,-0.0036651916,0.02321288,0.01038471,189.53769,-158.73192,-25.85052
459211932000.0,-4.453580979228486,2.691265688659125,-8.41313402828264,-0.007330383,0.022602014,0.015271631,189.54677,-158.725,-25.851748
459216899000.0,-4.435937075074184,2.682443782640949,-8.417545096439168,-0.018020526,0.025961773,0.016493361,189.55484,-158.7145,-25.850359
459221898000.0,-4.438131253141337,2.693715216928049,-8.418014,-0.0036651916,0.018325957,0.0076358155,189.56259,-158.71053,-25.852634
459226892000.0,-4.442677070002851,2.707352620045623,-8.418014,-0.014660766,0.022296581,0.009468411,189.57156,-158.69638,-25.849667
459231903000.0,-4.44045649186828,2.703872683736559,-8.411650250840054,-0.025961773,0.02443461,0.011301007,189.57475,-158.69173,-25.8461
459236898000.0,-4.436438000940861,2.6958357018817205,-8.403613101142474,-0.02321288,0.02565634,0.014660766,189.5784,-158.68773,-25.841463
459241889000.0,-4.4340615,2.689262948330224,-8.393400763992538,-0.016493361,0.024740042,0.013744468,189.5774,-158.68668,-25.838223
459246877000.0,-4.4340615,2.684806924113806,-8.380032737873135,-0.016493361,0.018325957,0.011911872,189.57759,-158.68454,-25.835958
459251891000.0,-4.436513073653567,2.676602814294032,-8.371355690829693,-0.013439035,0.015882496,0.01160644,189.57703,-158.68376,-25.832493
459256910000.0,-4.445841692430859,2.65794543062591,-8.376019634934497,-0.014966198,0.008552114,0.0036651916,189.57509,-158.68332,-25.833174
459261935000.0,-4.4522090281374105,2.6462166471008737,-8.383730013502781,-0.009468411,0.007330383,0.0018325958,189.56767,-158.68793,-25.832708
459266904000.0,-4.447484383349881,2.6603907294678315,-8.402629184670372,-0.003970624,0.0015271631,0.008857546,189.56215,-158.6921,-25.8353
459271899000.0,-4.441845421883929,2.6746184171741056,-8.418014,0.002443461,0.0018325958,0.007330383,189.55412,-158.69986,-25.839802
459276895000.0,-4.43241677023352,2.688761394649719,-8.418014,0.004581489,-0.0030543262,0.0030543262,189.54877,-158.70735,-25.846615
459281955000.0,-4.4220048981267,2.7006595,-8.42132038523517,0.0061086523,0.0018325958,0.005192355,189.54099,-158.7149,-25.846212
459286951000.0,-4.4075485502165375,2.7006595,-8.440595415147548,0.013439035,-0.004276057,0.007330383,189.53412,-158.72495,-25.850449
459291882000.0,-4.399331792135617,2.704236992135617,-8.458467465396716,0.009468411,0.0015271631,0.008857546,189.52734,-158.73224,-25.848692
459296897000.0,-4.420315561796575,2.7252207617965745,-8.471057551904929,0.00061086525,0.0015271631,0.013133603,189.5236,-158.73933,-25.849476
459301951000.0,-4.441462515309333,2.746367715309332,-8.483745547361062,-0.0015271631,0.019547688,0.008552114,189.51779,-158.75179,-25.842222
459306966000.0,-4.452534340659227,2.74409550289316,-8.480602910002068,0.007330383,0.020158553,0.006414085,189.5162,-158.76372,-25.838804
459312333000.0,-4.463042639641562,2.7387160577412706,-8.4753486899936,-0.006414085,0.011911872,0.013439035,189.51494,-158.76863,-25.832644
459316919000.0,-4.469289560273096,2.732469071879667,-8.47222547429059,0.0027488936,0.01160644,0.013133603,189.50903,-158.78473,-25.828966
459321902000.0,-4.476077263174739,2.7256812981011307,-8.46883188862812,-0.004886922,0.010995574,0.015271631,189.50447,-158.79788,-25.829998
459326926000.0,-4.482649575243865,2.719813,-8.465898,0.005497787,0.015577064,0.02321288,189.50105,-158.8167,-25.829044
459331899000.0,-4.487539751483725,2.719813,-8.465898,0.008552114,0.018020526,0.016798794,189.49457,-158.83295,-25.830156
459336915000.0,-4.493228383374827,2.717253897206086,-8.46504494495159,0.00580322,0.013439035,0.008246681,189.48431,-158.85107,-25.832407
459341882000.0,-4.502000760313509,2.704095446297833,-8.460658687782388,0.0009162979,0.0018325958,0.02107485,189.47932,-158.86693,-25.834137
459347234000.0,-4.510232013065009,2.6910827,-8.458096901380255,0.008552114,0.0015271631,0.010995574,189.45905,-158.88911,-25.83695
459351969000.0,-4.505454108207776,2.6910827,-8.4772080219155,0.0030543262,0.0009162979,0.011301007,189.44736,-158.90324,-25.840193
459356887000.0,-4.502247916640096,2.690508250677561,-8.492330190713432,0.01038471,0.002443461,0.008552114,189.43547,-158.92325,-25.847734
459361901000.0,-4.511817132642487,2.68572371761658,-8.473191958549224,0.008857546,-0.004276057,0.0018325958,189.42383,-158.93973,-25.857874
459371898000.0,-4.5304434677160845,2.666219795220378,-8.456321,-0.0015271631,-0.0030543262,-0.00030543262,189.40538,-158.95837,-25.861328
459377106000.0,-4.539911353615873,2.653533079105387,-8.455815938473588,-0.004276057,-0.004276057,0.002443461,189.388,-158.97829,-25.867321
459381961000.0,-4.5480038793751625,2.665671846619093,-8.447723285962928,-0.005192355,0.0033597588,0.014660766,189.36613,-158.99983,-25.873463
459386928000.0,-4.5562830916195285,2.678090643373075,-8.439443944043164,-0.0061086523,0.0067195175,0.015271631,189.34024,-159.02275,-25.8835
459391907000.0,-4.55856,2.684219986751902,-8.437167,0.00061086525,-0.008857546,0.0125227375,189.31888,-159.04562,-25.895428
459396901000.0,-4.55856,2.687971342921013,-8.437167,0.002443461,-0.00061086525,0.0015271631,189.29237,-159.06752,-25.901031
459401961000.0,-4.553788907561505,2.690287528997829,-8.438757391823446,-0.0076358155,0.0027488936,0.0061086523,189.27693,-159.08324,-25.913694
459407043000.0,-4.5273763892908825,2.685885503907381,-8.44756171780029,-0.017104227,-0.002443461,0.004886922,189.25705,-159.10129,-25.928135
459412289000.0,-4.500929421901212,2.681845157968313,-8.457338482758622,-0.0067195175,0.003970624,0.0070249503,189.23543,-159.11713,-25.935753
459416950000.0,-4.496769403383038,2.6901652384436163,-8.48229894137931,-0.010995574,0.0076358155,0.01160644,189.21556,-159.1265,-25.945213
459421902000.0,-4.4923496626188255,2.69900476612302,-8.508817755172414,-0.013744468,0.0027488936,0.0015271631,189.20067,-159.14122,-25.952808
459426872000.0,-4.48217368004829,2.7006595,-8.513782,-0.004276057,-0.0012217305,0.010995574,189.1925,-159.15446,-25.956432
459432077000.0,-4.47013817006841,2.7006595,-8.513782,-0.010079277,0.0009162979,0.0033597588,189.1765,-159.16653,-25.962753
459436863000.0,-4.459689382130273,2.696005597493204,-8.509128000302024,-0.015577064,-0.0070249503,-0.007941248,189.17146,-159.17584,-25.969122
459441944000.0,-4.449891742977952,2.6813092154938083,-8.494431311386288,-0.007330383,-0.0036651916,0.009162978,189.1709,-159.18425,-25.969547
459451966000.0,-4.449830635873712,2.6843139010682946,-8.472666586894315,-0.0036651916,-0.00030543262,0.01038471,189.16103,-159.19469,-25.971792
459456865000.0,-4.4520412595155,2.6922564527407102,-8.468245431944158,0.009773844,-0.005192355,0.007941248,189.15579,-159.20775,-25.9738
459462805000.0,-4.446202048059947,2.69809572516937,-8.47992361096284,-0.0021380284,-0.0033597588,0.01282817,189.15157,-159.21501,-25.97208
459466869000.0,-4.446111937324818,2.698185888504524,-8.477630100940218,0.004886922,-0.005192355,0.01160644,189.14043,-159.22934,-25.972998
459471932000.0,-4.454713603379457,2.689584312267164,-8.45182514768494,0.002443461,-0.008857546,0.005497787,189.12947,-159.23813,-25.973988
459476989000.0,-4.463526056734349,2.6805272517258887,-8.42759,-0.005497787,-0.004276057,-0.002443461,189.11862,-159.24347,-25.970982
459481884000.0,-4.475424095524534,2.6646631033756347,-8.42759,-0.0076358155,0.00061086525,0.004276057,189.11087,-159.24846,-25.967985
459486894000.0,-4.487601659230118,2.6484262528680205,-8.42759,0.00030543262,0.0015271631,0.016493361,189.10205,-159.24911,-25.96827
459491876000.0,-4.485698430108303,2.640286795460289,-8.418854316787003,0.008246681,0.0061086523,0.00580322,189.08755,-159.25162,-25.968264
459501952000.0,-4.47853674280138,2.629509935684459,-8.405027978395063,-0.0018325958,-0.00061086525,0.008857546,189.08205,-159.24829,-25.968187
459506894000.0,-4.491425735412128,2.620917199173929,-8.417916836419753,0.00061086525,0.007330383,0.01038471,189.06451,-159.25342,-25.965982
459511841000.0,-4.502242108947166,2.6178975552256074,-8.424160792518318,0.007330383,0.01160644,0.013133603,189.05125,-159.2554,-25.965847
459516902000.0,-4.506915190030853,2.6319165057076748,-8.41014203721558,-0.0033597588,0.0021380284,0.010079277,189.0377,-159.25433,-25.967882
459521889000.0,-4.507269747232221,2.6397924561241366,-8.394602195155171,0.0036651916,0.00580322,0.01282817,189.02316,-159.26466,-25.96744
459526952000.0,-4.488401193880727,2.620923952028408,-8.371016565035509,-0.004886922,-0.004886922,0.019242255,189.01202,-159.26823,-25.973236
459531940000.0,-4.4723687,2.6061521130288785,-8.349715294828744,0.010995574,0.0036651916,0.011911872,188.99237,-159.27864,-25.974949
459536925000.0,-4.4723687,2.61531269021395,-8.340554048066775,0.0067195175,-0.0009162979,0.004276057,188.97765,-159.28107,-25.982262
459542105000.0,-4.4727529570919655,2.6232765858160683,-8.332973835473892,0.004581489,-0.008246681,0.009162978,188.97173,-159.28441,-25.987843
459546900000.0,-4.4770578934377045,2.6146667131245898,-8.345889363738634,0.010995574,-0.016493361,0.010995574,188.96349,-159.29025,-25.996029
459551935000.0,-4.481578301049967,2.6056258979000657,-8.359451341801819,0.01038471,-0.021991149,0.01160644,188.96078,-159.28427,-26.004215
459556911000.0,-4.4684532435989714,2.627378515732648,-8.39203454025707,0.01160644,-0.010995574,0.0027488936,188.9547,-159.28163,-26.01096
459562264000.0,-4.453045769687359,2.6531139641594925,-8.428097706841868,0.005192355,-0.015271631,0.0030543262,188.95393,-159.27586,-26.021902
459566889000.0,-4.449031973810603,2.6611416397372,-8.440139471681016,0.009468411,-0.01740966,0.006414085,188.95305,-159.27563,-26.031027
459571863000.0,-4.444715299066607,2.6697750793747166,-8.453089901585864,0.010079277,-0.007941248,0.004886922,188.95102,-159.27174,-26.031994
459576932000.0,-4.464193347154471,2.6719291,-8.470024317073172,0.017104227,-0.0076358155,0.002443461,188.95096,-159.27051,-26.035627
459581937000.0,-4.4910684806466685,2.6719291,-8.487941010372863,0.008857546,-0.008857546,-0.00061086525,188.94917,-159.26613,-26.037441
459591917000.0,-4.501099,2.6719291,-8.534611016778179,0.004581489,-0.00030543262,-0.002443461,188.9449,-159.26633,-26.03449
459596907000.0,-4.507309970023935,2.656401756007659,-8.54872306730493,0.011911872,0.004581489,0.0125227375,188.94525,-159.26573,-26.031345
459601944000.0,-4.51654665617999,2.633310161177597,-8.55795989813308,0.010079277,0.0076358155,0.0018325958,188.93126,-159.26843,-26.032486
459606913000.0,-4.523008425368473,2.6130222273011223,-8.550642868326014,-0.0036651916,-0.0012217305,0.006414085,188.92339,-159.26991,-26.029797
459611891000.0,-4.527661749956076,2.5944089775402635,-8.532029181259151,0.0012217305,-0.0030543262,0.004886922,188.90965,-159.27776,-26.026531
459616883000.0,-4.524545934365325,2.5892603464396284,-8.523358,0.0030543262,0.004581489,0.005497787,188.8945,-159.28465,-26.023739
459621875000.0,-4.514678534571724,2.5958385557275543,-8.523358,-0.003970624,-0.003970624,0.0125227375,188.88338,-159.2897,-26.025234
459626982000.0,-4.504583820880633,2.602568306295149,-8.523358,0.014049901,0.0021380284,0.012217305,188.86462,-159.30724,-26.025274
459631990000.0,-4.497978880371486,2.595531043373494,-8.517117891064258,0.0061086523,0.00061086525,0.003970624,188.84789,-159.31638,-26.029697
459636964000.0,-4.493196299467871,2.5811831508433736,-8.507552929016065,0.00030543262,-0.0012217305,0.010995574,188.83513,-159.32832,-26.030947
459641925000.0,-4.501493133724032,2.581146516862016,-8.504205,0.0033597588,-0.0009162979,0.0061086523,188.81918,-159.33774,-26.030619
459646891000.0,-4.5168705126909705,2.5888352063454856,-8.504205,0.00061086525,-0.004276057,0.007941248,188.80815,-159.34238,-26.030317
459651943000.0,-4.529140332868526,2.593247177016932,-8.502826636952191,0.0021380284,-0.0021380284,0.00580322,188.79073,-159.35553,-26.030376
459656954000.0,-4.525157153519256,2.5812975141932277,-8.49486011188579,0.00061086525,-0.0061086523,0.0009162979,188.7745,-159.36714,-26.033096
459661879000.0,-4.521242334462151,2.5695529343874504,-8.487030310258964,0.0027488936,-0.0106901415,-0.00030543262,188.76204,-159.3783,-26.039585
459666884000.0,-4.512875327330465,2.573961488219627,-8.485051,0.0021380284,-0.013439035,0.0030543262,188.74995,-159.38824,-26.046604
459671875000.0,-4.503082649938537,2.58375431899201,-8.485051,-0.0018325958,-0.0106901415,0.008246681,188.73813,-159.39763,-26.053207
459676932000.0,-4.497775901526587,2.589061098473413,-8.485051,-0.0009162979,-0.009468411,0.00030543262,188.72482,-159.40958,-26.062368
459681918000.0,-4.493680753481989,2.59315624651801,-8.485051,-0.0061086523,-0.017104227,-0.0009162979,188.7159,-159.41727,-26.071705
459686940000.0,-4.496328290755685,2.607329614159941,-8.485051,-0.0009162979,-0.014049901,0.0061086523,188.71263,-159.42459,-26.07707
459691902000.0,-4.506289579865842,2.632232706917514,-8.485051,-0.00030543262,-0.004581489,0.003970624,188.70644,-159.43082,-26.083754
459696898000.0,-4.498103430973286,2.640684212450962,-8.490080132635905,-0.008552114,-0.010995574,0.004276057,188.70313,-159.4326,-26.090498
459701991000.0,-4.475324315337194,2.636128436895199,-8.499191969176163,-0.007941248,-0.013133603,0.005497787,188.69778,-159.437,-26.093744
459706934000.0,-4.468738019555341,2.6276759390526823,-8.506187054809088,-0.0009162979,-0.012217305,-0.0027488936,188.69019,-159.44092,-26.100166
459711913000.0,-4.482565778250362,2.6138480840985983,-8.510796420009667,-0.00061086525,-0.01038471,0.012217305,188.68988,-159.44014,-26.104095
459716926000.0,-4.489935926236798,2.609650637854364,-8.513782,0.008246681,-0.009773844,0.004581489,188.67667,-159.45367,-26.106518
459721904000.0,-4.485519277135445,2.622900631276635,-8.513782,0.006414085,-0.020158553,0.007330383,188.67216,-159.46107,-26.108559
459726893000.0,-4.483644928815437,2.633622,-8.513782,0.0061086523,-0.016798794,0.004886922,188.65755,-159.48134,-26.111893
459731902000.0,-4.492502825731696,2.633622,-8.513782,-0.005497787,-0.015577064,-0.0030543262,188.64392,-159.49817,-26.1187
459737199000.0,-4.500734077678727,2.6328921439258868,-8.51305213249432,-0.0030543262,-0.018936822,0.0027488936,188.63214,-159.51437,-26.122164
459741968000.0,-4.496742530545359,2.6249089246198216,-8.505068788148925,0.007330383,-0.015882496,0.005497787,188.61655,-159.5308,-26.124836
459746875000.0,-4.492635480475441,2.6166946958224084,-8.496854430693935,0.004276057,-0.013744468,0.0012217305,188.5989,-159.54791,-26.130928
459751968000.0,-4.503283117962273,2.6215247907773644,-8.487571607466876,-0.005497787,-0.01038471,0.00061086525,188.58302,-159.56456,-26.1351
459756965000.0,-4.51890065911494,2.630895315468964,-8.478201213236733,-0.0033597588,-0.0018325958,0.0067195175,188.56735,-159.58263,-26.137009
459761865000.0,-4.534215038071927,2.6400839428431566,-8.469012713791527,0.003970624,-0.01038471,0.0021380284,188.55609,-159.5996,-26.145372
459766906000.0,-4.536739283109499,2.637864666219,-8.43389368591909,0.0021380284,-0.002443461,0.014049901,188.54861,-159.61143,-26.144571
459771939000.0,-4.53276795292906,2.62992200585812,-8.38623755788086,-0.0036651916,-0.01282817,0.0076358155,188.53793,-159.62682,-26.153307
459776907000.0,-4.5298295,2.6240451,-8.357789600610046,-0.0015271631,-0.0076358155,0.00061086525,188.52972,-159.64444,-26.161964
459787176000.0,-4.533269742390158,2.625765221195079,-8.407576921441125,-0.00580322,-0.010079277,-0.00580322,188.52208,-159.65941,-26.175724
459791941000.0,-4.549309620070299,2.6337851600351496,-8.40356686827768,-0.009773844,-0.003970624,0.0033597588,188.51979,-159.67352,-26.19103
