timestamp,acc_x,acc_y,acc_z,gyro_x,gyro_y,gyro_z,ori_azimuth,ori_pitch,ori_roll
2550586960000.0,1.0042878520828131,9.701305,-1.8195933,-1.1722504,0.7458665,0.03023783,23.557278,-13.079023,35.237606
2550591855000.0,1.0059257007980873,9.701305,-1.8195933,-1.1722504,0.7535023,0.037873644,23.544361,-13.068755,35.219246
2550596869000.0,1.0076033664688502,9.701305,-1.8195933,-1.180497,0.7666359,0.040927973,23.65831,-13.331459,35.192448
2550601748000.0,1.0092358616438903,9.701305,-1.8195933,-1.1899655,0.7593055,0.03726278,23.786308,-13.60385,35.1656
2550606772000.0,1.010916873277299,9.701305,-1.8195933,-1.1905763,0.75869465,0.041233405,23.921175,-13.8843975,35.13061
2550611783000.0,1.012593535159268,9.701305,-1.8195933,-1.1948525,0.7528914,0.03573562,24.07366,-14.173723,35.094353
2550616736000.0,1.0142507904578897,9.701305,-1.8195933,-1.178359,0.7644979,0.027183503,24.235405,-14.476792,35.049976
2550621722000.0,1.015919087433243,9.701305,-1.8195933,-1.2018774,0.7806858,0.036957346,24.403887,-14.776511,35.003445
2550626720000.0,1.0175913995637722,9.701305,-1.8195933,-1.210735,0.7825184,0.038789943,24.588366,-15.09495,34.952587
2550632259000.0,1.019444728273456,9.701305,-1.8195933,-1.2168436,0.7602218,0.03848451,24.780937,-15.415765,34.90099
2550636715000.0,1.0209356892285657,9.701305,-1.8195933,-1.205848,0.788627,0.06627888,24.966768,-15.741511,34.83448
2550641704000.0,1.0226049899927128,9.701305,-1.8195933,-1.2495248,0.77213365,0.056199603,25.181738,-16.06766,34.77887
2550646699000.0,1.024276298334448,9.701305,-1.8195933,-1.2516629,0.7620544,0.06780604,25.384573,-16.40501,34.715115
2550651816000.0,1.0259884274204658,9.701305,-1.8195933,-1.2513574,0.75869465,0.07147124,25.602303,-16.74323,34.648678
2550657933000.0,1.0280351527710951,9.701305,-1.8195933,-1.2507466,0.7483099,0.0729984,25.826462,-17.086405,34.584194
2550661901000.0,1.029362830749074,9.701305,-1.8195933,-1.2428054,0.72021013,0.08857546,26.064175,-17.44526,34.51378
2550666827000.0,1.0310110519485511,9.701305,-1.8195933,-1.2550226,0.7110472,0.09896017,26.308548,-17.806927,34.436993
2550671801000.0,1.032675333768729,9.701305,-1.8195933,-1.2592987,0.65393126,0.09040806,26.570177,-18.179243,34.37618
2550676870000.0,1.0343714022340458,9.701305,-1.8195933,-1.185384,0.5861252,0.09773844,26.832129,-18.56836,34.31955
2550682991000.0,1.0364194659697334,9.701305,-1.8195933,-1.0778717,0.5195409,0.09407325,27.113861,-18.973341,34.271385
2550686857000.0,1.0377130151287222,9.701305,-1.8195933,-0.95142263,0.44073927,0.08460484,27.412066,-19.404825,34.23994
2550691805000.0,1.0393685974460205,9.701305,-1.8195933,-0.8081747,0.37934732,0.07147124,27.725388,-19.871056,34.21562
2550696806000.0,1.0410419133653432,9.701305,-1.8195933,-0.68386364,0.31306845,0.06994407,28.055899,-20.366014,34.208008
2550701798000.0,1.0427122179182846,9.701305,-1.8195933,-0.54367006,0.19120082,0.008552114,28.43239,-20.913914,34.215816
2550707645000.0,1.044668602277469,9.701305,-1.8195933,-0.059253927,-0.029321533,-0.020158553,28.83037,-21.56676,34.263096
2550711851000.0,1.046075914166425,9.701305,-1.8195933,0.06566802,-0.007941248,-0.0143553335,29.22431,-22.176672,34.268875
2550716815000.0,1.0477368500239577,9.701305,-1.8195933,0.051923547,0.013439035,-0.0036651916,29.666306,-22.870857,34.31902
2550722692000.0,1.0497032722710802,9.701305,-1.8195933,0.007330383,0.014660766,0.005192355,30.112953,-23.586464,34.35997
2550726805000.0,1.051079466707428,9.701305,-1.8195933,-0.0021380284,0.00030543262,-0.0009162979,30.565266,-24.30806,34.38947
2550731874000.0,1.052775535172744,9.701305,-1.8195933,0.010995574,-0.004886922,-0.0030543262,31.016554,-25.022566,34.40896
2550736829000.0,1.054433459663895,9.701305,-1.8195933,0.014660766,0.010079277,0.008246681,31.468569,-25.731308,34.419006
2550741810000.0,1.0561000836579255,9.701305,-1.8195933,0.01038471,0.009773844,0.0027488936,31.933239,-26.444101,34.422043
2550746834000.0,1.0577810952913342,9.701305,-1.8195933,0.009468411,0.0012217305,0.006414085,32.39343,-27.153936,34.417492
2550751812000.0,1.059446715496571,9.701305,-1.8195933,0.012217305,0.002443461,0.010995574,32.85524,-27.863329,34.401043
2550757612000.0,1.0613873738313184,9.701305,-1.8195933,0.00061086525,0.00580322,0.01038471,33.320232,-28.568203,34.377018
2550761884000.0,1.0628167690737391,9.701305,-1.8195933,0.011911872,0.0061086523,0.007941248,33.785744,-29.276468,34.345116
2550766827000.0,1.0644706784097149,9.701305,-1.8195933,-0.0018325958,0.0030543262,0.009162978,34.25079,-29.974161,34.30515
2550771815000.0,1.0661396445775977,9.701305,-1.8195933,0.009162978,0.0030543262,0.0061086523,34.716793,-30.678644,34.2548
2550776819000.0,1.0678139642857143,9.701305,-1.8195933,0.009773844,0.009773844,0.0061086523,35.180088,-31.374537,34.196133
2550782570000.0,1.0697382274034957,9.701305,-1.8195933,-0.003970624,0.006414085,0.009468411,35.64427,-32.06682,34.131676
2550786881000.0,1.0711806719002366,9.701305,-1.8195933,0.004276057,0.0030543262,-0.0015271631,36.109,-32.763577,34.055153
2550791881000.0,1.0728536532232946,9.701305,-1.8195933,0.0009162979,0.0061086523,0.008857546,36.564384,-33.446873,33.97492
2550796837000.0,1.07451191231071,9.701305,-1.8195933,0.0061086523,0.003970624,-0.0009162979,37.02708,-34.136116,33.883114
2550801816000.0,1.0761778671122113,9.701305,-1.8195933,0.002443461,-0.0015271631,0.0036651916,37.48052,-34.814213,33.78882
2550806916000.0,1.0778843080617306,9.701305,-1.8195933,0.008857546,-0.0018325958,0.003970624,37.933308,-35.49418,33.68408
2550811890000.0,1.079548589881909,9.701305,-1.8195933,0.0009162979,-0.0009162979,0.009773844,38.3808,-36.164116,33.575386
2550816909000.0,1.0812279285339947,9.701305,-1.8195933,0.002443461,-0.0036651916,0.007330383,38.827053,-36.834442,33.45925
2550821824000.0,1.082872469174561,9.701305,-1.8195933,0.01038471,-0.005192355,0.008857546,39.26599,-37.497845,33.33829
2550826820000.0,1.0845441121125607,9.701305,-1.8195933,0.0061086523,-0.004276057,0.014966198,39.699787,-38.15371,33.211723
2550832615000.0,1.0864830974659851,9.701305,-1.8195933,0.012217305,-0.008857546,0.0070249503,40.133236,-38.8108,33.077908
2550836902000.0,1.0879175116523752,9.701305,-1.8195933,0.011301007,-0.01282817,0.0033597588,40.55865,-39.458233,32.940315
2550841846000.0,1.0895717555846152,9.701305,-1.8195933,-0.0009162979,-0.010079277,0.008552114,40.977833,-40.099022,32.797085
2550846820000.0,1.0912360374047934,9.701305,-1.8195933,0.011301007,-0.01038471,-0.00061086525,41.397026,-40.742634,32.64601
2550851822000.0,1.0906066318049594,9.701140818504577,-1.820085885634513,0.009162978,-0.0070249503,0.00030543262,41.805317,-41.372086,32.492203
2550857407000.0,1.0887449086700114,9.700874880670488,-1.820883765787864,0.003970624,-0.004886922,-0.0070249503,42.211533,-42.00108,32.3301
2550862004000.0,1.087212528857772,9.700655987882072,-1.8215404990134605,-0.0036651916,-0.010079277,-0.0015271631,42.61789,-42.62741,32.168518
2550866829000.0,1.0856041467402924,9.700426238544654,-1.822229804607,0.0067195175,-0.005192355,0.002443461,43.016117,-43.25188,31.99839
2550871819000.0,1.0839407629545466,9.700188632494145,-1.82294268230892,0.007330383,-0.0125227375,0.0027488936,43.411957,-43.86621,31.82745
2550876809000.0,1.0822773791688007,9.699951026443632,-1.82365556001084,-0.0030543262,-0.004276057,0.004276057,43.794315,-44.47292,31.650396
2550882594000.0,1.0803489873450451,9.699675565320948,-1.824482012416773,-0.0030543262,-0.0070249503,0.004276057,44.17503,-45.07547,31.472364
2550886908000.0,1.0789109437274684,9.699470147985895,-1.825098315904966,0.00580322,-0.003970624,0.0027488936,44.544838,-45.671112,31.28866
2550891841000.0,1.0772665605180327,9.699235256072638,-1.8258030505149,-0.005192355,-0.013133603,0.006414085,44.910877,-46.255154,31.105394
2550896820000.0,1.075606843510171,9.698998173803,-1.826514356742928,0.007941248,-0.004581489,0.0033597588,45.26544,-46.840427,30.914036
2550901813000.0,1.0739424596940932,9.698760424903162,-1.8272276630286364,0.009468411,-0.005192355,0.004276057,45.61674,-47.4129,30.72464
2550908524000.0,1.0717053918411592,9.698440870954268,-1.828186404964024,0.009773844,-0.0061086523,0.0027488936,45.959515,-47.98182,30.53023
2550911946000.0,1.0705646905756636,9.698277927486362,-1.8286752762057013,0.01038471,-0.007941248,0.0027488936,46.295166,-48.543495,30.334444
2550916836000.0,1.0689346411343217,9.698045083080151,-1.8293738677813305,0.0033597588,-0.0027488936,0.007941248,46.621353,-49.095894,30.13676
2550921820000.0,1.0672732574092398,9.6978077627283,-1.8300858883156728,0.007330383,-0.01038471,-0.0015271631,46.947006,-49.646473,29.935673
2550926817000.0,1.0656075402193856,9.697569823362688,-1.830799766046433,0.014966198,-0.006414085,-0.0009162979,47.2583,-50.18586,29.734587
2550932191000.0,1.0638161525511294,9.69731393259807,-1.8315675024733105,0.002443461,-0.0125227375,0.0067195175,47.568134,-50.715595,29.533945
2550936884000.0,1.062251771768263,9.697090468631126,-1.8322379503801456,0.0036651916,-0.017104227,0.007941248,47.870262,-51.243153,29.32995
2550941836000.0,1.0606010550333902,9.69685467200545,-1.8329453993540752,0.002443461,-0.015271631,0.0009162979,48.165462,-51.760876,29.124786
2550946821000.0,1.0589393379648644,9.696617304037154,-1.8336575627496805,0.01282817,-0.023518313,-0.005497787,48.457874,-52.273148,28.921091
2550951813000.0,1.0572752874922304,9.696379602753758,-1.8343707261741264,0.0061086523,-0.020463986,-0.0009162979,48.73909,-52.773952,28.716196
2550956867000.0,1.055590569726066,9.696138949250896,-1.8350927469968723,0.0061086523,-0.019242255,-0.010079277,49.019295,-53.27492,28.506823
2550961955000.0,1.0538945182828046,9.695896676788973,-1.8358196251025571,0.013439035,-0.020158553,-0.0033597588,49.28982,-53.76392,28.302385
2550966814000.0,1.0522748024882276,9.695665308492494,-1.836513787979036,0.013133603,-0.017715093,-0.0076358155,49.55505,-54.24883,28.092033
2550971801000.0,1.050612418732814,9.695427845291311,-1.837226237097167,0.0067195175,-0.017715093,-0.008552114,49.813477,-54.724236,27.884726
2550976795000.0,1.0489477015732918,9.69519004877503,-1.8379396862441384,0.008246681,-0.02107485,-0.015271631,50.06701,-55.19585,27.675028
2550981850000.0,1.0472626504636835,9.694949347655726,-1.8386618499281475,-0.004581489,-0.025961773,-0.007330383,50.313053,-55.65345,27.469454
2550987086000.0,1.0455172641907045,9.69470002796024,-1.8394098715007436,0.006414085,-0.01863139,-0.004276057,50.551617,-56.11056,27.260355
2550991810000.0,1.0439425497610724,9.694475087883564,-1.8400847481067293,0.0036651916,-0.015882496,-0.006414085,50.786617,-56.55538,27.053555
2550996802000.0,1.0422784992884384,9.694237386600168,-1.8407979115311748,0.004276057,-0.015882496,-0.0036651916,51.013386,-56.993362,26.849113
2551001822000.0,1.0406051151993714,9.693998352056369,-1.841515075070982,0.0018325958,-0.021685716,-0.00061086525,51.23544,-57.42359,26.645288
2551006848000.0,1.03892973104964,9.69375903181391,-1.8422330957783664,0.0027488936,-0.017715093,-0.0015271631,51.44895,-57.84753,26.44111
2551011966000.0,1.0372236793030576,9.693515330858698,-1.842964259721939,0.004581489,-0.0143553335,0.0018325958,51.658016,-58.26228,26.240545
2551016839000.0,1.035599296700264,9.693283295932016,-1.8436604226560984,0.0036651916,-0.01863139,0.01282817,51.862053,-58.667984,26.043238
2551021807000.0,1.033943246470287,9.693046737443252,-1.8443701574102345,0.0012217305,-0.010079277,0.010995574,52.05676,-59.068924,25.843115
2551026800000.0,1.032278862654209,9.692808988543412,-1.8450834636959428,0.004276057,-0.0106901415,0.015577064,52.248653,-59.459324,25.650139
2551031854000.0,1.030594144888045,9.692568335040551,-1.8458054845186889,0.01038471,-0.009468411,0.022602014,52.432262,-59.84267,25.45778
2551037097000.0,1.0288464252109573,9.692318682029963,-1.846554506120125,0.01282817,-0.008552114,0.01038471,52.6125,-60.222595,25.262877
2551041903000.0,1.0272443766189143,9.692089837404964,-1.8472410973496696,0.0070249503,-0.013439035,0.017104227,52.786934,-60.588963,25.076876
2551047817000.0,1.025272983490878,9.691808233761131,-1.848085978858518,0.0076358155,-0.007941248,0.01740966,52.954796,-60.95435,24.88641
2551051868000.0,1.0204731414661568,9.692646866805193,-1.854978275071019,-0.00580322,-0.0125227375,0.01740966,53.12199,-61.30855,24.700426
2551056839000.0,1.0116324698818522,9.694558352305238,-1.8688366297748469,-0.004276057,-0.019242255,0.009468411,53.284252,-61.66019,24.513668
2551061886000.0,1.0026566361490048,9.696499061884545,-1.8829068603502277,-0.0027488936,-0.026572637,0.008857546,53.443848,-62.01966,24.314638
2551066836000.0,0.9938533120004818,9.698402472310056,-1.896706670405336,-0.0061086523,-0.025045475,0.02076942,53.59789,-62.370754,24.118654
2551071878000.0,0.984886370514249,9.700341259252568,-1.910762961778641,-0.014660766,-0.020463986,0.027794369,53.74917,-62.716034,23.923395
2551076867000.0,0.9760136868421316,9.70225966624507,-1.9246714976099413,-0.016493361,-0.02443461,0.030848695,53.89766,-63.053173,23.732756
2551082517000.0,0.965965448167555,9.704432245821664,-1.940422795955672,-0.021685716,-0.032986723,0.031154128,54.04163,-63.381187,23.545237
2551086933000.0,0.9581118159574789,9.706130318637635,-1.952733899229078,-0.022602014,-0.03970624,0.031154128,54.18196,-63.702435,23.360567
2551091902000.0,0.9492747012718202,9.708041035082966,-1.9665866782520756,-0.032986723,-0.043676864,0.035124753,54.319805,-64.01441,23.179434
2551096871000.0,0.9404375865861616,9.709951751528292,-1.9804394572750723,-0.021380283,-0.046120327,0.03390302,54.455643,-64.32414,22.999126
2551101860000.0,0.9315649029140444,9.711870158520794,-1.994347993106373,-0.020463986,-0.047647487,0.035124753,54.588223,-64.62347,22.822788
2551106861000.0,0.9226708778500516,9.7137931798416,-2.008289983022656,-0.027794369,-0.04642576,0.03390302,54.717197,-64.918076,22.6474
2551112222000.0,0.9131366110298028,9.715854631011537,-2.023235595488401,-0.038179077,-0.050396383,0.03390302,54.844437,-65.20581,22.475067
2551116869000.0,0.904872157026129,9.717641529647365,-2.036190689897712,-0.03726278,-0.051923547,0.03481932,54.967037,-65.48816,22.304485
2551121856000.0,0.8960030302526576,9.719559167585148,-2.0500936500481823,-0.029626964,-0.041233405,0.028405234,55.08407,-65.766174,22.133478
2551126843000.0,0.8871339034791861,9.721476805522933,-2.063996610198653,-0.043066,-0.034513887,0.025961773,55.19915,-66.03491,21.966196
2551132627000.0,0.8768473525953363,9.723700911765592,-2.080121479160016,-0.043982297,-0.036957346,0.007941248,55.311592,-66.30604,21.794743
2551137210000.0,0.8686967193483301,9.725463200650465,-2.0928981517827565,-0.054061573,-0.03359759,-0.0015271631,55.416695,-66.56751,21.626572
2551141877000.0,0.8603966963581976,9.72725778983347,-2.105909003000371,-0.04642576,-0.038789943,-0.002443461,55.52246,-66.82777,21.458475
2551146870000.0,0.8515168988887885,9.729177734935403,-2.1198286901933328,-0.052534413,-0.029932396,-0.010995574,55.620686,-67.08459,21.287067
2551151857000.0,0.842647772115317,9.73109537287319,-2.133731650343803,-0.058337633,-0.036957346,-0.023823744,55.722523,-67.33825,21.117401
2551156865000.0,0.833741297906064,9.733021085885506,-2.147693155142992,-0.058337633,-0.044898596,-0.022907447,55.81875,-67.58516,20.951193
2551162121000.0,0.8243937682647233,9.735042161682776,-2.162346044365144,-0.06780604,-0.047647487,-0.024740042,55.913334,-67.82945,20.783033
2551166856000.0,0.8159728107206312,9.736862898726171,-2.1755464687309902,-0.064446285,-0.04734206,-0.021991149,56.006336,-68.06832,20.619005
2551171861000.0,0.8070716718593469,9.738787458156413,-2.1894996100089337,-0.056505036,-0.044593163,-0.02443461,56.09696,-68.30349,20.455355
2551176862000.0,0.7981776467953544,9.74071047947722,-2.2034415999252164,-0.060170226,-0.03848451,-0.026572637,56.183643,-68.53205,20.294786
2551181847000.0,0.7893120769205288,9.742627348360283,-2.2173389843948565,-0.057421334,-0.028099801,-0.022602014,56.265453,-68.755936,20.137371
2551186869000.0,0.7803807044207547,9.744558444755624,-2.231339518959857,-0.050396383,-0.03359759,-0.021991149,56.347885,-68.97644,19.981083
2551191905000.0,0.7714244336304594,9.746494924533984,-2.2453790832906715,-0.040927973,-0.03573562,-0.0143553335,56.4233,-69.18954,19.829782
2551196864000.0,0.7626051034380301,9.748401795705725,-2.259203983909517,-0.02443461,-0.036651913,-0.014660766,56.497864,-69.40101,19.678846
2551201862000.0,0.7537164137220065,9.750323663444457,-2.273137610304554,-0.029626964,-0.043676864,-0.022602014,56.572548,-69.606735,19.530403
2551206844000.0,0.7448561791951497,9.752239378745443,-2.2870266312529486,-0.008552114,-0.03756821,-0.02076942,56.640903,-69.808556,19.386524
2551211858000.0,0.735939034289959,9.754167398921911,-2.3010048630946285,0.00030543262,-0.03481932,-0.0125227375,56.71018,-70.00466,19.244762
2551216866000.0,0.7270325600807059,9.75609311193423,-2.3149663678938173,0.021380283,-0.023518313,-0.01863139,56.77312,-70.20204,19.101248
2551221839000.0,0.7181883315977555,9.758005366488993,-2.328830298278475,0.017715093,-0.022602014,-0.029932396,56.836082,-70.39274,18.960981
2551226844000.0,0.7092871927364712,9.759929925919234,-2.3427834395564187,0.036957346,-0.022296581,-0.038179077,56.893723,-70.58273,18.82175
2551232574000.0,0.6990966781160599,9.762133267684524,-2.358757765135363,0.050396383,-0.009468411,-0.03604105,56.94525,-70.7676,18.684175
2551236897000.0,0.6914084416930166,9.763795579456138,-2.370809599250158,0.054367006,0.0033597588,-0.037873644,56.99489,-70.951805,18.54538
2551241866000.0,0.6825713270073579,9.765706295901468,-2.384662378273155,0.058643065,0.0125227375,-0.04428773,57.03978,-71.1329,18.407928
2551246868000.0,0.6736755234940425,9.76762970174963,-2.398607156029853,0.054367006,0.02687807,-0.049480084,57.07729,-71.309265,18.27218
2551251858000.0,0.6733765633196936,9.767292972121048,-2.39537841925896,0.049480084,0.05009095,-0.04795292,57.107464,-71.48119,18.13846
2551257292000.0,0.6785766730738293,9.765472923797534,-2.3808181059744893,0.046731193,0.06261369,-0.03940081,57.134724,-71.64799,18.007513
2551261919000.0,0.683004517724618,9.763923169731852,-2.3684201358664208,0.04550946,0.07727446,-0.03970624,57.178585,-71.869286,17.830776
2551266835000.0,0.6877089232364565,9.762276618837776,-2.355247795029753,0.05131268,0.09193522,-0.032070424,57.215923,-72.07979,17.661499
2551271854000.0,0.6925118954219565,9.760595569420088,-2.3417994673936176,0.048258353,0.1001819,-0.034208454,57.248592,-72.28644,17.492138
2551276860000.0,0.6973024271534991,9.75891887418499,-2.3283859730428524,0.050701816,0.1020145,-0.024740042,57.27626,-72.48206,17.33103
2551281956000.0,0.7021790851047459,9.75721203460887,-2.3147313251779904,0.05955936,0.09865474,-0.02076942,57.300995,-72.67397,17.170538
2551286916000.0,0.7069255967684399,9.755550746481406,-2.301441087067764,0.07971791,0.099571034,-0.0106901415,57.32162,-72.85605,17.0172
2551291818000.0,0.7116166048683245,9.753908884707046,-2.2883062589999548,0.08093964,0.08582657,-0.018020526,57.345802,-73.03578,16.862902
2551296803000.0,0.7163870404819361,9.75223922315152,-2.274949033802479,0.076052725,0.07819075,-0.016493361,57.365696,-73.20486,16.716568
2551301797000.0,0.7211660887175183,9.750566547161892,-2.261567693253593,0.089491755,0.07696902,-0.022296581,57.385983,-73.3729,16.568705
2551306890000.0,0.726039875794775,9.74886071239714,-2.247921083839201,0.080634214,0.07360926,-0.02443461,57.40727,-73.533226,16.424957
2551311959000.0,0.7308906958801106,9.747162916123326,-2.2343387820285683,0.086132,0.058337633,-0.02321288,57.430626,-73.68927,16.28312
2551316819000.0,0.7355415117441332,9.74553512170811,-2.2213164922673383,0.08735373,0.04550946,-0.026267206,57.452515,-73.84146,16.141949
2551321800000.0,0.7403081195257581,9.743866799901074,-2.207969985003822,0.086437434,0.040011674,-0.029321533,57.474983,-73.98801,16.003613
2551326831000.0,0.7451225752072186,9.742181731237917,-2.194489503565808,0.08399397,0.02687807,-0.032070424,57.501816,-74.13007,15.866965
2551331866000.0,0.749940858720666,9.740495322826266,-2.180998304193833,0.07788532,0.026267206,-0.043066,57.52486,-74.270226,15.729457
2551336891000.0,0.7547495726541462,9.73881226378584,-2.167533899656759,0.0711658,0.017715093,-0.043066,57.55248,-105.59703,15.596699
2551341818000.0,0.7594645047039486,9.73716202858342,-2.1543320845017013,0.06169739,0.013439035,-0.038789943,57.57737,-105.46728,15.464395
2551346803000.0,0.7642349403175603,9.735492367027891,-2.140974859304225,0.06352998,0.018936822,-0.042760566,57.6003,-105.34,15.332092
2551351801000.0,0.7690178163851292,9.733818351289775,-2.12758280082138,0.0571159,0.022602014,-0.04184427,57.62352,-105.21981,15.204701
2551356835000.0,0.7738351429405799,9.73213227781525,-2.114094280932896,0.05100725,0.027794369,-0.039095376,57.64317,-105.10352,15.079013
2551361905000.0,0.7786869199839122,9.730434146604312,-2.1005092996387726,0.041233405,0.031154128,-0.050701816,57.660778,-104.98759,14.95174
2551366836000.0,0.7834056798657014,9.7287825716534,-2.087296766549755,0.035124753,0.026572637,-0.056505036,57.677895,-104.87823,14.829101
2551372843000.0,0.7891541265519533,9.726770604358707,-2.0712011092255347,0.039095376,0.043982297,-0.042760566,57.686253,-104.775276,14.711148
2551376870000.0,0.7930077964047145,9.725421812566513,-2.0604108292114454,0.03573562,0.064751714,-0.03573562,57.693653,-104.67241,14.591855
2551381862000.0,0.7977849307243032,9.72374980645113,-2.04703484762954,0.042455133,0.08582657,-0.02443461,57.69479,-104.57895,14.480036
2551386959000.0,0.8026625456335468,9.722042631937889,-2.033377520281188,0.04550946,0.09132435,-0.018936822,57.69332,-104.4893,14.370701
2551391836000.0,0.8073296297835135,9.720409143591588,-2.020309679300628,0.06505715,0.092240654,-0.01740966,57.68605,-104.40616,14.2656145
2551396871000.0,0.8121479132969609,9.71872273517994,-2.0068184799286537,0.071776666,0.09315695,-0.021380283,57.676186,-104.32612,14.16254
2551401854000.0,0.8169164349945791,9.717053743498658,-1.9934666136981576,0.07269296,0.09040806,-0.011301007,57.666374,-104.25446,14.065815
2551407584000.0,0.8223998043157417,9.715134553786893,-1.978113173300658,0.07452556,0.082161374,-0.009773844,57.656834,-104.18297,13.967348
2551416815000.0,0.8312334835833946,9.712042749209347,-1.9533788612047904,0.08032878,0.07147124,-0.0036651916,57.64812,-104.1191,13.874824
2551421812000.0,0.8360154026929668,9.710369068408353,-1.9399894822054349,0.07666359,0.06658431,0.0018325958,57.63927,-104.05822,13.784315
2551426804000.0,0.8407925370125555,9.708697062292968,-1.9266135006235288,0.082161374,0.07238753,0.016798794,57.629753,-104.005554,13.699973
2551431870000.0,0.845640486223901,9.707000270830523,-1.9130392372633664,0.09987647,0.059864793,0.018020526,57.6261,-103.954056,13.61459
2551437104000.0,0.8506492043786942,9.7052472099315,-1.8990148206768889,0.105068825,0.04917465,0.021991149,57.619648,-103.90984,13.535919
2551441860000.0,0.8552004966110587,9.703654248977022,-1.886271197198615,0.0983493,0.04642576,0.02321288,57.613678,-103.86823,13.458259
2551446813000.0,0.8599403095687757,9.701995305409415,-1.872999715472818,0.08552113,0.03481932,0.020463986,57.61259,-103.82911,13.381736
2551451797000.0,0.8690475709662104,9.700745397813996,-1.8575443034954096,0.06688975,0.020463986,0.022602014,57.612408,-103.79319,13.308272
2551456902000.0,0.8815087501596773,9.69976805632937,-1.840196391365429,0.061086524,0.016187929,0.0290161,57.61189,-103.76,13.236625
2551461834000.0,0.8935476406165195,9.698823835329923,-1.823436371262576,0.039095376,0.008246681,0.035124753,57.583393,-103.72423,13.180651
2551466844000.0,0.9057769271511462,9.697864681394964,-1.8064112900145437,0.03481932,0.0067195175,0.03726278,57.554268,-103.69132,13.1265955
2551471797000.0,0.9178670780904687,9.696916439989804,-1.7895799072956804,0.029321533,0.007330383,0.038179077,57.526897,-103.65907,13.074946
2551476799000.0,0.9300768368222458,9.695958817637974,-1.7725820118061282,0.015577064,-0.005192355,0.03848451,57.50382,-103.627304,13.024524
2551482664000.0,0.9443931572864348,9.69483597575603,-1.7526514526205577,0.005497787,-0.00030543262,0.026267206,57.47518,-103.59324,12.972204
2551486988000.0,0.9549479347266994,9.69400815507444,-1.7379575501621762,-0.0076358155,0.006414085,0.027794369,57.449886,-103.562584,12.924695
2551491823000.0,0.9667500505739888,9.693082504520444,-1.7215271573808917,-0.016493361,-0.0036651916,0.021685716,57.42761,-103.527016,12.872324
2551496806000.0,0.9789134307739978,9.692128519678546,-1.7045938280677293,-0.030543262,-0.0012217305,0.021685716,57.399845,-103.492905,12.823571
2551501791000.0,0.9910816929247191,9.691174151940867,-1.6876537023149467,-0.046731193,0.007330383,0.025350908,57.373184,-103.458115,12.775076
2551506877000.0,1.003496493586418,9.690200447966175,-1.6703703563613557,-0.0571159,0.014966198,0.01863139,57.34585,-103.42069,12.724668
2551511856000.0,1.0156501098850024,9.689247228915844,-1.653450619927433,-0.060170226,0.015577064,0.02107485,57.318424,-103.38685,12.678926
2551516824000.0,1.027776875454668,9.688296115792314,-1.6365682639114203,-0.07544186,0.0106901415,0.017715093,57.290188,-103.348465,12.630654
2551521799000.0,1.0399207278518274,9.687343662533548,-1.6196621203567376,-0.08002335,0.026267206,0.029626964,57.256287,-103.31644,12.588853
2551526801000.0,1.0521304865836043,9.686386040181716,-1.6026642248671854,-0.059253927,0.02076942,0.027183503,57.2297,-103.28144,12.54238
2551531864000.0,1.0644891448121103,9.685416739508524,-1.585459037969224,-0.03390302,0.021380283,0.027183503,57.19723,-103.25115,12.501345
2551536933000.0,1.0768624488927538,9.684446290147983,-1.5682334617524027,-0.044593163,0.006414085,0.040317107,57.171295,-103.223076,12.463764
2551541812000.0,1.0887719676557166,9.683512215886772,-1.5516535472994788,-0.047036625,-0.004276057,0.049785517,57.143913,-103.19793,12.426098
2551546803000.0,1.1009548756585754,9.682556699461744,-1.5346930322278365,-0.044898596,-0.004886922,0.055588737,57.118225,-103.17543,12.391799
2551551786000.0,1.1131182558585844,9.681602714619848,-1.517759702914674,-0.029626964,-0.00061086525,0.06841691,57.094627,-103.15902,12.362783
2551556882000.0,1.1255574662738457,9.680627096166244,-1.500442374762983,-0.023518313,0.0067195175,0.06352998,57.07006,-103.13927,12.3310795
2551561878000.0,1.137752579153485,9.679670622501762,-1.4834648685922909,-0.01863139,0.022907447,0.06811147,57.04215,-103.12736,12.3066225
2551566820000.0,1.1498158793638895,9.678724487023404,-1.4666708662913377,-0.005192355,0.043982297,0.06566802,57.0104,-103.114174,12.27965
2551571794000.0,1.1619572907856923,9.677772225212529,-1.4497681209564648,0.022907447,0.058337633,0.06414085,56.97605,-103.10489,12.255028
2551576804000.0,1.1741865773203193,9.676813071277568,-1.4327430397084326,0.025045475,0.079107046,0.06719518,56.933804,-103.09535,12.232217
2551581825000.0,1.1864427145838643,9.675851811415804,-1.4156805780424908,0.027794369,0.105068825,0.064751714,56.885754,-103.08726,12.208429
2551586858000.0,1.198728143551684,9.674888254179349,-1.3985773377388289,0.035124753,0.118507855,0.07422013,56.835785,-103.08426,12.189646
2551591812000.0,1.2108207354663627,9.673939821326297,-1.381742556800156,0.036651913,0.15363261,0.08124508,56.771976,-103.08003,12.171142
2551596804000.0,1.2230060844445778,9.672984113453378,-1.3647786435087037,0.048258353,0.16890424,0.0852157,56.710426,-103.079666,12.154795
2551601789000.0,1.2351743465952991,9.6720297457157,-1.3478385177559211,0.035124753,0.17806722,0.09315695,56.640984,-103.080055,12.142698
2551607904000.0,1.2501009108985413,9.670859041860954,-1.327058403617854,0.0027488936,0.1777618,0.09621128,56.570152,-103.07959,12.130873
2551611891000.0,1.259833079643762,9.6700957391187,-1.313509701235438,-0.01863139,0.16768251,0.10354166,56.500156,-103.082306,12.12284
2551616818000.0,1.271859765223823,9.669152475358713,-1.2967666722316349,-0.03481932,0.14905111,0.11026118,56.433224,-103.08292,12.115566
2551621795000.0,1.2840084995716947,9.66819963920416,-1.2798537322373322,-0.058337633,0.12950343,0.124005646,56.37027,-103.08439,12.112351
2551626802000.0,1.2962304631802528,9.667241059612875,-1.26283884564873,-0.07696902,0.09682214,0.12675454,56.316845,-103.08361,12.10731
2551631874000.0,1.308611090186965,9.666270035908662,-1.2456030747724784,-0.09560041,0.07391469,0.1441642,56.267345,-103.08789,12.11024
2551637058000.0,1.3212651064335728,9.665277570040631,-1.2279867032775087,-0.106595986,0.04734206,0.14080444,56.228287,-103.08626,12.107208
2551642019000.0,1.333374785175745,9.66432779705234,-1.211128134800166,-0.1142318,0.021991149,0.13836098,56.196262,-103.08783,12.10886
2551646805000.0,1.34505729323058,9.663411527445012,-1.1948642547895707,-0.1151481,0.0030543262,0.14721853,56.170498,-103.09109,12.112306
2551651839000.0,1.35170423519213,9.650078311203217,-1.188761090381264,-0.11911872,0.0021380284,0.13836098,56.1465,-103.087875,12.109858
2551656917000.0,1.354132690970013,9.627250830441188,-1.1909466982991683,-0.11301007,-0.020158553,0.1328632,56.134655,-103.088905,12.109886
2551662102000.0,1.3566123174387654,9.603942345259794,-1.1931783597907668,-0.09896017,-0.026572637,0.12461651,56.084312,-103.10541,12.157403
2551666836000.0,1.358876261836658,9.582661271229185,-1.195215907621283,-0.084910266,-0.019242255,0.11728613,56.037205,-103.121574,12.202476
2551671798000.0,1.36124924284687,9.560355253202168,-1.197351588300417,-0.07513642,-0.007330383,0.10262536,55.991024,-103.13481,12.242217
2551676810000.0,1.3636461353948717,9.537824466754888,-1.1995087893410905,-0.049785517,0.0027488936,0.095294975,55.944046,-103.15122,12.281312
2551681853000.0,1.366057853096302,9.515154323887044,-1.2016793330059174,-0.032375857,0.002443461,0.071776666,55.896694,-103.159676,12.310957
2551687018000.0,1.3685279149499388,9.491935746073755,-1.2039023863529,-0.008246681,0.0076358155,0.069027774,55.845882,-103.175,12.3441725
2551691874000.0,1.3708502035000374,9.4701062370977,-1.2059924438655716,0.002443461,0.012217305,0.067500606,55.79558,-103.18483,12.370513
2551697882000.0,1.373723413880802,9.44309806371876,-1.208578330508102,0.0106901415,0.008552114,0.06841691,55.746872,-103.19673,12.396247
2551701868000.0,1.3756296416733664,9.4251795252553,-1.2102939337299945,0.023518313,0.013439035,0.06414085,55.694904,-103.2083,12.41993
2551706848000.0,1.3780112308371826,9.40279259059699,-1.2124373617392823,0.04550946,0.008246681,0.058337633,55.64759,-103.22131,12.442702
2551712118000.0,1.380531506920177,9.379101999101149,-1.214705607845497,0.047036625,0.0027488936,0.058948494,55.59964,-103.234085,12.465792
2551716876000.0,1.3828069288562084,9.357713036228809,-1.216753485449552,0.06841691,0.014049901,0.053145275,55.54861,-103.24745,12.485314
2551721894000.0,1.3852066907887444,9.335155277571095,-1.2189132689336095,0.07544186,0.008246681,0.04642576,55.504753,-103.259384,12.5039015
2551726866000.0,1.387584454106514,9.312804305860029,-1.2210532536850516,0.08093964,0.0106901415,0.04550946,55.45574,-103.27308,12.522637
2551731850000.0,1.3899679561933531,9.290399389728098,-1.223198403323263,0.0852157,0.009773844,0.033292156,55.40954,-103.28231,12.535771
2551737171000.0,1.392512622044893,9.266479534443585,-1.2254886001982472,0.11056661,0.019547688,0.025961773,55.360107,-103.29499,12.550096
2551741874000.0,1.394761741289356,9.245337816833535,-1.2275128054046092,0.11789699,0.014660766,0.014660766,55.315407,-103.30193,12.559289
2551746868000.0,1.3971500256837532,9.222887947017552,-1.2296622591151285,0.12675454,0.00030543262,0.0012217305,55.270912,-103.30876,12.565674
2551751862000.0,1.3995383100781504,9.200438077201568,-1.2318117128256474,0.13713925,-0.0018325958,-0.0125227375,55.224533,-103.313255,12.56887
2551756856000.0,1.4019265944725474,9.177988207385583,-1.2339611665361665,0.13805555,-0.013439035,-0.038789943,55.184986,-103.3107,12.564162
2551761954000.0,1.4043646148655464,9.15507081925545,-1.2361553825986868,0.1423316,-0.006414085,-0.055588737,55.140957,-103.30837,12.558721
2551768076000.0,1.407292343552471,9.127550173878303,-1.2387903356655263,0.14110987,-0.014660766,-0.07422013,55.104588,-103.29824,12.544925
2551771879000.0,1.409111055116726,9.110454287833011,-1.2404271743641857,0.12308934,-0.032070424,-0.08582657,55.0691,-103.28459,12.528652
2551776878000.0,1.4115017306649025,9.087981941175002,-1.2425787801108588,0.12034045,-0.008246681,-0.09682214,55.02399,-103.26781,12.50842
2551781862000.0,1.4138852327517415,9.065577025043073,-1.24472392974907,0.121256754,0.01740966,-0.092240654,54.983974,-103.251205,12.489482
2551786882000.0,1.416285951145789,9.043010275648548,-1.2468845740475891,0.12522738,0.018936822,-0.10140363,54.944023,-103.22848,12.4640255
2551791894000.0,1.4186828436937904,9.02047948920127,-1.2490417750882623,0.1282817,0.013439035,-0.12156218,54.899063,-103.204506,12.437652
2551796885000.0,1.4210696933959202,8.9980431054905,-1.2511899375770894,0.13439035,0.022907447,-0.13500121,54.84983,-103.181076,12.411492
2551801879000.0,1.4234579777903174,8.975593235674516,-1.2533393912876083,0.12675454,0.036651913,-0.14721853,54.801113,-103.15213,12.380541
2551806860000.0,1.4258400451848894,8.953201805647799,-1.2554832497041273,0.13347405,0.03726278,-0.15088372,54.75398,-103.124504,12.34883
2551812141000.0,1.428365581806197,8.929461765099498,-1.2577562302898806,0.14630222,0.019242255,-0.15210545,54.70872,-103.094826,12.31497
2551816886000.0,1.4306347867424034,8.90813124201643,-1.2597985125999351,0.17928895,0.0033597588,-0.14721853,54.663395,-103.06916,12.282628
2551821870000.0,1.4330182888292426,8.885726325884498,-1.2619436622381466,0.19883664,-0.016493361,-0.14630222,54.624943,-103.04276,12.249079
2551826858000.0,1.4354037038391052,8.863303428278945,-1.2640905335052808,0.24037547,-0.028710667,-0.13775012,54.589615,-103.02577,12.219654
2551831873000.0,1.4378020310793738,8.840759155726449,-1.2662490257676464,0.30024028,-0.045814894,-0.13133603,54.561813,-103.01287,12.190054
2551836876000.0,1.440194619550573,8.818268827594817,-1.2684023531432425,0.35796702,-0.06414085,-0.12156218,54.53841,-103.00772,12.16422
2551841872000.0,1.4425838604064818,8.795809967042022,-1.270552667668223,0.4129449,-0.08368854,-0.115453534,54.520435,-103.00966,12.139404
2551846868000.0,1.4449731012623903,8.773351106489226,-1.272702982193204,0.46975538,-0.09896017,-0.11484267,54.50652,-103.01943,12.116081
2551851863000.0,1.4393914913067278,8.76961093600588,-1.2944672036023877,0.52564955,-0.110872045,-0.1151481,54.497143,-103.03687,12.094435
2551856871000.0,1.426684077483078,8.782558095868703,-1.3337882528800105,0.5467244,-0.102319926,-0.09987647,54.486233,-103.0616,12.078123
2551862062000.0,1.413512315270904,8.795978364807983,-1.3745461535988883,0.56230146,-0.1001819,-0.09285152,54.47601,-103.11537,12.078175
2551866841000.0,1.401385971288631,8.80833349200136,-1.4120691756631374,0.56413406,-0.098043874,-0.08460484,54.463036,-103.17489,12.083508
2551871859000.0,1.3886531832361,8.821306504819182,-1.45146874141296,0.54458636,-0.083383106,-0.07880162,54.445232,-103.23536,12.090861
2551876860000.0,1.3759635313726668,8.834235567613506,-1.4907348291600429,0.5155703,-0.076358154,-0.08399397,54.428314,-103.29449,12.097565
2551881862000.0,1.3632713420863454,8.847167215703331,-1.530008768554346,0.49388456,-0.07696902,-0.0842994,54.409134,-103.35511,12.107726
2551886961000.0,1.3503330227798775,8.860349637456633,-1.5700443177289862,0.4728097,-0.07422013,-0.080634214,54.3865,-103.412056,12.11804
2551891882000.0,1.337846364747493,8.873071876610977,-1.6086822736984714,0.44929138,-0.06963864,-0.07880162,54.363125,-103.46548,12.127983
2551896859000.0,1.3252176110333744,8.885938892313307,-1.6477599219122752,0.4279111,-0.06047566,-0.08124508,54.337334,-103.51625,12.138129
2551901860000.0,1.312527959169941,8.898867955107633,-1.687026009659358,0.4251622,-0.063224554,-0.09010262,54.313343,-103.56507,12.146875
2551907114000.0,1.2991963393158164,8.912451097663398,-1.728278564153094,0.4202753,-0.067500606,-0.108123146,54.28668,-103.60775,12.152653
2551911863000.0,1.2871461180201866,8.924728665991783,-1.765566036800744,0.42363504,-0.082161374,-0.11178834,54.26394,-103.652374,12.159743
2551916883000.0,1.2744082551218794,8.937706849400602,-1.8049813058450064,0.43188173,-0.079107046,-0.124311075,54.23637,-103.69004,12.159835
2551921855000.0,1.2617921885222012,8.950560938625435,-1.8440196958227104,0.44593164,-0.07147124,-0.13347405,54.21163,-103.72876,12.159792
2551926859000.0,1.2490949243901035,8.963497757306259,-1.8833093385114528,0.45478916,-0.05100725,-0.14752395,54.18161,-103.763435,12.155623
2551932935000.0,1.2336775429219533,8.97920601276283,-1.9310159470200068,0.45204028,-0.0027488936,-0.15332718,54.141193,-103.7982,12.152733
2551937105000.0,1.2230964894785388,8.989986694996851,-1.9637573159272923,0.4605924,0.029932396,-0.13775012,54.099644,-103.83757,12.152549
2551941872000.0,1.211000594570923,9.002310798644231,-2.001186118224902,0.47067168,0.046731193,-0.14813483,54.04785,-103.86885,12.144838
2551946866000.0,1.1983287046677065,9.015221764370056,-2.0403972444414453,0.47219884,0.04184427,-0.17745635,53.993095,-103.89926,12.136877
2551951858000.0,1.1856618896102664,9.028127559504885,-2.0795926673635483,0.4813618,0.05009095,-0.18997909,53.930252,-103.93373,12.13214
2551956865000.0,1.1729570132095044,9.041072134072207,-2.118905864993951,0.49357912,0.04337143,-0.20280726,53.87261,-103.961624,12.11885
2551961851000.0,1.160305422689393,9.053962417434036,-2.1580541780327347,0.5027421,0.04062254,-0.22632557,53.811028,-103.98482,12.099983
2551966838000.0,1.1476512947463933,9.066855286091364,-2.197210342718738,0.53023106,0.01863139,-0.24617869,53.75709,-104.01042,12.07826
2551971871000.0,1.1348804453505403,9.079867078341682,-2.23672768317686,0.5543602,0.0067195175,-0.27916542,53.700104,-104.028244,12.047159
2551976894000.0,1.1221349701835688,9.092853017637005,-2.276166507162783,0.5873469,-0.004581489,-0.30787608,53.649048,-104.04812,12.011791
2551981905000.0,1.1094199440912544,9.105807933386323,-2.315511111382065,0.6056729,-0.02565634,-0.3231477,53.60381,-104.06535,11.971152
2551986910000.0,1.096720142536269,9.118747337362649,-2.354808605718028,0.6258314,-0.04917465,-0.35521814,53.561012,-104.07758,11.918317
2551991920000.0,1.0840076538668426,9.131699667816472,-2.394145358290091,0.65576386,-0.053145275,-0.37598756,53.518562,-104.09418,11.865622
2551996867000.0,1.071455022839367,9.14448912465381,-2.432987457087296,0.6606508,-0.079107046,-0.4025602,53.48784,-104.1021,11.801943
2552001872000.0,1.0587552212843816,9.157428528630131,-2.472284951423258,0.675617,-0.0852157,-0.4202753,53.451946,-104.11466,11.737063
2552006847000.0,1.0461315424160391,9.170290373741464,-2.511346896342622,0.68936145,-0.099571034,-0.43371433,53.424934,-104.123985,11.666249
2552011902000.0,1.0333048697166485,9.183359042492777,-2.5510369730395834,0.6826419,-0.105068825,-0.44440445,53.39637,-104.13035,11.593075
2552016862000.0,1.0207192521916275,9.19618210817161,-2.589981143250648,0.6786713,-0.116675265,-0.45906523,53.372795,-104.13679,11.515969
2552021850000.0,1.0080625868257396,9.20907756212444,-2.629145159583871,0.6606508,-0.129198,-0.46609017,53.35075,-104.14057,11.439584
2552026850000.0,0.9953754723851944,9.222004039623265,-2.668403395683734,0.6597345,-0.112399206,-0.47494772,53.322674,-104.14418,11.361146
2552031977000.0,0.9823661052378596,9.23525884965056,-2.7086587909805333,0.65576386,-0.10476339,-0.47891834,53.30061,-104.14523,11.283113
2552037012000.0,0.9695901809962306,9.248275812491876,-2.748191834733096,0.65240407,-0.11881329,-0.46517387,53.280224,-104.14963,11.209246
2552041864000.0,0.9572786051431256,9.260819666256737,-2.7862880270444026,0.6640105,-0.122783914,-0.4465425,53.254745,-104.157455,11.138244
2552046885000.0,0.9445382048219304,9.273800434961055,-2.825711147735885,0.6737844,-0.111177474,-0.41233405,53.23004,-104.172165,11.077365
2552051864000.0,0.9136581952152676,9.277664384949349,-2.821703613712012,0.7107417,-0.10415252,-0.37323865,53.20874,-104.200005,11.024382
2552056834000.0,0.8663025598589001,9.27335968885673,-2.778652966642547,0.74128497,-0.12034045,-0.34697145,53.191612,-104.233955,10.978296
2552061886000.0,0.7994923622619048,9.231044128720235,-2.712046171875,0.7626653,-0.17195857,-0.3203988,53.218674,-104.32583,10.847619
2552066848000.0,0.6934206777083334,9.107293639322917,-2.5971351679687498,0.7819075,-0.20769419,-0.29260445,53.244858,-104.43357,10.727636
2552071837000.0,0.5776228665636105,9.0134075460199,-2.5021840337597725,0.81031275,-0.20769419,-0.28619036,53.26078,-104.52896,10.576397
2552076867000.0,0.4107179034861407,9.086161115671642,-2.5193024786780382,0.818254,-0.20769419,-0.2941316,53.284935,-104.632095,10.431225
2552081877000.0,0.2444765784328358,9.158625406716418,-2.536352858208955,0.8210029,-0.2144137,-0.29779682,53.28626,-104.70361,10.223266
2552087170000.0,-0.0077383720591243,9.182282568745933,-2.66312402254346,0.8136725,-0.20433442,-0.34300083,53.278168,-104.77265,10.009212
2552093430000.0,-0.303312278676822,9.20094157646356,-2.830812931700517,0.74464476,-0.14630222,-0.34880406,53.258385,-104.843124,9.814231
2552096873000.0,-0.3656864297311828,9.177961505376343,-2.9785412157706093,0.6960809,-0.11942416,-0.35888332,53.19854,-104.86382,9.461997
2552101860000.0,-0.456032026974313,9.14467611051374,-3.192517676025488,0.6805039,-0.056505036,-0.4071417,53.07274,-104.85204,8.880901
2552106847000.0,-0.4454250989018303,9.002612414309484,-3.3245063334442597,0.6203337,0.0027488936,-0.464563,52.945663,-104.85367,8.33073
2552111804000.0,-0.4009939294561148,8.82488829326123,-3.428179081052413,0.5742133,0.008857546,-0.52290064,52.81951,-104.87935,7.799542
2552116835000.0,-0.3420266737471222,8.661336926144212,-3.460305992596004,0.5589417,0.007330383,-0.5555819,52.658615,-104.970436,7.0868196
2552121785000.0,-0.280909378393038,8.504177958928079,-3.4755853056082517,0.5561928,0.034208454,-0.52198434,52.49552,-105.100296,6.426082
2552126857000.0,-0.2182857577797219,8.343145578782577,-3.491241199668478,0.5720753,0.0070249503,-0.50335294,52.34792,-105.32762,5.684358
2552131905000.0,-0.1559584634469104,8.182875181508427,-3.5068230122110693,0.6093381,-0.04153884,-0.5012149,52.2017,-105.6022,4.9937596
2552136824000.0,-0.0856993790333701,8.012968386471004,-3.57174552278621,0.634689,-0.10567969,-0.505491,52.09447,-105.92466,4.322078
2552141896000.0,-0.0027010277795758,7.822560642979194,-3.69380193593326,0.65087694,-0.16493362,-0.5299256,51.995365,-106.27861,3.6761749
2552146864000.0,0.0433517493797603,7.69821593893881,-3.865087775053488,0.66675943,-0.18784106,-0.5140431,51.919056,-106.65529,3.1801324
2552151856000.0,0.0535801229458707,7.636845845999144,-4.090112161189559,0.6747007,-0.19058995,-0.49754974,51.84697,-107.04309,2.690791
2552156859000.0,-0.0313065278765147,7.559155714598961,-4.267118733554529,0.6881397,-0.15760323,-0.46578476,51.769615,-107.49093,2.233363
2552161867000.0,-0.1742936550317368,7.471518315406809,-4.414718191142527,0.69027776,-0.14294247,-0.44715336,51.69271,-107.941765,1.7900996
2552166813000.0,-0.418955233683047,7.30336268741835,-4.548630007888654,0.70005155,-0.09712757,-0.4089743,51.58632,-108.45879,1.3618168
2552171865000.0,-0.759297106556125,7.060261371409909,-4.675042816088835,0.68019843,-0.06872234,-0.3979787,51.474056,-108.96635,0.9466066
2552176859000.0,-1.0774141096,6.844454991707317,-4.790253430536586,0.68111473,-0.025350908,-0.42241332,51.337284,-109.54093,0.4829769
2552181850000.0,-1.38052233096,6.648600360878049,-4.897507001590244,0.679893,0.00061086525,-0.4642576,51.191082,-110.10479,0.0374209
2552186846000.0,-1.5493729798624754,6.644497533497053,-5.008867445972496,0.68477994,0.02076942,-0.5030475,51.014393,-110.77356,-0.555513
2552191839000.0,-1.5835340977853187,6.832383570601893,-5.124161246829791,0.6795876,0.014049901,-0.54519725,50.82834,-111.43108,-1.1300237
2552196780000.0,-1.6308949894774962,7.015898178954992,-5.204896033523021,0.68233645,0.00030543262,-0.57604593,50.598843,-112.23301,-1.8895981
2552201867000.0,-1.7216254898603207,7.1973591797206415,-5.18473382876358,0.70463306,-0.0125227375,-0.5928447,50.36577,-113.02036,-2.6060605
2552207006000.0,-1.7332690883339343,7.435948340714028,-5.163731231482149,0.7247916,-0.076358154,-0.61483586,50.168858,-113.77596,-3.2717187
2552211874000.0,-1.6029754357194377,7.75958063469167,-5.142715884132708,0.75747293,-0.14019357,-0.61453044,49.97316,-114.52062,-3.8990042
2552216859000.0,-1.4866351999370606,8.054651561628027,-5.096271439127242,0.81489426,-0.20280726,-0.60903263,49.819443,-115.221985,-4.495035
2552221813000.0,-1.5065422458617437,8.059628427042902,-4.852410022616175,0.8695667,-0.30482176,-0.625526,49.687126,-115.91484,-5.080625
2552226846000.0,-1.4978952245125083,8.104113539712737,-4.641459934015029,0.95630956,-0.40866885,-0.6270532,49.59587,-116.521225,-5.551576
2552232089000.0,-1.3689404153143727,8.314262435365738,-4.574594453381527,0.9950995,-0.4801401,-0.54061574,49.528915,-117.11136,-5.9966154
2552236928000.0,-1.264705476380211,8.487885881901056,-4.527056416562532,1.0390818,-0.5143485,-0.5112942,49.49334,-117.666336,-6.446901
2552241848000.0,-1.2695316421079588,8.512016710539793,-4.584970405295504,1.0601566,-0.52106804,-0.47983465,49.477802,-118.20785,-6.867771
2552246885000.0,-1.2765004983047656,8.519705357129403,-4.642833604426445,1.0592403,-0.49938235,-0.46670106,49.4732,-118.69298,-7.230946
2552251809000.0,-1.2942651569222077,8.435323541721605,-4.691686473592013,1.0192287,-0.48991394,-0.43218717,49.478374,-119.15872,-7.574428
2552257195000.0,-1.3152326515995871,8.334925670175437,-4.7602384369659445,0.9691377,-0.44959682,-0.40225476,49.465332,-119.62116,-7.9028254
2552261983000.0,-1.348357063364293,8.169302870175438,-4.963717467554179,0.91446525,-0.40744713,-0.39522982,49.449245,-120.05998,-8.218332
2552266850000.0,-1.377039622661552,8.019827963115963,-5.164445176689289,0.8539896,-0.34422258,-0.4025602,49.413746,-120.49507,-8.521963
2552271798000.0,-1.353735842077309,8.066435621618963,-5.3042680061965175,0.79626286,-0.31245756,-0.39828414,49.376846,-120.9045,-8.811426
2552277056000.0,-1.3228707058625335,8.10777977897574,-5.447176442048518,0.77549344,-0.2678644,-0.40225476,49.28958,-121.36451,-9.105381
2552281902000.0,-1.2368697986185984,8.068688494609164,-5.525359010781671,0.71593404,-0.21533,-0.39370266,49.193993,-121.7857,-9.380265
2552286807000.0,-1.149821831216307,8.02912127425876,-5.60449345148248,0.7067711,-0.16829337,-0.39828414,49.07219,-122.22682,-9.638624
2552291811000.0,-1.0255306475392052,8.132899475885196,-5.653318459019627,0.66920286,-0.12308934,-0.410196,48.937794,-122.63335,-9.8807125
2552296816000.0,-0.8837062545024164,8.307816796626886,-5.686410991813788,0.66828656,-0.101098195,-0.42058071,48.797207,-123.037384,-10.1118
2552301809000.0,-0.8445092184229919,8.404110877855564,-5.601920284266765,0.655153,-0.06841691,-0.41874814,48.628864,-123.43918,-10.307399
2552307067000.0,-0.863062945173176,8.459771767501843,-5.444213510022108,0.6542367,-0.0693332,-0.40530908,48.46424,-123.834,-10.497148
2552311858000.0,-0.841419051673535,8.563696414916073,-5.347144527852046,0.6609562,-0.093462385,-0.40439278,48.300533,-124.197174,-10.642939
2552316823000.0,-0.7792886815358328,8.726190998793848,-5.2945728182329885,0.6603453,-0.09896017,-0.3912592,48.13735,-124.54739,-10.774804
2552321802000.0,-0.7828814896728485,8.813054753281934,-5.315098066263805,0.6585127,-0.109650314,-0.3707952,48.003574,-124.85898,-10.911187
2552326805000.0,-0.8577608141654511,8.818046806938947,-5.41493705438633,0.6569856,-0.13622294,-0.33567044,47.88015,-125.160965,-11.040001
2552332055000.0,-0.9293030248394408,8.853376218171515,-5.497439895636569,0.6417139,-0.14782938,-0.31642818,47.776638,-125.42688,-11.149444
2552337085000.0,-0.9929976278995089,8.907971765961467,-5.561134384680771,0.60231316,-0.14660765,-0.31612277,47.67948,-125.67851,-11.254061
2552341869000.0,-1.0289777928083528,8.958587910226386,-5.663136397833724,0.5729916,-0.13072516,-0.3136793,47.57918,-125.94058,-11.364368
2552346867000.0,-1.0383191464968773,9.00996469711163,-5.817268221604216,0.55771995,-0.12644911,-0.310625,47.482018,-126.18996,-11.472823
2552351860000.0,-1.0692205013593796,9.06390367928708,-5.93228853676367,0.528093,-0.099265605,-0.30818152,47.378822,-126.43251,-11.585006
2552356947000.0,-1.13299291798409,9.122770683012789,-5.991155181925285,0.48288897,-0.064446285,-0.32925636,47.26992,-126.66321,-11.696616
2552361913000.0,-1.188778669366862,9.200325164397176,-6.050341984106948,0.4392121,-0.036957346,-0.33658674,47.148575,-126.90264,-11.797858
2552366845000.0,-1.2357250738992147,9.3036076955571,-6.111372457061923,0.3839288,0.023823744,-0.3200934,47.01239,-127.12102,-11.883899
2552371876000.0,-1.2821926355017046,9.391393319865475,-6.115812552326546,0.32803464,0.055588737,-0.31245756,46.87515,-127.33075,-11.982222
2552376863000.0,-1.326198487772966,9.453001586565923,-6.036602009048189,0.28863382,0.115453534,-0.3023783,46.72121,-127.52345,-12.058199
2552381883000.0,-1.3698008402066293,9.500193,-5.997694769780456,0.23060162,0.15424347,-0.2843578,46.572075,-127.69263,-12.133532
2552386857000.0,-1.410812465863108,9.500193,-6.087920517520447,0.16279559,0.17684549,-0.26236662,46.416542,-127.84327,-12.1955385
2552391907000.0,-1.4524507267326734,9.500193,-6.179524865346535,0.105374254,0.19547687,-0.2501493,46.27436,-127.9604,-12.2587595
2552396874000.0,-1.5295482017980897,9.323716590185429,-6.256386872335644,0.07391469,0.19547687,-0.23609942,46.13673,-128.06161,-12.313591
2552401818000.0,-1.6093626876568643,9.133048021539611,-6.331767176362614,0.03481932,0.17928895,-0.25381452,45.99652,-128.14542,-12.370575
2552406897000.0,-1.6486196799853974,9.016420381582549,-6.5104964060418,0.024129177,0.1872302,-0.24556783,45.853657,-128.24194,-12.41994
2552411815000.0,-1.6744107456238022,8.926152168020442,-6.712526248151867,0.02076942,0.18906279,-0.23457226,45.714928,-128.32956,-12.474394
2552418003000.0,-1.792916241249107,8.879321414736197,-6.894997946423104,0.0106901415,0.18692477,-0.23335053,45.56174,-128.4546,-12.550302
2552421867000.0,-1.894878601000102,8.87176849545872,-6.985631006123074,-0.0070249503,0.16798794,-0.25473082,45.411766,-128.5751,-12.628697
2552426858000.0,-2.0043432343367167,8.951951115855794,-7.07914901559328,-0.004581489,0.15943582,-0.24678956,45.245186,-128.74309,-12.701846
2552431937000.0,-2.1022373594154704,9.08815169180959,-7.160018224229962,-0.0021380284,0.14905111,-0.24404067,45.08091,-128.90488,-12.781344
2552436995000.0,-2.1977151511336075,9.243147652957925,-7.2465455824739005,-0.029626964,0.16126843,-0.22327125,44.915607,-129.08243,-12.876472
2552441884000.0,-2.286587715870505,9.425830141410946,-7.34035545463461,-0.04428773,0.17073683,-0.19975294,44.756596,-129.25842,-12.968404
2552446866000.0,-2.427666403009535,9.51412110548272,-7.435585830691299,-0.064446285,0.15851954,-0.18417588,44.610657,-129.41972,-13.06955
2552451858000.0,-2.6318497641537544,9.48088176340882,-7.530554713647199,-0.09315695,0.17959438,-0.17379116,44.460228,-129.56836,-13.15516
2552456855000.0,-2.746668542534928,9.54813308254954,-7.599830538033056,-0.12461651,0.19272798,-0.16310102,44.3237,-129.7026,-13.2473345
2552461954000.0,-2.742209396959182,9.753253872157794,-7.63550388888686,-0.15882497,0.2049453,-0.15485434,44.186028,-129.82375,-13.3305235
2552466814000.0,-2.7389667,9.902418,-7.6614456,-0.18661933,0.20708331,-0.1423316,44.046246,-129.96307,-13.446461
2552471861000.0,-2.7389667,9.902418,-7.6614456,-0.22266038,0.20861048,-0.13041973,43.907623,-130.08598,-13.553909
2552476776000.0,-2.703417242744657,9.964629712598429,-7.665889278290214,-0.26389378,0.21380283,-0.09285152,43.786182,-130.17003,-13.637846
2552481984000.0,-2.5912102285714287,10.1609925,-7.679915142857143,-0.33353242,0.23487769,-0.05681047,43.664654,-130.23314,-13.712823
2552486929000.0,-2.503474763017495,10.28769923176858,-7.696765959812922,-0.42363504,0.21533,-0.023518313,43.557518,-130.27289,-13.782614
2552491930000.0,-2.478586363502512,10.2130333402044,-7.725802425913736,-0.5149594,0.21471913,0.023518313,43.452072,-130.28712,-13.831638
2552496867000.0,-2.454016471799757,10.13932298094578,-7.75446729956695,-0.5882632,0.21594086,0.06414085,43.355305,-130.25243,-13.849963
2552501875000.0,-2.4516625,10.112362352515348,-7.800990624466233,-0.63407815,0.23060162,0.101098195,43.26466,-130.19717,-13.85546
2552506895000.0,-2.4516625,10.090335624759462,-7.849449425529185,-0.6899723,0.25503623,0.1337795,43.17912,-130.11748,-13.850388
2552511984000.0,-2.4482255010773373,10.03282201616006,-7.955357370911889,-0.72418076,0.27000242,0.15302174,43.08845,-130.04352,-13.835876
2552516863000.0,-2.4437309640246245,9.965403960369374,-8.076709871335128,-0.7648033,0.30024028,0.1826487,42.99749,-129.95044,-13.8049555
2552521826000.0,-2.4451676989465154,9.916069137155592,-8.176607852309562,-0.80481493,0.32895094,0.20250183,42.894676,-129.85896,-13.7700815
2552526834000.0,-2.450025945948136,9.877203364059968,-8.264056095421394,-0.80909103,0.35430184,0.22266038,42.792328,-129.7653,-13.724475
2552531963000.0,-2.4969087364934115,9.83394688433382,-8.31764579648609,-0.8481864,0.3643811,0.23976462,42.67756,-129.67921,-13.673936
2552536907000.0,-2.561899263286969,9.790619926793555,-8.352308086383601,-0.8729264,0.3640757,0.24770586,42.563065,-129.59647,-13.619335
2552541833000.0,-2.605033184963286,9.836372115675216,-8.447877524529105,-0.88056225,0.38087448,0.27122417,42.441517,-129.52315,-13.554839
2552546828000.0,-2.6253955307651378,9.978907951580291,-8.610775546770245,-0.87781334,0.419359,0.30970868,42.321022,-129.44533,-13.482535
2552551815000.0,-2.6678887518958003,10.049672530546028,-8.710853669324186,-0.88697636,0.4783075,0.3408628,42.194042,-129.3784,-13.415516
2552557085000.0,-2.7287125250486697,10.0730663082414,-8.771677295911745,-0.9089675,0.50335294,0.364992,42.073742,-129.30684,-13.341694
2552561878000.0,-2.7361748922221087,10.1524080390936,-8.812057703888946,-0.9309586,0.5030475,0.39064834,41.943344,-129.23296,-13.250446
2552566849000.0,-2.6875821875165866,10.303046032560989,-8.836354056241706,-0.9465357,0.5045747,0.43004912,41.815872,-129.15251,-13.147736
2552571817000.0,-2.6769339466101694,10.418754519774012,-8.859384446327685,-0.95111716,0.5323691,0.44990227,41.67983,-129.08012,-13.050911
2552576823000.0,-2.7075144756971024,10.49738986622927,-8.88122764880627,-0.9816604,0.5681047,0.48258355,41.553234,-128.99277,-12.942372
2552581889000.0,-2.7321378453772582,10.575623906482466,-8.888609535600425,-1.0458013,0.6047566,0.51893,41.43005,-128.8761,-12.8109255
2552586886000.0,-2.7413842988117088,10.649596016713362,-8.860870416674716,-1.105666,0.6178902,0.5540548,41.31167,-128.75177,-12.673014
2552591826000.0,-2.7552913636842105,10.716991772039474,-8.836018997697368,-1.1643091,0.6386596,0.5888741,41.18486,-128.60121,-12.522808
2552596824000.0,-2.7867813942105264,10.764226708223685,-8.820273653618422,-1.2140946,0.68019843,0.6267477,41.058784,-128.43695,-12.361423
2552601822000.0,-2.8076030168738746,10.81704200351539,-8.804267099116865,-1.2925909,0.70341134,0.6603453,40.94323,-128.23552,-12.193381
2552606974000.0,-2.811833417148246,10.880498670239218,-8.78734540967161,-1.3680327,0.71685034,0.70402217,40.830196,-128.02194,-12.012966
2552611975000.0,-2.817268538054436,10.936713,-8.77530818608871,-1.4492778,0.7443393,0.7443393,40.712685,-127.781265,-11.825937
2552616831000.0,-2.836020677167338,10.936713,-8.808124368346773,-1.5271631,0.7473936,0.79168135,40.607826,-127.52269,-11.633623
2552621916000.0,-2.858184459255632,10.935424230166502,-8.843259354358471,-1.6102408,0.7611381,0.82833326,40.507133,-127.23113,-11.428317
2552626788000.0,-2.9038829603330067,10.921714870714984,-8.884387909892263,-1.6982054,0.7806858,0.87964594,40.41556,-126.91928,-11.212392
2552631895000.0,-2.950253461171625,10.907386026361555,-8.926578935286042,-1.777007,0.7984009,0.9239337,40.320683,-126.59695,-10.995341
2552636849000.0,-2.9632814155514877,10.894357799908466,-8.948292192585813,-1.8713857,0.79779,0.9798279,40.236675,-126.24974,-10.769061
2552641782000.0,-2.9762541444485127,10.881384800091531,-8.969913407414188,-1.9394971,0.81245077,1.0360274,40.145584,-125.90174,-10.539992
2552646862000.0,-2.99746630974426,10.84109318051148,-8.96202011508307,-2.0280726,0.81031275,1.0781772,40.06604,-125.528595,-10.309871
2552651802000.0,-3.019544614765727,10.796936570468546,-8.948772855422812,-2.0995438,0.8176431,1.1252137,39.99102,-125.14641,-10.067604
2552656978000.0,-3.0202452880709574,10.708164008184076,-8.908583517182278,-2.196366,0.81245077,1.1682798,39.92595,-124.74905,-9.829494
2552661964000.0,-3.012061223489588,10.605863414559945,-8.859479386065644,-2.2907448,0.8164214,1.217149,39.865376,-124.33925,-9.582582
2552666899000.0,-2.981652924503704,10.484041165037036,-8.80798933274074,-2.3747387,0.8240572,1.2348641,39.802494,-123.91959,-9.344655
2552671907000.0,-2.9153369637728392,10.32772454439506,-8.751146925234567,-2.4217753,0.8368854,1.2776246,39.748924,-123.49008,-9.0942955
2552676833000.0,-2.8545521803810296,10.169197867450343,-8.679595460883665,-2.5164595,0.8323039,1.3130548,39.6975,-123.04416,-8.854801
2552682095000.0,-2.7983781441021485,9.990462636805836,-8.572354749087962,-2.6013696,0.8512407,1.3610078,39.645607,-122.59602,-8.603127
2552686874000.0,-2.744060438160256,9.796476554116008,-8.46287213753239,-2.6984973,0.8793405,1.4040737,39.589123,-122.13678,-8.3483095
2552691905000.0,-2.68163758114411,9.541983363962528,-8.328421996810844,-2.8069258,0.9071349,1.4514158,39.53568,-121.66045,-8.085272
2552696835000.0,-2.618601650851192,9.278098082715802,-8.20346372962147,-2.9000828,0.926988,1.4929546,39.467396,-121.173935,-7.8176537
2552701875000.0,-2.550932913018226,8.983255559182856,-8.087460453034248,-2.9965994,0.9465357,1.5338826,39.399395,-120.668076,-7.542457
2552707032000.0,-2.487683739731532,8.697460256597571,-7.976481142617112,-3.0995302,0.9746355,1.5870279,39.31083,-120.1623,-7.2679553
2552711929000.0,-2.4362938588530727,8.449075347913434,-7.882266368459502,-3.2039883,0.9810496,1.6337591,39.229218,-119.64276,-6.9931474
2552716880000.0,-2.3892977549664063,8.198224265480299,-7.791202805738151,-3.3060026,1.0085385,1.6780468,39.138767,-119.07822,-6.680642
2552721860000.0,-2.3633167504267294,7.947074735790812,-7.7175899595424,-3.4095445,1.028697,1.7244726,39.055637,-118.49969,-6.365935
2552727211000.0,-2.3355208666369225,7.674558370414436,-7.640339783561372,-3.522249,1.0497719,1.774869,38.96416,-117.8397,-5.99606
2552731912000.0,-2.3132023960539363,7.388883363870712,-7.604630174697601,-3.6157115,1.0790935,1.8252654,38.870438,-117.175385,-5.622602
2552737299000.0,-2.288638799156637,7.062224677984714,-7.56545910143196,-3.7100902,1.110553,1.87444,38.770332,-116.43477,-5.199182
2552742019000.0,-2.2846677876482477,6.788221898401124,-7.561488131388914,-3.8169916,1.1420126,1.9285016,38.667,-115.685394,-4.7709656
2552746872000.0,-2.2805848811121847,6.506498277782659,-7.557405267486603,-3.9107592,1.1517864,1.9792033,38.558666,-114.88563,-4.3018827
2552751849000.0,-2.298860404416153,6.188023073204695,-7.536520063735827,-4.0289617,1.1582005,2.0250182,38.44525,-114.0718,-3.8301227
2552757122000.0,-2.3289968528943703,5.83643213581659,-7.506383720151184,-4.1386123,1.1646146,2.0861049,38.33327,-113.256836,-3.3536284
2552761886000.0,-2.360388679884106,5.5501460456850165,-7.512152630484271,-4.240932,1.1643091,2.1526892,38.21678,-112.39179,-2.8390965
2552766855000.0,-2.394857826655629,5.264544492446192,-7.531849388617549,-4.295604,1.1948525,2.1798725,38.0881,-111.53593,-2.3284748
2552771857000.0,-2.426453945894775,4.983311471964318,-7.562861787329328,-4.394259,1.2220359,2.2424862,37.95652,-110.62742,-1.7785232
2552777768000.0,-2.4625233672037137,4.653532983342435,-7.604084152211906,-4.5054364,1.2666291,2.2947154,37.8083,-109.72883,-1.2326608
2552782131000.0,-2.541079706955842,4.375354392966003,-7.591077205861664,-4.614476,1.3020593,2.3448062,37.650898,-108.809616,-0.66169095
2552786972000.0,-2.654310772626026,4.04924905436694,-7.554843200527549,-4.747645,1.3225232,2.4016168,37.48511,-107.88389,-0.08554474
2552791871000.0,-2.7940526480479826,3.7048352343729554,-7.369314221853871,-4.8576,1.3246613,2.450486,37.303986,-106.95486,0.5067315
2552796847000.0,-2.960348560283533,3.341062719476554,-7.036722234591058,-4.9733596,1.3362677,2.5008824,37.113354,-106.02499,1.104006
2552801859000.0,-3.182922802960433,3.039488870291299,-6.531126934101907,-5.0885077,1.3396275,2.5289822,36.930183,-105.08519,1.7046089
2552807029000.0,-3.4413121328778824,2.762307652433817,-5.920388638343296,-5.2338934,1.3329079,2.5375342,36.741913,-104.15173,2.3007238
2552811948000.0,-3.7163476398782342,2.4588852487442923,-5.356769459817352,-5.370422,1.284955,2.5375342,36.553867,-103.19274,2.8766034
2552816884000.0,-4.013141356164383,2.1261167229452056,-4.803654034246575,-5.511226,1.1930199,2.531731,36.371166,-102.25166,3.4373665
2552821835000.0,-4.296494317062063,1.761440744132599,-4.30474914772294,-5.659361,1.0641272,2.5332582,36.19568,-101.24336,3.9506183
2552826884000.0,-4.567911862529125,1.3517538578267316,-3.8643358184706633,-5.756794,0.91721416,2.538756,36.038414,-100.29267,4.445123
2552832064000.0,-4.815379362409504,0.8727996743300539,-3.5019663993131616,-5.845675,0.79229224,2.535396,35.888153,-99.3073,4.8801775
2552836972000.0,-5.029148227157973,0.3798225358217931,-3.218395470224615,-5.8759127,0.66920286,2.529593,35.76332,-98.44076,5.297713
2552841869000.0,-5.195998397018999,-0.51153839447759,-2.9114939875721637,-5.861252,0.5561928,2.5375342,35.644745,-97.66112,5.670829
2552846847000.0,-5.301082790910045,-1.972713624202792,-2.5662163649207512,-5.8016925,0.46517387,2.5506678,35.537056,-97.09872,6.0291033
2552851877000.0,-5.288138542319749,-3.083431592476489,-2.1487773485893413,-5.6871552,0.4266894,2.5793786,35.419567,-96.76456,6.354653
2552857066000.0,-5.155266652553937,-3.862335273990411,-1.6493626511893784,-5.5353556,0.44348818,2.5848763,35.29345,-96.728455,6.6645694
2552861939000.0,-4.966988778488004,-4.570654035237664,-1.0701113001466729,-5.382028,0.4642576,2.5546384,35.152008,-83.01178,6.971189
2552866838000.0,-4.665396181213219,-5.24180381747397,-0.2927667753553644,-5.298034,0.51893,2.536618,34.977695,-82.48897,7.2719316
2552871858000.0,-4.342343644952257,-5.89526266098081,0.5527984622564197,-5.1303515,0.57879484,2.4721715,34.775654,-81.73635,7.576164
2552876884000.0,-3.9229030945304535,-6.314703257995736,1.7352637722888662,-4.9602256,0.64843345,2.384207,34.53759,-80.8422,7.8567157
2552882505000.0,-3.4835608951031465,-6.765021223796625,3.0882518035632422,-4.76536,0.6957755,2.2678373,34.272293,-79.73397,8.166582
2552886930000.0,-3.377595376765993,-6.968121854396749,4.399574920097937,-4.405255,0.6930266,2.2272146,33.983467,-78.589264,8.462002
2552892072000.0,-3.274987909571121,-7.166242737290942,5.864344817651928,-4.269337,0.602924,2.1343632,33.700306,-77.19072,8.7782755
2552896879000.0,-3.370276276966385,-6.998535191571452,6.683824729491637,-3.9452732,0.4538729,2.037541,33.41951,-75.84869,9.075532
2552901895000.0,-3.469707616857096,-6.823536013429376,7.538934202715681,-3.5876117,0.2782491,1.9822577,33.173157,-74.31288,9.365829
2552907075000.0,-3.717488454415518,-6.744633735119959,8.500447363654926,-3.186273,0.09773844,1.9352211,32.958424,-72.83602,9.629744
2552911942000.0,-4.022037687544666,-6.720840837927514,9.44264688749362,-2.8053987,-0.14080444,1.851838,32.800175,-71.425064,9.87512
2552916840000.0,-4.00152987508007,-6.919707546843682,10.129045266143196,-2.3976462,-0.42119157,1.7101172,32.725273,-70.01988,10.059501
2552921820000.0,-3.829070247225953,-7.225207522254365,10.705553198780866,-1.992337,-0.6637051,1.496009,32.707973,-68.72135,10.208787
2552926822000.0,-2.9625465879820463,-7.529064889713291,11.020940801502244,-1.6242907,-0.84513205,1.2263119,32.784298,-67.44097,10.255974
2552931986000.0,-1.8073821620042136,-7.841638683026472,11.247443954749471,-1.2895365,-0.98624194,0.929126,32.933273,-66.289986,10.248662
2552936857000.0,-0.0328530579094525,-8.174413640122594,11.450799724163888,-0.9978484,-1.0708468,0.6401868,33.19924,-65.160545,10.234466
2552941828000.0,2.3016426735562963,-8.54301844875793,11.65046029465534,-0.75228053,-1.0726794,0.3735441,33.50523,-64.15564,10.140487
2552946804000.0,4.319646557292453,-8.927274587028302,11.675215450377358,-0.57604593,-0.9776898,0.079107046,34.020725,-63.218815,10.214153
2552951797000.0,6.200748991566038,-9.31973498537736,11.621082851698112,-0.45753807,-0.7877107,-0.24740042,34.523266,-62.408905,10.155998
2552957057000.0,7.917995975176971,-9.130779079377064,11.511040629447852,-0.47219884,-0.49632803,-0.5369505,34.898262,-61.29993,10.483534
2552961846000.0,9.31186030250118,-8.572367215195847,11.37684873619632,-0.6133087,-0.33841935,-0.6444628,35.25321,-60.253487,10.725552
2552966821000.0,10.538738385076252,-7.429489203867103,11.526469267429194,-0.7165449,-0.1301143,-0.7651087,35.47576,-59.032143,11.259095
2552971817000.0,11.502949514052288,-5.600094033366013,12.026816490522876,-0.9615019,-0.16340645,-0.7852673,35.697483,-57.782024,11.76578
2552976829000.0,11.988247837005227,-3.835335922722181,12.15385433075056,-1.2244794,-0.37323865,-0.72173727,35.880806,-56.47237,12.541304
2552981983000.0,12.177168496079164,-2.065936833364451,12.043267062079911,-1.4239268,-0.6545421,-0.62980205,36.063736,-55.153778,13.297541
2552986919000.0,12.206910392277836,-0.2992187729127277,11.952636219424818,-1.5326608,-0.979217,-0.54153204,36.27736,-53.835087,14.19501
2552991843000.0,12.084901620061697,1.5355979358145089,11.877554161906655,-1.4795157,-1.3756685,-0.4269948,36.532486,-52.5301,15.137678
2552996818000.0,12.17558282700595,3.395753366139955,11.9118719056023,-1.3658947,-1.8246545,-0.28008172,36.85411,-51.369614,16.137545
2553001821000.0,12.514797109788631,5.27372145778781,12.074104421711471,-1.2568552,-2.2336287,-0.02443461,37.2003,-50.2224,17.211334
2553007075000.0,13.004533018266136,6.846530615426841,12.165756007003596,-1.1808025,-2.4651468,0.39675698,37.56099,-49.2404,18.29969
2553011893000.0,13.559134019685786,7.973200307817528,12.1875906759417,-1.1814134,-2.4303274,0.9242391,37.8708,-48.238266,19.453608
2553017001000.0,13.917453887402225,9.14565139615068,12.424528008645533,-1.3139712,-2.1126773,1.425454,38.105377,-47.31775,20.633642
2553021865000.0,13.965397027789214,10.233961133491148,12.923137069164266,-1.642922,-1.6044376,1.8634444,38.18238,-46.302494,21.823427
2553026847000.0,14.184212732225657,11.567139219474498,13.660973893353942,-2.191479,-0.98837996,2.1704042,38.091995,-45.253155,23.016468
2553031848000.0,14.600598398039024,13.15865819377898,14.664926575734158,-2.9410107,-0.4071417,2.4486532,37.794495,-44.04219,24.151377
2553036964000.0,15.19925732387296,14.66919788193841,14.858330203398012,-3.7033706,0.027794369,2.776077,37.320683,-42.74149,25.153736
2553041904000.0,16.021315003185634,15.961655723428905,13.867293431508834,-4.104709,0.43768495,3.1535919,36.636242,-41.337303,26.063963
2553046846000.0,16.46433858764816,16.930022591599087,12.392299844250363,-3.6755762,0.7690793,3.4914002,35.829033,-40.035347,26.838331
2553051870000.0,16.10916247286338,17.225168749220213,9.866046895196506,-2.4596488,1.0708468,3.6071594,34.89851,-38.845062,27.512321
2553056893000.0,14.756163696366718,15.645377862554351,8.406378134718844,-1.0326678,1.2198979,3.3307428,34.008224,-38.045357,28.152319
2553061896000.0,11.941919968383816,11.316315404377626,8.519371308202519,-0.48563787,1.3796391,3.0653217,33.027977,-37.32015,28.710398
2553066828000.0,9.167614538359498,7.048688771611763,8.63076094074729,-0.01160644,1.4395039,2.5537221,32.25078,-37.19608,29.148495
2553071859000.0,7.46252253236246,3.745673154368932,8.843979346278317,-0.09896017,1.68385,2.0778582,31.462969,-37.09531,29.457354
2553076883000.0,6.286059714670982,0.9385977006472492,9.103493063646171,-0.41630468,2.0109684,1.5861117,30.777157,-37.12433,29.62816
2553082008000.0,5.775522382005763,-0.8870709766521052,9.708498986894693,-0.8268061,2.240043,1.1093313,29.973728,-36.689445,29.61033
2553086921000.0,6.007300086532205,-1.5517916114508783,10.6443563057905,-1.2373075,2.346028,0.8011498,29.214598,-36.247738,29.482306
2553091837000.0,6.224164857870047,-2.2074018268689493,11.77664849555844,-1.5827519,2.2675319,0.70249504,28.425362,-35.5317,29.266893
2553096871000.0,6.411825685297934,-2.856997748537778,13.38379683391556,-1.8185458,1.9529362,0.64568454,27.743177,-34.792233,29.019798
2553101775000.0,6.750031675386444,-3.5485996506539834,14.850461960761,-1.921782,1.3903292,0.48197266,27.15981,-33.9174,28.800682
2553106962000.0,7.503128874851367,-4.429674459363852,16.149924188168846,-1.9593502,0.6114761,0.28191432,26.722225,-33.01878,28.675089
2553111838000.0,8.785448152459017,-4.912697763442623,17.189991662295082,-2.0244074,-0.43096542,0.08460484,26.467604,-31.973598,28.671354
2553116885000.0,11.572701841658631,-4.535160213616201,17.805237996528447,-2.2391264,-1.65911,0.039095376,26.41237,-30.900877,28.874807
2553121853000.0,14.042257329668113,-3.9884991594068393,18.349456383738524,-2.5778513,-2.521041,0.15027285,26.430792,-29.645897,29.264013
2553126861000.0,15.508218105215374,-2.783798009321093,18.66877511268032,-2.85213,-3.1096096,0.3032946,26.606153,-28.382566,29.865301
2553131991000.0,16.788450160230546,-2.028610525878962,18.94752784553314,-2.9633074,-3.5390477,0.5561928,26.782814,-27.002522,30.915752
2553136892000.0,17.375874456319472,-2.681732959003705,19.07506038023878,-2.8228083,-3.4358115,0.82833326,26.88716,-25.634138,31.976328
2553142732000.0,18.075845460024706,-3.4599894392013173,19.227027326307123,-2.415972,-2.9043589,0.9138544,26.96978,-24.39696,33.117363
2553146865000.0,18.037864694476717,-5.536653582976027,17.482240668708418,-1.8390098,-2.0702224,0.784351,26.9461,-23.267385,34.125523
2553151857000.0,17.972230095680644,-8.101461995099799,15.306192599429718,-1.2144,-1.5561792,0.58276546,26.867725,-22.2783,35.0481
2553156918000.0,17.161353108039997,-9.625400899195188,13.911613721079588,-0.9025534,-0.45662177,0.48288897,26.50208,-21.289988,35.662544
2553161836000.0,16.299860719128528,-10.99995931021868,12.63660532932282,-0.24709499,0.4175264,0.34697145,26.164104,-20.591774,36.141953
2553166852000.0,14.596880908737964,-11.788304375608242,11.569091883424784,0.37812558,0.7870999,0.410196,25.566557,-19.789768,36.630737
2553171841000.0,11.876280658039134,-11.808090959312558,10.79743087260586,0.929126,0.6750061,0.6169739,24.911695,-19.134987,36.99844
2553176820000.0,9.7636620151927,-11.485342675468402,9.50713178732162,1.3530666,0.14660765,0.8219192,24.16515,-18.49291,37.408115
2553181868000.0,8.210242558052617,-10.82361412095913,7.690898386059606,1.6575829,-0.59803706,0.91446525,23.434715,-17.93803,37.902195
2553186879000.0,6.667925976910828,-9.763421217356688,5.720704909773089,1.8600847,-1.2486086,0.79534656,22.831865,-17.512115,38.31534
2553191847000.0,5.138511750796178,-8.238741621815286,3.571001520999204,1.9773707,-1.5906931,0.5186246,22.29613,-17.14238,38.832943
2553196822000.0,3.741252297964377,-6.407138645918967,1.8935947926874144,2.0497584,-1.5622878,0.18661933,21.92235,-16.954575,39.377563
2553201812000.0,2.5112350740458016,-4.180948158543746,0.8179144498414566,2.0964894,-1.1798862,-0.13133603,21.616283,-16.823507,39.89222
2553207102000.0,1.508240307242254,-1.870133114739989,0.3229530375058887,2.0931299,-0.59559363,-0.35735616,21.50191,-16.944128,40.30965
2553211877000.0,0.9696642330893276,0.1557415308026812,0.6626702481192245,2.014939,0.00030543262,-0.473726,21.391418,-17.086292,40.605522
2553216845000.0,0.5341094304272014,2.203124800130776,1.0668370652789887,1.8277088,0.46761733,-0.48930305,21.476988,-17.481758,40.684494
2553221826000.0,0.6224851377680907,4.001830071000436,1.6854669243842633,1.5409076,0.8216137,-0.43768495,21.504492,-17.84433,40.63482
2553226811000.0,0.8429301454658384,5.39357182151935,2.2187645741041564,1.1557571,1.0381655,-0.38912117,21.658957,-18.352499,40.347927
2553231974000.0,1.3248599582608696,6.050319087558528,2.606198264882943,0.768163,1.1114693,-0.3857614,21.775932,-18.800072,40.00617
2553236834000.0,1.8578211344515132,6.518301057547716,2.9561037580875262,0.40225476,1.0299188,-0.45081854,22.001637,-19.319445,39.559383
2553241841000.0,2.6297344066898014,6.578390270156159,3.27503797798342,0.09468412,0.82741696,-0.528093,22.233526,-19.774378,39.122414
2553246804000.0,3.36160069872514,6.565616687659357,3.5654875643039268,-0.13408493,0.6826419,-0.59437186,22.522964,-20.23449,38.684444
2553251814000.0,3.948808874961754,6.22307846562978,3.7416500989291177,-0.3210097,0.3817908,-0.6246097,22.879213,-20.647896,38.33306
2553256875000.0,4.453916465973733,5.878497216453146,3.8984008501974055,-0.3811799,0.08277224,-0.66950834,23.273771,-21.043,38.071217
2553261870000.0,4.662050601941826,5.54316999962936,3.983196116694868,-0.48533243,-0.17806722,-0.68569624,23.707956,-21.388577,37.87604
2553266840000.0,4.869143025517686,5.209521097204092,4.067566982459109,-0.5491679,-0.38637227,-0.6747007,24.161825,-21.691153,37.802822
2553271819000.0,5.108472181027867,4.883945985611874,4.028490812873587,-0.5571091,-0.50732356,-0.6062838,24.62695,-21.97345,37.777428
2553276810000.0,5.359430132855412,4.560596360521002,3.9464469669022617,-0.52320606,-0.51343226,-0.5122105,25.09168,-22.242178,37.778114
2553281964000.0,5.547433020688329,4.387632270813305,4.013549270294174,-0.47952923,-0.43096542,-0.42363504,25.521496,-22.453337,37.82759
2553286862000.0,5.705263513208998,4.270387043260911,4.121775764583734,-0.4251622,-0.3115413,-0.3894266,25.926321,-22.663532,37.87211
2553291825000.0,5.955304588683351,4.419712264961915,4.28513632937976,-0.419359,-0.14446963,-0.38056904,26.279646,-22.8355,37.93843
2553296813000.0,6.24827964615689,4.69378557053121,4.474152516183598,-0.462425,0.04886922,-0.37140608,26.58675,-22.997766,37.971645
2553301870000.0,6.584163346487006,5.045500076909616,4.830037062052673,-0.52106804,0.29901853,-0.35216382,26.848108,-23.148703,37.95846
2553307044000.0,6.948345221366699,5.44436595065185,5.280928685099309,-0.59498274,0.5345071,-0.31795537,27.058887,-23.276907,37.90504
2553311896000.0,7.516847853865337,5.6171772321197,5.850688305835412,-0.68875057,0.7779369,-0.2706133,27.222023,-23.394922,37.805874
2553316844000.0,8.446449137988363,5.483251447714048,6.65818117605985,-0.7684685,1.0247264,-0.20189096,27.31701,-23.48442,37.65855
2553322191000.0,9.427549792895752,5.317197701683398,7.507380747088803,-0.8399397,1.2620476,-0.12614368,27.363659,-23.565264,37.451157
2553326818000.0,9.745774486949808,4.691014322440155,7.712686775413127,-0.8762862,1.4840971,-0.070249505,27.349693,-23.622437,37.199005
2553332006000.0,10.102582291737452,3.988909422610039,7.942885105853281,-0.90224797,1.6633861,-0.05681047,27.223297,-23.564873,36.96936
2553336824000.0,10.384130396303902,3.286299970020534,8.217431067761806,-0.88422745,1.8057177,-0.074830994,27.061224,-23.50479,36.701263
2553341891000.0,10.598360451129365,2.4642529880492816,8.606035112628337,-0.820392,1.8713857,-0.07819075,26.878736,-23.44451,36.416485
2553346861000.0,10.668781087276342,1.7437851439363818,9.037844865308152,-0.73792523,1.8753563,-0.050396383,26.569963,-23.240364,36.18286
2553351856000.0,10.55941442027833,1.1303792831013917,9.537128878727634,-0.63346726,1.7935003,-0.025045475,26.277159,-23.061125,35.955715
2553356976000.0,10.356432506537804,0.5266046358385447,9.989856422967597,-0.57787853,1.6084082,0.021991149,25.919168,-22.763523,35.7781
2553361918000.0,10.047007302823571,-0.0249791672465414,10.353094359484556,-0.44104472,1.3603969,0.05497787,25.592787,-22.511177,35.639347
2553366847000.0,9.708026539511792,-0.5802150035498551,10.658297420148946,-0.31215215,1.0564915,0.048563786,25.259974,-22.179705,35.516415
2553371854000.0,9.296364961936284,-1.155548471344642,10.841809045510963,-0.18753563,0.7458665,0.014966198,24.97617,-21.883642,35.458828
2553376802000.0,8.884158136212625,-1.6900995176079734,10.964457485049833,-0.058643065,0.464563,-0.028710667,24.707872,-21.544071,35.402885
2553381869000.0,8.45267144840727,-2.1784857833593905,10.988165539378542,0.05681047,0.22785273,-0.06963864,24.497553,-21.241604,35.410187
2553386858000.0,7.993991526832174,-2.650919018669315,10.937525507646477,0.1704314,0.026572637,-0.1160644,24.313349,-20.914663,35.41683
2553391840000.0,7.468073598411122,-3.105766960774578,10.738529486593844,0.26847526,-0.1301143,-0.1591304,24.173882,-20.62281,35.467087
2553396819000.0,6.940857142727272,-3.489101655176252,10.49556449109462,0.33414328,-0.24037547,-0.20158553,24.048721,-20.309383,35.501137
2553401814000.0,6.408358356363636,-3.715413706567718,10.153877762894249,0.364992,-0.30940324,-0.25625798,23.959764,-20.024973,35.55719
2553407202000.0,5.851136123012552,-3.866502452140328,9.77445206726746,0.37323865,-0.3484986,-0.3115413,23.880116,-19.722149,35.58661
2553411849000.0,5.425009139539749,-3.701781034341809,9.41278100788542,0.35979962,-0.355829,-0.36987892,23.82445,-19.435234,35.617947
2553416835000.0,4.967796068828452,-3.5250431412616674,9.0247259396524,0.30787608,-0.35796702,-0.42760566,23.792067,-19.147604,35.61443
2553421816000.0,4.557284544097543,-3.1478979673009424,8.616333874801404,0.26389378,-0.34972036,-0.47616947,23.774462,-18.869188,35.603848
2553426823000.0,4.167510360243858,-2.6695389182523552,8.19555518700351,0.19639318,-0.3136793,-0.5161811,23.768806,-18.58428,35.5804
2553431997000.0,3.8086135891858808,-2.022052624632728,7.768672944939809,0.14202617,-0.25686884,-0.5375614,23.806927,-18.355522,35.508923
2553436906000.0,3.5064517682105696,-1.273842321373189,7.370586850030606,0.09437868,-0.17654006,-0.550695,23.84681,-18.118408,35.417854
2553441823000.0,3.257280608930988,-0.4862140719891746,7.059467424221921,0.055588737,-0.09040806,-0.5519168,23.936394,-17.964264,35.282627
2553446813000.0,3.048359224523785,0.3444969181742479,6.815725895649005,0.025350908,-0.049480084,-0.56199604,24.0282,-17.803621,35.13568
2553451826000.0,2.8758498017781897,1.381869640628687,6.700306566273386,0.0018325958,0.030543262,-0.5558874,24.174109,-17.758768,34.933823
2553456894000.0,2.7245095240434853,2.555779842718692,6.663494076672847,-0.021991149,0.11209377,-0.54305923,24.31502,-17.705463,34.72054
2553461889000.0,2.6131332347664147,3.545519951410024,6.642067560934341,-0.04917465,0.15760323,-0.54367006,24.546509,-17.7986,34.458427
2553466835000.0,2.6080925991593062,4.059665151771842,6.662230103362775,-0.06505715,0.19700404,-0.5314528,24.757685,-17.88099,34.180195
2553471810000.0,2.63049727004568,4.51762050637574,6.664792120682282,-0.08582657,0.21685717,-0.5271767,25.2026,-18.312826,33.774803
2553476822000.0,2.7004733439109727,4.876831165020896,6.636801496287297,-0.08735373,0.22296582,-0.5195409,25.617771,-18.718456,33.37342
2553481982000.0,2.803939518004866,5.212840565113232,6.614495747014786,-0.06719518,0.22204952,-0.50701815,25.97382,-19.075571,33.004555
2553486880000.0,2.9619649671532846,5.467437193374509,6.605716565581134,-0.04428773,0.22785273,-0.47800204,26.308214,-19.416403,32.641
2553491835000.0,3.125521738485233,5.706657760971191,6.597652731092589,-0.03756821,0.21685717,-0.4392121,26.622084,-19.762888,32.310337
2553497512000.0,3.3323921225131365,5.8839751374796165,6.592727298414568,-0.03176499,0.20677789,-0.37507126,26.908236,-20.095991,31.989254
2553502204000.0,3.5054935898710164,6.024982966397952,6.591186345030349,-0.034208454,0.20799962,-0.29749137,27.174782,-20.439325,31.705992
2553506883000.0,3.722233354552352,6.050481696984067,6.64218407245827,-0.028405234,0.20586158,-0.23182335,27.418613,-20.768919,31.436943
2553511939000.0,3.956436442867982,6.078034930974963,6.69729082814871,-0.034208454,0.18417588,-0.16340645,27.634315,-21.098175,31.214262
2553516841000.0,4.178719312931035,6.0346972322660095,6.779978356773399,-0.043982297,0.14477506,-0.10629055,27.829256,-21.410809,31.007456
2553521820000.0,4.403823408261494,5.980868130931856,6.868062456906815,-0.05467244,0.11178834,-0.04184427,27.997232,-21.70199,30.817846
2553526824000.0,4.551605022664613,5.922960675705482,6.98561201102822,-0.065973446,0.089491755,0.034208454,28.139448,-21.981537,30.674953
2553531870000.0,4.692675871172559,5.86418124073954,7.107089673629582,-0.08155051,0.057421334,0.10598512,28.264505,-22.239967,30.553986
2553536902000.0,4.848806343241988,5.797597018002787,7.226066026660474,-0.11209377,0.040927973,0.18478674,28.36018,-22.471958,30.469606
2553541839000.0,5.020097083139805,5.722931875429633,7.340259776823037,-0.13836098,0.032375857,0.25717425,28.435379,-22.682768,30.402737
2553546867000.0,5.187345119049155,5.626407781757556,7.468163084091643,-0.16768251,0.009162978,0.29077184,28.50842,-22.882814,30.352087
2553551850000.0,5.336201377067871,5.482684383564591,7.622152416327848,-0.18234327,-0.020158553,0.35216382,28.549765,-23.055758,30.321283
2553557033000.0,5.473365245245518,5.3175722925175375,7.775445326013251,-0.20708331,-0.051618114,0.39553526,28.592607,-23.213154,30.31053
2553561902000.0,5.582397544017927,5.144937779929852,7.911735533446999,-0.23487769,-0.06841691,0.4334089,28.617012,-23.34895,30.313507
2553566804000.0,5.673931942697656,4.926587032558612,8.04023215030955,-0.2602286,-0.086132,0.45875978,28.648785,-23.474775,30.327206
2553571855000.0,5.737754375317162,4.627112817070943,8.158058144270779,-0.2657264,-0.10873401,0.45906523,28.675266,-23.587816,30.35065
2553576830000.0,5.797352969074145,4.302958866231272,8.23962428716865,-0.2657264,-0.1328632,0.45112398,28.670063,-23.638332,30.397987
2553581937000.0,5.853720966557818,3.927171366154437,8.27250538196312,-0.26633725,-0.16523905,0.43279803,28.670992,-23.685595,30.451855
2553586825000.0,5.891302759790597,3.558598898348938,8.296647519581194,-0.24129178,-0.1872302,0.40622538,28.645908,-23.67403,30.521433
2553591884000.0,5.896180444578677,3.158636843793416,8.306402889157354,-0.20433442,-0.18936823,0.37293324,28.63033,-23.66946,30.589273
2553596778000.0,5.891473710589172,2.7841830769804936,8.304828710589172,-0.15943582,-0.20586158,0.34574974,28.587635,-23.608269,30.682535
2553601835000.0,5.867374448248408,2.4226938902269106,8.280729448248408,-0.109650314,-0.22357668,0.3115413,28.558224,-23.565235,30.769205
2553607127000.0,5.82255094499109,1.9972484019601768,8.230130364143488,-0.06291912,-0.24404067,0.26358834,28.515627,-23.478546,30.867
2553611835000.0,5.752685640272721,1.5466168400015494,8.146292071434106,-0.016798794,-0.2611449,0.23090707,28.481668,-23.408623,30.963795
2553616835000.0,5.678487143333076,1.0680361667234832,8.057253952583869,0.036651913,-0.26908615,0.19456059,28.440907,-23.313309,31.062538
2553621816000.0,5.609721962058156,0.8168878329467084,7.953895787158145,0.07880162,-0.28008172,0.16768251,28.410608,-23.23173,31.16137
2553626796000.0,5.54270163776889,0.641604634200627,7.845632600475624,0.118507855,-0.28344148,0.1386664,28.392052,-23.169796,31.253342
2553631934000.0,5.504385338853167,0.5372181059226636,7.73304916321677,0.14538592,-0.28802297,0.12156218,28.341236,-23.03836,31.358515
2553636848000.0,5.471223954549458,0.4460237580410464,7.625273928406588,0.1731803,-0.28008172,0.10445796,28.297588,-22.922415,31.455896
2553641836000.0,5.455830632970908,0.4029547575315897,7.502250247781369,0.19120082,-0.2660318,0.0888809,28.248583,-22.797697,31.55342
2553646822000.0,5.451153297090802,0.3889230331589773,7.371287578136938,0.19211712,-0.25992316,0.0852157,28.20093,-22.677238,31.648771
2553651816000.0,5.463399690398698,0.4426984130410903,7.2485362267900735,0.18936823,-0.23548855,0.06536258,28.15329,-22.557108,31.740238
2553656915000.0,5.488232940602115,0.5469981572457283,7.129336522091131,0.16187929,-0.21471913,0.052839845,28.103975,-22.431576,31.830114
2553661877000.0,5.513688487226612,0.6976284163131777,7.0674685500827055,0.14996742,-0.19425514,0.03756821,28.058184,-22.317072,31.923334
2553666838000.0,5.539884409024076,0.8766333774104026,7.0369065653372544,0.12217305,-0.16279559,0.018325957,28.012455,-22.195902,32.00495
2553671818000.0,5.576506462114904,1.0800391636552873,7.002232322023314,0.07971791,-0.14996742,0.009468411,27.974459,-22.088985,32.097237
2553676819000.0,5.626354064945878,1.3143231051623647,6.962354447960033,0.049480084,-0.13500121,-0.00030543262,27.937511,-21.982582,32.177082
2553682022000.0,5.68397824704405,1.5460567291924263,6.961310742136785,0.0033597588,-0.12797627,-0.01160644,27.92045,-21.894522,32.25648
2553686882000.0,5.7424271647411125,1.752875738079598,6.992783091827666,-0.015271631,-0.11575896,-0.019547688,27.902431,-21.807926,32.32859
2553691819000.0,5.8074879314413135,1.9633191177174132,7.016757111777823,-0.050701816,-0.10415252,-0.022296581,27.902964,-21.744585,32.40167
2553696820000.0,5.880304032394081,2.1769131152240018,7.031320433346848,-0.065973446,-0.08399397,-0.032986723,27.905235,-21.68522,32.46607
2553701813000.0,5.960019212419371,2.387270904640416,7.06082287653798,-0.08979719,-0.077579886,-0.04337143,27.924448,-21.649294,32.528526
2553707230000.0,6.054914027544045,2.612022062539713,7.110767699980745,-0.09162979,-0.06994407,-0.04153884,27.939823,-21.615448,32.58447
2553711858000.0,6.1346463770428015,2.784652072632944,7.154533208560311,-0.095294975,-0.06872234,-0.037873644,27.974215,-21.610004,32.6411
2553716833000.0,6.218512322012229,2.94355571122846,7.203087023874375,-0.09407325,-0.06291912,-0.034513887,28.005693,-21.605242,32.693604
2553721827000.0,6.302526750388341,3.0907619380836024,7.251143818745091,-0.08124508,-0.059864793,-0.028710667,28.048067,-21.635277,32.74629
2553726822000.0,6.386017658844576,3.199300337027664,7.297063905576403,-0.07513642,-0.060170226,-0.016187929,28.085829,-21.661684,32.79856
2553736898000.0,6.538271550430787,3.3627841546073687,7.345411,-0.046120327,-0.055588737,0.013439035,28.127998,-21.717655,32.852856
2553741855000.0,6.604492059333716,3.41342320220727,7.345411,-0.03023783,-0.063224554,0.021991149,28.17305,-21.77192,32.90827
2553746822000.0,6.66641075689725,3.430652742233009,7.355305425364078,-0.019242255,-0.06841691,0.034513887,28.214195,-21.84034,32.970886
2553751813000.0,6.724417856887135,3.4161509798543688,7.374641007584952,-0.0061086523,-0.06963864,0.04520403,28.252071,-21.909695,33.034153
2553756954000.0,6.723741850785836,3.310399779341034,7.381180938269267,0.00030543262,-0.07727446,0.062308256,28.28872,-21.983189,33.112877
2553761872000.0,6.674689899450861,3.1364885060026517,7.376721585305813,-0.0012217305,-0.086437434,0.064446285,28.32537,-22.056288,33.190334
2553766921000.0,6.664552647799762,3.0358477,7.374141,-0.003970624,-0.0842994,0.07147124,28.348272,-22.11985,33.275986
2553771819000.0,6.705125447129419,3.0358477,7.374141,-0.0061086523,-0.08307768,0.07727446,28.371105,-22.181154,33.362633
2553776826000.0,6.683776051572552,2.9012957825947105,7.339891498123659,-0.007330383,-0.08307768,0.07788532,28.382132,-22.209106,33.44869
2553781934000.0,6.613842638992137,2.6609001218370265,7.278700013134381,-0.0015271631,-0.077579886,0.08674286,28.387205,-22.235167,33.533123
2553786937000.0,6.548477776611648,2.4578621000207623,7.240066,-0.02321288,-0.08246681,0.07727446,28.396238,-22.25405,33.623417
2553791839000.0,6.489996962410464,2.3165334148136614,7.240066,-0.032986723,-0.07696902,0.07788532,28.396568,-22.273285,33.710335
2553796838000.0,6.420195778650752,2.168353080851064,7.2522678895692785,-0.03970624,-0.062002823,0.06566802,28.378635,-22.254547,33.795906
2553801875000.0,6.335083966414115,2.0131491787234044,7.282307438816813,-0.051923547,-0.05467244,0.06719518,28.356796,-22.23044,33.882183
2553806967000.0,6.27516959408284,1.8553504893491124,7.302324794477317,-0.062308256,-0.029626964,0.06352998,28.327599,-22.186258,33.95378
2553811877000.0,6.242708683431952,1.7023198801775148,7.311599271203156,-0.07422013,-0.02076942,0.04917465,28.303015,-22.141611,34.024937
2553816850000.0,6.209838662020699,1.577532731552489,7.3166804,-0.07971791,-0.016493361,0.029321533,28.267115,-22.07588,34.077652
2553822683000.0,6.17129452,1.47291286,7.3166804,-0.08246681,-0.0067195175,0.008246681,28.234432,-22.012186,34.123627
2553826864000.0,6.148191154685736,1.4132512142265712,7.318619508317652,-0.077579886,-0.0033597588,-0.0009162979,28.1928,-21.92545,34.16857
2553836862000.0,6.101743425715365,1.3174698628576824,7.33038656588913,-0.06627888,0.005497787,-0.024129177,28.160397,-21.847296,34.204174
2553841847000.0,6.074692515525546,1.3039444077627729,7.343912115138352,-0.061391957,0.014966198,-0.030848695,28.120869,-21.754656,34.237537
2553846785000.0,6.050760154069325,1.29821360988808,7.35765990494404,-0.054367006,0.019242255,-0.032375857,28.08321,-21.661303,34.264515
2553851854000.0,6.040210321916766,1.329862941106161,7.373484570553081,-0.050701816,0.013133603,-0.04795292,28.052938,-21.573545,34.288445
2553856911000.0,6.026271430284043,1.3764239921679198,7.384904123851295,-0.047036625,0.02321288,-0.05222898,28.018398,-21.484451,34.302544
2553861900000.0,6.006313832581454,1.449602139849624,7.388230471177945,-0.03481932,0.02076942,-0.052839845,27.991154,-21.40174,34.319397
2553866810000.0,5.986672260178223,1.5216215235171262,7.391504146338067,-0.02443461,0.025350908,-0.061391957,27.970299,-21.327738,34.325573
2553871863000.0,5.9759274,1.619400834439065,7.397965454084681,-0.014049901,0.02076942,-0.054367006,27.947224,-21.25527,34.33625
2553876856000.0,5.9759274,1.7425516594725456,7.407817408983208,-0.0030543262,0.022296581,-0.060170226,27.929811,-21.190264,34.341167
2553882004000.0,5.970870921809613,1.8560609864938735,7.4124484,0.0021380284,0.01863139,-0.05375614,27.921913,-21.141401,34.34216
2553886898000.0,5.962036075589067,1.953244341046183,7.4124484,-0.004276057,0.0106901415,-0.047036625,27.91652,-21.09421,34.343018
2553891794000.0,5.95089476659436,2.042484285755604,7.4124484,0.0015271631,0.002443461,-0.047036625,27.927668,-21.071537,34.33952
2553896864000.0,5.93584847716145,2.1227312674723686,7.4124484,0.010079277,0.004276057,-0.041233405,27.934687,-21.0464,34.33691
2553901855000.0,5.930132309146342,2.195692669761641,7.410359447228381,0.0125227375,0.008552114,-0.05100725,27.95972,-21.043797,34.327507
2553911793000.0,5.927655254963216,2.3279398792603043,7.4099892962612115,0.002443461,0.007941248,-0.04184427,27.977253,-21.036053,34.321995
2553916885000.0,5.893254928368437,2.3967408403406227,7.434561031421949,0.004581489,0.013439035,-0.042760566,28.007862,-21.049986,34.305283
2553921781000.0,5.867640301346634,2.459739491920199,7.452226749326683,0.009162978,0.015577064,-0.035430185,28.039057,-21.070398,34.290855
2553926838000.0,5.857978480379052,2.5177104177256857,7.457057659810474,0.0070249503,0.013439035,-0.03145956,28.07073,-21.089909,34.27588
2553931822000.0,5.847444996577845,2.567631350726317,7.461660373407005,0.009468411,0.0143553335,-0.034208454,28.109364,-21.121262,34.249535
2553936897000.0,5.834450898012655,2.602282415916585,7.465991649140006,0.0106901415,0.018020526,-0.03145956,28.144112,-21.14934,34.22473
2553941915000.0,5.822273635272162,2.63532188997408,7.470758964955936,0.004886922,0.015882496,-0.030543262,28.187004,-21.186903,34.19642
2553946857000.0,5.81736668273717,2.654950058786936,7.480573279937792,0.0012217305,0.016798794,-0.02565634,28.225735,-21.222837,34.167927
2553951825000.0,5.8137186541220895,2.670735766834487,7.487272987791063,0.0015271631,0.019547688,-0.01985312,28.264797,-21.263523,34.135727
2553956877000.0,5.818068288501303,2.6620363163984537,7.474223721298211,0.01282817,0.013439035,-0.0036651916,28.299253,-21.30194,34.10827
2553962545000.0,5.822435356966825,2.6504062549763034,7.461385394123223,0.01038471,0.020463986,-0.0061086523,28.335388,-21.34256,34.07238
2553966817000.0,5.818557514767773,2.6155048248341237,7.476897086862559,0.012217305,0.018325957,0.005497787,28.363514,-21.380224,34.045017
2553971774000.0,5.814057874369668,2.575007074549763,7.494896024341232,0.004581489,0.011911872,0.005497787,28.392946,-21.413406,34.01972
2553976806000.0,5.782855904561611,2.5401012751283574,7.48350659178515,0.0030543262,0.0076358155,0.017104227,28.414442,-21.443342,33.998
2553981845000.0,5.744737720379146,2.506748000789889,7.464447549447078,0.0106901415,0.006414085,0.021991149,28.437838,-21.473799,33.976902
2553986997000.0,5.724722948486072,2.495618349495357,7.464260468469924,0.004276057,-0.010995574,0.022602014,28.457159,-21.49093,33.960884
2553991826000.0,5.710720213161082,2.490950771053694,7.468927949434801,0.022296581,-0.0143553335,0.028099801,28.471073,-21.513062,33.9433
2553996801000.0,5.711481328970502,2.456631474174644,7.455092070912288,0.022602014,-0.019547688,0.03848451,28.487284,-21.526022,33.92822
2554001814000.0,5.716170672689978,2.414428311027544,7.436335185680797,0.02565634,-0.019242255,0.03023783,28.50684,-21.545475,33.911285
2554006916000.0,5.706354268189982,2.3817792895230494,7.416935869586909,0.05009095,-0.013744468,0.035430185,28.518736,-21.566628,33.893803
2554011849000.0,5.692212574935143,2.3534960999002195,7.39808050828178,0.040927973,-0.01282817,0.04062254,28.533459,-21.581667,33.87677
2554016847000.0,5.667245864554573,2.3356290322772866,7.379043384109644,0.04886922,-0.023823744,0.043066,28.539928,-21.599442,33.865833
2554021808000.0,5.638934611659549,2.3214734058297744,7.360169314053034,0.05467244,-0.020463986,0.043066,28.54311,-21.61379,33.851646
2554026813000.0,5.631162,2.2924876453796963,7.357776431526779,0.050701816,-0.02076942,0.03634648,28.549479,-21.625164,33.841637
2554032218000.0,5.631162,2.2552484051318946,7.361914129688249,0.05497787,-0.016493361,0.0421497,28.550678,-21.637295,33.831413
2554036869000.0,5.632168143187842,2.231396,7.365570459144725,0.046731193,-0.020463986,0.03940081,28.5561,-21.647614,33.81914
2554041809000.0,5.636348418501502,2.231396,7.369750385280085,0.04520403,-0.018325957,0.03848451,28.557537,-21.658855,33.80546
2554047188000.0,5.64120267879148,2.231550425188832,7.37352330246966,0.04520403,-0.013133603,0.036957346,28.55367,-21.662083,33.792263
2554051798000.0,5.652443285258423,2.235297267928372,7.358536009759823,0.040011674,-0.011911872,0.028099801,28.552734,-21.665108,33.77872
2554056807000.0,5.664656777187473,2.2393684035644577,7.342251552236273,0.032375857,-0.021380283,0.030543262,28.548275,-21.666376,33.767693
2554062203000.0,5.666285421824895,2.228234753318434,7.332649421824896,0.034208454,-0.017715093,0.029321533,28.545578,-21.670664,33.75169
2554066822000.0,5.661986892721796,2.211040995977068,7.3283508927217955,0.02565634,-0.020463986,0.031154128,28.543686,-21.669823,33.740677
2554071845000.0,5.66494463903367,2.212768878067339,7.321205413715046,0.023823744,-0.02107485,0.0290161,28.537945,-21.671938,33.732334
2554076830000.0,5.67402593026441,2.230931460528819,7.312124217310252,0.020158553,-0.023823744,0.029321533,28.531761,-21.670935,33.725933
2554081844000.0,5.681256329654609,2.2520214251992643,7.300474411036173,0.022907447,-0.018020526,0.03940081,28.522877,-21.665728,33.719944
2554086846000.0,5.686151399509503,2.276496723359902,7.28578920147149,0.021685716,-0.027488936,0.035124753,28.521206,-21.661283,33.71687
2554091985000.0,5.691149001110214,2.304010702250707,7.285950161566411,0.024740042,-0.030543262,0.036957346,28.51223,-21.658634,33.714912
2554096857000.0,5.695858043823173,2.332265696114251,7.300077584739604,0.021991149,-0.03634648,0.041233405,28.505816,-21.654753,33.715885
2554101777000.0,5.711176405625396,2.3636195913629376,7.322242642036718,0.009162978,-0.047036625,0.042760566,28.503845,-21.654148,33.72039
2554106898000.0,5.737789210274035,2.3991031610744327,7.353290713430406,0.008246681,-0.052534413,0.04062254,28.501833,-21.655527,33.72508
2554111863000.0,5.761440758947993,2.4330467309669768,7.366916263595017,0.01038471,-0.0571159,0.05589417,28.497974,-21.655634,33.732567
2554116826000.0,5.780238231856832,2.4659424803045287,7.34341929978248,0.01282817,-0.05497787,0.0580322,28.498577,-21.658157,33.7377
2554121792000.0,5.801556654815836,2.501352669017136,7.326257,0.0036651916,-0.053450707,0.059864793,28.499372,-21.660772,33.745308
2554126806000.0,5.8299306408312,2.5439135986606267,7.326257,0.0012217305,-0.05681047,0.056199603,28.501549,-21.66593,33.753086
2554131841000.0,5.850413543879214,2.583269144402505,7.328287912241572,0.005192355,-0.05681047,0.06841691,28.500927,-21.671976,33.76757
2554136902000.0,5.846255596122502,2.6123741708758685,7.336603807754997,0.007330383,-0.05222898,0.074830994,28.50285,-21.678467,33.780315
2554141827000.0,5.842209381401733,2.6406970824311573,7.344696237196534,-0.0009162979,-0.053450707,0.06627888,28.509075,-21.694221,33.795006
2554147701000.0,5.836623418650873,2.6379700640534027,7.340182200260992,-0.004886922,-0.05222898,0.086437434,28.50313,-21.70493,33.81222
2554151796000.0,5.832686841959446,2.634033446255772,7.336245459144751,-0.01282817,-0.053145275,0.08460484,28.50685,-21.717588,33.826252
2554156859000.0,5.83658487,2.625002835,7.35307215,-0.013439035,-0.052534413,0.08857546,28.506414,-21.73174,33.839523
2554161804000.0,5.841182567766991,2.615807199417476,7.371463229126213,-0.006414085,-0.051618114,0.089186326,28.507421,-21.746235,33.85218
2554166883000.0,5.850327513754949,2.580566864470612,7.348715078225561,-0.005497787,-0.04886922,0.08827003,28.50688,-21.757893,33.864323
2554171768000.0,5.85982576672419,2.5425745468378844,7.320221013562075,-0.025350908,-0.047647487,0.082161374,28.507647,-21.766737,33.875935
2554176800000.0,5.853434403609076,2.5075679469179915,7.312894680864749,-0.02321288,-0.06078109,0.08735373,28.50392,-21.772875,33.89227
2554181896000.0,5.8447146623191,2.4726897101482934,7.308534901268536,-0.023518313,-0.05009095,0.082161374,28.501324,-21.776546,33.899944
2554186887000.0,5.858538119201821,2.441772257727989,7.318227698827236,-0.024129177,-0.042760566,0.06627888,28.50151,-21.773958,33.91884
2554191843000.0,5.883461689655173,2.412694903448276,7.33484344137931,-0.009773844,-0.04550946,0.058337633,28.500706,-21.774279,33.937595
2554196824000.0,5.905016668902638,2.375189510767394,7.351114589493108,-0.010079277,-0.04337143,0.060170226,28.495262,-21.768032,33.951374
2554201812000.0,5.920571562552914,2.3233397028438074,7.366669266579833,-0.022296581,-0.047036625,0.045814894,28.498562,-21.766518,33.964
2554206872000.0,5.935471368322982,2.2835775892080745,7.376617041149069,-0.008552114,-0.038789943,0.0421497,28.49183,-21.75976,33.97934
2554211883000.0,5.949443421350932,2.255633531783773,7.381274489421584,-0.02443461,-0.04886922,0.04184427,28.49186,-21.745495,33.998577
2554216829000.0,5.9677837232211965,2.227760864543019,7.390323967728491,-0.011911872,-0.03940081,0.0290161,28.488611,-21.7335,34.01177
2554221828000.0,5.991537977076511,2.19925570038702,7.40457654980649,-0.025350908,-0.043982297,0.028405234,28.485462,-21.710287,34.032253
2554226882000.0,6.008752730750583,2.167131876997669,7.410400884624709,-0.022296581,-0.04917465,0.022602014,28.484276,-21.689602,34.052124
2554232003000.0,6.017898239897436,2.1305498404102563,7.405828130051282,-0.016493361,-0.03970624,0.023823744,28.47963,-21.665865,34.069775
2554236882000.0,6.0294385896383735,2.1026771033914184,7.4056852154393855,-0.015577064,-0.04520403,0.02443461,28.481028,-21.638739,34.094475
2554241935000.0,6.047572961157954,2.0890762300730747,7.414752306520515,-0.030543262,-0.0421497,0.03023783,28.477705,-21.608717,34.114887
2554246846000.0,6.066188687438083,2.0806091294630478,7.422025,-0.020463986,-0.052839845,0.018020526,28.476555,-21.581896,34.140778
2554251822000.0,6.089793877055677,2.094772341826828,7.422025,-0.013133603,-0.04642576,0.016493361,28.467402,-21.548914,34.163044
2554257238000.0,6.109060706652489,2.1172573268226285,7.415432466235644,-0.022602014,-0.050396383,0.011301007,28.46694,-21.513964,34.191372
2554261846000.0,6.105306568464483,2.158552846890685,7.389153577320289,-0.014660766,-0.057421334,0.01282817,28.464436,-21.484407,34.2189
2554266792000.0,6.101277061633347,2.2028774220331773,7.360947113653765,-0.021380283,-0.05681047,0.019547688,28.463207,-21.45347,34.247612
2554271836000.0,6.108545624350684,2.228482248701368,7.322507902597265,-0.02107485,-0.06566802,0.014966198,28.467533,-21.428183,34.278652
2554276843000.0,6.118712281320895,2.248815562641789,7.281841274716421,-0.01985312,-0.05589417,0.016187929,28.465048,-21.400007,34.305668
2554281886000.0,6.099222646472647,2.266834880309449,7.274301869294529,-0.012217305,-0.051618114,0.011301007,28.474352,-21.387484,34.33487
2554286823000.0,6.077450376441334,2.2842526508657213,7.269947415288267,-0.015577064,-0.058337633,0.013133603,28.4812,-21.371628,34.36479
2554291857000.0,6.0716953,2.299900475033502,7.250390146716834,-0.0009162979,-0.059253927,0.017715093,28.487617,-21.364355,34.398018
2554296818000.0,6.0716953,2.3145929309040305,7.22590277140501,-0.011911872,-0.052534413,0.01985312,28.493835,-21.350761,34.430233
2554301815000.0,6.068280888121646,2.3175871,7.214083711896243,-0.006414085,-0.047036625,0.025961773,28.503838,-21.346767,34.459713
2554306889000.0,6.063934494275492,2.3175871,7.205390969588551,0.0018325958,-0.0571159,0.021380283,28.51755,-21.342468,34.489807
2554311927000.0,6.053922625623229,2.314855151383322,7.220882583263271,0.0036651916,-0.05955936,0.02687807,28.521751,-21.336563,34.52109
2554316849000.0,6.040098056163848,2.310246977602893,7.253139703490078,0.0018325958,-0.06566802,0.03390302,28.528702,-21.332216,34.55491
2554321859000.0,6.022468734420881,2.2998208365633497,7.2633367957150625,0.015577064,-0.08460484,0.042760566,28.535944,-21.330315,34.593765
2554326866000.0,6.001609229363785,2.2841761805437737,7.252907097640022,0.0125227375,-0.09285152,0.043066,28.542706,-21.324497,34.630573
2554331866000.0,5.992148620317517,2.282212287825544,7.252575257206564,0.01160644,-0.08399397,0.044593163,28.548103,-21.31756,34.662975
2554336935000.0,5.9878188118087765,2.2865419607028183,7.25690488487335,0.017715093,-0.076358154,0.038789943,28.556864,-21.312855,34.69619
2554341874000.0,5.9877548575495565,2.2888567,7.265972031632223,0.019547688,-0.08552113,0.03634648,28.56573,-21.305864,34.729378
2554346845000.0,5.992774603121045,2.2888567,7.281030953859132,0.012217305,-0.07727446,0.028405234,28.574024,-21.300234,34.75414
2554351837000.0,5.997513120754009,2.286424579245991,7.302542927693895,0.005192355,-0.0720821,0.023518313,28.583721,-21.293861,34.780964
2554356933000.0,6.002089962468348,2.281847737531652,7.330004360311357,-0.00061086525,-0.070249505,0.023823744,28.59323,-21.286638,34.805676
2554361840000.0,5.999027649822984,2.2830333602526074,7.3491643406563965,-0.0030543262,-0.07941248,0.01985312,28.603853,-21.277279,34.830345
2554366850000.0,5.985254919653621,2.292215164386183,7.358346096851976,-0.007941248,-0.07880162,0.025350908,28.609404,-21.264511,34.852802
2554371851000.0,5.973001130280285,2.302822919857482,7.37041693943943,-0.01740966,-0.07788532,0.016493361,28.620543,-21.251747,34.87199
2554376818000.0,5.963962086935867,2.316381532066508,7.388495026128266,-0.03634648,-0.07941248,0.013133603,28.62835,-21.234066,34.89258
2554381832000.0,5.955682473535396,2.332620655114062,7.4028716,-0.038789943,-0.07666359,0.019242255,28.63587,-21.218832,34.90797
2554386861000.0,5.950524314897718,2.358411556024419,7.4028716,-0.05131268,-0.08032878,0.017715093,28.647839,-21.19929,34.923634
2554391815000.0,5.950450790582158,2.378301990582158,7.404498495291079,-0.051923547,-0.08399397,0.016798794,28.661142,-21.183657,34.934456
2554396802000.0,5.959940061712697,2.387791261712696,7.409243130856348,-0.057726767,-0.0842994,0.015882496,28.67474,-21.164623,34.94486
2554401771000.0,5.970893404624963,2.3926875317916787,7.409419895207036,-0.07513642,-0.09407325,0.020463986,28.688845,-21.144161,34.958218
2554406884000.0,5.98541050465461,2.387848498448464,7.399741929578021,-0.07666359,-0.094989546,0.020158553,28.703194,-21.127302,34.96835
2554411860000.0,5.989116868306228,2.387607065846886,7.397768036493455,-0.069027774,-0.09193522,0.018936822,28.715567,-21.109823,34.98029
2554416840000.0,5.970198794525982,2.3970661027370093,7.411956394287981,-0.06688975,-0.08979719,0.018020526,28.728,-21.091133,34.99234
2554421821000.0,5.958141374222836,2.402411025777164,7.416554731668804,-0.058643065,-0.09285152,0.027794369,28.740393,-21.074108,35.009655
2554426820000.0,5.962865979295372,2.397686420704628,7.397656410046383,-0.063224554,-0.09590584,0.022296581,28.757257,-21.057812,35.024
2554431969000.0,5.963847913146841,2.3942018,7.386220686853159,-0.05955936,-0.102319926,0.02687807,28.770075,-21.04182,35.037766
2554437104000.0,5.955057696326749,2.3942018,7.395010903673251,-0.06261369,-0.1133155,0.029932396,28.785978,-21.024796,35.052307
2554442221000.0,5.947197,2.394638697810219,7.400687110948906,-0.0571159,-0.110872045,0.029932396,28.800777,-21.013119,35.06676
2554446819000.0,5.947197,2.398465090441432,7.38155514779284,-0.052839845,-0.1142318,0.04062254,28.813496,-20.998299,35.086815
2554451793000.0,5.947197,2.4026043851233925,7.360858674383038,-0.04886922,-0.098043874,0.03940081,28.82436,-20.985428,35.09707
2554456880000.0,5.966785753890383,2.364600921765742,7.345193137828063,-0.041233405,-0.09010262,0.0571159,28.827467,-20.969393,35.11363
2554461860000.0,5.993323293165168,2.3115256122971344,7.331924252731151,-0.04642576,-0.100792766,0.050396383,28.83885,-20.95612,35.12731
2554466831000.0,6.012202388199446,2.283826890360111,7.326257,-0.04642576,-0.096516706,0.047647487,28.840475,-20.945362,35.13943
2554471798000.0,6.025379064108957,2.2750424091782087,7.326257,-0.05681047,-0.10629055,0.056505036,28.844202,-20.930414,35.158203
2554476804000.0,6.03701399103468,2.255199230516387,7.311753187309451,-0.047036625,-0.10842858,0.05589417,28.847397,-20.911827,35.181835
2554481850000.0,6.046222219902821,2.2183665554211127,7.274920656440549,-0.038179077,-0.11362094,0.050701816,28.851175,-20.89046,35.2087
2554486813000.0,6.055175824873934,2.1865034878151643,7.243057687815164,-0.04917465,-0.10781772,0.04795292,28.852144,-20.864752,35.2359
2554491824000.0,6.063975558036123,2.1645041549096917,7.221058354909691,-0.04795292,-0.10140363,0.040927973,28.856705,-20.845894,35.26245
2554496872000.0,6.073409605921113,2.144061929385925,7.200044688112016,-0.057421334,-0.09254608,0.041233405,28.855919,-20.816662,35.29477
2554501811000.0,6.086395736203898,2.135404509197401,7.1870585126292665,-0.05009095,-0.07849618,0.03756821,28.856796,-20.793974,35.32201
2554507452000.0,6.1028876045667,2.1267226253313924,7.173699927668378,-0.04642576,-0.06414085,0.03756821,28.852943,-20.765938,35.351612
2554511877000.0,6.138605400329476,2.1364637961229027,7.183441132365336,-0.056199603,-0.060170226,0.025045475,28.853758,-20.740047,35.37757
2554516824000.0,6.178536685219524,2.147354094858632,7.194331469006206,-0.06291912,-0.041233405,0.023823744,28.844658,-20.713774,35.400692
2554521818000.0,6.215330097966729,2.1563747829944546,7.20494534935305,-0.07147124,-0.034513887,0.02565634,28.839922,-20.687157,35.42416
2554526792000.0,6.244680069131238,2.1612664448552064,7.214728621996303,-0.081855945,-0.021380283,0.024740042,28.832752,-20.659918,35.4401
2554531844000.0,6.275845956804734,2.166160425088757,7.224516531360947,-0.089491755,-0.021380283,0.02443461,28.828619,-20.631554,35.464737
2554536837000.0,6.308855644921104,2.1708761018540432,7.233947835650888,-0.102319926,-0.0106901415,0.026267206,28.820625,-20.600065,35.482876
2554542683000.0,6.32367309638045,2.178332684385733,7.240066,-0.10323623,-0.011911872,0.025961773,28.817875,-20.570406,35.507072
2554546808000.0,6.313236065336856,2.185290729299868,7.240066,-0.122783914,-0.016493361,0.028710667,28.812635,-20.533512,35.529453
2554551874000.0,6.304407261210175,2.196315598073185,7.241500132476971,-0.12767084,-0.016187929,0.034208454,28.805655,-20.499006,35.555214
2554556979000.0,6.337460248745035,2.2335002575847205,7.258026647815432,-0.1423316,-0.009468411,0.038179077,28.798252,-20.458607,35.57994
2554561855000.0,6.369030545947774,2.269016888295445,7.273811817020197,-0.13530666,-0.009773844,0.04337143,28.788885,-20.423119,35.603764
2554566834000.0,6.388684928298593,2.2863010488756546,7.299436456597187,-0.13988814,-0.01740966,0.048563786,28.778662,-20.381948,35.627647
2554571773000.0,6.403255155796283,2.2960144831604885,7.328576911592566,-0.14538592,-0.01985312,0.044593163,28.769281,-20.34372,35.64922
2554576795000.0,6.413816732760596,2.3053665327605954,7.367032575028637,-0.1469131,-0.029932396,0.045814894,28.766438,-20.31116,35.677612
2554581874000.0,6.423102828064146,2.314652628064146,7.408819906930126,-0.15515977,-0.048563786,0.04520403,28.767279,-20.277721,35.707447
2554586867000.0,6.43583582981679,2.333918085343265,7.435089774632575,-0.16065755,-0.050396383,0.04184427,28.769762,-20.244854,35.733868
2554591826000.0,6.450177892792429,2.3578216733944037,7.454212625105698,-0.15974127,-0.049785517,0.045814894,28.772598,-20.211275,35.764446
2554596797000.0,6.4547677,2.375095600514749,7.479580734032865,-0.16646078,-0.040927973,0.027794369,28.777946,-20.17899,35.785213
2554601801000.0,6.4547677,2.389327131063156,7.508043696060186,-0.16249016,-0.029626964,0.028710667,28.775696,-20.146141,35.80724
2554606975000.0,6.46132209185046,2.40731058370092,7.514515872515083,-0.15760323,-0.018936822,0.0125227375,28.783092,-20.121033,35.821617
2554611915000.0,6.47068009639996,2.426026592799921,7.509836967955692,-0.16035213,-0.01282817,0.0015271631,28.78765,-20.09477,35.83447
2554616827000.0,6.4770718669784175,2.429358367225077,7.514517599753341,-0.15607607,-0.005497787,-0.013744468,28.79681,-20.075962,35.837566
2554621800000.0,6.481966515395683,2.424463616587873,7.524306998807811,-0.13927728,0.0033597588,-0.021991149,28.80609,-20.060595,35.83794
2554626792000.0,6.480436164957663,2.40149906287336,7.512060664929748,-0.14538592,0.034513887,-0.03848451,28.824905,-20.049242,35.82943
2554631960000.0,6.475830936931237,2.3692621781613474,7.489034284358425,-0.13469578,0.04795292,-0.0580322,28.848345,-20.047602,35.82174
2554636863000.0,6.461218508765859,2.335570080968858,7.443918237600923,-0.122783914,0.076052725,-0.08093964,28.868805,-20.045776,35.800304
2554641821000.0,6.438399509150327,2.29905958627451,7.380025133986928,-0.11759156,0.07544186,-0.10995574,28.899427,-20.049421,35.779964
2554646793000.0,6.421749684488836,2.2514104991774384,7.31754147679201,-0.10048734,0.082161374,-0.13530666,28.925365,-20.057575,35.751366
2554651795000.0,6.4123679466118295,2.19042920297689,7.256560131609871,-0.093767814,0.09896017,-0.15821409,28.95792,-20.069061,35.717533
2554656834000.0,6.41886768501134,2.1388029116063505,7.174973786510206,-0.09560041,0.09193522,-0.1881465,28.997984,-20.083252,35.69087
2554661876000.0,6.447436598688492,2.100710927265556,7.065459368819643,-0.092240654,0.096516706,-0.22602014,29.043015,-20.10511,35.65367
2554666852000.0,6.480912373241339,2.0523947527356943,6.965668997934961,-0.11148291,0.10476339,-0.23823744,29.081928,-20.114017,35.62538
2554671804000.0,6.5220991745923,1.9883263950786447,6.878719131757213,-0.12308934,0.118507855,-0.24831672,29.129843,-20.131155,35.59066
2554676794000.0,6.564138975426964,1.91537387580872,6.791480059624272,-0.14538592,0.11636983,-0.25167647,29.17489,-20.137707,35.578003
2554681867000.0,6.608066038597549,1.8226392931082984,6.7036262900341566,-0.16249016,0.13347405,-0.25961772,29.218857,-20.145039,35.555294
2554686841000.0,6.639924707383628,1.7333558670947031,6.638310473194221,-0.1731803,0.13683382,-0.24648413,29.256023,-20.137177,35.560005
2554691855000.0,6.649559202949439,1.6466458094101124,6.614224209129214,-0.19761491,0.13133603,-0.24037547,29.296083,-20.125097,35.5607
2554696784000.0,6.655881,1.562872515663302,6.605492732417087,-0.21197024,0.129198,-0.22235495,29.311512,-20.096146,35.582577
2554701821000.0,6.655881,1.4802725248738284,6.627229684390771,-0.23976462,0.1255328,-0.20341812,29.325583,-20.058083,35.606667
2554706910000.0,6.653850106006815,1.4032210534590697,6.649858023401221,-0.25228736,0.1160644,-0.18845193,29.3295,-20.006058,35.641132
2554711926000.0,6.638622954631904,1.3689604497979238,6.676505230248038,-0.27214047,0.10476339,-0.17134771,29.327719,-19.943594,35.678852
2554716863000.0,6.623635624819716,1.3352394369839131,6.702732754211903,-0.27580565,0.081855945,-0.14538592,29.314474,-19.864874,35.72349
2554721855000.0,6.597670681839809,1.304539983316812,6.727557855828708,-0.29352075,0.077579886,-0.13836098,29.301231,-19.780537,35.76511
2554726846000.0,6.564504081760508,1.2761114194885013,6.75124828445678,-0.2929099,0.07360926,-0.115453534,29.278458,-19.69384,35.816547
2554731866000.0,6.508705655412106,1.3085830059781085,6.834428298503134,-0.29016098,0.07513642,-0.09437868,29.25409,-19.59416,35.863186
2554736932000.0,6.436083652025446,1.3857440297221442,6.961516839975676,-0.28710666,0.07544186,-0.07360926,29.223972,-19.492788,35.912716
2554741869000.0,6.363966949672455,1.446948306987626,7.071606846459395,-0.28008172,0.082161374,-0.060170226,29.186665,-19.387754,35.952938
2554746869000.0,6.289280457003224,1.4917601505978997,7.166209997130083,-0.25870144,0.089491755,-0.040317107,29.14149,-19.284056,35.995052
2554752005000.0,6.215812667595519,1.5282723171559895,7.227986275679402,-0.23182335,0.10751228,-0.032986723,29.10971,-19.193064,36.001507
2554757039000.0,6.1465657387245045,1.5559710597816718,7.258454831829934,-0.20555615,0.12156218,-0.032375857,29.07434,-19.106468,36.008068
2554761894000.0,6.079781106291295,1.5826848848606725,7.287839980838839,-0.18020524,0.13500121,-0.024129177,29.041458,-19.02788,35.988354
2554767069000.0,5.984963600106496,1.6144789178203762,7.334800537025204,-0.13927728,0.15485434,-0.034513887,29.012648,-18.963593,35.96126
2554771899000.0,5.793964983005071,1.6458423436843967,7.44254732773912,-0.105374254,0.17256944,-0.04428773,28.980555,-18.903412,35.9324
2554776848000.0,5.754836597900696,1.643047463203208,7.445342149852577,-0.08093964,0.1853976,-0.059864793,28.964964,-18.863691,35.870197
2554781879000.0,5.715059894433306,1.6402062743365964,7.448183279384361,-0.05100725,0.17989981,-0.06811147,28.956749,-18.835928,35.784477
2554786920000.0,5.673793391791505,1.6381114625692592,7.447890234557767,-0.02321288,0.1853976,-0.08124508,28.952656,-18.81722,35.691757
2554791870000.0,5.62028849337164,1.6429755257746768,7.418705956905397,-0.011301007,0.1881465,-0.092240654,28.952381,-18.802973,35.602097
2554796937000.0,5.568573451211318,1.6472107,7.388167037824934,0.009468411,0.18600847,-0.093767814,28.958124,-18.798128,35.50214
2554801884000.0,5.535062272007073,1.6472107,7.354655771140583,0.015882496,0.17440203,-0.11178834,28.97409,-18.79737,35.402702
2554806900000.0,5.501083683996463,1.6472107,7.320677094429708,0.02687807,0.17256944,-0.12095132,28.99139,-18.80536,35.297863
2554811865000.0,5.426047322595038,1.6584275425397108,7.249379579011244,0.021991149,0.15974127,-0.121256754,29.014812,-18.812275,35.19982
2554816835000.0,5.3453462490630015,1.6711698756648223,7.172925846368017,0.02076942,0.1600467,-0.13194689,29.042892,-18.825304,35.098457
2554821824000.0,5.299937213793103,1.6668266965517242,7.129107086896552,0.040927973,0.1441642,-0.1328632,29.074482,-18.843302,35.005344
2554826835000.0,5.275601846247464,1.65222542520284,7.1047715160649085,0.043676864,0.13622294,-0.14202617,29.110748,-18.859657,34.909687
2554832100000.0,5.283708625594256,1.6241602241680413,7.089827749762297,0.059864793,0.12522738,-0.14385876,29.153292,-18.890795,34.815666
2554836896000.0,5.30598976113321,1.5929666344135054,7.080915295546716,0.07269296,0.12492194,-0.15057829,29.19931,-18.92316,34.721035
2554841813000.0,5.3122333125,1.597540862295082,7.065681552254098,0.09468412,0.13255776,-0.15882497,29.246483,-18.961567,34.626842
2554846822000.0,5.30731823125,1.6270307339344263,7.046021740471312,0.10781772,0.1432479,-0.16126843,29.292782,-18.999823,34.533474
2554851819000.0,5.311451800616927,1.6376339,7.097961098592636,0.1142318,0.15241088,-0.16126843,29.334358,-19.035057,34.44592
2554856927000.0,5.320882742278774,1.6376339,7.192270662926547,0.10323623,0.15210545,-0.1591304,29.375189,-19.068163,34.359642
2554861848000.0,5.357616796022099,1.6870023372275238,7.266144212435962,0.093767814,0.1337795,-0.17837265,29.42224,-19.113564,34.27381
2554867777000.0,5.426061696132597,1.7896699851833249,7.340292923706681,0.05131268,0.118202426,-0.19394971,29.466461,-19.146553,34.189667
2554871808000.0,5.460748820503909,1.889226952823632,7.397233130726905,-0.0018325958,0.093767814,-0.20158553,29.517395,-19.170397,34.10327
2554876856000.0,5.498083553663481,2.0292319828844483,7.471902402123757,-0.06352998,0.082161374,-0.18997909,29.566751,-19.180828,34.019623
2554881941000.0,5.5162406,2.1544003515814363,7.552887425519756,-0.115453534,0.06780604,-0.17104226,29.623676,-19.189734,33.945335
2554886833000.0,5.5162406,2.260572658173219,7.635978930022662,-0.1563815,0.05375614,-0.15760323,29.679325,-19.18535,33.876022
2554891872000.0,5.513877555580563,2.345944299263427,7.692414468849105,-0.17684549,0.030848695,-0.13347405,29.733953,-19.189238,33.809696
2554896809000.0,5.509040760265984,2.403987206710997,7.716598950485933,-0.19730948,0.004276057,-0.10903945,29.785698,-19.180908,33.75085
2554901819000.0,5.483434439125129,2.4418008000938705,7.712222355899747,-0.1994475,-0.00030543262,-0.07727446,29.835247,-19.184134,33.68157
2554906980000.0,5.437038245752371,2.4603592289965266,7.679745117431709,-0.18417588,-0.015271631,-0.036651913,29.878275,-19.180534,33.62705
2554911839000.0,5.403305329941093,2.4765090728214503,7.638673629453586,-0.15363261,-0.024740042,-0.0106901415,29.915092,-19.184265,33.570133
2554916809000.0,5.383968769104205,2.4910114177330898,7.580664047897624,-0.10170906,-0.027488936,0.0070249503,29.942219,-19.19065,33.520233
2554921808000.0,5.401041723871892,2.509708314795866,7.511973429694056,-0.08399397,-0.034513887,0.043676864,29.963938,-19.196695,33.474113
2554926793000.0,5.469430741471401,2.5341329275043485,7.428929746485214,-0.020158553,-0.040317107,0.065973446,29.98411,-19.223894,33.43006
2554931938000.0,5.550227452964349,2.5772370882016937,7.365375513649793,0.042760566,-0.04734206,0.10629055,29.988457,-19.251526,33.397785
2554936867000.0,5.6385549970455,2.637671754284026,7.328185009651369,0.09407325,-0.038179077,0.13041973,29.98912,-19.289036,33.364563
2554941831000.0,5.725671061879766,2.698685713647618,7.323569208398534,0.1469131,-0.0290161,0.1591304,29.976765,-19.339375,33.36007
2554946797000.0,5.810453867822125,2.7599176691195404,7.361250411765871,0.19486602,-0.00580322,0.18692477,29.953815,-19.395008,33.352787
2554951806000.0,5.89401874883112,2.8092658593042827,7.411228687862353,0.21410827,0.008246681,0.20372356,29.92678,-19.461256,33.367386
2554957220000.0,5.981289755750889,2.843204764222929,7.483954695717225,0.23854288,0.025961773,0.20616703,29.891972,-19.535456,33.37701
2554961854000.0,6.0364571984913145,2.8593730389058214,7.558061920816824,0.24617869,0.043982297,0.20891592,29.849693,-19.613895,33.392784
2554966818000.0,6.047324175175252,2.844883749268516,7.666731460713198,0.24251351,0.04917465,0.20616703,29.807966,-19.693377,33.40756
2554971801000.0,6.058232745847303,2.83033900102865,7.775816939622067,0.21594086,0.05009095,0.1908954,29.768753,-19.769411,33.423817
2554976799000.0,6.0197511799322845,2.7912640908583457,7.916355979959737,0.17959438,0.044898596,0.17867808,29.7299,-19.839907,33.440865
2554983341000.0,5.933754590455711,2.722466711520864,8.122747818649342,0.13988814,0.028099801,0.16707164,29.69739,-19.903736,33.45946
2554986863000.0,5.881559690933225,2.6641025552787423,8.207879670410456,0.07513642,0.021991149,0.1423316,29.67234,-19.943254,33.461876
2554991835000.0,5.803772004676333,2.56686771901164,8.309976751072085,0.025045475,0.016798794,0.121256754,29.652239,-19.97705,33.467823
2554996816000.0,5.713479665862633,2.476800646913328,8.397523128372853,-0.028710667,0.0067195175,0.10262536,29.644903,-19.985802,33.442093
2555001812000.0,5.610785210997547,2.393667339677024,8.470876091578088,-0.0720821,0.010079277,0.07238753,29.64678,-19.990492,33.411156
2555006901000.0,5.520835693529523,2.317698452876816,8.524576143746463,-0.105374254,0.003970624,0.047036625,29.652143,-19.965248,33.36458
2555011856000.0,5.444746111563856,2.250560492963592,8.560382818902093,-0.12522738,-0.004886922,0.028405234,29.665022,-19.937613,33.316105
2555016831000.0,5.36950007458991,2.174059645207882,8.551121380583927,-0.15149458,-0.018936822,0.01160644,29.68766,-19.89445,33.24419
2555021820000.0,5.295562199009594,2.085334091571237,8.482112799649231,-0.16187929,-0.04734206,-0.015271631,29.722641,-19.85603,33.17641
2555026813000.0,5.249659117737921,1.9757963656225863,8.272571484218657,-0.15851954,-0.05131268,-0.035124753,29.757969,-19.80521,33.0903
2555031902000.0,5.232930007380074,1.8419626966789668,7.908711084870848,-0.13469578,-0.05681047,-0.06383542,29.808525,-19.763771,33.00929
2555036793000.0,5.228685218355844,1.7357333086461768,7.588694275316388,-0.096516706,-0.04795292,-0.08277224,29.859953,-19.722864,32.922077
2555041934000.0,5.291517390790173,1.751441379091779,7.421141305200468,-0.052534413,-0.045814894,-0.09743301,29.920288,-19.693665,32.836594
