timestamp,acc_x,acc_y,acc_z,gyro_x,gyro_y,gyro_z,ori_azimuth,ori_pitch,ori_roll
178334919000.0,1.6482125129336818,9.570977092366403,0.2788694183789268,-1.1710287,0.73823065,0.03970624,19.32937,-19.100428,24.880934
178339903000.0,1.6529561346547936,9.577380963486748,0.2729398902616551,-1.1710287,0.75441855,0.026572637,19.319134,-19.091322,24.884527
178344899000.0,1.6577111776160045,9.583800253237396,0.2669960855919341,-1.1820242,0.7657196,0.03359759,19.305414,-19.254143,24.752201
178349948000.0,1.6625166643876526,9.590287641938565,0.2609892261488953,-1.1905763,0.7635816,0.035124753,19.303497,-19.430393,24.615696
178355914000.0,1.6681949242568648,9.597953270972262,0.25389140015619,-1.1866057,0.7480045,0.028710667,19.308357,-19.61722,24.47825
178359905000.0,1.6719934383597856,9.6030812504348,0.249143256754097,-1.1768318,0.75441855,0.028710667,19.314491,-19.812056,24.335041
178364984000.0,1.6768274782316812,9.609607185711733,0.2431007059299351,-1.1817188,0.77304995,0.032070424,19.327541,-20.013878,24.191093
178369917000.0,1.6815225596823724,9.615945527653274,0.2372318531605728,-1.1948525,0.77732605,0.03390302,19.347296,-20.225397,24.04783
178374791000.0,1.686161486702577,9.622208061329149,0.2314331934407529,-1.2104294,0.7675522,0.044593163,19.367907,-20.442278,23.90355
178379793000.0,1.6909222402838373,9.628635060394949,0.2254822504948072,-1.2104294,0.7461719,0.03634648,19.398975,-20.670368,23.75825
178384830000.0,1.6957163058153863,9.635107030465807,0.2194896676042178,-1.1856894,0.79168135,0.06383542,19.414095,-20.903193,23.602013
178389834000.0,1.7004789629366632,9.641536599303327,0.2135363452328639,-1.2476922,0.7583892,0.06078109,19.4569,-21.126167,23.46677
178394813000.0,1.705217825807734,9.647934045994376,0.2076127656791127,-1.2507466,0.7440339,0.06841691,19.47589,-21.368357,23.358109
178399813000.0,1.7099766758489778,9.65435847528846,0.2016642021585752,-1.2479976,0.72784597,0.08368854,19.50276,-21.602318,23.258072
178404821000.0,1.7147431400502875,9.660793183669414,0.1957061209364049,-1.2495248,0.72418076,0.09040806,19.534706,-21.841019,23.157278
178409814000.0,1.7194953277014735,9.667208618762483,0.1897658854047962,-1.2550226,0.6985244,0.10048734,19.570606,-22.083324,23.067492
178414834000.0,1.7242732131428826,9.673658745773746,0.1837935276301766,-1.2559389,0.68019843,0.10598512,19.60964,-22.332056,22.975872
178419822000.0,1.7290206419440275,9.680067756437523,0.1778592406620884,-1.2718215,0.6243043,0.109650314,19.658743,-22.580284,22.900421
178425092000.0,1.7340364698874986,9.686839104913489,0.1715894547114419,-1.2315043,0.550695,0.10842858,19.71649,-22.848267,22.83308
178429828000.0,1.7385440526465648,9.692924324340844,0.1659549753447888,-1.1233811,0.4822781,0.10781772,19.783852,-23.134403,22.777899
178434831000.0,1.7433057579978335,9.699352608292504,0.1600028426861391,-1.0152581,0.41386122,0.10598512,19.865898,-23.436075,22.739681
178439877000.0,1.748108389459457,9.705836142336093,0.1539995523812126,-0.8912524,0.34300083,0.09773844,19.96363,-23.774982,22.716812
178444857000.0,1.7528482041005355,9.712234873913,0.1480747831147573,-0.7812967,0.2843578,0.09315695,20.072702,-24.141676,22.706251
178449858000.0,1.7576080059117878,9.718660588092945,0.1421250298815158,-0.6582073,0.18661933,0.046731193,20.21508,-24.553005,22.71469
178454828000.0,1.762338302852784,9.725046470811264,0.1362121577421015,-0.19853121,-0.028099801,0.03390302,20.378614,-25.078873,22.768444
178459844000.0,1.76711238121416,9.731491458279088,0.1302445588182983,-0.03634648,-0.040927973,0.03359759,20.541018,-25.565199,22.787643
178464873000.0,1.771898832585643,9.737953149263078,0.1242614936293418,-0.005192355,-0.02565634,0.03970624,20.736568,-26.137331,22.848633
178469857000.0,1.776642454306755,9.74435702038342,0.11833196551207,-0.02565634,-0.022296581,0.035124753,20.943153,-26.738562,22.909298
178474865000.0,1.7814089185080648,9.750791728764376,0.1123738842898997,-0.0061086523,-0.046120327,0.046120327,21.149723,-27.354168,22.970926
178479825000.0,1.786129697748979,9.757164762624106,0.1064729092775265,0.015882496,-0.0580322,0.040011674,21.363417,-27.96633,23.020723
178484929000.0,1.7909875318710806,9.763722820047503,0.1004006156357619,0.04153884,-0.06261369,0.03573562,21.57956,-28.580957,23.07142
178489892000.0,1.7957111664220191,9.770099708564812,0.0944960714852764,0.04917465,-0.059253927,0.027183503,21.802042,-29.195707,23.116535
178495477000.0,1.8010268019180886,9.777275796086304,0.0878515260328361,0.06566802,-0.062002823,0.03176499,22.026554,-29.815557,23.160606
178499978000.0,1.8053107187252164,9.783059067336838,0.0824966291516482,0.057726767,-0.05681047,0.03145956,22.25489,-30.429981,23.194988
178504902000.0,1.8099972342458333,9.789385845305652,0.076638483796623,0.052534413,-0.0580322,0.032070424,22.485197,-31.045424,23.227575
178509970000.0,1.8148208046476384,9.795897646838135,0.0706090198122062,0.04184427,-0.042455133,0.017715093,22.717043,-31.656076,23.247755
178514923000.0,1.8195349214984944,9.802261686496855,0.0647163727887618,0.029932396,-0.032986723,0.01740966,22.947525,-32.259567,23.267437
178519966000.0,1.824334697650093,9.808741365882868,0.0587166516219477,0.007941248,-0.020158553,0.009162978,23.180956,-32.856995,23.274595
178524911000.0,1.8290412003408831,9.815095126454716,0.0528335223001361,-0.017715093,-0.009468411,-0.002443461,23.414268,-33.447063,23.275162
178529901000.0,1.8337905326820445,9.821506706890212,0.0468968559066397,-0.037873644,0.008246681,-0.013744468,23.645811,-34.030003,23.26577
178534899000.0,1.838547479183272,9.82792856641258,0.0409506718115105,-0.052839845,0.01985312,-0.018020526,23.877234,-34.60425,23.250721
178539873000.0,1.8432815832043012,9.834319588674331,0.0350330408212798,-0.0693332,0.023518313,-0.022907447,24.109022,-35.170414,23.22776
178544916000.0,1.8480813593559,9.840799268060346,0.0290333196544657,-0.0852157,0.03726278,-0.027183503,24.336472,-35.729103,23.195908
178549910000.0,1.8528344987770944,9.847215988039276,0.0230918944101529,-0.0842994,0.040927973,-0.021991149,24.56289,-36.282734,23.163115
178554905000.0,1.857588589968297,9.853633992904069,0.017149279453136,-0.06383542,0.046120327,-0.022907447,24.787312,-36.834126,23.122051
178559943000.0,1.8623836072698543,9.860107247860784,0.0111555068498425,-0.06414085,0.050396383,-0.013439035,25.005903,-37.373634,23.080442
178564886000.0,1.867088206420628,9.866458438660915,0.0052747569534391,-0.047647487,0.0580322,-0.01282817,25.223236,-37.91887,23.032457
178569942000.0,1.8719003555823337,9.872954821563091,-0.0007404304785283,-0.02076942,0.054061573,-0.006414085,25.43665,-38.45936,22.986359
178574921000.0,1.8766392184534044,9.879352268254143,-0.0066640100322795,0.011301007,0.041233405,0.0015271631,25.64784,-38.99966,22.938478
178579907000.0,1.8813847437145328,9.885758709146202,-0.0125959175749594,0.025350908,0.032070424,0.005497787,25.856426,-39.53634,22.888754
178584947000.0,1.8861816645561067,9.89223453387464,-0.0185920696036612,0.04886922,0.013744468,0.016798794,26.064106,-40.075394,22.844234
178594933000.0,1.877979940636244,9.889198511813383,-0.0287152018763092,0.08552113,0.0009162979,0.019242255,26.271423,-40.615986,22.797169
178599914000.0,1.8734507805993643,9.887291508065484,-0.0337211162353482,0.0852157,-0.021380283,0.020463986,26.480333,-41.145775,22.755405
178604906000.0,1.8689116184021948,9.885380292905973,-0.0387380856150555,0.08582657,-0.029321533,0.017104227,26.712296,-41.71305,22.73345
178610221000.0,1.864078756407412,9.883345415387383,-0.044079670601663,0.0729984,-0.026267206,0.014049901,26.943787,-42.269196,22.710846
178614953000.0,1.8597760089080115,9.881533742684097,-0.048835339492844,0.057726767,-0.015577064,0.019242255,27.171549,-42.81657,22.686264
178619981000.0,1.855204112368074,9.879608744722956,-0.0538884889401934,0.034513887,0.002443461,0.01038471,27.397627,-43.353924,22.653173
178624908000.0,1.8507240538453469,9.877722415177502,-0.0588401331977692,0.02107485,0.0018325958,0.014660766,27.6188,-43.879692,22.622805
178629963000.0,1.846127606548333,9.875787080115137,-0.0639204176958503,0.0021380284,0.0125227375,0.011911872,27.833393,-44.39359,22.581036
178634909000.0,1.8416302715669224,9.873893476313263,-0.0688911569891261,-0.021991149,0.02321288,0.0033597588,28.04529,-44.895973,22.536768
178639900000.0,1.837092018657052,9.871982644009355,-0.0739071213669545,-0.020463986,0.03756821,0.00061086525,28.249994,-45.392315,22.488462
178645071000.0,1.8323900940333413,9.87000289769729,-0.0791039860829935,-0.03481932,0.04886922,0.0027488936,28.45036,-45.87253,22.436144
178649972000.0,1.827933676980391,9.868126522397455,-0.0840295002917166,-0.039095376,0.050396383,0.004581489,28.646944,-46.34896,22.38069
178654898000.0,1.823454527744963,9.866240575707604,-0.0889801395474134,-0.04795292,0.057421334,0.004276057,28.836153,-46.813896,22.320787
178659903000.0,1.8189035448129047,9.864324383425284,-0.0940101739515471,-0.042760566,0.050701816,0.01038471,29.023458,-47.272923,22.263588
178664881000.0,1.814377112637923,9.862418528244184,-0.0990130733049492,-0.029932396,0.043066,0.014966198,29.206354,-47.725075,22.203703
178670077000.0,1.8096524558317344,9.860429210542096,-0.1042350630679619,-0.023518313,0.021380283,0.019547688,29.389992,-48.16909,22.147636
178674973000.0,1.8052005852152797,9.85855474952027,-0.1091555522672903,-0.011911872,-0.005192355,0.016187929,29.574148,-48.61104,22.091757
178680949000.0,1.7997666843157831,9.856266804449508,-0.1151614434958823,0.013133603,-0.03634648,0.03176499,29.757448,-49.046932,22.04456
178684907000.0,1.7961677251858958,9.85475146198129,-0.1191392409327576,0.037873644,-0.044593163,0.03145956,29.941961,-49.481693,21.992302
178689893000.0,1.791634018712521,9.852842543955385,-0.1241501803011913,0.044898596,-0.0711658,0.046731193,30.13035,-49.906013,21.954159
178695058000.0,1.786937549812605,9.850865094776925,-0.1293410150059566,0.05131268,-0.090713486,0.041233405,30.31964,-50.332417,21.909885
178699968000.0,1.7824729491739626,9.848985273776686,-0.1342755742315903,0.06291912,-0.10903945,0.054367006,30.506496,-50.748936,21.87632
178704908000.0,1.777981069916347,9.84709396710842,-0.1392402835135924,0.059253927,-0.10903945,0.058337633,30.693117,-51.158802,21.838089
178709899000.0,1.7734428170064764,9.84518313480451,-0.1442562478914208,0.06414085,-0.112399206,0.04520403,30.882912,-51.56699,21.800861
178714933000.0,1.768865464742744,9.843255839709762,-0.149315427350044,0.061391957,-0.10445796,0.039095376,31.064882,-51.963768,21.763197
178719986000.0,1.7642708360203283,9.841321270358598,-0.1543937018443671,0.04642576,-0.09437868,0.03634648,31.245674,-52.353653,21.722158
178724905000.0,1.759798051795994,9.839438003657952,-0.1593373060869113,0.027488936,-0.0852157,0.027183503,31.423515,-52.737366,21.675941
178729904000.0,1.7552525245877308,9.837524108509236,-0.1643613104797713,0.01160644,-0.06994407,0.01740966,31.594496,-53.112305,21.625591
178734920000.0,1.7506915394953826,9.835603704815304,-0.1694023999045734,0.0021380284,-0.06261369,0.004581489,31.763931,-53.48005,21.571314
178739923000.0,1.7461423751379228,9.833688278244184,-0.1744304243049492,-0.04184427,-0.059253927,-0.009162978,31.928902,-53.832012,21.512163
178744934000.0,1.74158593648207,9.831769788828256,-0.1794664887203566,-0.051923547,-0.0571159,-0.0030543262,32.08808,-54.181953,21.45349
178750616000.0,1.7364193660485128,9.82959440330415,-0.1851769093965379,-0.06078109,-0.043676864,0.003970624,32.242237,-54.51858,21.389343
178754916000.0,1.732509430662329,9.827948124220436,-0.1894984174760134,-0.064751714,-0.046120327,0.008552114,32.396572,-54.847527,21.327845
178759902000.0,1.7279757241889542,9.826039206194531,-0.1945093568444471,-0.081855945,-0.034208454,0.0061086523,32.54047,-55.16586,21.26242
178764922000.0,1.7234111019474094,9.824117271078196,-0.199554466276765,-0.07971791,-0.025045475,0.016187929,32.680443,-55.47882,21.201982
178769914000.0,1.71887193975024,9.822206055918684,-0.2045714356564724,-0.07513642,-0.021380283,0.024129177,32.816574,-55.78387,21.139595
178774976000.0,1.7142691274421324,9.820268040867116,-0.2096587551677061,-0.07147124,-0.021380283,0.028405234,32.947582,-56.082596,21.078196
178779911000.0,1.709781794621012,9.818378648476852,-0.2146184394403134,-0.04886922,-0.025045475,0.030848695,33.075104,-56.38,21.018465
178784931000.0,1.7052171723794671,9.816456713360518,-0.2196635488726313,-0.04520403,-0.040011674,0.031154128,33.20282,-56.668365,20.960857
178789893000.0,1.7046716,9.77936975489677,-0.2423809163049232,-0.025350908,-0.055588737,0.03634648,33.328148,-56.958485,20.90578
178794866000.0,1.7046716,9.737349791600494,-0.2675929162211046,-0.01160644,-0.070249505,0.037873644,33.455246,-57.243393,20.851707
178799986000.0,1.636607955884484,9.698802277300487,-0.2158513734044095,0.017715093,-0.079107046,0.039095376,33.597027,-57.559364,20.786331
178804891000.0,1.529638338971121,9.66476631932512,-0.1186062883511023,0.02565634,-0.08460484,0.03023783,33.740368,-57.869724,20.720228
178809881000.0,1.4630695452857418,9.656512286800076,-0.0892824835347315,0.03359759,-0.095294975,0.032375857,33.895912,-58.186672,20.662464
178814877000.0,1.4170374664325571,9.66111558601116,-0.0938856885360785,0.028710667,-0.08582657,0.025961773,34.046753,-58.50016,20.598326
178819881000.0,1.3816161843722563,9.654699343283582,-0.0847030273924495,0.03176499,-0.061391957,0.019547688,34.19082,-58.818554,20.509481
178824927000.0,1.3533314616915424,9.640557154228857,-0.0658465009751243,0.025045475,-0.04886922,0.018020526,34.333042,-59.128506,20.421215
178829901000.0,1.3354589503897945,9.631620919914957,-0.0336376001700921,0.01985312,-0.040927973,0.010995574,34.480286,-59.453716,20.317478
178834929000.0,1.3257085908879214,9.626745638351728,0.0102390481320238,0.018020526,-0.035124753,0.004886922,34.621853,-59.772408,20.213507
178839889000.0,1.3270715819790828,9.632899158688655,0.0424108846615044,0.007941248,-0.009468411,-0.004581489,34.767128,-60.097523,20.097948
178844885000.0,1.3366946094931618,9.647333498994367,0.066468470528761,0.009468411,-0.007330383,-0.008552114,34.91442,-60.418556,19.985603
178849966000.0,1.3578442580368624,9.655862662923274,0.1083554310564937,0.007330383,0.007330383,-0.010995574,35.067955,-60.743008,19.865889
178854963000.0,1.3865614794256322,9.659965214916417,0.1616875300313759,0.015577064,0.017104227,-0.015271631,35.219543,-61.064358,19.746643
178859844000.0,1.4294294748519458,9.666604566941624,0.2155389165397631,0.011301007,0.024740042,-0.030543262,35.400352,-61.396988,19.626846
178864899000.0,1.5215819751692048,9.681963619923858,0.2769738882402707,0.009162978,0.0290161,-0.032986723,35.57416,-61.72246,19.510313
178869861000.0,1.6072526791325448,9.70526871003943,0.3380367778242847,0.013744468,0.017104227,-0.03970624,35.7953,-62.064533,19.39732
178874967000.0,1.686353555019715,9.744818915680922,0.4023062388373268,0.03023783,0.0061086523,-0.038789943,36.00863,-62.39874,19.286493
178879826000.0,1.74685646783756,9.769837970356408,0.4420280438193968,0.035124753,-0.009468411,-0.044593163,36.31244,-62.763454,19.19211
178884903000.0,1.784347320313571,9.774003702793008,0.4461937023106579,0.043066,-0.02565634,-0.030848695,36.60695,-63.116074,19.103977
178890089000.0,1.817155815232128,9.77548251099014,0.4492974352187757,0.040011674,-0.04886922,-0.022296581,37.038616,-63.536236,19.021265
178894934000.0,1.788561108935908,9.746887754930157,0.439765868112161,0.032375857,-0.06352998,-0.022602014,37.451385,-63.938168,18.93734
178899922000.0,1.754213381688126,9.716732424892705,0.4276955278111588,0.027488936,-0.06841691,-0.007941248,38.077206,-64.46682,18.848543
178904958000.0,1.6760169577300903,9.679934322460658,0.3954970008640915,0.022907447,-0.05681047,-0.007941248,38.66171,-64.966934,18.747307
178910231000.0,1.5928337114529914,9.641794575427353,0.3598178219166666,0.024740042,-0.05222898,-0.008552114,39.50889,-65.67759,18.579649
178914905000.0,1.501970751965812,9.61310090940171,0.3024306446666667,0.027488936,-0.040317107,-0.0036651916,40.273453,-66.33257,18.401773
178919883000.0,1.4035677710568453,9.5875839377502,0.2471970057365893,0.01985312,-0.029321533,-0.0143553335,41.076324,-67.101,18.128609
178924914000.0,1.2926629207165732,9.597227526921538,0.2327311587570056,0.027488936,-0.021380283,-0.01740966,41.804142,-67.811226,17.858273
178929934000.0,1.185236994707786,9.60678585684371,0.2171444711355416,0.018325957,-0.018020526,-0.03604105,42.570423,-68.61144,17.507425
178935900000.0,1.0819084414620217,9.617662761850372,0.1899527594488863,0.028710667,-0.0021380284,-0.0421497,43.26528,-69.35458,17.164963
178940099000.0,1.013478491822312,9.626354008177689,0.1713847143987885,0.020463986,0.0015271631,-0.06383542,43.902103,-70.07073,16.798218
178944947000.0,0.9900416788995456,9.649790821100456,0.1573226168561332,0.026572637,0.0015271631,-0.08032878,44.486282,-70.74172,16.441835
178949967000.0,0.9689969358452892,9.674749291968643,0.1416952358659961,0.015577064,0.0018325958,-0.089491755,45.039932,-71.37376,16.087925
178954968000.0,0.9973321757876054,9.71016829566632,0.1098181103475817,0.005192355,-0.010995574,-0.099265605,45.55915,-71.97045,15.741722
178959921000.0,1.0253954518192574,9.74524734491939,0.0782469440423014,0.007941248,-0.018936822,-0.116980694,46.03256,-72.54364,15.392984
178964893000.0,1.0817380827453396,9.791062581112309,0.0170703521776305,-0.0009162979,-0.031154128,-0.11881329,46.480255,-73.07831,15.058906
178970095000.0,1.196863367632106,9.86013754367586,-0.1057299503658912,-0.0030543262,-0.036957346,-0.12217305,46.901672,-73.587845,14.731354
178974834000.0,1.301742015282699,9.923064542443385,-0.2176005066430442,0.00580322,-0.032986723,-0.12461651,47.289047,-74.071526,14.41547
178979968000.0,1.3479503371765356,9.940725,-0.2724808286057648,0.018020526,-0.027183503,-0.1255328,47.654976,-74.52861,14.110631
178984950000.0,1.3699189889676766,9.940725,-0.3032370282834515,0.030848695,-0.028710667,-0.12003502,48.001183,-74.96052,13.818005
178989915000.0,1.381825867405632,9.929662103654884,-0.2966744358777711,0.041233405,-0.04184427,-0.122783914,48.32022,-75.36366,13.552406
178994901000.0,1.3865942340323547,9.910588935889756,-0.2632961931276213,0.06352998,-0.038179077,-0.1160644,48.61617,-75.74271,13.300303
178999914000.0,1.3700974272613669,9.894472579448236,-0.2251603626511583,0.064751714,-0.054061573,-0.12003502,48.91604,-76.10443,13.057319
179005956000.0,1.3311623912909738,9.877786367778524,-0.1751010016495242,0.071776666,-0.0693332,-0.12461651,49.19811,-76.446815,12.824556
179009911000.0,1.2992956297308618,9.873688,-0.1528929369515132,0.08582657,-0.09621128,-0.119729586,49.48084,-76.767006,12.603723
179014927000.0,1.2540201494920933,9.873688,-0.1327705088773693,0.08399397,-0.12767084,-0.12095132,49.75529,-77.07151,12.387863
179019912000.0,1.2242876366372033,9.86812765219982,-0.0939171936897407,0.105374254,-0.13347405,-0.12614368,50.01755,-77.37044,12.169829
179024911000.0,1.2052690952924818,9.858618182937729,-0.041616167259708,0.118202426,-0.15699236,-0.12889257,50.281666,-77.652176,11.960168
179029878000.0,1.1921681920547944,9.82000509589041,0.0153753658246575,0.13469578,-0.18478674,-0.13439035,50.53289,-77.92916,11.747411
179034920000.0,1.1833487901187214,9.758269374429224,0.0771112226600913,0.12370021,-0.204029,-0.14477506,50.777946,-78.19297,11.539525
179039862000.0,1.1797535448830112,9.696977891963378,0.1384028823397762,0.11362094,-0.21838433,-0.13927728,51.021828,-78.443,11.338148
179044933000.0,1.184693926653103,9.632753135300105,0.202627896937945,0.10751228,-0.25625798,-0.1414153,51.269024,-78.68516,11.138416
179049862000.0,1.1875241,9.567869016666668,0.2359086811666667,0.106595986,-0.28038713,-0.14844026,51.510353,-78.91156,10.946569
179054917000.0,1.1875241,9.497708455525364,0.2271386087346014,0.092240654,-0.29749137,-0.14508049,51.752228,-79.12456,10.762829
179059894000.0,1.1885388073521743,9.432584926478256,0.2040312217697361,0.09010262,-0.3005457,-0.15363261,51.997494,-79.33175,10.580259
179064897000.0,1.193535442079466,9.38261857920534,0.1240850139587027,0.08582657,-0.30024028,-0.15607607,52.238934,-79.52719,10.405251
179070276000.0,1.2074397290431669,9.328009264173463,0.0515293949198329,0.07819075,-0.30818152,-0.15821409,52.46933,-79.72172,10.228074
179075670000.0,1.2382676139844837,9.271490831310922,0.0052875331716729,0.09590584,-0.30024028,-0.17195857,52.688354,-79.913,10.051494
179079903000.0,1.2568367558831113,9.233655375676838,-0.0316664303843575,0.09162979,-0.29565877,-0.1777618,52.90377,-80.093895,9.882874
179084908000.0,1.26507601398367,9.20481823042544,-0.0769823826301676,0.112704635,-0.27885997,-0.18509217,53.10691,-80.272285,9.714458
179090291000.0,1.2734482336913862,9.174581,-0.1262344221214625,0.10629055,-0.27305678,-0.19364429,53.304234,-80.440994,9.552793
179094984000.0,1.2641642174963852,9.174581,-0.1865805661660814,0.112399206,-0.26389378,-0.20158553,53.489735,-80.60462,9.3936405
179100184000.0,1.2542591458729,9.17518608929876,-0.2538378395087655,0.12064589,-0.2489276,-0.20005837,53.667526,-80.756325,9.24366
179104911000.0,1.250125696859021,9.183452728360116,-0.3199730712079985,0.115453534,-0.23915374,-0.21380283,53.838566,-99.0924,9.09135
179109911000.0,1.245753527392257,9.192196793371073,-0.3899278328953616,0.1328632,-0.21013765,-0.22204952,53.998127,-98.95063,8.945408
179114887000.0,1.2621756779267437,9.231553704258674,-0.4537981491587802,0.1469131,-0.17379116,-0.23823744,54.147438,-98.8098,8.797607
179119845000.0,1.28297916266211,9.277321361987385,-0.5162085251629863,0.16249016,-0.13805555,-0.25167647,54.283634,-98.67472,8.65266
179124918000.0,1.3190701176923076,9.31575267820513,-0.5339683773076923,0.17654006,-0.098043874,-0.26083946,54.394524,-98.54618,8.510746
179129905000.0,1.3671794600824174,9.346368154349816,-0.5121004508104395,0.20891592,-0.06352998,-0.27030787,54.49257,-98.42215,8.369667
179134863000.0,1.4256553591925645,9.370960156646335,-0.4883086619905121,0.23426682,-0.04428773,-0.27397305,54.57924,-98.3106,8.236264
179139899000.0,1.5050328409236131,9.384967979088003,-0.4602930902410688,0.2434298,-0.01863139,-0.27305678,54.650448,-98.206245,8.106407
179145148000.0,1.58165511965717,9.40774525386874,-0.4302152915181335,0.24404067,0.0018325958,-0.2837469,54.720734,-98.11074,7.981186
179149915000.0,1.639622119601619,9.443974605190064,-0.4012317953289421,0.26633725,0.027488936,-0.28130344,54.77889,-98.0284,7.8646197
179154881000.0,1.700008971232442,9.481716362828346,-0.3710383734544877,0.27947086,0.0290161,-0.2874121,54.8353,-97.95262,7.7514124
179159920000.0,1.7729444879099985,9.514094288068453,-0.349244641086991,0.29901853,0.025961773,-0.28069258,54.88293,-97.89007,7.64691
179164959000.0,1.849410254967517,9.544680403264142,-0.3301282033148471,0.31215215,0.0125227375,-0.27580565,54.930378,-97.832756,7.5441217
179169856000.0,1.9177111403397864,9.5895922631371,-0.3197616669695772,0.310625,-0.018936822,-0.27030787,54.97641,-97.78711,7.451039
179174912000.0,1.9687268661925457,9.685246749111023,-0.3357040946160937,0.3268129,-0.051923547,-0.26511553,55.02437,-97.75126,7.362663
179179831000.0,2.018360243461083,9.77830933148953,-0.3512145379691821,0.31948254,-0.079107046,-0.24923302,55.072372,-97.731415,7.291241
179184901000.0,2.0458262984126985,9.874821848595849,-0.3689906242673992,0.31948254,-0.07971791,-0.23518312,55.119728,-97.71923,7.223616
179189893000.0,1.982589015873016,9.972109975579976,-0.3933126661721611,0.3100141,-0.08674286,-0.23182335,55.17425,-97.71078,7.1596375
179194893000.0,1.913338424100316,10.060187750025488,-0.41180268,0.3051272,-0.077579886,-0.20463985,55.223362,-97.72605,7.116301
179199916000.0,1.825064614354165,10.119037093077786,-0.41180268,0.29901853,-0.05681047,-0.1863139,55.268566,-97.74149,7.0734615
179204879000.0,1.753151306853653,10.17097099238483,-0.3958362807223101,0.29077184,-0.02321288,-0.17592919,55.310223,-97.75333,7.0249815
179209894000.0,1.7205607264419815,10.207182748397798,-0.3378974295084068,0.27397305,-0.003970624,-0.16340645,55.348206,-97.770935,6.9843206
179214885000.0,1.68812611291563,10.243221207871525,-0.2802358529563447,0.267559,0.026572637,-0.15363261,55.379333,-97.77668,6.9291773
179219943000.0,1.6759412,10.28300095035868,-0.2206705055322811,0.2519819,0.046731193,-0.13775012,55.40657,-97.78602,6.881644
179224937000.0,1.6759412,10.324171954471543,-0.161201795902439,0.2501493,0.063224554,-0.12308934,55.42484,-97.800354,6.83902
179229956000.0,1.682749363430449,10.358837572490708,-0.0932262893224691,0.2443461,0.08002335,-0.110872045,55.444313,-97.7968,6.783741
179234904000.0,1.695039327915622,10.387513899628251,-0.0194864480848102,0.25625798,0.08002335,-0.099265605,55.463165,-97.80074,6.734543
179239910000.0,1.71337218125,10.39780812628866,0.0652790200625,0.26542094,0.071776666,-0.093462385,55.477863,-97.79248,6.6774063
179244945000.0,1.75220855234375,10.343436939110823,0.1856717311171875,0.28099802,0.06688975,-0.08552113,55.491196,-97.79193,6.6263433
179249876000.0,1.7902427421875,10.29018881121134,0.303577681109375,0.30207285,0.057726767,-0.06872234,55.520138,-97.79246,6.5805807
179254966000.0,1.794268093637763,10.229625952283222,0.4030759615392509,0.32253686,0.021991149,-0.06169739,55.557278,-97.7959,6.535283
179259922000.0,1.7861506623396617,10.16874521754746,0.4923677736275013,0.36010507,-0.009773844,-0.047036625,55.595493,-97.81203,6.4982953
179264856000.0,1.7537705215673982,10.092953089446183,0.5871513266039707,0.37812558,-0.061391957,-0.033292156,55.655838,-97.82172,6.467864
179269881000.0,1.683370429090909,9.99238167878788,0.6927513603030303,0.38545597,-0.113926366,-0.022602014,55.72469,-97.838455,6.440811
179274979000.0,1.5640572989410348,9.909784376173286,0.7624613047990373,0.39400807,-0.1777618,-0.01282817,55.816586,-97.84929,6.414431
179279904000.0,1.401351498299238,9.84924302839952,0.7927321604348174,0.36926803,-0.23518312,-0.005192355,55.920383,-97.857315,6.3898625
179285233000.0,1.2208347339020835,9.784481812483923,0.821846505163337,0.3381139,-0.29046643,-0.0012217305,56.048435,-97.844345,6.348251
179289943000.0,0.9965191969047414,9.738071573265884,0.794773935618623,0.27397305,-0.33292156,-0.015271631,56.187157,-97.81868,6.303183
179294919000.0,0.7595353089856812,9.689040288690732,0.7661724269021692,0.2098322,-0.3662137,-0.02565634,56.353073,-97.75866,6.228093
179299964000.0,0.559653188681893,9.686455820075894,0.7126118985966922,0.16187929,-0.38606682,-0.044898596,56.524517,-97.68525,6.147094
179304960000.0,0.3815205994272213,9.707009636643518,0.6475250035727071,0.092240654,-0.39706242,-0.06658431,56.700485,-97.59439,6.063211
179309917000.0,0.2047785568060428,9.727403005083412,0.582946192797308,0.035124753,-0.39370266,-0.09162979,56.892975,-97.45966,5.928273
179314960000.0,0.1365251774418604,10.097295302325582,0.3890856130232558,-0.022907447,-0.38453966,-0.11362094,57.084316,-97.310135,5.7909684
179319846000.0,0.0861069922501571,10.504842191074797,0.1832113597485858,-0.053450707,-0.3481932,-0.118507855,57.264763,-97.15564,5.655281
179324901000.0,0.1789485232291211,10.824614158285964,0.0381983560625273,-0.09590584,-0.29046643,-0.10873401,57.44259,-96.9672,5.486689
179330913000.0,0.3887421527437691,11.135108853519895,-0.0876778216462614,-0.10903945,-0.22571471,-0.07788532,57.60668,-96.78558,5.3281064
179334901000.0,0.5279066561543506,11.341072400524704,-0.1711765236926104,-0.1160644,-0.18570304,-0.044593163,57.756546,-96.617355,5.167686
179339888000.0,0.7877067711191336,11.553997123947052,-0.2652118545728038,-0.103847094,-0.1001819,-0.014049901,57.87372,-96.46069,5.022426
179345190000.0,1.074418789114135,11.774906428769787,-0.3639159881338517,-0.06078109,-0.03756821,0.035124753,57.985573,-96.32379,4.896674
179349906000.0,1.3981594327525575,11.642811635150256,-0.1657731982640665,-0.0143553335,-0.014660766,0.09010262,58.06546,-96.241554,4.8137197
179354893000.0,1.7607837649296676,11.406151142742967,0.1281433791368285,0.04428773,-0.028710667,0.14844026,58.13809,-96.183395,4.749103
179359841000.0,2.065042200453188,11.136426121433722,0.4167504067092388,0.10476339,-0.093462385,0.18448131,58.20654,-96.188896,4.7310624
179364883000.0,2.1794292843135232,10.738558364919149,0.7002313909506643,0.14721853,-0.2406809,0.21868975,58.302532,-96.21384,4.7276087
179369853000.0,2.2667819135451506,10.32076905124926,0.9201864617922486,0.14630222,-0.4364632,0.23609942,58.423588,-96.25846,4.7838354
179374987000.0,2.290964083779264,9.822615001082038,0.9927331947019477,0.1554652,-0.6377433,0.23457226,58.58716,-96.31404,4.839198
179379883000.0,2.284369149381403,9.354438144596946,1.0261411104987437,0.112399206,-0.8054258,0.21380283,58.799652,-96.3438,4.904292
179384891000.0,2.1916558507925767,8.895506689735164,0.9566060324859847,0.056505036,-0.93645644,0.20097467,59.056793,-96.372665,4.9656944
179389910000.0,2.052026764576016,8.430369261334672,0.8284067812142498,-0.0012217305,-1.0574077,0.18661933,59.358337,-96.391754,5.0238714
179394928000.0,1.7144503193176115,7.943294636467637,0.4522501743803311,-0.07574729,-1.1908818,0.16646078,59.69744,-96.3925,5.072041
179400789000.0,1.3053939129581698,7.44982402000501,-0.0383680017742339,-0.160963,-1.2421945,0.1282817,60.04483,-96.38201,5.1076274
179404907000.0,0.9958752064206396,7.216038692644235,-0.4598402681664857,-0.2443461,-1.1490375,0.070554934,60.384506,-96.348755,5.1304436
179409922000.0,0.6189358394255656,6.931329266535861,-0.9731193881172246,-0.31948254,-0.9089675,-0.00061086525,60.685062,-96.296844,5.1001663
179414929000.0,0.1697326634059367,6.932010311709715,-1.5344045723207402,-0.37843102,-0.5992588,-0.083383106,60.933117,-96.21588,5.052291
179419883000.0,-0.2920824536912105,7.000596522368928,-2.101385479799537,-0.43096542,-0.22907446,-0.15699236,61.09072,-96.1087,4.9920387
179424923000.0,-0.812162862441074,7.202642693605247,-2.7369537852838697,-0.4605924,0.15149458,-0.24312437,61.135513,-95.98938,4.854501
179429831000.0,-1.3372011167144908,7.448302931276901,-3.3775967655667145,-0.46120325,0.34666604,-0.35827246,61.124466,-95.84653,4.695122
179434926000.0,-1.5717713533592736,7.785813523285776,-3.779160249822741,-0.4373795,0.700357,-0.41783184,60.9395,-95.731316,4.5256286
179439893000.0,-1.707503679766537,8.139539770428016,-4.091755871595331,-0.36835176,0.99112886,-0.5195409,60.71477,-95.597404,4.318156
179444919000.0,-1.623968841794034,8.512618648360915,-4.214718587456519,-0.2733622,1.2061534,-0.56505036,60.384068,-95.508675,4.0891933
179449925000.0,-1.2853918019922,8.901730010224517,-4.113650734837146,-0.183565,1.3225232,-0.5739079,59.998997,-95.43562,3.848895
179454901000.0,-0.8443384513097311,9.18683415215709,-3.819267115051267,-0.10354166,1.3322971,-0.5314528,59.57087,-95.43025,3.6044908
179459948000.0,-0.316019799682724,9.397226875991487,-3.3704301504159413,-0.05467244,1.2055426,-0.44959682,59.152363,-95.46753,3.3731003
179464935000.0,0.2300104385215848,9.514447565345948,-2.9630816524837376,-0.014660766,0.98807454,-0.3539964,58.76447,-95.56883,3.195759
179470592000.0,0.8761069910033512,9.546484941651885,-2.541250046047703,0.0290161,0.7272351,-0.2764165,58.430855,-95.70934,3.0381818
179474911000.0,1.237519195045888,9.507584607725208,-2.3401277815913746,0.099571034,0.4352415,-0.20219639,58.20805,-95.87847,2.9590023
179479908000.0,1.5274737821972737,9.4009839446672,-2.224998736006415,0.19639318,0.18112154,-0.13622294,58.052795,-96.078896,2.8990865
179484844000.0,1.7118375294226096,9.3182335,-2.216215857244616,0.29871312,-0.005497787,-0.093462385,57.985455,-96.30794,2.9196463
179489907000.0,1.5167991270258947,9.3182335,-2.6022294061845304,0.39400807,-0.0888809,-0.050396383,57.96,-96.56314,2.9555552
179494937000.0,1.3230319605128635,9.3182335,-2.9857269671499207,0.45478916,-0.05131268,-0.020158553,57.943344,-96.843155,3.039362
179499921000.0,1.0685699098102504,9.530727303550467,-3.222502690170188,0.5161811,0.10048734,0.0036651916,57.91405,-97.14402,3.132736
179504824000.0,0.8067897528951486,9.778729474178403,-3.429171189671361,0.55833083,0.30970868,0.016798794,57.853756,-97.4496,3.232951
179509919000.0,0.6106663359332692,10.104705043584593,-3.4730558126648616,0.5647449,0.52839845,0.03145956,57.72217,-97.81182,3.332185
179514930000.0,0.4388116464896497,10.444222724692114,-3.468864237435584,0.5665775,0.75900006,0.03145956,57.525993,-98.174904,3.4387584
179519914000.0,0.3012853336829487,10.83538638747378,-3.3920425375087406,0.5503896,0.9492846,0.042455133,57.279903,-98.53474,3.5226517
179524908000.0,0.196182480677255,11.279684773449208,-3.243943075516931,0.5002986,1.1093313,0.058643065,56.979244,-98.87916,3.6176155
179529900000.0,0.0756505706297822,11.701059928781635,-3.0339199657445555,0.4392121,1.1441506,0.067500606,56.67165,-99.17709,3.6811981
179534926000.0,-0.0612787909947027,12.10240481341966,-2.7600612917990976,0.35277468,1.1676689,0.06780604,56.32718,-99.45041,3.7552087
179539996000.0,-0.1817103167301281,12.356603951403809,-2.590650789858508,0.3100141,1.0845913,0.08155051,56.030323,-99.66982,3.8067112
179544907000.0,-0.2792647650877843,12.440221921105266,-2.5418735620416326,0.20769419,0.9627236,0.10842858,55.74385,-99.84883,3.8632486
179549836000.0,-0.3771767740380768,12.524146370842285,-2.4929175539151047,0.10476339,0.8561276,0.12889257,55.51195,-99.94704,3.883403
179554900000.0,-0.4894572458952758,12.437329496035678,-2.5405525464403698,0.011911872,0.75747293,0.15271631,55.317642,-100.02347,3.9087348
179559874000.0,-0.6035484407317476,12.295698666501488,-2.619236107837793,-0.04886922,0.689056,0.1685988,55.14889,-100.08218,3.935312
179564865000.0,-0.7086564360058679,12.16945701743448,-2.7064625557508397,-0.08368854,0.59712076,0.16920967,55.02653,-100.098305,3.9381158
179569926000.0,-0.7961664187321917,12.073743194685022,-2.811747989217705,-0.089491755,0.52687126,0.16768251,54.920414,-100.10865,3.9437444
179574947000.0,-0.8829847596270488,11.978785853443169,-2.916201291220696,-0.09132435,0.47555858,0.1563815,54.815044,-100.108765,3.930944
179579907000.0,-0.9687483467289192,11.884982146500407,-3.0193855927412754,-0.11056661,0.47952923,0.13133603,54.71506,-100.10212,3.914441
179584979000.0,-1.0564485309588965,11.789060291336362,-3.1248998623607074,-0.12736541,0.5320636,0.110872045,54.617104,-100.095825,3.8972623
179589918000.0,-1.1418490060992468,11.695653737185092,-3.2276472948627526,-0.1563815,0.63224554,0.113926366,54.506084,-100.08219,3.8835154
179594934000.0,-1.2285808917651706,11.60079095613169,-3.3319965804327585,-0.18203785,0.7443393,0.13041973,54.378395,-100.06565,3.872316
179599872000.0,-1.2689596352887678,11.572981450962558,-3.392518101773533,-0.21227567,0.82924956,0.16371189,54.233402,-100.04419,3.8714998
179604944000.0,-1.1695593911778082,11.74969263725936,-3.3225698245566164,-0.23823744,0.893085,0.21746802,54.06732,-100.02332,3.8864558
179612012000.0,-1.0290707144983569,11.99615468664218,-3.219393663444809,-0.27672195,0.88789266,0.29229903,53.874096,-100.029495,3.8929286
179615260000.0,-0.9268490029963272,12.11340918190605,-3.0630545771119277,-0.28405234,0.8454375,0.3115413,53.67641,-100.03831,3.9003341
179620003000.0,-0.777576349777692,12.284633957471486,-2.83475522782718,-0.2883284,0.7892379,0.36713,53.492916,-100.03983,3.950518
179624785000.0,-0.6075911614902588,12.286033314117477,-2.503736983643501,-0.30573806,0.7315111,0.39400807,53.324535,-100.03668,3.9954612
179629836000.0,-0.41066929029369,12.134825335562663,-2.064179179703402,-0.31887165,0.6356053,0.41783184,53.188084,-100.04095,4.0499663
179636173000.0,-0.1695716299032503,11.935458152516578,-1.526901464398304,-0.34208453,0.4529566,0.46975538,53.102192,-100.01664,4.1247153
179639818000.0,-0.124035210335906,11.66982922328514,-1.4396233876508315,-0.42302418,0.39064834,0.48991394,53.010998,-99.975525,4.196659
179644736000.0,-0.062595399243396,11.311430574736384,-1.3218638316990976,-0.4437936,0.27488935,0.5342017,53.00788,-99.90183,4.2997293
179649787000.0,-0.0874044957566422,10.952098630342702,-1.406131162187139,-0.50946164,0.17898351,0.57726765,53.018166,-99.80345,4.402526
179655139000.0,-0.1219429538621486,10.572175410858682,-1.5146805209857528,-0.57635134,0.1301143,0.6236934,53.049824,-99.7108,4.5117474
179659814000.0,-0.2031056553780919,10.266870620797578,-1.717161537708228,-0.6426302,0.119729586,0.6542367,53.092552,-99.60753,4.626756
179664762000.0,-0.2940026533427561,9.946338881070169,-1.9420120455325591,-0.7021896,0.11759156,0.6768387,53.147625,-99.50047,4.746043
179669793000.0,-0.4189362515319276,9.723285981812731,-2.181115577225942,-0.7528914,0.1563815,0.68416905,53.182957,-99.40519,4.8723197
179674749000.0,-0.5469957752333366,9.51933967302888,-2.418262826831218,-0.8200866,0.2049453,0.6872234,53.216156,-99.30043,4.998801
179679822000.0,-0.6378915591826876,9.381325532895373,-2.637860234518404,-0.8335256,0.269697,0.6750061,53.219345,-99.227974,5.1191545
179684823000.0,-0.7211767376678582,9.25639716124046,-2.8507002048787555,-0.83108217,0.33841935,0.6621779,53.207817,-99.14948,5.237304
179689827000.0,-0.8230674279992278,9.20969698494354,-2.9368843522922496,-0.82527894,0.40286562,0.6536258,53.157063,-99.08892,5.3489313
179694809000.0,-0.9289807762474664,9.182067825595984,-2.9921434403339444,-0.7965683,0.46486846,0.64812803,53.088184,-99.03757,5.456285
179699806000.0,-0.9749249922879432,9.24700709963464,-2.969179856966525,-0.7648033,0.528093,0.65301496,52.98619,-99.01108,5.56822
179704822000.0,-0.998642395665054,9.346620292880418,-2.9170015695368816,-0.72265357,0.5861252,0.6569856,52.8694,-98.99604,5.676722
179709837000.0,-1.0378265843658097,9.495062982259748,-2.7920821403187555,-0.6899723,0.63255095,0.67256266,52.73428,-98.98622,5.779095
179714836000.0,-1.0832439766340956,9.663107347879707,-2.637663073000664,-0.65118235,0.65118235,0.6771441,52.592278,-98.988434,5.8771586
179719809000.0,-1.1543270902061855,9.850745054329897,-2.4848931164742267,-0.6432411,0.6429357,0.6930266,52.448563,-98.98658,5.9799285
179725805000.0,-1.2608843551546394,10.093458498247422,-2.3013777478556703,-0.6291912,0.61911196,0.72204274,52.30671,-99.00016,6.084541
179729861000.0,-1.3416363461999614,10.156644910268806,-2.183573052214272,-0.6609562,0.6093381,0.73731434,52.171486,-98.98002,6.18135
179734880000.0,-1.4438846158093213,10.20776887521756,-2.039495916360472,-0.6805039,0.5684101,0.7687739,52.055332,-98.97716,6.2860255
179739874000.0,-1.4960044695687222,10.161332171100362,-1.9389009588371624,-0.7290677,0.5213735,0.78893244,51.95223,-98.93486,6.375092
179744869000.0,-1.515285451430875,10.050466726723096,-1.866597226521564,-0.7684685,0.46914452,0.8216137,51.865158,-98.90348,6.4720984
179749868000.0,-1.4870044882383509,9.933797078901785,-1.823443594959293,-0.8038987,0.4196644,0.8549059,51.79516,-98.84159,6.5569463
179754867000.0,-1.4289547805646976,9.813551342456265,-1.798565148813442,-0.83108217,0.3817908,0.8863655,51.738544,-98.78561,6.6461782
179759843000.0,-1.3483434139874113,9.678229969427516,-1.7597002363972425,-0.8445212,0.3368922,0.9089675,51.69552,-98.72824,6.7410364
179764901000.0,-1.2128347982615646,9.504004635228297,-1.6871062881906285,-0.8374963,0.32406402,0.9282097,51.65534,-98.681786,6.8400965
179769835000.0,-0.9940755682734363,9.375819655632984,-1.6506294090675295,-0.82558435,0.33353242,0.93645644,51.617336,-98.649956,6.951787
179774913000.0,-0.5623915040451303,9.343543981997676,-1.6950081548946407,-0.81214535,0.37507126,0.9465357,51.574646,-98.62999,7.065827
179779824000.0,-0.1449042178251203,9.312329757259,-1.737927418533267,-0.81581056,0.43218717,0.9550878,51.519505,-98.63072,7.204612
179784888000.0,0.1238268750169699,9.440413332856266,-1.8000734913719076,-0.8240572,0.49938235,0.9633345,51.450314,-98.640976,7.3427925
179790250000.0,0.3843155118922108,9.600001559205351,-1.867539462549174,-0.8518516,0.5720753,0.9923506,51.364525,-98.660545,7.4862084
179795611000.0,0.4853014724095201,9.928205163749016,-1.8725887568843431,-0.893085,0.6374379,1.0421361,51.252472,-98.76214,7.7080655
179799871000.0,0.5655477309067664,10.18900489427616,-1.8766010668764752,-0.9239337,0.68844515,1.0891727,51.119297,-98.91127,7.973217
179804910000.0,0.4666253118068474,10.589914116366517,-1.6913231771225017,-0.97127575,0.7012733,1.151481,50.981247,-99.07489,8.249294
179809848000.0,0.3496396844488423,10.992344991886007,-1.4901078859489414,-1.0195341,0.66950834,1.1924089,50.843693,-99.24629,8.52453
179814902000.0,0.0759351084967577,11.326400209864412,-1.2561763073295342,-1.0775663,0.6291912,1.2336423,50.703022,-99.444565,8.827746
179819849000.0,-0.2126619305551189,11.64292606769503,-1.023436774602083,-1.1450669,0.5699373,1.2623531,50.5791,-99.6491,9.128674
179824907000.0,-0.4783238549295489,11.767913315560062,-0.7625147681013684,-1.2043208,0.5342017,1.2797627,50.45835,-99.8278,9.409197
179829830000.0,-0.7316204290593006,11.85393881064369,-0.5044389914830207,-1.2385293,0.44501534,1.2913691,50.37195,-100.01563,9.685151
179834914000.0,-0.8744304258601757,11.796051428715227,-0.3455081876976573,-1.2947289,0.36346483,1.3106114,50.300858,-100.16116,9.920786
179839846000.0,-0.9954515421852124,11.718251926885069,-0.2071983533638359,-1.3414601,0.27183503,1.314582,50.25902,-100.31388,10.146514
179844883000.0,-1.0239473626068822,11.482876934306567,-0.2628339129635036,-1.3952162,0.18295415,1.2974777,50.24367,-100.43479,10.333857
179849836000.0,-1.0091088150364964,11.181159697080291,-0.406273299109489,-1.4737124,0.1255328,1.3261884,50.245598,-100.57958,10.528448
179854903000.0,-0.887889752377657,10.881100784181909,-0.6391095981117153,-1.5176947,0.11636983,1.3445144,50.256855,-100.72034,10.703469
179859910000.0,-0.7361908690756302,10.587184191596638,-0.8951014946218487,-1.5677856,0.13194689,1.3658947,50.276253,-100.88221,10.881139
179865203000.0,-0.4750417090413403,10.368532531674433,-1.0967556669772975,-1.5946637,0.18051068,1.3888022,50.2788,-78.917625,11.078762
179869891000.0,-0.2168904150589868,10.199398768216517,-1.2569875286606524,-1.6151277,0.26083946,1.4077389,50.26603,-78.70237,11.274475
179874980000.0,0.1123329805669199,10.140895036090006,-1.3830985759205143,-1.642922,0.32559118,1.4288138,50.23053,-78.433334,11.510662
179879894000.0,0.4469726948275863,10.127142681034483,-1.4885329310344828,-1.6514742,0.4007276,1.4468343,50.167774,-78.15517,11.743418
179884923000.0,0.7198736895935428,10.201732144662246,-1.5733026529643508,-1.6759088,0.4615087,1.4633276,50.08144,-77.819336,12.024841
179889892000.0,0.957649435341597,10.31604755395407,-1.6464644576150669,-1.6997325,0.5027421,1.4752395,49.979027,-77.47946,12.301099
179894887000.0,1.1014611618188983,10.39317186225244,-1.8115055504187605,-1.7354681,0.54611355,1.493871,49.843662,-77.08187,12.6283865
179900139000.0,1.1857113871021776,10.447686783919597,-2.0493886003350084,-1.78617,0.5888741,1.5097535,49.697384,-76.68334,12.948005
179904898000.0,1.1532433761983776,10.49013393298304,-2.2288844116427,-1.8219056,0.6398814,1.5384641,49.52814,-76.23735,13.309615
179909908000.0,1.042670440910767,10.529940064067109,-2.3925322653484518,-1.8435913,0.70066243,1.5741998,49.34461,-75.78905,13.666208
179914874000.0,0.8559670538495661,10.568291679363549,-2.526596168939248,-1.8619173,0.7263188,1.600467,49.151485,-75.32181,14.042549
179919998000.0,0.5436504783201543,10.60614850289296,-2.621237634821601,-1.8942931,0.73731434,1.6481144,48.94569,-74.84417,14.423807
179924905000.0,0.2039626233780487,10.627055880487804,-2.707106454878049,-1.9150625,0.73945236,1.6771306,48.735638,-74.37719,14.795182
179929898000.0,-0.2236690470558943,10.617336782723578,-2.7848577147357725,-1.9333885,0.7171558,1.7296649,48.53001,-73.896866,15.177334
179934863000.0,-0.6454764376168225,10.600880463568709,-2.839115649757701,-1.9758437,0.6973027,1.7809776,48.32073,-73.443726,15.524846
179939911000.0,-1.068002883411215,10.57159651583593,-2.8516658881100727,-1.9975294,0.6649268,1.8246545,48.12235,-72.986855,15.877157
179944956000.0,-1.489131471527852,10.53671678199508,-2.8588729726504867,-2.0137172,0.63407815,1.8747455,47.927467,-72.563934,16.188524
179949983000.0,-1.890620165743612,10.413181737143162,-2.781663509152144,-2.0332649,0.6206391,1.9220876,47.73695,-72.13516,16.503696
179954934000.0,-2.2530050725080857,10.300344336665686,-2.671244723610702,-2.047315,0.6001751,1.9596558,47.55551,-71.749725,16.766691
179959918000.0,-2.4728764575517004,10.2254944556503,-2.4092703842987357,-2.0690005,0.57940567,1.9892827,47.377243,-71.35792,17.03366
179964881000.0,-2.648836858953722,10.151338123138832,-2.130093841046277,-2.0995438,0.55924714,2.0131063,47.198044,-70.99316,17.258644
179969930000.0,-2.5466819759557344,10.078370422132798,-1.7263389240442657,-2.150551,0.54428095,2.017077,47.022835,-70.62725,17.479574
179974914000.0,-2.422045880741771,10.005852251645804,-1.3507950701715346,-2.2131648,0.52687126,2.0286834,46.841473,-70.25797,17.674902
179980817000.0,-2.118026493249884,9.91674295002318,-1.0572590494390357,-2.316401,0.47769663,2.0265455,46.673065,-69.884796,17.862207
179985294000.0,-1.879024210642202,9.85175371620795,-0.8464276624668705,-2.418721,0.38912117,2.014939,46.505703,-69.463974,18.060999
179989890000.0,-1.5335445772477063,9.81585994006116,-0.7701529430784914,-2.53112,0.258396,1.9978348,46.3637,-69.03394,18.254736
179995134000.0,-1.1497197200478877,9.761481991619634,-0.7005941195997948,-2.6108382,0.14202617,2.002111,46.22818,-68.534325,18.491985
179999917000.0,-0.91861433012314,9.557795478450489,-0.8376905075423294,-2.6386325,0.0580322,2.0152445,46.11966,-68.03296,18.724453
180004838000.0,-0.6808410447750983,9.34823216435779,-0.9787424258081068,-2.6395488,-0.012217305,2.0146337,46.037697,-67.47225,19.012976
180009889000.0,-0.4826248439785471,8.901688037298879,-1.37344758698196,-2.6303856,-0.06566802,2.0237966,45.971924,-66.91057,19.303776
180014889000.0,-0.3075247627173736,8.353041442142045,-1.879292215618397,-2.6435194,-0.095294975,2.0500638,45.91656,-66.349045,19.594074
180019849000.0,-0.2185577715245951,7.8479839685304,-2.359905925328445,-2.6682594,-0.101098195,2.0717494,45.87346,-65.75223,19.94182
180024908000.0,-0.4307290680395153,7.472983725837661,-2.774380124544251,-2.6841419,-0.08002335,2.0839667,45.828327,-65.16063,20.285877
180029865000.0,-0.6438886243661078,7.127411336148618,-3.122593584032624,-2.7064385,-0.038179077,2.1087067,45.799652,-64.54401,20.711473
180034895000.0,-0.8752507378957861,6.839299819066606,-3.310302426624377,-2.7210991,0.025961773,2.134974,45.75704,-63.933887,21.129446
180040107000.0,-1.1075623834951456,6.553882926213593,-3.4752650466019417,-2.7085764,0.10567969,2.1682663,45.707115,-63.356335,21.542034
180044962000.0,-1.2595227634336248,6.4019226396135736,-3.372468320369124,-2.7006352,0.19150625,2.198504,45.635612,-62.780735,21.948044
180050435000.0,-1.4169980633802817,6.232256259621423,-3.2431558291020006,-2.692694,0.26145032,2.2266037,45.546467,-62.23108,22.33502
180054958000.0,-1.4131121056338027,6.107908046290482,-3.006117275679555,-2.7073548,0.310625,2.2611177,45.43644,-61.680485,22.719664
180059881000.0,-1.408882485915493,5.972562865165515,-2.748115772584552,-2.69697,0.3811799,2.2766948,45.28448,-61.137783,23.073914
180064928000.0,-1.2483370236138474,5.754418144066047,-2.267605316483723,-2.6975808,0.4364632,2.2715025,45.122276,-60.597412,23.421556
180069912000.0,-1.0378719477905995,5.5126072198142415,-1.721291490571348,-2.6661212,0.4804455,2.2424862,44.944614,-60.07579,23.754438
180074893000.0,-0.7468917725995359,5.070035938760936,-1.2944419129619709,-2.6215281,0.48075095,2.193617,44.73828,-59.53027,24.074392
180079930000.0,-0.4023934509525084,4.497307365541868,-0.9370249453401176,-2.5857925,0.48472157,2.1380284,44.521946,-59.006153,24.372717
180084853000.0,-0.0691777891491442,3.810702459168704,-0.7406641420537897,-2.558609,0.5323691,2.090381,44.24354,-58.399933,24.685305
180089903000.0,0.266642657207824,2.888378855256724,-0.8021523987775061,-2.538145,0.65270954,2.0427334,43.947716,-57.820118,24.966688
180094856000.0,0.5701532233515927,1.8595966998174072,-0.8679085597687158,-2.488665,0.79504114,2.0069978,43.58824,-57.114017,25.325642
180099954000.0,0.8276875261614932,0.5372571050517347,-0.9471498797321972,-2.427273,0.9251554,1.9663752,43.201164,-56.433575,25.64975
180104859000.0,1.038809450974138,-0.6954586233189656,-0.9552336320862068,-2.382069,1.0247264,1.947133,42.76913,-55.629818,26.091623
180109882000.0,1.1880986835,-1.8856253475,-0.839119799,-2.3344216,1.0543534,1.8897116,42.326706,-54.86178,26.497595
180115071000.0,1.2893170229976092,-3.238071187656904,-0.6856203551404663,-2.300213,1.0027353,1.8316795,41.848953,-53.925644,27.056532
180120991000.0,0.6285001487198645,-6.581691728800559,-0.0191555189579597,-2.2412646,0.9095783,1.777007,41.376747,-53.01928,27.595545
180125160000.0,0.163602129337082,-8.795550610535662,0.4642044556851139,-2.140472,0.8539896,1.7009543,40.84642,-51.924324,28.26902
180129792000.0,-0.3483928446315477,-9.880804403965673,1.138112349050015,-1.9630154,0.70371675,1.6765196,40.36061,-50.859043,28.956598
180135100000.0,-0.9307209776217736,-11.106469486542132,1.920004014803656,-1.8402315,0.5308419,1.6328428,39.692814,-49.49351,29.710018
180139805000.0,-1.3606289008114894,-11.8395760113488,2.8024465875163203,-1.5677856,0.33750305,1.6197093,39.049976,-48.184082,30.476336
180145091000.0,-1.830170013924413,-12.614779737115862,3.796934212750525,-1.2858714,0.17165314,1.600467,38.270462,-46.737503,31.181488
180154757000.0,-2.2188944123783165,-12.340906200849398,5.722887019011262,-0.7632761,-0.22418754,1.3313808,37.633797,-45.445446,31.869055
180159798000.0,-1.6663938415220525,-11.341539118381858,6.200171322244644,-0.600786,-0.56199604,0.9859365,36.85551,-44.001057,32.44871
180164761000.0,-1.0315685140674546,-10.254571538579803,6.606642262160085,-0.52534413,-0.9007208,0.69058317,36.2156,-42.69795,33.021973
180169821000.0,-0.2946307562282092,-9.11085170421553,6.277271611843634,-0.54275376,-1.1597277,0.43860126,35.573086,-41.405613,33.42949
180174733000.0,0.4409327587004754,-7.992596526782885,5.790209160961437,-0.6960809,-1.2232577,0.22235495,35.024364,-40.17634,33.78325
180179789000.0,1.037355946397927,-7.073300409386698,5.038290853152894,-0.999681,-1.1163563,0.0711658,34.57313,-38.933598,34.175056
180184797000.0,1.6127548433054997,-6.184884477876955,4.269557806219407,-1.3371841,-0.88178396,0.007330383,34.14295,-37.721066,34.492958
180189925000.0,2.2182482263375274,-5.636881119181635,3.5137441190855827,-1.6307048,-0.58184916,-0.029321533,33.815453,-36.486004,34.942764
180194782000.0,2.7945979661992126,-5.181162678993372,2.803359746950341,-1.8417587,-0.17440203,-0.062308256,33.42942,-35.286304,35.248608
180199867000.0,3.3127042030550515,-4.961795854315386,2.501078948235531,-1.9456058,0.32528573,-0.099265605,33.078762,-34.179264,35.576992
180204800000.0,3.7890339966727167,-4.828423659326477,2.343890032284735,-1.9465221,0.82619524,-0.16371189,32.65965,-33.119736,35.754517
180209841000.0,4.378532440340696,-4.903258658807562,2.8098380707319355,-1.858252,1.2953397,-0.26847526,32.239067,-32.16005,35.939354
180214876000.0,4.996843353013852,-5.038654964451516,3.4552283199363534,-1.6548339,1.5176947,-0.39828414,31.800423,-31.275726,36.019135
180219844000.0,5.84167950026414,-5.079642129556426,4.5971289919846985,-1.2812898,1.9022343,-0.4868596,31.253143,-30.472776,36.00612
180224907000.0,6.830947274177976,-5.070809479570088,6.036867080116586,-1.0042624,2.1636846,-0.7128797,30.779448,-29.76422,35.90194
180229899000.0,7.948240986430679,-4.447169455457227,7.155485064896755,-0.2648101,2.362216,-0.9569204,30.228426,-29.174883,35.73113
180234925000.0,9.239016536301063,-3.1004600561187097,7.929950466702422,0.68966687,2.7113254,-1.0876455,29.647705,-28.724405,35.434418
180239851000.0,10.695556911011328,-1.4560762633738138,8.76079910495969,1.5519031,3.163671,-1.0305296,28.953552,-28.297163,35.048004
180244925000.0,12.902288650984794,1.4349895175017862,9.881521120369426,2.0781636,3.6138787,-0.79626286,28.206787,-28.00665,34.58271
180249865000.0,14.752795015164958,4.124569240622732,11.09031783096717,2.2091942,3.9721513,-0.344528,27.389593,-27.84804,34.172813
180254963000.0,15.792494631685084,6.534782081471324,12.681373323425024,1.9321668,3.8713584,0.12156218,26.528837,-27.681688,33.80735
180259891000.0,16.79752399814471,8.864622975881261,14.219372826530613,1.4532484,3.0848694,0.44318274,25.805428,-27.589083,33.80878
180264959000.0,15.971513587569625,12.056013351250993,15.508698531341173,0.9828822,1.7345519,0.6927212,25.121681,-27.390942,34.00217
180269844000.0,14.689342096543188,15.340026401379188,16.675060626425605,0.60139686,0.28191432,0.9807441,24.523483,-27.067608,34.428383
180274960000.0,12.748958463107927,16.90922438299467,16.79624526490673,0.31764993,-0.8695667,1.2901474,24.166012,-26.806934,35.06266
180279901000.0,10.349119124750167,16.77918284260493,15.945070370586276,0.1704314,-1.5726726,1.5314392,23.935846,-26.47064,35.886967
180284920000.0,7.965827549848001,16.5128067872,15.05050831624,0.0870483,-1.7666223,1.6077974,23.940132,-26.533834,36.34738
180290083000.0,5.904957819904,15.2747028656,13.91525011552,0.003970624,-1.5903877,1.5653422,23.969534,-26.517668,36.87315
180294969000.0,3.954655766736,14.1030244304,12.84089962768,-0.05009095,-1.1661417,1.4477507,24.007113,-26.57768,37.10603
180299898000.0,2.5452742596026487,12.210935830463576,11.424686292715233,-0.1826487,-0.50976706,1.2983941,23.982107,-26.608736,37.229538
180305909000.0,1.2256215243504842,9.395676784411616,9.459869528476824,-0.30604348,0.26206118,1.1695015,23.873985,-26.641619,37.21258
180309906000.0,1.2997693206440484,7.2579584468085105,9.047278952846463,-0.43463063,0.91782504,1.0088439,23.678257,-26.658539,36.931183
180314923000.0,1.645131878483803,4.504267693971631,8.76638465267395,-0.63621616,1.1585059,0.7703011,23.473555,-26.674877,36.53984
180319862000.0,2.148541184118334,1.882662751985208,8.45323778098482,-0.7672467,1.4288138,0.6068946,23.09013,-26.57975,36.03857
180324904000.0,2.787596431646555,-0.7252464414558197,8.105516270611133,-0.99112886,1.5436565,0.17165314,22.849493,-26.52038,35.43747
180329824000.0,3.538333605982001,-2.80353544044468,7.907385293647433,-1.0320568,1.5100589,-0.32406402,22.521467,-26.180342,34.968685
180334894000.0,4.437965293912123,-4.482848091582849,7.84312606310217,-0.9450085,1.3655893,-0.7626653,22.33052,-25.892258,34.442844
180339930000.0,5.270090889030207,-5.994898538950715,7.798444243243243,-0.7425067,1.1456778,-1.0726794,22.121746,-25.461664,34.02365
180344892000.0,5.912254666661367,-7.033693002289348,7.809776378378379,-0.46670106,0.85918194,-1.2284501,22.053953,-25.116478,33.61507
180349872000.0,6.556747938044516,-8.076255764769474,7.821149621621622,-0.1441642,0.5479461,-1.2483032,21.96167,-24.672764,33.37892
180354909000.0,6.443590711715363,-8.201157152252591,7.4124791157115935,0.18906279,0.35460728,-1.1487321,21.918055,-24.298172,33.18038
180359943000.0,6.04828065533459,-7.983054760961357,6.849048926663525,0.47128254,0.24984388,-0.9868528,21.90432,-23.976242,33.043842
180364888000.0,5.622971151636139,-7.957936216505454,6.985158331652603,0.62949663,0.3191771,-0.78893244,21.763718,-23.524347,33.050247
180369887000.0,5.169745134585305,-8.051537270281951,7.556617231662893,0.6985244,0.70829827,-0.57848936,21.53828,-23.090256,33.022854
180375924000.0,4.670395874354052,-8.059411840412766,9.5738536687465,0.7348709,1.2626585,-0.3726278,21.2461,-22.708076,32.946297
180379917000.0,4.352262950211983,-8.037998934725222,11.2440513687705,0.7290677,1.9779817,-0.1731803,20.813177,-22.298937,32.754116
180384961000.0,4.003520664341733,-7.8197573252127475,13.223772173035208,0.59589905,2.964529,-0.016493361,20.209114,-21.82181,32.27316
180389885000.0,3.901229555715001,-6.749635242449524,14.573227525613216,0.16432275,4.1221185,0.018020526,19.483158,-21.263823,31.570223
180394874000.0,3.797588137977641,-5.665386852744869,15.940496565826798,-0.6239988,5.2317553,-0.08246681,18.654774,-20.504162,30.364109
180399906000.0,4.140231908105035,-2.4713132520831183,16.91508274330611,-1.7400496,5.846286,-0.3371976,17.864489,-19.587141,28.976194
180404817000.0,4.6069996369068535,1.2676898235500875,17.746513063268893,-2.9697213,5.1859403,-0.72204274,17.262867,-18.485779,27.618341
180409891000.0,6.345433582563742,5.636359279903633,18.244053790604298,-3.8777726,4.313625,-1.071763,16.838102,-17.305761,26.008463
180414839000.0,8.305185538596668,10.002990836137322,18.65312852338888,-4.23238,1.8515326,-1.1814134,16.786095,-15.990932,25.022345
180419927000.0,10.90473391185976,12.573476602193711,18.89393633649985,-4.2223005,-0.25870144,-1.2733486,17.14126,-14.992247,24.223577
180424832000.0,13.522336086965035,14.685039952502205,19.091751321320142,-4.0011673,-1.3906348,-0.9447031,17.565796,-13.955548,23.871801
180429899000.0,15.173386619416318,16.01727459023228,18.96681189279333,-3.8508945,-2.1777346,-0.2144137,18.039255,-13.322381,24.197725
180434842000.0,16.512614796505854,17.09805462179869,18.760054259579118,-3.798971,-2.8707612,0.78038037,18.41139,-12.660584,24.829163
180439890000.0,15.531092070183613,17.72898085683661,17.683054031037376,-3.7244453,-3.3166928,2.060143,18.498201,-12.135838,25.918324
180444882000.0,13.895774008108862,18.21913021055084,16.37301718286886,-3.4461963,-3.61113,3.2583551,18.34664,-11.544013,27.155825
180449908000.0,11.642567441706838,16.33351440421353,15.592503253704695,-2.951701,-4.1676283,3.889379,18.049393,-11.0147295,28.707838
180454858000.0,9.086529198535976,13.15539478718086,15.122768050169611,-2.4000895,-4.875621,4.114483,17.534794,-10.437098,30.365665
180459904000.0,6.592114354037268,9.52669814236025,14.257168907246378,-1.7941113,-5.503285,4.117537,16.939186,-9.952793,32.032173
180464922000.0,4.278839729813665,5.3329549781987575,12.814481180434782,-1.1368202,-5.667913,3.8970149,16.37009,-9.592891,33.722088
180469926000.0,2.6489420180002083,1.2305535050358964,12.021776001924875,-0.3436117,-5.4116554,3.5020905,15.675726,-9.146416,35.238197
180474906000.0,1.7755803343044427,-2.7640839324836124,11.94734181609614,0.42760566,-4.9565606,3.010344,15.085626,-8.895444,36.693546
180480473000.0,1.5123437737083811,-6.804156311997703,12.143764757462687,1.0250319,-4.340503,2.4465153,14.380983,-8.647817,37.852345
180484936000.0,1.692272701645618,-9.809786762677,12.45455109141791,1.4807373,-3.604105,1.7259997,13.867038,-8.653956,38.793716
180489916000.0,2.256075546775302,-12.508503913419062,12.796862609698636,1.8536706,-2.8087585,0.77121735,13.3019705,-8.51673,39.517403
180494922000.0,3.2490720852851678,-14.45214152272504,13.135704975458918,2.0738876,-2.090381,-0.39461896,13.025476,-8.613216,39.99324
180499897000.0,4.835216225932109,-16.062207524763494,13.22505051307735,2.0696115,-1.6126842,-1.6172657,12.800686,-8.597873,40.299686
180504900000.0,7.26151624522352,-17.235363231311446,12.97175542552402,1.6951511,-1.4095715,-2.6923885,12.923546,-8.7372875,40.422966
180509898000.0,9.298868405264107,-17.625208350099154,12.115575598972418,0.9654725,-1.3570372,-3.4660494,13.195422,-8.758916,40.500576
180514875000.0,10.244066831981252,-15.820739442040743,9.57213331430503,0.4999932,-1.2177598,-3.710701,13.6550455,-8.859113,40.464264
180519998000.0,11.194095895575998,-13.927056403153744,6.89817459892247,-0.43860126,-0.8863655,-4.003,14.250834,-8.693544,40.57831
180524900000.0,11.76986209846693,-11.58697816346912,3.5258297208147176,-1.3081679,-0.33017266,-4.099822,14.850793,-8.46496,40.58253
180529824000.0,12.348212319404292,-9.236397736662289,0.1383498799737195,-1.9776763,0.61117065,-4.07386,15.611319,-8.305233,40.632145
180534896000.0,13.093115960983727,-6.59699973181398,-1.9752730455528849,-2.3228152,1.8661933,-3.973373,16.31921,-8.033051,40.43153
180539886000.0,13.875153595968934,-3.928350269258506,-3.601205169350961,-2.3081543,3.0341678,-3.7543778,16.926426,-7.665708,39.99727
180544908000.0,14.98186598097022,-1.1898762986984814,-3.7243410061624926,-2.0427334,3.918395,-3.378085,17.536114,-7.5482717,39.533382
180550154000.0,16.363935595050286,1.7080095494577017,-2.783147311447446,-1.5586227,4.4000626,-2.8377745,17.96435,-7.407181,38.871986
180554893000.0,17.237437155337904,4.211570006483839,-1.159003690773751,-0.92149025,4.3365326,-2.1536055,18.43283,-7.4683857,38.41404
180559904000.0,17.89546930734574,6.777897166170422,1.1065086236141035,-0.28680122,3.7155879,-1.3362677,18.664547,-7.509919,38.014137
180564882000.0,18.302148748800903,8.387755087482367,2.096152560114737,0.14752395,2.968805,-0.48808134,18.838598,-7.745383,37.75583
180569913000.0,18.48793000413806,9.158069794178502,1.9466208592118877,0.34208453,2.5711317,0.17562376,18.802498,-7.954917,37.60473
180574895000.0,17.96815779805898,9.588343465845464,1.7222630337719298,0.40500367,2.3835962,0.5494733,18.782907,-8.350587,37.515038
180579898000.0,16.389844823441585,9.521276374020156,1.382456201754386,0.37018433,2.182316,0.68386364,18.637684,-8.685644,37.553936
180584853000.0,14.679309710824745,9.510606480618558,1.072569780814433,0.32742378,2.051591,0.6936375,18.476702,-9.059215,37.653088
180589882000.0,12.494652488659794,9.669490736494843,0.8392086790515464,0.29626966,2.0567832,0.72082096,18.267122,-9.391481,37.766838
180594829000.0,10.286772251495243,9.83766810030395,0.8606205630650063,0.31887165,2.1224513,0.84116143,18.046043,-9.71503,37.782063
180599906000.0,7.884065250730464,10.037893252279636,1.4660645858907737,0.42119157,2.2327125,0.9972375,17.799519,-10.034655,37.787613
180604839000.0,5.535931420386575,10.125192826137129,2.1025837821040483,0.5363397,2.350915,1.1468995,17.542921,-10.386741,37.613537
180609941000.0,3.069159901240503,9.913755427156456,2.896649220184633,0.5757405,2.6554313,1.2308935,17.23078,-10.731337,37.370464
180614870000.0,0.7408775696982014,9.61307599786607,3.703008838329438,0.5708536,2.8722885,1.2458596,16.914646,-11.133505,36.864532
180619915000.0,-1.409510130586323,8.896280490803779,4.694740184229245,0.5580254,2.944676,1.2275337,16.565998,-11.542523,36.327446
180624874000.0,-3.340985535615961,8.051673639092176,5.663391253092874,0.58123827,2.8292224,1.1114693,16.231192,-11.989604,35.48238
180629960000.0,-4.681952018348144,6.693732686748562,6.635167751960272,0.6407976,2.5555549,0.92179567,15.931983,-12.469576,34.660664
180635437000.0,-6.083476989785832,5.198644284987644,7.6989659470757825,0.73364913,2.19209,0.68691796,15.650827,-12.936859,33.60915
180639880000.0,-6.337584017545304,3.305986351492998,8.921307436676276,0.818254,1.7244726,0.48197266,15.452216,-13.450404,32.65202
180645183000.0,-6.570128681033708,1.0043896596853932,10.374755018876405,0.88606006,1.1291844,0.3173445,15.252142,-13.83195,31.59635
180649901000.0,-5.449174756521348,-1.8426705403325845,11.564752939955056,0.9098838,0.47525316,0.19028452,15.153575,-14.249862,30.673267
180654822000.0,-4.2799898768,-4.812230363200001,12.805952552,0.8894198,-0.18387043,0.08246681,15.017373,-14.390825,29.828884
180659938000.0,-3.5763242472761645,-6.073658749338375,12.76673568181818,0.85918194,-0.77518797,-0.012217305,14.9770975,-14.547461,29.140879
180665751000.0,-2.9640405776679843,-6.839013273913044,12.235770977272727,0.8188649,-1.2394456,-0.12614368,15.029451,-14.710167,28.591633
180669869000.0,-2.5871193141884223,-7.203289235661955,11.63183453523888,0.7699956,-1.5253305,-0.2434298,14.997742,-14.296979,28.395535
180674950000.0,-2.1854290650397274,-7.454345687256217,10.632630010989578,0.73639804,-1.6542231,-0.3390302,15.039316,-13.918449,28.2759
180679894000.0,-1.8151635273189937,-7.777325415402343,9.572756709717687,0.6948592,-1.6633861,-0.39522982,15.11086,-13.476955,28.32913
180684897000.0,-1.4609016930286152,-8.182196577299788,8.413354456500864,0.61422503,-1.5274686,-0.410196,15.209248,-13.060166,28.361862
180689834000.0,-1.207664676352295,-8.630854280141513,7.595565161158179,0.50946164,-1.1447614,-0.3155119,15.263706,-12.6571865,28.412554
180694914000.0,-1.08990052403873,-9.165322210501817,7.237743222791174,0.48747048,-0.62858033,-0.13194689,15.282193,-12.270849,28.380009
180699929000.0,-1.02767412345679,-9.737011956790123,7.111133580246914,0.51893,-0.15790866,-0.028099801,15.234306,-11.877521,28.344648
180704895000.0,-1.107409342691663,-10.418385228699892,7.578671770156989,0.52503866,0.03145956,-0.08124508,15.172979,-11.487223,28.23769
180709907000.0,-1.187883148331047,-11.10607005326932,8.050540760859626,0.54458636,0.31764993,-0.19272798,15.0313635,-11.074047,28.000563
180714915000.0,-1.2080454524464428,-10.979108574363044,8.81889739204796,0.5525276,0.47891834,-0.63285637,15.025482,-10.728814,27.717796
180719918000.0,-1.195373479317641,-10.408869342501983,9.74817630362338,0.54825157,0.61636305,-1.2993103,15.1284,-10.444674,27.34021
180724904000.0,-0.7908923349052447,-9.122208444081092,10.66149249281622,0.54000485,0.84665924,-1.863139,15.291171,-10.116094,26.812363
180729905000.0,0.2602764288673422,-6.648373670286469,11.556463430057294,0.48288897,1.1377366,-2.1847596,15.5964155,-9.840356,26.205671
180735752000.0,2.0547610343716745,-2.926635800532069,12.860177619909065,0.2678644,1.5180001,-2.3157902,16.03131,-9.61749,25.406681
180739888000.0,4.60676270038696,1.587265161913515,14.366088137854309,-0.33353242,1.572978,-2.307849,16.54167,-9.299227,24.61454
180745005000.0,7.610131859265051,6.885192403440188,16.082378017982798,-0.5381723,1.5134187,-2.275473,17.148294,-9.301091,23.811144
180749968000.0,8.175814262965858,7.65319886838676,15.508438175658066,-0.87872964,1.1389582,-2.24157,17.771814,-9.0982,23.094908
180754821000.0,8.728958874120405,8.4041832275215,14.947219143862393,-1.0690142,0.52198434,-2.2391264,18.567097,-9.47245,22.752655
180759945000.0,9.931474033144704,9.525167956345998,13.292584967663704,-1.0983357,-0.16279559,-2.2311852,19.35381,-9.768241,22.54269
180764857000.0,11.304725927872092,10.716728355160337,11.327778349501482,-1.0100657,-0.57757306,-2.0491474,20.08877,-10.005152,22.43862
180769950000.0,12.558585767818574,11.734019002159828,9.74021262850972,-0.7828238,-0.6768387,-1.5986344,20.741972,-10.315891,22.549606
180774968000.0,13.63426397300216,12.531342057333596,8.598483138621637,-0.53878313,-0.7293731,-0.9761627,21.299686,-10.601507,22.768381
180779899000.0,14.169194865311177,12.289377660646094,7.748735600577975,-0.32498032,-0.8885035,-0.2864958,21.716394,-11.02609,23.34534
180784967000.0,14.139139412736093,10.901797026112083,7.17767378949324,-0.18448131,-1.1417072,0.36865717,21.970865,-11.414933,23.974522
180789922000.0,13.515503215686277,9.22603231372549,6.745827631372549,-0.11148291,-1.318858,0.81000733,22.117739,-11.865157,24.803888
180794978000.0,12.374375263951734,7.245034509803921,6.412618404826546,-0.025350908,-1.3949108,1.0296134,22.159634,-12.285626,25.672901
180799954000.0,11.284020402433596,5.571208657189494,6.188635300341296,0.12186762,-1.4465289,1.2235631,22.040468,-12.5550585,26.621403
180806067000.0,9.998315175025969,3.9684210131102535,6.084388830034129,0.26633725,-1.4660766,1.3478742,21.889772,-12.8137455,27.568779
180809877000.0,9.196984091037246,2.969464539375278,6.019415976791809,0.40561453,-1.4450017,1.3845261,21.623571,-12.914961,28.40766
180814902000.0,7.967484642333627,1.6928843042763606,5.988346449741034,0.4886922,-1.3329079,1.4074335,21.317165,-13.017177,29.221092
180819855000.0,6.688117917619467,0.4506003270614678,5.979075680582429,0.64873886,-1.1792754,1.3756685,21.011591,-13.168671,30.003092
180824910000.0,5.493478320110024,-0.6162679038345558,5.929856054828851,0.8384125,-0.9987647,1.2980887,20.59239,-13.238375,30.559107
180829864000.0,4.376989950061125,-1.563591264722901,5.86219004712714,1.0308352,-0.7870999,1.2030991,20.169674,-13.351143,31.056679
180835117000.0,3.166830786444992,-2.4275547940736617,5.950816371649034,1.2116512,-0.52015173,1.0800097,19.75307,-13.373786,31.418821
180839865000.0,2.0636125342773046,-3.158210807533212,6.088266647044786,1.312444,-0.23182335,0.9254609,19.354145,-13.44019,31.706203
180844924000.0,1.0510382872774005,-3.754707720616853,6.257637302551864,1.3765849,0.070249505,0.7254025,18.971066,-13.467501,31.833715
180849961000.0,0.7012281434936662,-3.6130124811639432,6.518887868505599,1.425454,0.38026363,0.49266282,18.62015,-13.540978,31.865845
180855214000.0,0.3563323115863173,-3.4357938379275854,6.789389051910383,1.4419475,0.68783426,0.25442538,18.283272,-13.579231,31.63868
180860004000.0,0.2645681476935387,-2.9448555845769158,7.014211232846569,1.3805555,0.9755518,0.029626964,17.995275,-13.64096,31.31627
180865139000.0,0.1880571076856458,-2.40634869340796,7.263435380320619,1.2910637,1.2370021,-0.18051068,17.779686,-13.7642765,30.827604
180869931000.0,0.4206039318021006,-1.7340769869402983,7.610141480928689,1.1490375,1.4410311,-0.37934732,17.620573,-13.887034,30.264286
180875224000.0,0.6774633516786438,-0.9915197786069654,7.993095443891653,0.9819659,1.5558738,-0.5742133,17.561659,-14.07805,29.602446
180879950000.0,1.0801646766926472,-0.1783818544699033,8.20627026349892,0.79443026,1.5989398,-0.73456544,17.552725,-14.244373,28.900696
180884842000.0,1.5157101541647102,0.6795108069630951,8.413044431965442,0.59131753,1.616044,-0.8509353,17.593052,-14.377671,28.171852
180889884000.0,1.9055661661519585,1.5774329598322936,8.569738884957562,0.37568212,1.636508,-0.90377516,17.714603,-14.554276,27.427546
180894904000.0,2.269365448082626,2.4770985046732794,8.702476535024031,0.1518,1.6630806,-0.9236283,17.867151,-14.677238,26.68228
180899966000.0,2.466926670400899,3.0901043264143877,8.845079816785313,-0.062002823,1.6859881,-0.9166033,18.088928,-14.8691845,25.974937
180904956000.0,2.6101660786998875,3.6048711091982018,8.988318897901836,-0.27214047,1.702176,-0.89736104,18.31455,-14.990737,25.277336
180909921000.0,2.7028797269750555,3.922103115538224,9.127639215558396,-0.36010507,1.6997325,-0.87995136,18.573078,-15.176782,24.623095
180914877000.0,2.766703663450548,4.126339632286694,9.264861068849592,-0.5109888,1.6420058,-0.83077675,18.81951,-15.272126,23.99935
180919942000.0,2.831931314428831,4.335068033685202,9.405100916896387,-0.6102544,1.5271631,-0.77121735,19.065077,-15.393363,23.410273
180924903000.0,2.9246539476397966,4.849738053740015,9.76650738416848,-0.6545421,1.3671165,-0.6966918,19.299559,-15.471901,22.868591
180929948000.0,3.0343012705337693,5.538323307461874,10.253341182734204,-0.6056729,1.1420126,-0.6020077,19.525888,-15.531693,22.395138
180934951000.0,3.0578008256269773,6.069520788795432,10.6134031991666,-0.5128214,0.8921687,-0.4868596,19.73794,-15.596694,21.987476
180939881000.0,2.9812912886256657,6.415635206960414,10.824714891426808,-0.37995818,0.6453791,-0.36957347,19.939835,-15.669219,21.657608
180944958000.0,2.9025004327725905,6.772069872482445,11.04232735828382,-0.21991149,0.38453966,-0.24373524,20.123058,-15.810773,21.39264
180949958000.0,2.7094806368925397,7.151634020876112,11.196658768749389,-0.05497787,0.10445796,-0.12339478,20.294842,-15.971795,21.215797
180954924000.0,2.5002179516084877,7.532957219370294,11.340817956389948,0.053145275,-0.17928895,-0.021991149,20.456932,-16.14357,21.124182
180959889000.0,2.314499919890434,7.771104673409186,11.237234863042564,0.11911872,-0.4089743,0.058337633,20.61402,-16.370575,21.07011
180964835000.0,2.134853144142436,7.975702174568057,11.07754867804467,0.1459968,-0.5876524,0.12614368,20.764814,-16.600208,21.08769
180969868000.0,1.9961382215447931,7.880446927115237,10.737549264835376,0.13775012,-0.6976081,0.16584991,20.919022,-16.862629,21.108915
180974828000.0,1.8642920883135528,7.753147302306662,10.382928728847626,0.10751228,-0.73914695,0.18753563,21.068083,-17.114712,21.163015
180979911000.0,1.8607900286738015,7.522747055653792,10.020312617682643,0.06627888,-0.7293731,0.20952678,21.21462,-17.378662,21.215565
180984837000.0,1.8871326904513728,7.276882120707306,9.66907712731503,0.023823744,-0.6985244,0.23823744,21.354256,-17.62583,21.274025
180990806000.0,1.9656025398039956,6.825931387259706,9.30904990463626,-0.024129177,-0.6737844,0.2779437,21.479153,-17.85101,21.3314
180994958000.0,2.0330480863550697,6.469968713079532,9.076737053524312,-0.035430185,-0.6600399,0.29901853,21.59881,-18.06991,21.38226
180999923000.0,2.1241011653320685,6.004830578728653,8.89375669345351,-0.057726767,-0.6646214,0.3173445,21.695642,-18.253468,21.45379
181004891000.0,2.2234092228652758,5.508290479601518,8.78542082779886,-0.079107046,-0.68600166,0.31978795,21.791204,-18.431131,21.524342
181009901000.0,2.326551438222185,5.032847645815451,8.654439266754704,-0.087964594,-0.7431176,0.32253686,21.870886,-18.566967,21.632805
181014891000.0,2.433045558641466,4.5910939752145925,8.496670260482006,-0.10140363,-0.77549344,0.32895094,21.948116,-18.693317,21.738182
181020197000.0,2.562777964034086,4.103826889088992,8.318136348941403,-0.11575896,-0.7965683,0.31948254,22.01489,-18.772879,21.869514
181025156000.0,2.8756879016164456,3.4446300207151017,8.026087015777915,-0.13041973,-0.7993172,0.30879238,22.08037,-18.846409,22.00163
181029882000.0,3.173895678388825,2.8164057013089696,7.747759702099622,-0.12736541,-0.7965683,0.28252518,22.129923,-18.882792,22.153605
181034860000.0,3.352674550016628,2.5144516379364816,7.56568378634852,-0.13133603,-0.7672467,0.24984388,22.179476,-18.914011,22.293365
181039948000.0,3.486361369304955,2.336202644255072,7.419843550631859,-0.13041973,-0.72173727,0.21685717,22.232336,-18.9489,22.421434
181044950000.0,3.642838090768087,2.200612483841496,7.257335154031658,-0.12797627,-0.64721173,0.15332718,22.25183,-18.925787,22.586752
181049958000.0,3.8466440588547752,2.1394707253372998,7.058624385690004,-0.14752395,-0.5580254,0.09621128,22.270098,-18.90138,22.728539
181054893000.0,4.014394970921052,2.133423715864662,6.879304678533835,-0.16584991,-0.45478916,0.039095376,22.279726,-18.86929,22.866879
181060774000.0,4.167902225789473,2.2022371642105263,6.688744138947368,-0.18753563,-0.32284227,-0.01740966,22.291193,-18.839212,22.964384
181064920000.0,4.26176353542193,2.271416297665488,6.60319404957049,-0.19181168,-0.19425514,-0.04428773,22.289295,-18.812708,23.066793
181069942000.0,4.349252408994442,2.392928954785245,6.588612486053562,-0.19853121,-0.08674286,-0.063224554,22.288107,-18.786781,23.132477
181074860000.0,4.400504630478309,2.510633881638858,6.602191437916203,-0.17837265,-0.03176499,-0.07269296,22.27596,-18.784973,23.1993
181079954000.0,4.386034044048944,2.6300169185242863,6.670927271197627,-0.15363261,0.0070249503,-0.07819075,22.257362,-18.784914,23.239641
181084884000.0,4.372029334371524,2.745556449707082,6.737450172272895,-0.105374254,0.02321288,-0.08246681,22.231598,-18.811129,23.277872
181089948000.0,4.30473377238533,2.9114309693931157,6.841312843476222,-0.059864793,0.022602014,-0.083383106,22.203283,-18.842842,23.310484
181095079000.0,4.207940568905356,3.1050170875809027,6.96576079416565,-0.025045475,0.008857546,-0.081855945,22.174343,-18.883638,23.342825
181099958000.0,4.128676581726187,3.304502585231356,7.176182533915084,0.010079277,0.0018325958,-0.079107046,22.147326,-18.946663,23.3642
181104898000.0,4.0592927475984455,3.5195926919997067,7.467595079196304,0.044898596,-0.0027488936,-0.08155051,22.121555,-19.017027,23.389278
181109884000.0,3.989262829185305,3.7366856621104345,7.761721182591479,0.061086524,-0.01985312,-0.070249505,22.108404,-19.108791,23.398254
181114948000.0,3.960401762849594,3.845717340129361,7.946515075066047,0.070554934,-0.027183503,-0.055283304,22.092905,-19.204212,23.40745
181119876000.0,3.94320417866448,3.923106558750114,8.096993936685799,0.059864793,-0.040317107,-0.036651913,22.074213,-19.29339,23.425617
181124900000.0,3.9339297740576993,3.965910285065568,8.215022742375423,0.044593163,-0.03970624,-0.021991149,22.072046,-19.393398,23.406992
181130626000.0,3.929820612813788,3.986456005470213,8.321861449606594,0.02443461,-0.038179077,-0.00061086525,22.062738,-19.482489,23.395887
181135758000.0,3.926893275920389,4.001897580644059,8.409241926625095,-0.014049901,-0.052534413,0.023823744,22.054144,-19.552788,23.382801
181139998000.0,3.930361767592039,3.991492178064406,8.416178692662509,-0.04642576,-0.06505715,0.047647487,22.038591,-19.614042,23.372488
181144926000.0,3.9343930711198425,3.979398351669941,8.424241047151277,-0.070554934,-0.076358154,0.076052725,22.02426,-19.656223,23.36694
181149951000.0,3.962521005503453,3.944982127218386,8.38937934123467,-0.08399397,-0.09468412,0.09621128,22.007452,-19.689281,23.3691
181154895000.0,4.006438277769762,3.8961851580335978,8.325942975574565,-0.08979719,-0.095294975,0.12186762,21.980095,-19.7128,23.373762
181160087000.0,4.0222588,3.767336897992112,8.21524643707422,-0.095294975,-0.10262536,0.14294247,21.952068,-19.72255,23.391895
181164932000.0,4.0222588,3.609288620294012,8.090471618142704,-0.07819075,-0.12095132,0.16126843,21.919037,-19.733557,23.415651
181169881000.0,4.033791464736997,3.4781678515133705,8.025397570672935,-0.059864793,-0.12705997,0.17715092,21.876421,-19.741882,23.448439
181174960000.0,4.062378289626801,3.38764279823685,8.049219966206287,-0.033292156,-0.14508049,0.19517145,21.831688,-19.754124,23.491169
181179823000.0,4.078250078818668,3.304809866867574,8.078365211813328,-0.015882496,-0.15057829,0.1966986,21.784702,-19.755299,23.545336
181184885000.0,4.074075999121749,3.225502265455485,8.120106008782503,-0.0076358155,-0.16065755,0.21991149,21.729103,-19.756294,23.608913
181189970000.0,4.072013931191847,3.146492394550288,8.163983429774037,0.014966198,-0.17256944,0.21991149,21.68274,-19.760752,23.675976
181194979000.0,4.101769477350465,3.078479628843598,8.236247076561808,0.0106901415,-0.19181168,0.22327125,21.630959,-19.75741,23.74942
181199847000.0,4.130687424785113,3.012381377004873,8.306476550022154,0.013744468,-0.19547687,0.22327125,21.587446,-19.748095,23.824564
181204953000.0,4.150856022809358,2.9565139027666576,8.349596302820034,0.010995574,-0.19792034,0.21471913,21.547604,-19.737377,23.902386
181209859000.0,4.16757496028823,2.906357788630905,8.383034003202562,0.0036651916,-0.20280726,0.21013765,21.507391,-19.726305,23.98071
181214925000.0,4.184897579088712,2.861447262823382,8.40591712290753,-0.009162978,-0.20280726,0.1957823,21.474192,-19.700592,24.060305
181220081000.0,4.202578260495927,2.821665383492973,8.419177518574882,-0.02565634,-0.18661933,0.1908954,21.438316,-19.672453,24.135544
181224866000.0,4.222381036037561,2.7804820996447,8.422683748583031,-0.040011674,-0.17134771,0.17256944,21.413696,-19.63814,24.210114
181229895000.0,4.250900966838677,2.7275168299044075,8.40638682759496,-0.045814894,-0.15515977,0.16218472,21.386286,-19.602715,24.278568
181235364000.0,4.28271903410533,2.6719291,8.386961701618022,-0.044898596,-0.13530666,0.14660765,21.36363,-19.558342,24.344965
181239979000.0,4.328289962880711,2.6719291,8.330873785215736,-0.036651913,-0.10781772,0.13836098,21.33927,-19.516329,24.402866
181244845000.0,4.376339397208122,2.6719291,8.271735366751269,-0.028099801,-0.09285152,0.124005646,21.318283,-19.474459,24.461668
181249894000.0,4.423397046245872,2.6791555184983484,8.228826619230427,-0.023518313,-0.070249505,0.1020145,21.298143,-19.437094,24.50797
181254901000.0,4.466206650388358,2.6962793601553434,8.211702866976163,-0.021685716,-0.056505036,0.09285152,21.277964,-19.402618,24.551212
181259936000.0,4.50620469741338,2.71898891869711,8.192640355899728,-0.02443461,-0.037873644,0.076052725,21.25957,-19.369778,24.601654
181264918000.0,4.532867783905477,2.764697038559796,8.165977547820534,-0.02565634,-0.03268129,0.07391469,21.239655,-19.338276,24.651255
181270209000.0,4.561184602578637,2.8132401261136835,8.137661024828356,-0.027488936,-0.02321288,0.063224554,21.227392,-19.317612,24.699093
181274904000.0,4.597231311003429,2.844554365140897,8.116161694498285,-0.034513887,0.005497787,0.054367006,21.212328,-19.296137,24.739164
181279866000.0,4.63974234156851,2.87289499053228,8.094906179215744,-0.03604105,0.010079277,0.049785517,21.200739,-19.277142,24.781378
181285255000.0,4.687576931919327,2.9031013917409783,8.069792878698225,-0.042760566,0.014660766,0.03970624,21.190248,-19.26117,24.823284
181289883000.0,4.750370857813151,2.921570193474456,8.0217739556213,-0.057421334,0.020158553,0.043066,21.176388,-19.242191,24.863668
181294880000.0,4.818171473131094,2.94151155092091,7.969926384615384,-0.050701816,0.024129177,0.03726278,21.162073,-19.228151,24.913328
181299895000.0,4.851692323715981,2.952570496644158,7.925437496419071,-0.053450707,0.03268129,0.03604105,21.144213,-19.207663,24.959986
181304896000.0,4.861492574759566,2.9574705965827706,7.88623664574381,-0.049480084,0.04337143,0.03390302,21.127552,-19.192112,25.003256
181309875000.0,4.8703500607546175,2.964565388593189,7.869469011380547,-0.04428773,0.050701816,0.03390302,21.103546,-19.17501,25.064123
181315870000.0,4.880402169001138,2.974617549321544,7.864443035980041,-0.040011674,0.053145275,0.03145956,21.08018,-19.159962,25.121714
181319988000.0,4.8751649540333934,2.9891947551599274,7.8625584,-0.043066,0.06261369,0.03176499,21.059717,-19.153255,25.17826
181324907000.0,4.851473403439952,3.017624615872058,7.8625584,-0.04184427,0.05955936,0.034513887,21.040163,-19.149029,25.236343
181329821000.0,4.827577121348025,3.0329442252905228,7.868365319101318,-0.03573562,0.06963864,0.034513887,21.013931,-19.13964,25.29104
181334935000.0,4.8022819047516565,3.0245124424033745,7.885228796832229,-0.030543262,0.07880162,0.03359759,20.987558,-19.13057,25.345842
181339965000.0,4.777233856373236,3.0164664536259385,7.902230890124578,-0.022907447,0.09437868,0.030848695,20.960629,-19.13276,25.38722
181344921000.0,4.749823672296015,3.012550759772296,7.92572525768501,-0.01863139,0.096516706,0.028710667,20.93426,-19.135489,25.42905
181349919000.0,4.722181198523224,3.0086018820724365,7.949418730055276,-0.020463986,0.10781772,0.0143553335,20.914936,-19.137028,25.459455
181354893000.0,4.687781457578212,3.013119162103877,7.9703300242077555,-0.010995574,0.11575896,0.017715093,20.891144,-19.140532,25.491306
181359893000.0,4.648997059481624,3.0228152236610306,7.989722147322061,-0.007941248,0.11728613,0.023518313,20.870277,-19.143446,25.52022
181364882000.0,4.607278934332425,3.0290604365667577,8.013370632016349,0.004581489,0.12705997,0.021685716,20.850683,-19.144342,25.539871
181369919000.0,4.563465726702997,3.033441757329701,8.039658419346049,0.008246681,0.124005646,0.022602014,20.830004,-19.142754,25.563154
181374902000.0,4.531210605720682,3.0424042725391804,8.070485388558634,-0.0009162979,0.12644911,0.032986723,20.806845,-19.14,25.575014
181379901000.0,4.512730553532,3.057188352883502,8.107445492936,0.004276057,0.11728613,0.03359759,20.78819,-19.142958,25.589848
181385896000.0,4.48891159534208,3.0745901197147134,8.153342944087347,0.009773844,0.11942416,0.032375857,20.767387,-19.139128,25.592995
181389946000.0,4.447929603618913,3.0814204873294004,8.207985671039888,0.0030543262,0.11362094,0.032986723,20.748169,-19.133327,25.601025
181395073000.0,4.396049437800476,3.090067226776437,8.2771593157524,0.008857546,0.102319926,0.04153884,20.727165,-19.13074,25.601868
181399951000.0,4.347515184619336,3.102034351577109,8.28563957536217,0.015271631,0.106595986,0.04795292,20.705896,-19.126942,25.60017
181404954000.0,4.29828824502209,3.116802428316038,8.25610321627453,0.013439035,0.108123146,0.046731193,20.68636,-19.122536,25.602446
181409925000.0,4.26946557236207,3.124312509267097,8.241083171381897,0.010079277,0.10354166,0.04153884,20.672829,-19.117317,25.591156
181414877000.0,4.251857970966065,3.127834066317665,8.234040351451696,0.01985312,0.10629055,0.055283304,20.653505,-19.112823,25.579773
181420514000.0,4.228958326668006,3.131001953215434,8.230467673331992,0.019242255,0.096516706,0.05375614,20.6404,-19.111097,25.562906
181424905000.0,4.174027146101286,3.1225510430868164,8.285398853898712,0.02076942,0.09193522,0.053450707,20.622503,-19.110455,25.546127
181430311000.0,4.108170184678426,3.113021927721361,8.350276450739354,0.028405234,0.086132,0.04642576,20.607546,-19.106953,25.531189
181434933000.0,4.100284169944771,3.128793874844112,8.33056110511313,0.032986723,0.076052725,0.03573562,20.595312,-19.103765,25.51869
181439911000.0,4.0917907512203815,3.1457806236059147,8.309327225725994,0.029932396,0.07971791,0.023823744,20.59794,-19.104576,25.489912
181444909000.0,4.0860684318463445,3.1539973681536555,8.332142083023545,0.03390302,0.09132435,0.015271631,20.603111,-19.109138,25.461544
181449909000.0,4.081504138642647,3.158561661357354,8.373221103136022,0.026572637,0.09285152,0.011301007,20.611254,-19.110794,25.434742
181455812000.0,4.087282814462893,3.164127937487497,8.374156371074214,0.02443461,0.08827003,0.006414085,20.617483,-19.111956,25.407825
181459884000.0,4.095083679835968,3.168028349809962,8.358554640328066,0.01740966,0.089491755,-0.00030543262,20.624746,-19.110693,25.378998
181464890000.0,4.096078796145693,3.1755114952399306,8.359358582385816,0.008857546,0.08827003,-0.002443461,20.630934,-19.10322,25.349018
181469913000.0,4.091443629051841,3.184781974629023,8.373264035266912,0.00030543262,0.09010262,-0.004581489,20.638813,-19.094967,25.31785
181474776000.0,4.081184516343798,3.170149110688043,8.358074332219996,-0.01038471,0.089491755,-0.0143553335,20.64388,-19.080315,25.29098
181479785000.0,4.065162464161657,3.132764136372745,8.315348376419506,-0.016798794,0.089186326,-0.013439035,20.646513,-19.06391,25.264944
181484808000.0,4.026610685782084,3.1152479726122206,8.299695397666602,-0.021685716,0.09621128,-0.018936822,20.654203,-19.051544,25.23203
181489783000.0,3.979503131896381,3.105826511024323,8.294984543899545,-0.0290161,0.09468412,-0.015577064,20.6603,-19.036026,25.203077
181494782000.0,3.939658672024376,3.1028855,8.274659438392687,-0.027488936,0.09101892,-0.017104227,20.664629,-19.020176,25.171846
181499795000.0,3.903087734374405,3.1028855,8.24723113968768,-0.027488936,0.09865474,-0.018020526,20.667091,-19.002089,25.139017
181504769000.0,3.868039330408038,3.1028855,8.227419861800287,-0.02443461,0.09132435,-0.014049901,20.67688,-18.97994,25.109285
181509848000.0,3.833132218412959,3.1028855,8.212459879229035,-0.029321533,0.081855945,-0.01160644,20.687086,-18.956709,25.078415
181514782000.0,3.808981894286283,3.108967489348995,8.195159021302011,-0.018936822,0.08002335,-0.011301007,20.700315,-18.937916,25.046194
181519786000.0,3.7899006450726658,3.1185080143340635,8.176077971331873,-0.011911872,0.07422013,-0.0067195175,20.713297,-18.916805,25.018692
181524822000.0,3.746371550528204,3.1190001109427943,8.18724958820012,-0.007330383,0.07360926,-0.005192355,20.730766,-18.899458,24.98725
181529752000.0,3.689907180586008,3.1142947959138927,8.215481871437113,-0.008552114,0.06169739,-0.00030543262,20.7479,-18.881863,24.961632
181534776000.0,3.6532430997136935,3.097788307779642,8.238216058939678,-0.005497787,0.051923547,0.010995574,20.761795,-18.867207,24.93456
181539764000.0,3.6296627470628886,3.0742078073946093,8.257080242570837,0.004581489,0.055588737,0.0125227375,20.777008,-18.855057,24.90698
181544753000.0,3.608830022548048,3.044972818704181,8.29839304933624,0.0033597588,0.056199603,0.017715093,20.795902,-18.838034,24.874493
181549754000.0,3.589850994689914,3.0117595694967307,8.355330331087776,-0.004276057,0.049785517,0.026572637,20.81367,-18.821619,24.843964
181554748000.0,3.579023266824926,2.992135433649852,8.395921255489615,-0.014660766,0.03756821,0.03176499,20.827646,-18.79969,24.808187
181559773000.0,3.57426328462908,2.98261546925816,8.424481248071217,-0.004886922,0.034513887,0.028710667,20.841434,-18.7815,24.772356
181564752000.0,3.5591099538659794,2.962740082761697,8.447598138877876,-0.014660766,0.03023783,0.035430185,20.853928,-18.747627,24.735168
181569761000.0,3.535333986597938,2.934208991554322,8.466618733941317,-0.0125227375,0.026267206,0.025350908,20.872885,-18.722612,24.697287
181574749000.0,3.5311630048815768,2.9186266223829325,8.484671798589767,-0.015577064,0.02443461,0.029626964,20.882236,-18.68406,24.660484
181579766000.0,3.544193236015187,2.9142832573585244,8.502045802928947,-0.02443461,0.011911872,0.025961773,20.89892,-18.647875,24.626318
181584761000.0,3.5681317104866044,2.9096674694040456,8.510418268562056,-0.024129177,0.010995574,0.020463986,20.916857,-18.612242,24.584663
181589772000.0,3.6153602621979215,2.904419864723893,8.49992284002187,-0.02107485,0.009162978,0.021380283,20.935802,-18.5758,24.547369
181594740000.0,3.669138887122856,2.920204676690988,8.487716029974365,-0.019547688,0.0015271631,0.020158553,20.956194,-18.538134,24.51274
181599755000.0,3.730700657582331,2.958088843127588,8.473509665352001,-0.0290161,-0.0018325958,0.025961773,20.974257,-18.49852,24.478672
181604729000.0,3.780831256013309,2.9826734528133865,8.455181617966533,-0.0290161,-0.009162978,0.015882496,20.990023,-18.459284,24.45412
181609783000.0,3.818722457539877,2.9921462284665816,8.431499678833545,-0.03145956,-0.006414085,0.01985312,20.999594,-18.41585,24.429914
181614730000.0,3.856217976541474,3.017438512231372,8.396125982928298,-0.03604105,-0.01740966,0.017715093,21.01249,-18.380148,24.420332
181619801000.0,3.895233001887929,3.066207395762201,8.342479711990359,-0.049480084,-0.018325957,0.027183503,21.019634,-18.340725,24.40881
181624712000.0,3.924006796319887,3.1021746953998584,8.307348291666667,-0.052534413,-0.03481932,0.026267206,21.035345,-18.309858,24.41214
181629792000.0,3.941221992356688,3.12369369044586,8.294436625,-0.042455133,-0.028405234,0.032986723,21.043716,-18.277912,24.410873
181634726000.0,3.957802660355824,3.144634647141099,8.280495070829136,-0.046731193,-0.042760566,0.034513887,21.055954,-18.25586,24.425716
181639790000.0,3.9740822559248072,3.1663407745664096,8.258789056730446,-0.041233405,-0.05589417,0.038179077,21.064678,-18.238462,24.43891
181644715000.0,3.976907601586043,3.1794999,8.279089139571768,-0.03756821,-0.05589417,0.03359759,21.072407,-18.222977,24.454872
181649793000.0,3.957624893259318,3.1794999,8.370682406819984,-0.036651913,-0.069027774,0.043982297,21.077316,-18.206451,24.479027
181654731000.0,3.950736984073964,3.1862899943731984,8.381756672432648,-0.034208454,-0.11301007,0.056199603,21.08772,-18.190725,24.518078
181659809000.0,3.965240709215628,3.2056282440799286,8.251222944229049,-0.035124753,-0.13316862,0.05131268,21.098707,-18.175825,24.552614
181664736000.0,3.979191956303336,3.217807,8.167410236520558,-0.03634648,-0.1160644,0.05009095,21.111328,-18.167246,24.574312
181669774000.0,3.993228297226532,3.217807,8.162731325930954,-0.033292156,-0.07971791,0.05467244,21.123245,-18.15973,24.595303
181674780000.0,4.004487471791324,3.2136596856733526,8.167733686394627,-0.03176499,-0.0580322,0.050701816,21.126038,-18.153633,24.625446
181679765000.0,4.009204529888351,3.1995088561604588,8.196035542436519,-0.022907447,-0.05955936,0.05222898,21.124306,-18.149256,24.65231
181684787000.0,4.016496672134056,3.183990470487925,8.225800821981272,-0.021685716,-0.06811147,0.053450707,21.122385,-18.142021,24.678967
181689805000.0,4.030707529423361,3.165042660768852,8.258959192212913,-0.036957346,-0.06719518,0.04886922,21.120779,-18.133606,24.702423
181694782000.0,4.040234367978624,3.14841343595725,8.288649226492652,-0.028099801,-0.06566802,0.051618114,21.11298,-18.128626,24.72415
181699790000.0,4.035305726071318,3.138556152142637,8.308364205837016,-0.03726278,-0.057421334,0.055588737,21.105392,-18.115936,24.742912
181704795000.0,4.033238957495294,3.126002470018825,8.322245,-0.022296581,-0.051618114,0.05131268,21.099669,-18.108332,24.761717
181709984000.0,4.038162569424353,3.106308022302586,8.322245,-0.026572637,-0.057726767,0.047036625,21.09331,-18.09349,24.781372
181714792000.0,4.046654184832295,3.091998264054616,8.319624046007718,-0.03145956,-0.055283304,0.045814894,21.090233,-18.082537,24.79567
181719795000.0,4.065616331987731,3.087257764391016,8.310142749678441,-0.035124753,-0.056505036,0.05009095,21.08784,-18.071045,24.812227
181724774000.0,4.080633860534305,3.078245808151184,8.30126224074074,-0.030543262,-0.05497787,0.04550946,21.089254,-18.055452,24.830751
181729854000.0,4.084326190831816,3.056091710701275,8.293877425925926,-0.03970624,-0.05497787,0.039095376,21.09027,-18.035767,24.8496
181734935000.0,4.088019247965999,3.033933252208561,8.286491157407408,-0.040011674,-0.058643065,0.04734206,21.085388,-18.027426,24.867073
181739875000.0,4.109056175550994,3.003217671737252,8.267470408383751,-0.03848451,-0.05589417,0.04795292,21.083956,-18.019304,24.880997
181744851000.0,4.139946888947709,2.967178443388073,8.241728102420051,-0.032986723,-0.056505036,0.03756821,21.084106,-18.012835,24.896078
181749865000.0,4.157988469760479,2.95174580986028,8.239796823253494,-0.035430185,-0.053450707,0.040011674,21.079626,-17.998678,24.913834
181754811000.0,4.172170458383233,2.942291348223553,8.244524152794412,-0.03481932,-0.049480084,0.040927973,21.078592,-17.9886,24.929817
181759882000.0,4.189632679056603,2.9188626075660378,8.24563,-0.040011674,-0.048563786,0.032070424,21.07371,-17.975374,24.949486
181764887000.0,4.207720088018868,2.891731399688679,8.24563,-0.03176499,-0.04428773,0.03023783,21.065783,-17.965216,24.967438
181769866000.0,4.232088887247804,2.8704230857804807,8.242580965730284,-0.029321533,-0.036651913,0.028099801,21.056992,-17.956455,24.981344
181774955000.0,4.260317387006468,2.851604102316826,8.237876133893232,-0.031154128,-0.04062254,0.016493361,21.05245,-17.950413,24.995792
181780683000.0,4.278174726832083,2.82701481067513,8.2256750542412,-0.025045475,-0.028405234,0.009468411,21.044506,-17.941662,25.009268
181784884000.0,4.2859131643777655,2.8076686360069245,8.21406755953068,-0.016187929,-0.027183503,0.013744468,21.038275,-17.933523,25.02629
181789920000.0,4.3205751787114846,2.7987479291316526,8.205002522408964,-0.012217305,-0.034513887,0.007330383,21.033482,-17.931444,25.041674
181794982000.0,4.379418400074696,2.803274330774977,8.200476026237162,-0.0070249503,-0.022602014,0.008857546,21.022902,-17.930454,25.052473
181799955000.0,4.418120607670132,2.804397987778457,8.191320784659737,-0.013744468,-0.021991149,0.0070249503,21.012508,-17.920803,25.071701
181804950000.0,4.42647840731196,2.8002190661396,8.174605185376082,-0.009468411,-0.022907447,0.0009162979,21.001959,-17.915886,25.087543
181809950000.0,4.4340615,2.7964275,8.159009850631943,-0.0036651916,-0.013744468,0.005192355,20.980822,-17.906614,25.111492
181814877000.0,4.4340615,2.7964275,8.154491861451552,-0.003970624,-0.019547688,0.0027488936,20.965372,-17.898813,25.137957
181820222000.0,4.4340615,2.7975181049822067,8.149589359430605,-0.00030543262,-0.01038471,0.004581489,20.942438,-17.89117,25.161718
181824905000.0,4.4340615,2.814772507454073,8.145275927719535,0.0030543262,-0.010079277,0.007330383,20.921738,-17.883867,25.188763
181829828000.0,4.4340615,2.832911184235837,8.140741436087332,0.007941248,-0.008857546,0.017104227,20.892464,-17.871296,25.214832
181834867000.0,4.425761528228113,2.863785009536525,8.148585471771886,0.0030543262,-0.004886922,0.009468411,20.867622,-17.859411,25.238216
181839839000.0,4.416679780946023,2.8955712435628453,8.157667219053977,-0.002443461,-0.004276057,0.0070249503,20.839008,-17.847137,25.263212
181844885000.0,4.414908,2.908873615699473,8.152337884300527,0.0036651916,0.0036651916,0.014966198,20.81035,-17.840408,25.28504
181850418000.0,4.414908,2.9185130840913227,8.142698415908677,0.007330383,0.008246681,0.017104227,20.784792,-17.833027,25.306435
181854900000.0,4.396659772251845,2.927008753168581,8.149409613874075,-0.0015271631,0.0067195175,0.015882496,20.757965,-17.829681,25.322376
181859896000.0,4.367222204983593,2.9368212926681707,8.164128397508202,-0.002443461,0.004886922,0.01038471,20.731739,-17.829647,25.336882
181864877000.0,4.348581894631246,2.9459898113877023,8.157195838937394,-0.0018325958,0.017715093,0.011301007,20.70361,-17.827599,25.349867
181870274000.0,4.334179434163105,2.955591518539848,8.137992524893182,-0.0076358155,0.01985312,0.012217305,20.678818,-17.824492,25.36553
181874955000.0,4.313282193922088,2.961805707485213,8.130709,-0.0070249503,0.008246681,0.011301007,20.657578,-17.823763,25.375708
181879896000.0,4.28432912306751,2.966631168906792,8.130709,-0.004581489,0.018020526,0.0036651916,20.635967,-17.822887,25.379034
181885094000.0,4.261374512519562,2.9737507953312465,8.133179307381324,0.00061086525,0.021991149,0.0027488936,20.613306,-17.816845,25.38981
181889886000.0,4.245414927751695,2.981730671039819,8.137169099417491,-0.002443461,0.02321288,0.0033597588,20.59213,-17.810356,25.398052
181895229000.0,4.239626328685041,2.989633040886807,8.145293540091512,-0.0070249503,0.027488936,-0.004886922,20.576096,-17.813822,25.394855
181899961000.0,4.259374528271054,2.994570116559538,8.160104818662163,-0.008552114,0.027794369,-0.0036651916,20.557693,-17.815918,25.393614
181904884000.0,4.26559231085367,2.99376470723578,8.176567546101984,0.0106901415,0.03145956,0.0027488936,20.547243,-17.821348,25.391117
181909880000.0,4.251962353736587,2.9846780691577246,8.194740727376317,0.006414085,0.036651913,-0.004276057,20.540424,-17.82194,25.387081
181914874000.0,4.241033963165905,2.981370235971588,8.211797941653984,0.0021380284,0.03848451,0.00061086525,20.529316,-17.825281,25.387613
181920134000.0,4.235922556164383,2.99159326347032,8.227132269406393,0.0030543262,0.03268129,0.0030543262,20.521423,-17.829935,25.388039
181924823000.0,4.234136959290283,2.9951645318001825,8.237241008909534,0.0125227375,0.039095376,-0.002443461,20.512444,-17.83457,25.379585
181929958000.0,4.2378816928419125,2.987674908285105,8.240985898872982,0.008246681,0.03604105,-0.007330383,20.504421,-17.835493,25.375763
181934886000.0,4.241475470240633,2.980487203381054,8.244579826378313,0.0018325958,0.035124753,-0.004581489,20.499952,-17.838436,25.37027
181939879000.0,4.239266124973656,2.9751273228661748,8.242370388830349,0.008857546,0.03359759,-0.0018325958,20.49738,-17.8442,25.365484
181944958000.0,4.2346067178082185,2.9704677697384807,8.237710787048568,0.0125227375,0.025045475,-0.0030543262,20.496101,-17.847538,25.36289
181949950000.0,4.2172924411251405,2.981335279796736,8.226659195462478,0.003970624,0.036651913,0.01038471,20.48532,-17.848671,25.354929
181954893000.0,4.192994051637409,3.000774042131198,8.212080364746946,0.011911872,0.038179077,0.00030543262,20.483973,-17.85794,25.349777
181964901000.0,4.143831621719805,3.0208615919907684,8.200450710488076,0.002443461,0.031154128,0.009773844,20.468649,-17.848074,25.34937
181970164000.0,4.1276035,3.030159583013784,8.191913056689813,0.01038471,0.044593163,0.01282817,20.456156,-17.846926,25.341623
181974910000.0,4.1276035,3.039580557788372,8.177781791273707,0.009773844,0.03176499,0.0067195175,20.453644,-17.847528,25.340425
181979875000.0,4.120820702453128,3.0471201993867183,8.175798762134221,0.0076358155,0.031154128,0.004581489,20.451847,-17.854893,25.327866
181984910000.0,4.103922441370247,3.051344764657438,8.192696934992115,0.0027488936,0.0290161,0.004581489,20.452768,-17.861626,25.31909
181989956000.0,4.087107129603788,3.0550013,8.209512153251932,0.006414085,0.02687807,0.008552114,20.451584,-17.87373,25.309633
181994894000.0,4.07139474091702,3.0550013,8.225224418888612,0.016798794,0.03848451,0.009162978,20.450146,-17.886383,25.297056
181999926000.0,4.055383250461002,3.0550013,8.241235783952156,0.004276057,0.03176499,0.0076358155,20.453709,-17.894484,25.285952
182004892000.0,4.042325717385819,3.0521135190259905,8.239854618975523,0.011301007,0.03573562,0.008857546,20.453856,-17.909344,25.26966
182009876000.0,4.030281700496257,3.0480988187820675,8.231825470014298,0.009773844,0.028710667,0.0076358155,20.457073,-17.918959,25.258156
182014824000.0,4.016096337391304,3.048505715217392,8.234180078260868,0.0143553335,0.030848695,0.0061086523,20.458633,-17.930363,25.238321
182019875000.0,3.9969768050592887,3.058065431472332,8.25807949367589,0.0125227375,0.032986723,0.0070249503,20.460594,-17.939226,25.220985
182024827000.0,3.9839516,3.0563067648399542,8.280564348099457,0.0018325958,0.028710667,0.0012217305,20.46679,-17.949577,25.202122
182029961000.0,3.9839516,3.0282031769434123,8.301641773078023,0.008552114,0.01863139,-0.003970624,20.472918,-17.963297,25.184948
182035888000.0,3.9839516,2.995758695941697,8.32597482680766,0.002443461,0.021380283,-0.008857546,20.487658,-17.972977,25.162663
182039921000.0,3.9839516,2.9903736027006174,8.329411298611111,0.0012217305,0.025961773,-0.0018325958,20.501003,-17.984282,25.143665
182045133000.0,3.9839516,2.995187865972222,8.3245974375,-0.007941248,0.016187929,-0.004276057,20.519577,-17.993378,25.12681
182049951000.0,3.978771231726876,3.000994060817785,8.315337698054783,-0.004886922,0.01740966,0.00061086525,20.53372,-17.998722,25.10609
182054956000.0,3.967354347884081,3.0086052769749903,8.300114868360462,-0.0143553335,-0.002443461,0.004276057,20.552057,-17.998787,25.093645
182060526000.0,3.9554196132728014,3.016098762253405,8.284135417416426,-0.004886922,-0.003970624,0.007330383,20.56346,-18.00686,25.073792
182064940000.0,3.9589088411060662,3.005631115187784,8.287624718118035,0.0030543262,-0.0027488936,0.0018325958,20.57799,-18.012573,25.058338
182070262000.0,3.963115834882377,2.993010177787866,8.291831799752373,-0.00580322,-0.006414085,0.0070249503,20.589098,-18.016846,25.04466
182074949000.0,3.952950269180566,3.0017860526226734,8.281666227942955,-0.005497787,-0.020158553,0.0061086523,20.604376,-18.026598,25.032572
182079952000.0,3.929787237805173,3.0288095892272984,8.258503115945532,-0.009162978,-0.015577064,0.015577064,20.613264,-18.0308,25.018343
182085090000.0,3.905953583002833,3.0556931157223794,8.236744822946175,-0.0009162979,-0.01282817,0.013744468,20.624102,-18.0384,25.005968
182089940000.0,3.8827337129811696,3.067303171963006,8.248355000416597,-0.003970624,-0.007941248,0.017715093,20.629597,-18.040062,24.993526
182095002000.0,3.8584988713214474,3.07942071932178,8.260472674304284,-0.0067195175,-0.026267206,0.006414085,20.644392,-18.053501,24.980928
182099952000.0,3.8590112979806137,3.083732,8.258693940831987,-0.0021380284,-0.020463986,0.017104227,20.648233,-18.064314,24.963512
182105751000.0,3.875833550565428,3.083732,8.247478871567044,-0.005192355,-0.019242255,0.016493361,20.661015,-18.074905,24.950329
182109939000.0,3.886919839641898,3.083732,8.253943213249777,-0.013133603,-0.014966198,0.021685716,20.67518,-18.082993,24.934004
182114953000.0,3.899816368343778,3.083732,8.266840011280216,-0.016493361,-0.015577064,0.024129177,20.690466,-18.091513,24.918653
182119957000.0,3.913544016784379,3.075456179476527,8.274361,-0.012217305,-0.022296581,0.013439035,20.706774,-18.101059,24.906332
182124899000.0,3.9282911747403406,3.055793148213544,8.274361,-0.01038471,-0.023518313,0.0143553335,20.7182,-18.107096,24.894318
182129949000.0,3.942483635964912,3.0304537494152046,8.278638223318714,-0.0125227375,-0.024740042,0.012217305,20.73364,-18.110153,24.886576
182134885000.0,3.955441718421053,3.0002182236842105,8.287276674342106,-0.007330383,-0.03145956,0.0076358155,20.750002,-18.115602,24.88056
182139851000.0,3.971465994437823,2.9703852927493046,8.29751488021454,-0.006414085,-0.028710667,0.0067195175,20.768095,-18.120274,24.875576
182144980000.0,3.995859820023838,2.941112651102503,8.312151481227652,-0.007941248,-0.036957346,0.009773844,20.787846,-18.12548,24.875216
182149822000.0,4.03573348309253,2.9151631492852754,8.318403012603751,-0.011911872,-0.022907447,0.013744468,20.799034,-18.125835,24.86784
182154953000.0,4.126367321979711,2.8925047684291423,8.303297083615124,-0.016187929,-0.025350908,0.010995574,20.813713,-18.126108,24.866674
182159885000.0,4.213486030494927,2.870725167107285,8.288777020903781,-0.005497787,-0.03390302,0.008552114,20.825247,-18.12373,24.86806
182164963000.0,4.2293194033530765,2.8535606869892582,8.267429254191347,-0.013439035,-0.027794369,-0.0018325958,20.838459,-18.116972,24.864967
182169953000.0,4.210129269029214,2.8391681363417325,8.243441586286517,-0.008857546,-0.034513887,0.0030543262,20.849936,-18.114603,24.868711
182175558000.0,4.218811755708721,2.834735,8.227297108480672,-0.0143553335,-0.03023783,0.017715093,20.85285,-18.107464,24.887814
182179902000.0,4.2343952210967934,2.834735,8.217947159424634,-0.015882496,-0.03023783,0.01282817,20.861,-18.104485,24.907812
182185286000.0,4.2529984748538014,2.836527140350877,8.206426929824563,-0.01985312,-0.026267206,0.008857546,20.863953,-18.096592,24.92575
182189938000.0,4.262303252130326,2.855136597744361,8.19712220112782,-0.0125227375,-0.02443461,0.011301007,20.866486,-18.091227,24.94386
182194913000.0,4.271256,2.873042,8.187769911949161,-0.014966198,-0.027794369,0.01740966,20.87129,-18.082987,24.969084
182199962000.0,4.271256,2.873042,8.183726785558994,-0.021380283,-0.024129177,0.015882496,20.876389,-18.076427,24.990746
182204819000.0,4.271256,2.873042,8.179837408478969,-0.01985312,-0.03359759,0.007941248,20.886953,-18.074114,25.020504
182209871000.0,4.265033348119253,2.885487336249652,8.178593,-0.015271631,-0.03390302,0.002443461,20.895514,-18.070982,25.046124
182214885000.0,4.256113857973437,2.903326363109501,8.178593,-0.014049901,-0.025045475,0.0067195175,20.903126,-18.067255,25.071184
182219930000.0,4.259902942428961,2.9243501135461267,8.173392565978979,-0.010079277,-0.01863139,0.008246681,20.911615,-18.06836,25.094074
182224904000.0,4.273809715920592,2.9475279080186843,8.164121254573764,-0.0067195175,-0.0143553335,0.0070249503,20.918558,-18.069405,25.114681
182229898000.0,4.280833,2.971359418559331,8.16186427435976,-0.0027488936,-0.0061086523,0.016187929,20.918602,-18.069775,25.131273
182234886000.0,4.280833,2.9957289106519744,8.16673827456382,-0.004276057,-0.007330383,0.013133603,20.922958,-18.071257,25.147514
182239854000.0,4.278393182687664,3.011996832721476,8.171455817312337,-0.00061086525,0.00061086525,0.0143553335,20.923054,-18.078348,25.163
182244914000.0,4.273711546130809,3.021359910298522,8.17613745386919,0.008246681,0.0070249503,0.022296581,20.922077,-18.085701,25.179184
182249959000.0,4.267801503688617,3.029725396311383,8.168229474994343,0.01160644,0.0015271631,0.010079277,20.924574,-18.091934,25.195261
182254897000.0,4.260667123602625,3.036859776397375,8.146826260239873,-0.0018325958,0.0076358155,0.011301007,20.918684,-18.093258,25.208315
182259895000.0,4.253446056030776,3.044080843969224,8.125162982122651,-0.0027488936,0.013133603,0.013744468,20.91797,-18.099161,25.22174
182264864000.0,4.2485287954915005,3.023982872949002,8.146147194244271,0.004276057,0.01282817,0.01282817,20.91772,-18.103855,25.234566
182269833000.0,4.244132350628234,2.9976042037694013,8.176922262379897,0.009162978,0.018325957,0.013439035,20.914986,-18.1072,25.244488
182274951000.0,4.226154408448954,2.965043997639263,8.201266555808656,0.0067195175,0.015882496,0.008552114,20.911995,-18.111017,25.256166
182279837000.0,4.201929804597225,2.931129501656658,8.220646390660592,0.0015271631,0.017104227,0.012217305,20.90526,-18.11407,25.26612
182284983000.0,4.210674169815102,2.9145130055560617,8.239302988887877,-0.0018325958,0.020463986,-0.0021380284,20.90781,-18.116173,25.271074
182289863000.0,4.231957886000546,2.905999563530376,8.256329872939247,-0.00030543262,0.016798794,0.008552114,20.902435,-18.114534,25.280256
182294877000.0,4.234407717273719,2.9017725,8.256666004252999,0.010079277,0.022602014,0.012217305,20.898317,-18.114666,25.274767
182299904000.0,4.218657583555071,2.9017725,8.24091565125409,0.004581489,0.010995574,0.0106901415,20.894997,-18.110489,25.275576
182304894000.0,4.213795,2.914303437545195,8.232920527307327,-0.0012217305,0.009773844,0.0012217305,20.884184,-18.106878,25.271555
182309910000.0,4.213795,2.932585922340628,8.22835028791627,0.004276057,0.02321288,0.008246681,20.868858,-18.102959,25.268291
182314887000.0,4.195810246326231,2.950356640778839,8.231615309423217,0.0036651916,0.017104227,0.008246681,20.859049,-18.099236,25.266325
182319891000.0,4.165000349926524,2.9679621908155767,8.240417808688465,0.0076358155,0.01985312,0.01038471,20.844444,-18.096989,25.259552
182325074000.0,4.146757,2.980557224213965,8.247800369538588,-0.0027488936,0.013744468,0.004581489,20.836855,-18.097513,25.255852
182329957000.0,4.146757,2.985330959861168,8.252574204879544,0.004276057,0.007330383,0.0067195175,20.826223,-18.10209,25.25276
182334995000.0,4.139122945865556,2.995597793991672,8.249481509220702,0.005192355,0.0125227375,0.004581489,20.8215,-18.10454,25.241825
182339938000.0,4.123031206169797,3.011689617702048,8.237412809467154,0.005497787,0.016493361,0.009773844,20.814922,-18.107277,25.234142
182344870000.0,4.10845,3.025517397542336,8.22572348180634,0.008246681,0.016493361,0.008857546,20.805437,-18.10761,25.224937
182349975000.0,4.10845,3.0170259404863224,8.217231847416413,0.007330383,0.0076358155,0.008857546,20.794992,-18.106329,25.217995
182354826000.0,4.10845,3.0089569770820668,8.20916271550152,0.005497787,0.013439035,0.018325957,20.784748,-18.106222,25.208132
182360802000.0,4.096096341603391,3.0194709153981987,8.207323,0.007941248,0.026572637,0.011301007,20.77974,-18.109049,25.19729
182364858000.0,4.085807545205721,3.0297596759844607,8.207323,0.0067195175,0.01985312,0.006414085,20.77307,-18.108997,25.19164
182370162000.0,4.082466268118519,3.041341236237037,8.221056840592594,0.007330383,0.017104227,0.006414085,20.761032,-18.112452,25.178562
182374966000.0,4.087010164138272,3.050429028276543,8.243776320691358,-0.0067195175,0.017104227,0.009468411,20.750248,-18.111946,25.166811
182379949000.0,4.077639902371692,3.05267001560573,8.245881911109004,0.0015271631,0.028710667,0.0143553335,20.742723,-18.12038,25.151445
182384903000.0,4.055135695882743,3.048169164908453,8.227878602314771,-0.0015271631,0.015271631,0.009773844,20.740026,-18.123035,25.142576
182389938000.0,4.029661176279447,3.037590350852965,8.218858578188465,-0.002443461,0.015577064,0.015271631,20.73402,-18.125568,25.12985
182395140000.0,3.999308710641755,3.01735537376117,8.22391742810723,-0.0027488936,0.011911872,0.0076358155,20.73525,-18.12962,25.120352
182399891000.0,3.9853873746710073,3.002809975986981,8.229348459388707,-0.008246681,0.011301007,0.015577064,20.731104,-18.129507,25.110056
182404954000.0,3.988817920758455,2.9925183377246354,8.236209336635063,-0.0061086523,0.0070249503,0.0106901415,20.733896,-18.133772,25.10001
182409876000.0,3.99215292922032,2.9825133123390404,8.24287914461582,-0.0009162979,0.007941248,0.015271631,20.72732,-18.1315,25.083733
182414887000.0,3.999076634535031,2.970064548197454,8.248404175201633,-0.009468411,0.00061086525,0.007941248,20.727312,-18.128439,25.06958
182419892000.0,4.008391936060636,2.956091595909047,8.253061923233894,-0.0033597588,0.0030543262,0.011301007,20.721838,-18.128532,25.054472
182430770000.0,4.029765209821057,2.9439620967263145,8.255207,-0.004581489,-0.0012217305,0.0067195175,20.72231,-18.123716,25.042702
182434895000.0,4.03798499758635,2.9412221674712167,8.255207,-0.013744468,0.003970624,0.004276057,20.720057,-18.117834,25.028587
182439901000.0,4.059289272902859,2.946038678375308,8.273083997348987,0.0012217305,-0.008552114,0.008552114,20.719233,-18.119284,25.02033
182444901000.0,4.086490844574891,2.955105900492331,8.300285758379095,-0.003970624,-0.0018325958,0.0030543262,20.719543,-18.114857,25.004627
182449896000.0,4.102944209373046,2.9592333,8.306561090290806,-0.0030543262,-0.0018325958,0.007330383,20.712318,-18.110317,24.997595
182454896000.0,4.1104308025562855,2.9592333,8.295331024624765,-0.010995574,-0.0070249503,0.0067195175,20.708237,-18.103634,24.989391
182460284000.0,4.119291984791544,2.9604985847915444,8.2841900622431,-0.004581489,-0.0070249503,0.0076358155,20.702808,-18.101124,24.983332
182464950000.0,4.138034266814865,2.9792408668148647,8.287938596929788,-0.01038471,-0.0070249503,0.005497787,20.699207,-18.09409,24.978434
182469882000.0,4.157845011551045,2.9990516115510446,8.29190082862176,-0.0009162979,-0.003970624,0.0076358155,20.695301,-18.09211,24.977648
182474955000.0,4.172515876155116,3.002713925862586,8.291312266951696,-0.005497787,-0.011911872,0.010995574,20.69295,-18.085314,24.979729
182479897000.0,4.183166049257426,2.9956139340234023,8.28776219689469,-0.0027488936,-0.007941248,0.02107485,20.686441,-18.081789,24.978691
182485468000.0,4.194026741244019,2.987143902592432,8.284141953632014,-0.0009162979,-0.009773844,0.014660766,20.685057,-18.079426,24.984692
182489909000.0,4.182926791100479,2.972344226628969,8.287841949891257,-0.0070249503,-0.013133603,0.01160644,20.679537,-18.074175,24.991234
182494915000.0,4.170414665358852,2.9556616826359288,8.292012672988255,-0.007330383,-0.003970624,0.011911872,20.672224,-18.07467,24.994596
182500608000.0,4.144750413827372,2.946129779500284,8.27588039750142,-0.005497787,0.0015271631,0.02443461,20.662996,-18.073004,25.000637
182504900000.0,4.121409383692978,2.9422396010410754,8.256429505205375,-0.009468411,0.0030543262,0.022296581,20.657549,-18.071617,25.00383
182509913000.0,4.110739910082735,2.9400797,8.24791998181653,-0.006414085,-0.01740966,0.01160644,20.655155,-18.066647,25.012035
182514975000.0,4.115147333975816,2.9400797,8.252327543776707,-0.008552114,-0.012217305,0.013744468,20.646833,-18.058222,25.013906
182519913000.0,4.114763388112399,2.9433429948500995,8.255207,-0.004276057,-0.0061086523,0.013133603,20.653828,-18.06356,25.015636
182524899000.0,4.1047873776454615,2.9533189532330515,8.255207,-0.007941248,-0.009468411,0.028099801,20.655834,-18.063908,25.020168
182529858000.0,4.096989259442208,2.9592333,8.243904399292939,-0.007330383,-0.010079277,0.01863139,20.663206,-18.070711,25.018982
182534995000.0,4.092158118530885,2.9592333,8.214917150250418,-0.006414085,-0.010995574,0.016187929,20.664377,-18.073734,25.020916
182539871000.0,4.08611416016496,2.9640065097525605,8.197746,-0.01038471,0.005192355,0.021685716,20.662256,-18.081675,25.01224
182544980000.0,4.077244791688571,2.977310562467144,8.197746,-0.009468411,0.0021380284,0.024129177,20.663836,-18.091427,25.008636
182549910000.0,4.06943745543755,2.987258448073378,8.196335540331782,-0.0061086523,-0.003970624,0.022907447,20.668823,-18.098835,25.008017
182554889000.0,4.065252219827964,2.98307316876152,8.187965243921706,-0.0021380284,-0.01740966,0.016798794,20.675528,-18.10671,25.009998
182560915000.0,4.0620607618100015,2.97876059240353,8.177471899377053,-0.004276057,-0.02321288,0.01282817,20.671335,-18.11224,25.005701
182564880000.0,4.075202071292611,2.982045936926804,8.167615659975775,-0.004581489,-0.011911872,0.014049901,20.667011,-18.119127,25.000473
182570345000.0,4.0933148723827655,2.986574160840976,8.154030704533657,-0.004581489,-0.01282817,0.0125227375,20.66157,-18.126472,24.996586
182574960000.0,4.1102747675412825,2.990814134444332,8.16411417222166,-0.0061086523,-0.0067195175,0.019547688,20.651373,-18.131859,24.989037
182579896000.0,4.129430357937392,2.995603019542093,8.188058597710466,-0.004581489,-0.011301007,0.021380283,20.64455,-18.138643,24.984236
182584964000.0,4.143592906904572,2.999678035634857,8.219121356348571,-0.0015271631,-0.0070249503,0.013439035,20.633568,-18.145687,24.979164
182589914000.0,4.153929085405916,3.003123428468639,8.253575284686388,-0.00030543262,-0.0067195175,0.01863139,20.619287,-18.150576,24.978083
182594888000.0,4.164315378712116,3.006585526237372,8.288196262373718,-0.0021380284,-0.0067195175,0.018020526,20.616919,-18.160307,24.978426
182599974000.0,4.189157703519611,2.999368366254797,8.262518426846391,-0.0076358155,-0.009468411,0.016493361,20.61352,-18.168533,24.979952
182604955000.0,4.215949310306094,2.990437908368436,8.226796781802864,-0.0070249503,-0.021991149,0.012217305,20.612158,-18.177975,24.98387
182609906000.0,4.225703569880011,2.978637615244069,8.221562896304881,-0.003970624,-0.004276057,0.015577064,20.609068,-18.179834,24.983715
182615130000.0,4.229114413076084,2.964994527379329,8.228384226547586,-0.013439035,-0.010995574,0.01985312,20.610863,-18.178986,24.99298
182619834000.0,4.2321857389555495,2.952709480419962,8.2345265576084,-0.014049901,-0.015882496,0.021380283,20.6069,-18.180956,25.00489
182624897000.0,4.225226316628701,2.9496565,8.228330719817768,-0.007330383,-0.007330383,0.0125227375,20.603998,-18.183187,25.014114
182629822000.0,4.21545892689998,2.9496565,8.218563840028992,-0.009773844,-0.016493361,0.01038471,20.60108,-18.181902,25.029922
182634927000.0,4.213795,2.960383253579556,8.209748681603362,-0.011301007,-0.006414085,0.02107485,20.59468,-18.177582,25.040472
182639937000.0,4.213795,2.9729807771223524,8.201350157185367,-0.018325957,-0.018936822,0.014660766,20.597355,-18.173777,25.05729
182644960000.0,4.210885050576414,2.975476859418297,8.200656070967742,-0.01740966,-0.010079277,0.022907447,20.590733,-18.170614,25.06669
182650203000.0,4.205574620772079,2.970166263257536,8.205966722580646,-0.014966198,-0.013133603,0.018325957,20.592386,-18.168606,25.080399
182654947000.0,4.193042175297747,2.96042797005398,8.215704942421386,-0.01985312,-0.008552114,0.017715093,20.586323,-18.158854,25.093908
182659909000.0,4.176755412603891,2.948213099982864,8.227919684945592,-0.016187929,-0.01038471,0.014049901,20.583574,-18.15316,25.10882
182664959000.0,4.167670166098485,2.9418390742424245,8.230774950757576,-0.020158553,-0.020158553,0.019242255,20.578526,-18.1437,25.123117
182669971000.0,4.172720821359428,2.946889465824916,8.215623986952862,-0.021685716,-0.017715093,0.02076942,20.574547,-18.136967,25.133602
182674952000.0,4.169447523811203,2.9541867980104417,8.20581286912657,-0.0143553335,-0.01282817,0.0143553335,20.570768,-18.124084,25.143349
182679948000.0,4.155944964956963,2.964313584972485,8.202437202977283,-0.015577064,-0.01740966,0.019242255,20.564104,-18.107525,25.155907
182684902000.0,4.142555918406942,2.974355238817553,8.199089915126288,-0.02076942,-0.018020526,0.027794369,20.554049,-18.095224,25.164999
182690176000.0,4.128196953769275,2.969403522501428,8.200740521701885,-0.011911872,-0.02443461,0.021685716,20.548206,-18.087835,25.17569
182694995000.0,4.115018644641157,2.956225167504283,8.205133398438988,-0.01038471,-0.021991149,0.027488936,20.535622,-18.075062,25.185915
182699959000.0,4.105821864395887,2.944400366002571,8.207323,-0.0036651916,-0.016798794,0.029626964,20.51895,-18.06212,25.192488
182704948000.0,4.100704078084833,2.93416506057198,8.207323,-0.0030543262,-0.022296581,0.028710667,20.502777,-18.048187,25.201412
182709942000.0,4.086792893573113,2.9335230108392296,8.219403106426887,-0.008857546,-0.023823744,0.03176499,20.49083,-18.03349,25.208164
182714936000.0,4.067993251474056,2.938222896825865,8.238202748525945,-0.007330383,-0.02565634,0.032986723,20.480589,-18.02162,25.216022
182720141000.0,4.051714922619388,2.9430300591268708,8.254481262224765,-0.018936822,-0.01863139,0.03573562,20.465477,-18.001785,25.220993
182724900000.0,4.038682039805548,2.947374353398151,8.267514417214755,-0.017715093,-0.0125227375,0.032375857,20.452488,-17.986822,25.226046
182729893000.0,4.041229619309463,2.9355654342514264,8.27670931477474,-0.018325957,-0.021380283,0.036957346,20.434143,-17.962402,25.229681
182734954000.0,4.060300269820972,2.906959383808774,8.281476591579775,-0.01863139,-0.02076942,0.027183503,20.419975,-17.941442,25.22741
182739912000.0,4.072343853404527,2.8811899329773683,8.354374230724012,-0.017715093,-0.022602014,0.023823744,20.412222,-17.923597,25.227009
182745062000.0,4.077175882404233,2.857029787978838,8.508999865092584,-0.020463986,-0.062002823,0.049785517,20.402927,-17.902811,25.238432
182749889000.0,4.089352446664554,2.8443117,8.547047505308193,-0.024129177,-0.12583824,0.05009095,20.40471,-17.87769,25.260807
182755876000.0,4.116607858611947,2.8443117,8.424397487482175,-0.009773844,-0.11026118,0.02443461,20.402458,-17.857462,25.271807
182759922000.0,4.135026999540485,2.8443117,8.34151090453177,-0.015577064,-0.0711658,0.022296581,20.403795,-17.824068,25.283558
182764937000.0,4.16506972344518,2.8443117,8.27604292968583,-0.016798794,-0.043066,0.01740966,20.412962,-17.80002,25.290634
182770149000.0,4.195317361439772,2.84464958424804,8.219940951176053,-0.0143553335,-0.0067195175,0.018325957,20.41601,-17.775793,25.28494
182774965000.0,4.203535712687099,2.848758802779758,8.256923832145404,-0.0070249503,0.0021380284,0.016187929,20.408815,-17.755518,25.291212
182784885000.0,4.2209423151914445,2.8574620829657214,8.285223085171394,-0.018936822,-0.0076358155,0.015271631,20.39366,-17.737087,25.29862
182789845000.0,4.230013626181609,2.8619976437410486,8.262545281294758,-0.014660766,-0.0018325958,0.011911872,20.377693,-17.72572,25.298992
182794962000.0,4.250771275651329,2.8753468584562394,8.24629595522388,-0.023518313,-0.009162978,0.010995574,20.367203,-17.707302,25.304995
182799972000.0,4.276195421725691,2.892296348167447,8.233584014925373,-0.02107485,-0.0033597588,0.007330383,20.356855,-17.694155,25.305235
182804895000.0,4.284231414633158,2.90383188078638,8.224417576205918,-0.016798794,-0.012217305,0.01282817,20.347185,-17.684343,25.313805
182809950000.0,4.26951382413863,2.908737710133765,8.219511644406161,-0.01038471,-0.0015271631,0.017715093,20.336304,-17.676552,25.315056
182814830000.0,4.25969947427762,2.9093697329367325,8.222838618508026,-0.013439035,0.0009162979,0.017715093,20.325172,-17.670006,25.326506
