timestamp,acc_x,acc_y,acc_z,gyro_x,gyro_y,gyro_z,ori_azimuth,ori_pitch,ori_roll
238808877000.0,-1.5710992282903962,9.88498821080572,-0.4243243233725309,-6.947065,-9.879523,-5.176472,32.257397,-11.34222,36.290028
238813765000.0,-1.5666448402460034,9.883112688789614,-0.4250276482901959,-6.947065,-3.6511416,4.7632217,28.313364,-9.664441,35.25356
238818797000.0,-1.562059226367242,9.88118191407909,-0.4257516930908689,-7.182859,0.7632761,0.03756821,32.426376,-10.188444,36.065517
238823759000.0,-1.5575374028246325,9.87927799831724,-0.4264656657261909,-1.1908818,0.7473936,0.03848451,31.36134,-9.667794,37.372917
238828759000.0,-1.5529809502423977,9.877359501983252,-0.4271851061084177,-1.1798862,0.73364913,0.03940081,31.593262,-8.570342,37.139565
238833830000.0,-1.5483597960334947,9.87541376300132,-0.4279147625440722,-1.1612549,0.73364913,0.031154128,31.83081,-8.840437,36.903576
238838838000.0,-1.5437960531271284,9.8734921970732,-0.4286353540309107,-1.1621711,0.75625116,0.03176499,32.070263,-9.118559,36.662003
238843888000.0,-1.5391940360190712,9.871554515775872,-0.4293619888169598,-1.1881329,0.7831292,0.036651913,32.31629,-9.407274,36.4153
238848836000.0,-1.5346849705436916,9.869655971803756,-0.4300739470192115,-1.2131784,0.7715228,0.04184427,32.568127,-9.706853,36.16943
238853741000.0,-1.5302150905605192,9.867773926900115,-0.430779718034176,-1.2263119,0.71929383,0.03970624,32.82634,-10.014328,35.923615
238858838000.0,-1.525570242798189,9.865818211737247,-0.4315131155598181,-1.142318,0.77518797,0.05497787,33.073296,-10.344864,35.648647
238863839000.0,-1.5210128789254376,9.863899331703994,-0.4322326998301213,-1.239751,0.77518797,0.06047566,33.33678,-10.642638,35.399403
238868785000.0,-1.516505636031091,9.862001555130414,-0.4329443702562202,-1.244027,0.7593055,0.062308256,33.596195,-10.988903,35.136074
238873742000.0,-1.5119883689410631,9.860099557864896,-0.4336576234511599,-1.2406673,0.752586,0.06414085,33.855865,-11.322794,34.867012
238878734000.0,-1.5074392066829598,9.858184131125045,-0.4343759127287752,-1.2492194,0.73456544,0.06994407,34.118435,-11.660918,34.602345
238883824000.0,-1.502800737954245,9.856231101857045,-0.4351083030378821,-1.2437216,0.72326446,0.08002335,34.381172,-12.010699,34.33457
238888807000.0,-1.4982597773107895,9.854319128410593,-0.4358252973228094,-1.2534955,0.7049385,0.09865474,34.64329,-12.360825,34.071236
238893753000.0,-1.4937525344164428,9.852421351837013,-0.4365369677489082,-1.2586879,0.67011917,0.10415252,34.91068,-12.721752,33.81179
238898745000.0,-1.4892033721583395,9.850505925097158,-0.4372552570265234,-1.2226468,0.600786,0.099571034,35.181713,-13.09631,33.563972
238903740000.0,-1.4846514760286869,9.848589347259503,-0.4379739779683681,-1.128879,0.5357288,0.10476339,35.452118,-13.48811,33.32213
238908827000.0,-1.4800157411715211,9.846637469089304,-0.4387059366132457,-1.0048733,0.4615087,0.09987647,35.73647,-13.904976,33.096813
238913756000.0,-1.475523990215954,9.84474621540326,-0.4394151609420449,-0.86926126,0.3830125,0.09315695,36.028175,-14.352884,32.886604
238918796000.0,-1.470931086013061,9.8428123710986,-0.4401403568473296,-0.7333437,0.33108896,0.086437434,36.327877,-14.837266,32.684464
238923812000.0,-1.466360052782563,9.840887735576343,-0.4408620994387796,-0.61391956,0.14355333,0.047036625,36.66461,-15.362049,32.532093
238928730000.0,-1.461878326022677,9.839000702582236,-0.4415697409987379,-0.26419923,-0.03176499,0.008246681,37.00991,-15.980214,32.384182
238933844000.0,-1.4572179863215673,9.837038464531831,-0.4423055846216795,0.054367006,-0.018020526,0.011911872,37.35625,-16.623709,32.22991
238938800000.0,-1.452701630522056,9.835136850965585,-0.4430186939285428,0.023823744,0.00580322,0.015882496,37.736145,-17.27746,32.109226
238943792000.0,-1.4481524682639528,9.83322142422573,-0.443736983206158,-0.016798794,-0.0015271631,0.010079277,38.122463,-18.0089,31.984472
238948747000.0,-1.443637023754958,9.831320194358748,-0.4444499486249449,-0.007941248,0.0070249503,0.014049901,38.501335,-18.745625,31.842646
238953736000.0,-1.439090595368404,9.829405918716695,-0.4451678062383308,-0.005192355,0.008246681,0.014966198,38.886017,-19.475288,31.696053
238959145000.0,-1.4341614249649424,9.827330489382588,-0.4459460968438238,-0.00580322,0.0015271631,0.014049901,39.270626,-20.208204,31.541893
238963772000.0,-1.4299448837453423,9.825555112875117,-0.4466118669735366,0.003970624,0.005192355,0.022296581,39.650738,-20.944557,31.378391
238968756000.0,-1.4254030118113703,9.823642755729397,-0.4473290051465403,-0.005497787,0.009468411,0.01740966,40.03563,-21.680002,31.207449
238973748000.0,-1.4208538495532672,9.821727328989542,-0.4480472944241556,0.004886922,-0.0021380284,0.01740966,40.417572,-22.421608,31.034006
238978732000.0,-1.4163119776192956,9.819814971843824,-0.4487644325971593,0.005192355,0.0021380284,0.019547688,40.79617,-23.159891,30.848005
238983797000.0,-1.4116962911534916,9.817871535057494,-0.4494932257043551,0.004886922,-0.007941248,0.01985312,41.17766,-23.901316,30.661455
238988866000.0,-1.407076959525622,9.815926563474097,-0.4502225943638567,0.018325957,-0.004581489,0.022602014,41.553036,-24.645546,30.46429
238993756000.0,-1.4026207489001965,9.814050274059458,-0.4509262070576745,0.013439035,-0.010995574,0.0106901415,41.933403,-25.387497,30.263489
238998744000.0,-1.3980752318041587,9.812136382116671,-0.4516439207829841,0.0076358155,-0.010079277,0.019242255,42.309322,-26.135733,30.053831
239003726000.0,-1.39353518245122,9.810224792369484,-0.4523607711798349,0.012217305,-0.01038471,0.020158553,42.689003,-26.88778,29.836903
239008817000.0,-1.3888958024319884,9.80827137940222,-0.4530933053770183,0.015577064,-0.004581489,0.0143553335,43.063473,-27.636948,29.612354
239013952000.0,-1.3842163256300333,9.806301083667211,-0.4538321706495652,0.014660766,-0.004276057,0.015271631,43.43304,-28.383736,29.384459
239018879000.0,-1.379726397255499,9.804410597379702,-0.4545411072022116,0.015882496,-0.015577064,0.013439035,43.80197,-29.13165,29.150923
239023742000.0,-1.3752947914740177,9.802544667845266,-0.4552408349179654,0.009162978,-0.017104227,0.004886922,44.166252,-29.876547,28.908556
239028737000.0,-1.3707428953443648,9.800628090007612,-0.4559595558598101,0.0033597588,-0.0070249503,0.016798794,44.520813,-30.61684,28.663942
239033819000.0,-1.3661117169397812,9.798678130333746,-0.4566907950643054,0.007330383,-0.022907447,0.0067195175,44.88389,-31.36033,28.415653
239038790000.0,-1.3615816917825234,9.796770761278497,-0.4574060626923154,0.013133603,-0.028405234,0.005497787,45.232548,-32.09691,28.161322
239043765000.0,-1.3570480214631997,9.79486185742618,-0.4581219058726311,0.0018325958,-0.021685716,0.006414085,45.578712,-32.828693,27.901968
239048740000.0,-1.352514351143876,9.79295295357386,-0.4588377490529468,0.004276057,-0.025961773,0.00061086525,45.92474,-33.563183,27.640608
239053768000.0,-1.3479323824271805,9.791023713660405,-0.4595612183013141,0.0027488936,-0.03176499,0.008552114,46.260513,-34.288273,27.376627
239058824000.0,-1.3433248975760246,9.789083730167476,-0.460288716415822,0.01282817,-0.03756821,0.01863139,46.592415,-35.013626,27.109167
239063763000.0,-1.338824033715293,9.78718863948876,-0.4609993796253856,0.016187929,-0.03176499,0.01863139,46.917854,-35.733467,26.836472
239068774000.0,-1.3342575569373774,9.78526592246284,-0.4617204027764534,0.008552114,-0.040317107,0.010079277,47.241272,-36.448742,26.565016
239073745000.0,-1.3297275317801194,9.783358553407588,-0.4624356704044633,0.004276057,-0.044593163,0.009162978,47.5548,-37.160072,26.289696
239078749000.0,-1.3251674340358188,9.781438522276533,-0.4631556863389959,0.007941248,-0.0421497,0.020463986,47.86187,-37.866375,26.012646
239083806000.0,-1.3205590378941463,9.77949815508434,-0.4638833283415802,0.014966198,-0.03573562,0.015882496,48.166832,-38.57043,25.72977
239088795000.0,-1.3160126095075924,9.777583879442286,-0.4646011859549661,-0.002443461,-0.03940081,0.021685716,48.46238,-39.26122,25.450346
239093849000.0,-1.3114069472374694,9.77564466334789,-0.465328396293321,0.010079277,-0.051618114,0.033292156,48.75208,-39.955555,25.169468
239099657000.0,-1.3061141719179454,9.773416138006333,-0.4661640982413157,0.012217305,-0.05222898,0.032986723,49.035263,-40.639057,24.883833
239103740000.0,-1.3023933727392925,9.771849493899996,-0.4667515932574422,0.0076358155,-0.044898596,0.030543262,49.311203,-41.31709,24.599276
239108807000.0,-1.2977758636924557,9.769905289715132,-0.4674806741407909,0.011911872,-0.053145275,0.03268129,49.58387,-41.991585,24.31725
239113764000.0,-1.293258596602428,9.768003292449617,-0.4681939273357306,0.017715093,-0.049480084,0.038179077,49.84588,-42.659588,24.030401
239118752000.0,-1.2887130795063906,9.76608940050683,-0.4689116410610401,0.013133603,-0.049785517,0.040317107,50.10493,-43.320576,23.744572
239123755000.0,-1.2841538930526064,9.764169753075045,-0.4696315131074963,0.019242255,-0.04428773,0.03726278,50.355698,-43.97957,23.456108
239128744000.0,-1.2796074646660522,9.76225547743299,-0.4703493707208822,0.018325957,-0.037873644,0.040011674,50.598694,-44.628563,23.168596
239133810000.0,-1.274990866909732,9.760311656947394,-0.4710783077161545,0.008246681,-0.04153884,0.03970624,50.83809,-45.2717,22.880127
239138765000.0,-1.2704754224007373,9.758410427080412,-0.4717912731349413,0.014049901,-0.03756821,0.034513887,51.068615,-45.91258,22.588348
239143825000.0,-1.2658642923875156,9.756468908790415,-0.4725193468017549,0.0030543262,-0.04062254,0.03359759,51.295094,-46.540165,22.299307
239148755000.0,-1.261371630141432,9.754577271405104,-0.4732287150186305,0.005192355,-0.03573562,0.029321533,51.514507,-47.16728,22.00634
239153741000.0,-1.2568279356264274,9.752664146860852,-0.4739461409677872,-0.00030543262,-0.023518313,0.021380283,51.727943,-47.78427,21.711903
239158831000.0,-1.2521894668977125,9.750711117592852,-0.4746785312768941,0.00030543262,-0.028099801,0.018020526,51.93851,-48.39672,21.420069
239163755000.0,-1.2477022723947273,9.74882178240314,-0.4753870361653111,-0.013744468,-0.026572637,0.0143553335,52.140408,-48.999104,21.12388
239170184000.0,-1.2418435856644898,9.7463549798169,-0.4763120926087784,-0.02076942,-0.028099801,0.02076942,52.337376,-49.595665,20.831411
239173745000.0,-1.2385984801354222,9.744988626727832,-0.4768244780490004,-0.019547688,-0.021380283,0.013133603,52.52952,-50.18701,20.5342
239178756000.0,-1.2340320033575063,9.743065909701912,-0.4775455012000681,-0.017715093,-0.021991149,0.011911872,52.71618,-50.76819,20.2426
239183803000.0,-1.2294327201209985,9.741129379502384,-0.4782717043218879,-0.018020526,-0.02443461,0.015577064,52.896767,-51.342903,19.950853
239188838000.0,-1.2284215005139605,9.739716604710054,-0.4788921539778233,-0.018936822,-0.02321288,0.013133603,53.072548,-51.912354,19.658306
239193761000.0,-1.2401957914929325,9.740187561300637,-0.4791276396498676,-0.009468411,-0.01863139,0.009468411,53.24249,-52.47711,19.367739
239198801000.0,-1.2522499102282605,9.740669710643823,-0.4793687218735328,-0.014049901,-0.020463986,0.015882496,53.423023,-53.033707,19.10124
239203791000.0,-1.2641844444523251,9.741147076759402,-0.4796074124084711,-0.018020526,-0.018020526,0.009162978,53.598904,-53.588837,18.83022
239208913000.0,-1.2764346817861243,9.741637070595877,-0.4798524170016482,-0.009773844,-0.018325957,0.015577064,53.76785,-54.136276,18.565647
239218811000.0,-1.3001076316357825,9.74258395833375,-0.4803258757020129,0.0027488936,-0.009773844,0.027488936,53.929184,-54.677452,18.30032
239223798000.0,-1.3120349907891715,9.743061037455671,-0.4805644227356276,0.0067195175,-0.008246681,0.01863139,54.089787,-55.214233,18.033804
239228797000.0,-1.3239910502252634,9.74353926455222,-0.4808035437745367,0.011911872,-0.007330383,0.026572637,54.239246,-55.74327,17.774603
239234649000.0,-1.3379872214235051,9.744099093511812,-0.4810834670231257,0.0021380284,-0.0061086523,0.023518313,54.38655,-56.266117,17.511736
239239453000.0,-1.349476901265671,9.744558666020678,-0.4813132604760002,0.007330383,-0.007941248,0.026572637,54.527767,-56.784996,17.25427
239243811000.0,-1.359899887267369,9.744975572139252,-0.4815217200654313,0.008857546,0.013744468,0.018020526,54.66015,-57.296303,16.991467
239248802000.0,-1.3718368131816594,9.745453033919384,-0.4817604584341441,0.0009162979,0.02107485,0.02321288,54.78999,-57.797367,16.736938
239253794000.0,-1.3837761307861745,9.745930591364068,-0.4819992446366316,0.002443461,0.009773844,0.014660766,54.917877,-58.29788,16.478323
239259671000.0,-1.397832094240048,9.746492811937468,-0.4822803637295839,0.00030543262,0.01740966,0.016493361,55.032455,-58.786606,16.222256
239263750000.0,-1.4075877986688976,9.746883027645971,-0.4824754776959193,-0.0015271631,0.02107485,0.004276057,55.149998,-59.272648,15.964611
239268755000.0,-1.4195582082463414,9.747361828729831,-0.4827148857374757,-0.009468411,0.024740042,0.0021380284,55.259857,-59.74829,15.711257
239273738000.0,-1.4314760006388292,9.747838525193549,-0.4829532414359922,-0.014660766,0.02687807,0.010995574,55.365368,-60.217773,15.459711
239278730000.0,-1.4434153182433445,9.74831608263823,-0.4831920276384796,-0.020463986,0.025045475,0.01282817,55.468292,-60.68006,15.208296
239284171000.0,-1.456428504759003,9.74883659346686,-0.483452291205734,-0.025045475,0.03756821,0.008552114,55.562683,-61.13451,14.958057
239288781000.0,-1.4674541966974677,9.749277607052594,-0.4836728049063483,-0.02107485,0.033292156,0.008552114,55.657658,-61.582275,14.7141905
239293746000.0,-1.4793289386659008,9.749752581554368,-0.4839102995969233,-0.014660766,0.03573562,0.005497787,55.744816,-62.024284,14.468735
239298743000.0,-1.4912802147215425,9.750230617321812,-0.4841493249682833,-0.01038471,0.03023783,0.010079277,55.830883,-62.45922,14.229366
239303722000.0,-1.5031884403531293,9.750706931127317,-0.4843874893317017,-0.018325957,0.037873644,0.0106901415,55.910202,-62.88748,13.989058
239308793000.0,-1.5153167014854405,9.751192046071624,-0.4846300544023775,-0.014049901,0.03023783,0.006414085,55.99185,-63.31349,13.753726
239314121000.0,-1.528059627005644,9.751701746805852,-0.4848849127531092,-0.0036651916,0.0421497,0.010995574,56.06186,-63.7314,13.520591
239318788000.0,-1.5392216452869487,9.752148213271065,-0.4851081529788722,-0.013439035,0.030543262,0.014049901,56.137863,-64.14013,13.292133
239323738000.0,-1.551060511902003,9.752621752804554,-0.485344930162829,-0.006414085,0.03390302,0.010995574,56.2037,-64.5495,13.063109
239328729000.0,-1.562997437816293,9.753099214584688,-0.4855836685315419,-0.0036651916,0.028710667,-0.004581489,56.27309,-64.9508,12.836503
239333822000.0,-1.5751783161335595,9.753586434149144,-0.4858272859452575,-0.009468411,0.025961773,0.0012217305,56.336018,-65.34289,12.6169405
239338769000.0,-1.587010007677938,9.754059686688976,-0.4860639196278907,0.0036651916,0.021991149,0.0009162979,56.400208,-65.73746,12.395119
239343982000.0,-1.5994778888222363,9.7545583859997,-0.4863132770945507,-0.014966198,0.01038471,-0.009162978,56.46489,-66.11746,12.176101
239348809000.0,-1.6110225775395834,9.755020158793268,-0.4865441707242395,-0.0036651916,0.0070249503,-0.006414085,56.52439,-66.50015,11.962797
239353796000.0,-1.6229499366929725,9.755497237915188,-0.4867827177578542,-0.017104227,0.014049901,-0.015882496,56.583897,-66.86967,11.746482
239358808000.0,-1.634937088101993,9.755976708650916,-0.4870224606358324,-0.013133603,0.008246681,-0.025045475,56.644924,-67.2399,11.535377
239363766000.0,-1.6467950882388491,9.756451013500824,-0.4872596204899855,-0.004581489,0.004886922,-0.022602014,56.70066,-67.601875,11.326774
239368759000.0,-1.6587367975335896,9.75692866661006,-0.4874984545262474,-0.0027488936,-0.005192355,-0.022602014,56.758537,-67.95913,11.119107
239373737000.0,-1.6706426314749514,9.757404884751011,-0.4877365710558913,0.0015271631,-0.008857546,-0.027183503,56.813354,-68.31368,10.913408
239378823000.0,-1.682806767960641,9.757891434663604,-0.4879798536331852,0.01038471,-0.014966198,-0.018020526,56.868008,-68.66214,10.71541
239383819000.0,-1.6947556523260576,9.758369374766495,-0.4882188311707707,0.013133603,-0.009468411,-0.01740966,56.91942,-69.00645,10.515946
239388787000.0,-1.704593442609572,9.758570606523929,-0.4900584564639625,0.017104227,-0.02107485,-0.030848695,56.97545,-69.34838,10.319961
239393795000.0,-1.7041172720362583,9.757380180090646,-0.5000580462103424,0.024129177,-0.016493361,-0.032986723,57.022232,-69.68449,10.128034
239398747000.0,-1.7036464260540205,9.75620306513505,-0.5099458194579608,0.040011674,-0.01863139,-0.03145956,57.060146,-70.055145,9.871291
239403745000.0,-1.7031712063005415,9.755015015751354,-0.5199254419724191,0.032070424,-0.029321533,-0.024129177,57.09719,-70.41496,9.619994
239408868000.0,-1.7026841012991267,9.753797253247816,-0.5301546548858983,0.038789943,-0.029321533,-0.01985312,57.130352,-70.77642,9.371635
239413901000.0,-1.702205553676226,9.752600884190564,-0.5402041627120824,0.049785517,-0.03481932,-0.022296581,57.166378,-71.13089,9.128756
239418754000.0,-1.7017441208103532,9.751447302025882,-0.5498942603636761,0.06627888,-0.037873644,-0.0143553335,57.19901,-71.4804,8.893578
239424694000.0,-1.7011793338284278,9.75003533457107,-0.561754796125157,0.064446285,-0.043066,-0.0143553335,57.23307,-71.823616,8.659988
239428748000.0,-1.700793871467363,9.749071678668408,-0.5698495119462081,0.07391469,-0.05100725,-0.013744468,57.266575,-72.16674,8.43293
239434824000.0,-1.700216153335683,9.747627383339209,-0.581981602061824,0.076052725,-0.061086524,-0.011911872,57.300568,-72.501595,8.210439
239438820000.0,-1.6998362057296603,9.746677514324151,-0.5899605079377294,0.09040806,-0.06536258,-0.0061086523,57.33341,-72.83555,7.9929748
239443926000.0,-1.699350717121965,9.745463792804912,-0.6001557765569417,0.08552113,-0.0720821,-0.01038471,57.36899,-73.1606,7.777703
239448752000.0,-1.6988918514696465,9.744316628674117,-0.6097919626823469,0.092240654,-0.07666359,-0.008552114,57.402924,-73.48498,7.5693216
239453741000.0,-1.6984174874540192,9.743130718635047,-0.6197536146880755,0.099265605,-0.08735373,-0.01160644,57.43983,-73.80383,7.362737
239459757000.0,-1.697845474241349,9.741700685603371,-0.6317659014121613,0.09896017,-0.092240654,-0.01282817,57.474815,-74.116516,7.1604075
239463827000.0,-1.697458490568548,9.74073322642137,-0.6398925648042871,0.09865474,-0.09621128,-0.01740966,57.511745,-74.42633,6.960274
239468753000.0,-1.6969901167178805,9.739562291794702,-0.6497284232489091,0.098043874,-0.10445796,-0.024740042,57.550274,-74.73105,6.7629027
239473755000.0,-1.696514516636468,9.73837329159117,-0.659716032656136,0.093767814,-0.109650314,-0.022296581,57.587467,-75.02868,6.570243
239478734000.0,-1.6960411034406755,9.737189758601687,-0.669657717429943,0.089186326,-0.106595986,-0.030543262,57.624702,-75.32301,6.375752
239484750000.0,-1.695469090228005,9.735759725570013,-0.6816700041540287,0.0842994,-0.10415252,-0.039095376,57.662243,-75.6106,6.185374
239488826000.0,-1.6950815360633034,9.734790840158258,-0.6898086478853076,0.090713486,-0.100792766,-0.04428773,57.697834,-75.89531,5.9965053
239494887000.0,-1.6945052441613755,9.73335011040344,-0.7019107871530409,0.08735373,-0.10842858,-0.037873644,57.734547,-76.170685,5.8121634
239498746000.0,-1.6941383227870912,9.732432806967728,-0.7096161419516192,0.08246681,-0.11362094,-0.039095376,57.76935,-76.443695,5.6269927
239503742000.0,-1.6936632931975797,9.731245232993947,-0.719591771019693,0.084910266,-0.11056661,-0.038179077,57.802395,-76.71165,5.447213
239509786000.0,-1.6930886176893711,9.729808544223427,-0.7316599659931594,0.076052725,-0.105068825,-0.038179077,57.835316,-76.97063,5.270017
239513844000.0,-1.6927027750003725,9.72884393750093,-0.7397626687069792,0.070554934,-0.099571034,-0.043676864,57.866665,-77.22671,5.0943136
239518814000.0,-1.6922302175424313,9.72766254385608,-0.7496863829720566,0.08246681,-0.09010262,-0.03390302,57.893505,-77.47844,4.9252887
239523731000.0,-1.691762699429615,9.726493748574038,-0.7595042709079491,0.06841691,-0.084910266,-0.03573562,57.92007,-77.71905,4.7543306
239528720000.0,-1.691288335413988,9.72530783853497,-0.7694659229136779,0.07666359,-0.09040806,-0.032070424,57.94524,-77.9622,4.590584
239533818000.0,-1.6908036074621606,9.7240960186554,-0.779645217747353,0.07147124,-0.08277224,-0.029932396,57.96459,-78.19384,4.427718
239538947000.0,-1.6903159319688448,9.72287682992211,-0.7898864109999852,0.086437434,-0.07727446,-0.025961773,57.98498,-78.427826,4.2696013
239543765000.0,-1.6898578269723945,9.721731567430986,-0.799506623339853,0.08307768,-0.062308256,-0.030848695,58.00012,-78.65179,4.111421
239548739000.0,-1.6893848891865193,9.720549222966298,-0.8094383244976991,0.06261369,-0.06414085,-0.033292156,58.01734,-78.869965,3.9583414
239553744000.0,-1.6889090038591563,9.71935950964789,-0.8194319240745025,0.06566802,-0.06566802,-0.021991149,58.0291,-79.088196,3.8096445
239559842000.0,-1.6883291939238396,9.717909984809598,-0.831607942100346,0.06047566,-0.05131268,-0.024740042,58.03703,-79.29608,3.6582775
239564953000.0,-1.6878432299062267,9.716695074765566,-0.8418131943355194,0.055283304,-0.053450707,-0.026267206,58.048763,-79.49928,3.5139253
239568769000.0,-1.687480397057232,9.71578799264308,-0.8494326900368343,0.058643065,-0.051923547,-0.01985312,58.054543,-79.69872,3.3727174
239573738000.0,-1.6870079346812747,9.714606836703188,-0.8593544075787196,0.052839845,-0.045814894,-0.01985312,58.059418,-79.89094,3.2316945
239578729000.0,-1.6865333805016804,9.7134204512542,-0.8693200530308326,0.060170226,-0.03756821,-0.018936822,58.062336,-80.0829,3.0950496
239584881000.0,-1.6859484361392554,9.71195809034814,-0.8816038941090533,0.056505036,-0.032070424,-0.018325957,58.06379,-80.26635,2.9606159
239588969000.0,-1.685559740990752,9.71098635247688,-0.8897664985186381,0.062002823,-0.029626964,-0.014660766,58.063046,-80.450035,2.8294718
239593806000.0,-1.6874265420563197,9.711730236485296,-0.8866139121159821,0.064751714,-0.031154128,-0.009468411,58.061306,-80.62792,2.701251
239598743000.0,-1.689568986833957,9.712682429192869,-0.8820909691638682,0.06505715,-0.024129177,-0.00580322,58.05589,-80.802635,2.575483
239603729000.0,-1.6917326954953504,9.713644072466105,-0.8775231357510184,0.056505036,-0.03145956,-0.004276057,58.07849,-81.02289,2.4509652
239609220000.0,-1.694115552346476,9.714703114426255,-0.8724926557530323,0.051923547,-0.039095376,0.0061086523,58.0976,-81.238976,2.3317206
239613765000.0,-1.696087886054064,9.715579702608538,-0.8683288364868063,0.03970624,-0.042455133,0.018020526,58.11647,-81.44614,2.215468
239618749000.0,-1.6982507268018348,9.716540960144398,-0.86376283533766,0.018325957,-0.053145275,0.024129177,58.138466,-81.645004,2.1030314
239623735000.0,-1.7004144354632282,9.717502603417632,-0.8591950019248101,0.015882496,-0.061391957,0.040011674,58.158913,-81.840195,1.9985993
239628721000.0,-1.702578144124622,9.718464246690868,-0.8546271685119602,0.005497787,-0.06841691,0.03848451,58.181633,-82.02425,1.8930922
239633787000.0,-1.7047765693309234,9.71944131945906,-0.84998604455097,-0.009773844,-0.07238753,0.052534413,58.20375,-82.2004,1.7983683
239638796000.0,-1.706950258998978,9.720407398712094,-0.8453971401055298,-0.027794369,-0.096516706,0.054367006,58.23332,-82.37022,1.7023882
239643757000.0,-1.7091031187400878,9.721364220268152,-0.8408522099889738,-0.03634648,-0.10751228,0.065973446,58.258614,-82.533455,1.6143512
239648739000.0,-1.711265091574236,9.72232509206664,-0.8362880411035309,-0.046120327,-0.11362094,0.07238753,58.28874,-82.68825,1.5275495
239653730000.0,-1.713430970019686,9.72328769968331,-0.8317156270314223,-0.058948494,-0.12370021,0.0842994,58.321774,-82.8356,1.4475461
239658814000.0,-1.715637206448592,9.724268244087868,-0.8270580126971004,-0.070249505,-0.12034045,0.086437434,58.352127,-82.977806,1.3676634
239663814000.0,-1.7178069905053446,9.72523258752272,-0.8224773534383261,-0.077579886,-0.12003502,0.095294975,58.38488,-83.11358,1.2947894
239668751000.0,-1.7199494352829818,9.726184780230293,-0.8179544104862122,-0.087659165,-0.12064589,0.1001819,58.41633,-83.24272,1.2225548
239673744000.0,-1.722116181642055,9.727147773584337,-0.8133801641504,-0.09621128,-0.11453723,0.10629055,58.444817,-83.36703,1.1541322
239678727000.0,-1.7242785884330143,9.728108838251508,-0.8088150791331055,-0.09010262,-0.113926366,0.11148291,58.474316,-83.48986,1.0881809
239683815000.0,-1.7264865606891655,9.729090154130814,-0.8041538002713766,-0.10598512,-0.1160644,0.112399206,58.502205,-83.601494,1.0237496
239688757000.0,-1.72863117525086,9.730043311181822,-0.799626276660004,-0.098043874,-0.10598512,0.1160644,58.52565,-83.71877,0.9622498
239693751000.0,-1.730798355566744,9.731006497404552,-0.7950511141923401,-0.1020145,-0.09315695,0.11728613,58.548424,-83.825935,0.9013541
239698734000.0,-1.7329607623577037,9.731967562071723,-0.7904860291750455,-0.09987647,-0.09682214,0.12614368,58.572166,-83.934296,0.84489423
239703878000.0,-1.7351930361952903,9.7329596785975,-0.7857734469296184,-0.10415252,-0.09865474,0.1301143,58.59136,-84.0376,0.7879692
239709814000.0,-1.737769003827467,9.734104547123358,-0.7803352882576013,-0.10293079,-0.09712757,0.1301143,58.610027,-84.14068,0.73340654
239713818000.0,-1.7395065669001144,9.734876793345988,-0.7766670963231748,-0.10781772,-0.08582657,0.14263703,58.625504,-84.2381,0.68425274
239718776000.0,-1.74165812477079,9.735833036295986,-0.772124914602174,-0.10445796,-0.07971791,0.1469131,58.641838,-84.336426,0.6337724
239723735000.0,-1.7438101165982771,9.736789472114673,-0.7675818167493216,-0.10781772,-0.06994407,0.1572978,58.65295,-84.42886,0.58903915
239728751000.0,-1.7459868439640112,9.737756901448517,-0.7629864993809191,-0.122478485,-0.08246681,0.16401732,58.66831,-84.517075,0.5457505
239733811000.0,-1.7481826654294448,9.738732817004584,-0.7583508722110394,-0.118507855,-0.07727446,0.16615535,58.6753,-84.607605,0.5041325
239738777000.0,-1.7503376949546112,9.739690602904082,-0.7538013614352246,-0.124005646,-0.06811147,0.16584991,58.684265,-84.68937,0.4646919
239743900000.0,-1.75256085569916,9.74067866918743,-0.7491080179586843,-0.121256754,-0.06047566,0.17073683,58.691673,-84.77273,0.42795113
239749759000.0,-1.7551034086568622,9.74180868682439,-0.7437404014392525,-0.13836098,-0.05467244,0.17165314,58.696774,-84.847275,0.390502
239753745000.0,-1.7568331605069054,9.742577461410654,-0.7400886998781575,-0.1386664,-0.059253927,0.17287487,58.702248,-84.92564,0.35527623
239759394000.0,-1.7592845825342245,9.74366697662335,-0.7349134710475942,-0.13744467,-0.05375614,0.1685988,58.70303,-84.99812,0.3190056
239763782000.0,-1.76118878502243,9.744513284421776,-0.7308934844820937,-0.14508049,-0.048563786,0.1685988,58.704796,-85.06636,0.2850745
239768825000.0,-1.7633772292220706,9.745485921210168,-0.7262734315536938,-0.14782938,-0.05497787,0.17531833,58.708008,-85.13484,0.25264433
239773750000.0,-1.7655144665179718,9.746435799493495,-0.721761482183801,-0.14782938,-0.050396383,0.17745635,58.70647,-85.20056,0.21917789
239778732000.0,-1.76767643935212,9.747396671291984,-0.7171973132983582,-0.15760323,-0.03848451,0.18478674,58.70416,-85.26118,0.18970542
239784790000.0,-1.7703053497152812,9.74856506979765,-0.7116473865404271,-0.14905111,-0.048258353,0.1826487,58.706684,-85.32579,0.1591197
239788793000.0,-1.7698724281617262,9.75040127120845,-0.7063693668393477,-0.15699236,-0.039095376,0.18173242,58.700005,-85.38154,0.13081703
239793801000.0,-1.757895145132982,9.758306289713556,-0.6912779860209275,-0.15790866,-0.047647487,0.18875736,58.700848,-85.440445,0.1053506
239798763000.0,-1.7460278770841346,9.766138698224408,-0.6763252241157756,-0.16890424,-0.042760566,0.19792034,58.691536,-85.47979,0.063309036
239803742000.0,-1.7341199513253254,9.773997940863572,-0.661321233481807,-0.17440203,-0.041233405,0.19792034,58.68567,-85.51931,0.021766106
239808804000.0,-1.7220135202767026,9.781988197188022,-0.6460671261130285,-0.17073683,-0.041233405,0.2098322,58.6784,-85.55726,-0.013052492
239813771000.0,-1.7101342940778663,9.789828498089554,-0.6310992969346952,-0.17989981,-0.04550946,0.2125811,58.672127,-85.58903,-0.049664017
239818849000.0,-1.6979895969492795,9.79784401006418,-0.6157969742917364,-0.17989981,-0.058643065,0.21899518,58.66807,-85.6236,-0.08094629
239823752000.0,-1.6862634350702996,9.805583288365009,-0.6010220062101241,-0.18081611,-0.058948494,0.22418754,58.66153,-85.65449,-0.11131849
239828736000.0,-1.6743435511615017,9.81345042339485,-0.5860029483029743,-0.18753563,-0.06841691,0.2312125,58.66116,-85.683,-0.13824317
239833789000.0,-1.6622586447828585,9.821426473416077,-0.5707759620259222,-0.19730948,-0.07147124,0.22999077,58.659122,-85.7096,-0.16561352
239838842000.0,-1.6501737384042157,9.829402523437304,-0.55554897574887,-0.20769419,-0.07666359,0.24281894,58.659904,-85.73368,-0.18620323
239843771000.0,-1.638385394145294,9.837182842169668,-0.5406956578467148,-0.21533,-0.08093964,0.2489276,58.66144,-85.75508,-0.20850906
239848747000.0,-1.626484643276478,9.845037349374422,-0.5257007075766551,-0.226631,-0.08307768,0.25228736,58.663597,-85.7721,-0.2274459
239853796000.0,-1.614409303417826,9.853007085483105,-0.510485775118148,-0.23090707,-0.086437434,0.25625798,58.66714,-85.78861,-0.24396482
239859658000.0,-1.6003895683710012,9.86226012431636,-0.4928209040403566,-0.23426682,-0.076052725,0.25717425,58.667313,-85.80181,-0.2602789
239863778000.0,-1.5905360527802612,9.868763454236696,-0.4804054709389406,-0.23243423,-0.07544186,0.25411993,58.67119,-85.81493,-0.27599362
239868784000.0,-1.5785635530115127,9.87666531578553,-0.465320117029793,-0.23732115,-0.06688975,0.25381452,58.66972,-85.824974,-0.29071283
239873740000.0,-1.5667106347426518,9.884488253427566,-0.4503854358524586,-0.226631,-0.046120327,0.24404067,58.664806,-85.83942,-0.30893782
239878736000.0,-1.554762051273881,9.89237433019504,-0.4353302164896736,-0.23304509,-0.050701816,0.24312437,58.664505,-85.84747,-0.32404128
239884160000.0,-1.5417898501660716,9.900935995604724,-0.4189852385425667,-0.21685717,-0.034513887,0.23640485,58.652687,-85.86438,-0.34405917
239888766000.0,-1.530774002396424,9.90820646589916,-0.4051052664879255,-0.21319197,-0.023518313,0.23671028,58.643543,-85.87572,-0.3617309
239893800000.0,-1.5187345369877383,9.916152524835802,-0.3899355358489623,-0.21288654,-0.013439035,0.23579398,58.63024,-85.890144,-0.38157132
239898745000.0,-1.5069079266488523,9.92395809921834,-0.3750340026726269,-0.21533,0.008552114,0.22815818,58.61058,-85.90426,-0.40327984
239903725000.0,-1.4949976092600457,9.93181892033564,-0.3600269985840222,-0.21074851,0.010995574,0.22418754,58.593643,-85.92013,-0.42358822
239909777000.0,-1.4805234645136478,9.941371870014734,-0.3417895711253402,-0.23243423,0.022602014,0.21471913,58.568172,-85.92706,-0.44779858
239913890000.0,-1.4706866903328923,9.947864150588115,-0.3293952322063781,-0.24617869,0.029932396,0.21594086,58.54323,-85.937355,-0.46958414
239918794000.0,-1.4589581368239144,9.95560500736708,-0.3146172506701296,-0.25259277,0.042455133,0.21960606,58.513767,-85.943054,-0.49316794
239923732000.0,-1.447148267895013,9.963399532402669,-0.299736811676248,-0.26511553,0.05131268,0.22510384,58.48336,-85.94304,-0.5154472
239928724000.0,-1.4352092509462329,9.9712792952576,-0.2846936461320081,-0.2751948,0.059253927,0.2180789,58.45001,-85.94141,-0.5399908
239935788000.0,-1.4183147766421098,9.98242966481033,-0.2634066025814249,-0.28008172,0.05955936,0.22602014,58.416122,-85.93839,-0.5582641
239938799000.0,-1.411113578718877,9.987182462477836,-0.254333090671628,-0.29077184,0.051618114,0.23335053,58.382713,-85.930595,-0.5782314
239943752000.0,-1.3992678353400096,9.995000664685463,-0.2394074498582024,-0.3115413,0.03756821,0.23182335,58.351204,-85.91855,-0.5979136
239948740000.0,-1.3873383849112204,10.00287411362785,-0.2243763381325075,-0.32375857,0.036651913,0.23335053,58.318226,-85.90642,-0.6143463
239953736000.0,-1.3753898014424497,10.010760190395326,-0.2093211187697225,-0.33108896,0.028099801,0.24495697,58.291485,-85.89038,-0.62753445
239958784000.0,-1.3633168532137954,10.018728348025872,-0.1941091997658517,-0.33933565,-0.0012217305,0.2507602,58.27122,-85.87072,-0.6411512
239963984000.0,-1.3508803772254827,10.026936434333091,-0.1784392356572683,-0.33658674,-0.0009162979,0.25045475,58.245007,-85.85268,-0.6533457
239968760000.0,-1.3394579523562171,10.034475245910649,-0.1640469763144619,-0.34208453,-0.008552114,0.2443461,58.229572,-85.830284,-0.6645548
239973742000.0,-1.3275428517074146,10.042339223984218,-0.1490339453165846,-0.35460728,-0.004581489,0.23732115,58.21089,-85.80697,-0.67612416
239978735000.0,-1.315601443128637,10.050220565317284,-0.1339877663177084,-0.35979962,-0.00580322,0.22937989,58.196136,-85.784195,-0.6891895
239983826000.0,-1.303425654810079,10.05825659750768,-0.1186462687644781,-0.36010507,-0.005497787,0.22266038,58.180042,-85.7594,-0.7037423
239988855000.0,-1.2908697979543855,10.0640479998802,-0.1026694779468978,-0.36071593,0.003970624,0.22113322,58.161873,-85.73336,-0.7189184
239993967000.0,-1.2742520404630338,10.054272857420967,-0.0804310140518442,-0.36896262,0.006414085,0.21135938,58.14605,-85.70476,-0.7378908
239998801000.0,-1.2585379873110003,10.045029305259796,-0.0594019188897374,-0.3848451,0.013133603,0.20647246,58.127533,-85.62622,-0.7074735
240003791000.0,-1.242316819493738,10.035487450629208,-0.0376941851580634,-0.39492437,0.024740042,0.21105394,58.10729,-85.54799,-0.67778915
240008838000.0,-1.2259103597795649,10.025836600865569,-0.0157384873336628,-0.40500367,0.023518313,0.21288654,58.08934,-85.46607,-0.6506168
240013831000.0,-1.209679439757202,10.016289009649032,0.0059822971397337,-0.42332962,0.030848695,0.22388211,58.065727,-85.38072,-0.62043405
240018824000.0,-1.1934485197348388,10.006741418432496,0.0277030816131302,-0.4352415,0.040927973,0.2415972,58.04188,-85.29582,-0.5883184
240023801000.0,-1.177269611473012,9.997224422341024,0.0493542621306737,-0.44806966,0.05375614,0.2565634,58.01535,-85.206985,-0.55462164
240029001000.0,-1.1603657892987107,9.98728100669392,0.0719755477829192,-0.4700608,0.04795292,0.28191432,57.990993,-85.11424,-0.51331776
240033810000.0,-1.1447330045225153,9.978085259415668,0.0928958867640055,-0.48349985,0.06536258,0.31031954,57.956326,-85.021965,-0.46843326
240038775000.0,-1.128593105081091,9.968591209668,0.1144948643146592,-0.4914411,0.08124508,0.34513888,57.92334,-84.926926,-0.4151476
240043764000.0,-1.112375187998862,9.95905126723273,0.1361982477990924,-0.50610185,0.07086037,0.36987892,57.8928,-84.82756,-0.35737827
240048730000.0,-1.096232037822404,9.949555305289746,0.1578015755969869,-0.5158757,0.065973446,0.38453966,57.855923,-84.72875,-0.29420483
240053749000.0,-1.0799165986891694,9.939957996994972,0.1796354664986447,-0.5112942,0.06047566,0.3921755,57.822086,-84.63106,-0.22696434
240059833000.0,-1.0601391267452367,9.928324200687864,0.2061023707117719,-0.52595496,0.051923547,0.42760566,57.789696,-84.52634,-0.14872068
240063925000.0,-1.0468371189880747,9.920499497451718,0.2239035824211928,-0.52534413,0.046731193,0.42546764,57.759,-84.42786,-0.0802906
240068754000.0,-1.031139319511209,9.911265506267128,0.2449109263470955,-0.52106804,0.0290161,0.43860126,57.73318,-84.32728,0.0016682735
240073735000.0,-1.0149474083092482,9.901740861394392,0.2665795078536023,-0.52290064,0.020463986,0.44715336,57.70664,-84.225876,0.08014717
240078745000.0,-0.9986612257913154,9.892160762857472,0.2883742465300927,-0.5369505,0.0015271631,0.4392121,57.688377,-84.123055,0.15693916
240084825000.0,-0.9788967567875166,9.880534615331626,0.3148237497542566,-0.54153204,-0.02107485,0.42943826,57.673573,-84.02326,0.23448616
240088856000.0,-0.9657930438673996,9.872826556009803,0.3323595963819877,-0.54244834,-0.022602014,0.42638394,57.658314,-83.92154,0.31015354
240093793000.0,-0.9497441650069136,9.863386047731003,0.3538367670098985,-0.5491679,-0.05009095,0.4147775,57.657486,-83.81824,0.3806527
240098768000.0,-0.933571758215154,9.85387287603017,0.3754792470329604,-0.53878313,-0.063224554,0.40744713,57.65309,-83.72079,0.4497759
240103732000.0,-0.9174351095087632,9.84438073847782,0.3970738743363733,-0.52503866,-0.07452556,0.40775254,57.656113,-83.62374,0.5172845
240108788000.0,-0.9009993931792885,9.834712678956327,0.4190687243859412,-0.5122105,-0.09101892,0.39706242,57.664925,-83.53112,0.5789366
240113894000.0,-0.8844011400981376,9.824949009668998,0.44128108679755,-0.47647488,-0.10445796,0.3903429,57.67592,-83.4501,0.64087623
240118802000.0,-0.8684465325536238,9.815563955054383,0.4626321002554772,-0.45814893,-0.10598512,0.39614612,57.688065,-83.36888,0.70237106
240123813000.0,-0.8521570993006575,9.805981944322149,0.4844311891792083,-0.42730024,-0.11209377,0.40439278,57.705345,-83.3025,0.76215714
240128774000.0,-0.8360302027993671,9.796495543355746,0.5060127657408988,-0.39461896,-0.11148291,0.4071417,57.720997,-83.24271,0.820771
240133854000.0,-0.8195164688290879,9.786781591146651,0.5281120217242463,-0.36468655,-0.10262536,0.41355577,57.73547,-83.191154,0.8815953
240138827000.0,-0.8033505635073953,9.777272243836451,0.5497458012528266,-0.3454443,-0.083383106,0.4196644,57.74655,-83.146255,0.9416147
240144761000.0,-0.7840607018184904,9.765925276826852,0.5755601683798314,-0.32650748,-0.06780604,0.43127087,57.75557,-83.10957,1.0037305
240148789000.0,-0.7709667411034739,9.75822295409098,0.59308296426584,-0.3118467,-0.05375614,0.43890667,57.759346,-83.077225,1.0647373
240153774000.0,-0.754761826961379,9.748690660436978,0.61476894676131,-0.3109304,-0.03481932,0.44898596,57.756706,-83.045815,1.127901
240158804000.0,-0.7384106297427757,9.73907231799372,0.6366506903826167,-0.29871312,-0.015882496,0.45478916,57.749886,-83.02157,1.1903827
240163979000.0,-0.7215880759443122,9.729176707229536,0.6591632198538419,-0.2950479,0.002443461,0.45753807,57.737587,-82.99482,1.253069
240168791000.0,-0.7059455389630163,9.719975223365331,0.6800966095766506,-0.29626966,0.02107485,0.45875978,57.719685,-82.96986,1.3151487
240173746000.0,-0.689838146871927,9.710500295570831,0.7016520846548961,-0.29657507,0.035124753,0.462425,57.697746,-82.94583,1.3771023
240178732000.0,-0.6736299819947986,9.700966089721511,0.723342417397607,-0.31245756,0.03970624,0.45631635,57.67363,-82.917564,1.4352002
240183853000.0,-0.6569829678881451,9.69117373750443,0.7456200335178279,-0.33444872,0.03573562,0.45356745,57.64785,-82.887115,1.4940133
240188980000.0,-0.6429191745246222,9.681197101657729,0.7645530359986998,-0.34238997,0.03756821,0.45937067,57.6192,-82.856125,1.5521265
240193771000.0,-0.657833059970746,9.670011483178936,0.7459107278563303,-0.36560285,0.04184427,0.462425,57.591335,-82.815315,1.6077198
240198807000.0,-0.6735096049731838,9.658253859580691,0.7263150977571916,-0.37995818,0.03268129,0.46211955,57.56209,-82.67067,1.7299107
240203801000.0,-0.6772414499903157,9.650709376525276,0.6911419800813481,-0.38881573,0.021991149,0.45540005,57.53244,-82.52313,1.8485903
240209802000.0,-0.6716758508425335,9.645144242300988,0.6354859479227193,-0.408058,0.015882496,0.46639562,57.503716,-82.36941,1.9699583
240213813000.0,-0.6891365698001689,9.65791485645933,0.6060773615789473,-0.41905355,0.015577064,0.47128254,57.491028,-82.235634,2.074399
240218810000.0,-0.7250538375363542,9.684852432216903,0.574649738245614,-0.43035457,0.004581489,0.4831944,57.48256,-82.097115,2.1823373
240223806000.0,-0.7545635390970103,9.71077078157413,0.5573479563148261,-0.4373795,-0.002443461,0.48838675,57.495945,-81.98613,2.2774312
240233830000.0,-0.8029466141393207,9.760954666282863,0.557187849779313,-0.45906523,-0.013744468,0.49449542,57.512726,-81.868675,2.374505
240238778000.0,-0.843867186586068,9.788235133371714,0.5390009350220687,-0.46609017,-0.026267206,0.4999932,57.56528,-81.79168,2.4470785
240243757000.0,-0.8746950416562851,9.813061229755949,0.5235187583437149,-0.47678033,-0.032070424,0.4999932,57.663734,-81.75807,2.480174
240248744000.0,-0.8844488762748902,9.832568736035944,0.5137649237251097,-0.4877759,-0.035430185,0.5027421,57.760384,-81.72097,2.5146792
240253706000.0,-0.8859134950972121,9.8433806133529,0.5091472583418929,-0.49205196,-0.04184427,0.49449542,57.93913,-81.77283,2.4790788
240259956000.0,-0.8694456507281731,9.837891801907556,0.5146365283345561,-0.50793445,-0.054061573,0.4981606,58.109497,-81.81162,2.4483635
240263776000.0,-0.8619126,9.830811788998114,0.5235444449448913,-0.52626044,-0.051618114,0.49480084,58.327797,-81.93538,2.3361943
240268761000.0,-0.8619126,9.80710989842121,0.5567271412511171,-0.5271767,-0.046731193,0.48380527,58.535202,-82.048805,2.22651
240273752000.0,-0.8577768713231383,9.780604123670212,0.5869423898121676,-0.5354234,-0.049480084,0.47891834,58.738464,-82.18175,2.081454
240278732000.0,-0.8339940435970745,9.740966105053191,0.6027975931200134,-0.5384777,-0.049785517,0.4746423,58.929916,-82.305466,1.937657
240285430000.0,-0.7958811778131676,9.678396963488057,0.6248731489590211,-0.5476407,-0.04917465,0.45998153,59.121933,-82.442444,1.7568579
240288911000.0,-0.7376112625937075,9.587754738687124,0.641059247975335,-0.5384777,-0.043066,0.45875978,59.30416,-82.57117,1.5837638
240293722000.0,-0.6570779209904836,9.46248046591571,0.6634296364750437,-0.53969944,-0.04550946,0.45875978,59.493984,-82.71383,1.377249
240298744000.0,-0.6044372826436312,9.40976210386424,0.6807384762011859,-0.5314528,-0.054367006,0.45356745,59.677074,-82.848625,1.1749756
240303704000.0,-0.5655896469045185,9.390338395011243,0.6953063338989981,-0.52442783,-0.049785517,0.4560109,59.850197,-82.96966,0.98030627
240308806000.0,-0.5392336007757317,9.362561383417844,0.7347935139026777,-0.514654,-0.048563786,0.45723262,60.017975,-83.06876,0.8103367
240313803000.0,-0.5179475365625834,9.332760975313583,0.7816228231651988,-0.50640726,-0.054061573,0.45631635,60.18031,-83.159256,0.64516765
240318875000.0,-0.4859272222805701,9.320938853552674,0.8288007329718143,-0.5006041,-0.06505715,0.45142943,60.325695,-83.235016,0.49117342
240323731000.0,-0.4460558557989497,9.32592261563605,0.8736560488865074,-0.49266282,-0.057726767,0.4529566,60.462154,-83.30504,0.34265557
240328726000.0,-0.3995290972246904,9.33638122941677,0.9249272736156536,-0.48991394,-0.06169739,0.453262,60.601078,-83.35371,0.20617649
240333806000.0,-0.3489428519463087,9.35017775838926,0.9801122562416108,-0.50243664,-0.065973446,0.44837508,60.733585,-83.39318,0.07228732
240338969000.0,-0.3003269967252678,9.370587903151982,1.0533242293872882,-0.5030475,-0.07849618,0.45204028,60.85479,-83.41759,-0.044399645
240343807000.0,-0.2569489341142203,9.394686810048892,1.135260613492146,-0.50793445,-0.07422013,0.45845437,60.96879,-83.43182,-0.15859549
240348794000.0,-0.2230629086451976,9.442591876349638,1.2201685093512349,-0.50793445,-0.089491755,0.45875978,61.08304,-83.427216,-0.2529603
240354164000.0,-0.1940924115557225,9.510189543235375,1.3119083873908552,-0.50793445,-0.103847094,0.46211955,61.192383,-83.41771,-0.3420118
240358769000.0,-0.1519492581317781,9.577743767137305,1.378031384775936,-0.52442783,-0.12095132,0.46792278,61.305492,-83.38005,-0.40750438
240363852000.0,-0.087203419716595,9.662411028749744,1.4377967308778392,-0.52564955,-0.13530666,0.4654793,61.419308,-83.344696,-0.47223946
240368839000.0,-0.0275974178328509,9.738060002532562,1.4905204552460205,-0.5384777,-0.15790866,0.47678033,61.533333,-83.28243,-0.5209713
240373807000.0,0.0283458255028943,9.806913265195368,1.5378570564761216,-0.5458081,-0.17623462,0.47800204,61.648426,-83.220184,-0.5715562
240378784000.0,0.0762097190325253,9.87134948011187,1.5690676228920657,-0.56046885,-0.1853976,0.49235737,61.765743,-83.141594,-0.59638864
240383806000.0,0.1061007837186658,9.926149831261654,1.5640857822457013,-0.56505036,-0.1994475,0.50426924,61.887367,-83.06364,-0.62016594
240388988000.0,0.1307058994048357,9.978501172039678,1.556881251549907,-0.5821546,-0.22418754,0.5225952,62.011047,-82.96629,-0.61494225
240393820000.0,0.1450503289811944,10.02153433095681,1.5473183550836949,-0.59559363,-0.23579398,0.5503896,62.13197,-82.869804,-0.60390747
240398780000.0,0.1469553334402852,10.060708422459893,1.5272276212121212,-0.6114761,-0.2519819,0.5702427,62.2576,-82.7709,-0.5834311
240403751000.0,0.1328120458764111,10.093709600713012,1.4942265414141414,-0.6337727,-0.27000242,0.6041457,62.383045,-82.66795,-0.5513738
240408818000.0,0.1171086592769264,10.11606383747032,1.449702794431254,-0.64660084,-0.28710666,0.6423248,62.513058,-82.56622,-0.50617486
240414153000.0,0.0987288238887689,10.123415535793942,1.387211401093604,-0.66675943,-0.30818152,0.68325275,62.645077,-82.457344,-0.4510959
240418736000.0,0.0829397356818476,10.12973096848694,1.3335285415497518,-0.6808093,-0.32498032,0.72021013,62.768627,-82.35709,-0.39701813
240423817000.0,0.0142051001662817,10.08545401737122,1.2496132246611105,-0.6762278,-0.33841935,0.75625116,62.89272,-82.25749,-0.33239645
240428797000.0,-0.0815725830669746,10.013620805201326,1.1538355084245406,-0.6936375,-0.3475823,0.7987063,63.01569,-82.148605,-0.25674593
240433795000.0,-0.0914321464106706,9.93282145763667,1.138103568664287,-0.7122689,-0.35216382,0.8268061,63.140476,-82.05652,-0.17915443
240438877000.0,-0.0548592880464024,9.845961074582002,1.1655332411985724,-0.7275405,-0.35308012,0.8585711,63.261524,-81.96077,-0.090399295
240443893000.0,-0.0410228881380246,9.730611641261223,1.1969569180413449,-0.7476991,-0.34788775,0.88606006,63.3814,-81.88062,-0.024947265
240448811000.0,-0.0459402745433284,9.592925099185637,1.2313786049070787,-0.7516697,-0.34483343,0.893085,63.49782,-81.80061,0.042453047
240453729000.0,-0.0424718854833254,9.438374956579572,1.266633500760095,-0.7593055,-0.3371976,0.9086621,63.60682,-81.70195,0.13224623
240458801000.0,-0.0332417553109738,9.26761698071259,1.3035540465083135,-0.77488256,-0.3313944,0.91813046,63.71216,-81.600204,0.21999237
240463962000.0,-0.0131511667771936,9.085488573392642,1.3319855615851193,-0.7959574,-0.32436943,0.9254609,63.817314,-81.483864,0.31164256
240468887000.0,0.0154572680186008,8.90430214496563,1.3510578381722604,-0.8081747,-0.3222314,0.915687,63.919533,-81.36661,0.39853448
240473803000.0,0.0504121491385409,8.743148612104408,1.364724733521369,-0.81153446,-0.30818152,0.9166033,64.01214,-81.23101,0.49473035
240478737000.0,0.0910726020346113,8.598578496605795,1.373760336255856,-0.8179486,-0.30482176,0.90469146,64.10563,-81.093025,0.58207184
240483800000.0,0.1248233691999682,8.482426362516883,1.3675081545403989,-0.8347474,-0.31337386,0.9034697,64.20094,-80.939285,0.68334424
240488993000.0,0.1485299030936681,8.407354981488838,1.3398505921744657,-0.82894415,-0.31764993,0.90377516,64.292206,-80.79236,0.77825904
240493802000.0,0.1704834408357829,8.337834805990306,1.314238187510924,-0.8228355,-0.31673363,0.89552844,64.37308,-80.63035,0.882953
240498818000.0,0.1559966903552166,8.327724886925795,1.242382774818672,-0.8374963,-0.32467487,0.90102625,64.45511,-80.46606,0.98875815
240503705000.0,0.138588527426074,8.323373212014134,1.1683980301097263,-0.840856,-0.33322698,0.91782504,64.5351,-80.308945,1.09214
240508763000.0,0.0985353480484115,8.364246931921333,1.0878296231467477,-0.8539896,-0.35369098,0.9334021,64.62354,-80.14583,1.2077813
240514059000.0,0.0488862882922488,8.422923331672155,1.002072174290291,-0.88117313,-0.36346483,0.95814216,64.70797,-79.97921,1.3269732
240519089000.0,-0.0223403210521729,8.509831402243766,0.9041700977562356,-0.91324353,-0.3662137,0.98654735,64.78695,-79.82766,1.4397879
240523800000.0,-0.1058799950441128,8.613027496677923,0.8009740033220782,-0.9462303,-0.39492437,1.0280862,64.87184,-79.66878,1.5616395
240528729000.0,-0.2143447172015619,8.72812617506508,0.6680374500529936,-0.98868537,-0.41355577,1.067487,64.94914,-79.52838,1.6644797
240533798000.0,-0.3362032604165117,8.849984350687988,0.5190992541316475,-1.0320568,-0.42730024,1.1160508,65.02787,-79.37784,1.7801121
240539900000.0,-0.4921042678927788,8.961301855957265,0.3095008787875608,-1.056186,-0.40225476,1.1527027,65.08676,-79.25575,1.8685412
240543815000.0,-0.5958248487665745,9.01852703338739,0.1628614447181151,-1.0873401,-0.39492437,1.1630874,65.150696,-79.11951,1.9633892
240548801000.0,-0.7301735220328542,9.031896201642711,-0.0087430178480492,-1.1001683,-0.35705075,1.1863003,65.18589,-79.020065,2.041152
240553803000.0,-0.8678828701950719,8.967959959753594,-0.1612069667227926,-1.1169671,-0.30634892,1.1991285,65.213394,-78.91074,2.1182678
240558846000.0,-1.0243027734993977,8.761703327842508,-0.2966039930124548,-1.1026118,-0.2687807,1.1997393,65.23107,-78.826546,2.2082837
240563940000.0,-1.200702263005223,8.404984158698273,-0.4142036472253917,-1.094976,-0.21685717,1.1924089,65.22914,-78.73591,2.295643
240569075000.0,-1.3705950027839544,8.049887144979097,-0.5238342360117406,-1.0818423,-0.17470746,1.1817188,65.20286,-78.62692,2.4341288
240573801000.0,-1.3907231053010762,7.800299026861158,-0.4715012283162856,-1.0613784,-0.14294247,1.1768318,65.16589,-78.52414,2.5662308
240578708000.0,-1.4116220894423197,7.54115199012719,-0.4171639306519612,-1.0451905,-0.10751228,1.1591167,65.11546,-78.39685,2.719426
240583836000.0,-1.4273529852938471,7.313469591373126,-0.3556269208240596,-1.044885,-0.09010262,1.1527027,65.06215,-78.27337,2.8686757
240589030000.0,-1.4410774125540329,7.098453373218063,-0.2915795553940954,-1.0369438,-0.09010262,1.138042,65.006714,-78.1613,3.0049937
240593870000.0,-1.4432257092420688,6.919273463123534,-0.2336846438029174,-1.0421361,-0.10170906,1.1349876,64.95828,-78.01251,3.1554842
240598807000.0,-1.4384025780271346,6.75046578436193,-0.1758076282433948,-1.0375546,-0.1151481,1.1340714,64.91218,-77.87323,3.297785
240603787000.0,-1.4338913253191872,6.642535928466104,-0.1427100932026614,-1.0537425,-0.129198,1.131017,64.87167,-77.70119,3.4452033
240609692000.0,-1.428806770967452,6.561181943885992,-0.1223716474959539,-1.0461067,-0.14477506,1.1191051,64.83675,-77.54187,3.5859098
240613977000.0,-1.3900436768586704,6.551882429436094,-0.1067215454724099,-1.0488557,-0.16554448,1.1230757,64.80782,-77.35142,3.740323
240618816000.0,-1.3058956488752145,6.598631523706244,-0.0880219927019065,-1.0549643,-0.1695151,1.1258247,64.77977,-77.16764,3.886125
240623791000.0,-1.2039680457721746,6.667276490950022,-0.0835928887769473,-1.0338894,-0.17256944,1.1294898,64.75393,-76.97745,4.04307
240628802000.0,-1.0786468389824404,6.76666914574516,-0.1008785717563259,-1.0152581,-0.16401732,1.1355985,64.72596,-76.78893,4.196108
240633828000.0,-0.949362207097494,6.873319260427395,-0.118846264466186,-1.0152581,-0.16035213,1.1334605,64.70057,-76.59396,4.3663244
240638916000.0,-0.8029978000944045,7.011319994515963,-0.1397554642190182,-1.003957,-0.1518,1.1478158,64.67044,-76.40913,4.5370708
240643732000.0,-0.6644579054153794,7.141943330870237,-0.15954687656368,-1.0057896,-0.129198,1.1487321,64.63455,-76.226105,4.7237134
240648811000.0,-0.492122248421446,7.293805710069121,-0.16280572,-1.0204504,-0.12186762,1.1716396,64.59884,-76.04283,4.9157815
240653700000.0,-0.3215619074350831,7.44249930671586,-0.16280572,-1.0403035,-0.11301007,1.1933253,64.55711,-75.861465,5.1012278
240658793000.0,-0.1514522766200762,7.585755894027954,-0.1661399553240152,-1.0525209,-0.110872045,1.2238685,64.51643,-75.67906,5.3230906
240663971000.0,0.0181894747727495,7.726316198709803,-0.1709868588916039,-1.071763,-0.110872045,1.2550226,64.47318,-75.490585,5.5450573
240668806000.0,0.1543890789089541,7.857153759518434,-0.1512976941760722,-1.0925325,-0.11301007,1.2953397,64.42776,-75.291,5.8083963
240673815000.0,0.2852333694008653,7.992509641045898,-0.1197145923363431,-1.1117748,-0.12003502,1.3432927,64.38185,-75.085556,6.075995
240678709000.0,0.3586317894093762,8.12342794010705,-0.1030337528460686,-1.146594,-0.13836098,1.3820826,64.33724,-74.86232,6.3805103
240683779000.0,0.3855168446696198,8.257853590716131,-0.0985529059357696,-1.1829406,-0.13744467,1.4214834,64.2866,-74.63119,6.6892667
240688993000.0,0.3464677836124177,8.36205013243441,-0.147395933038152,-1.2220359,-0.1441642,1.4630222,64.23677,-74.36934,7.036693
240693810000.0,0.2162754664534336,8.410269475593186,-0.2679443795513745,-1.2586879,-0.13408493,1.5076154,64.17963,-74.09761,7.384495
240698787000.0,0.0526064974989874,8.443829007897934,-0.412910102636695,-1.3045027,-0.12858713,1.5366315,64.11852,-73.7996,7.752858
240703795000.0,-0.1465010908525719,8.458398150060752,-0.5828800100972054,-1.361924,-0.106595986,1.566564,64.0478,-73.48847,8.121041
240708776000.0,-0.3590247531995875,8.418434751382769,-0.756672809824693,-1.4181237,-0.0852157,1.6019942,63.970024,-73.16571,8.501022
240713840000.0,-0.5908935397675072,8.318412324833599,-0.9385307011905878,-1.4727961,-0.07788532,1.6239853,63.890533,-72.83202,8.874889
240718716000.0,-0.8168811903910276,8.201688409841367,-1.1134545279175507,-1.5289958,-0.06383542,1.6548339,63.791294,-72.499466,9.244003
240723805000.0,-1.0581747602000606,8.039184767050621,-1.295655691027584,-1.5909985,-0.07544186,1.7018706,63.69662,-72.15169,9.615944
240728705000.0,-1.2675242717171715,7.881615216161617,-1.4423250555555556,-1.6471981,-0.08246681,1.7486018,63.588203,-71.8135,9.972319
240733791000.0,-1.4425614118492618,7.716039784712509,-1.541670502136752,-1.6954565,-0.1020145,1.7635679,63.487858,-71.46569,10.326319
240738735000.0,-1.5711031688398178,7.55608749404136,-1.646717284472485,-1.709201,-0.12034045,1.813659,63.38062,-71.12784,10.676928
240743820000.0,-1.6052412887136347,7.393931157290571,-1.774735323116018,-1.7434094,-0.13561209,1.8634444,63.279224,-70.77743,11.024875
240748959000.0,-1.6321758662402766,7.227850395851339,-1.90270536414866,-1.779145,-0.13683382,1.9095647,63.175682,-70.429596,11.366611
240753803000.0,-1.5479761352463266,7.039403305099395,-2.002943214900605,-1.8081611,-0.13164146,1.9566014,63.072937,-70.073326,11.715118
240758777000.0,-1.4615167087467589,6.845898798617113,-2.105871181382887,-1.8270979,-0.121256754,1.9883664,62.967636,-69.71808,12.073937
240763768000.0,-1.2706644430350953,6.5651283023180245,-2.201970538117417,-1.842675,-0.11056661,2.0033326,62.86103,-69.35831,12.432709
240768830000.0,-1.034366697086222,6.24481369334922,-2.2964895158687173,-1.8411479,-0.09865474,2.019215,62.751167,-68.99907,12.791592
240773813000.0,-0.8927616301079138,5.961364126079137,-2.3343311157733813,-1.8359555,-0.0842994,2.0415115,62.636383,-68.630325,13.178857
240778820000.0,-0.7633972299820144,5.681074337320144,-2.3645162565377698,-1.8139644,-0.058337633,2.0598376,62.5171,-68.26984,13.559636
240783795000.0,-0.6899769382470265,5.433375173211345,-2.3891899410064044,-1.7867808,-0.023518313,2.0735822,62.390923,-67.88361,13.990028
240788974000.0,-0.6445988198087832,5.192871226514181,-2.411878936258005,-1.7724255,0.015577064,2.0955732,62.25753,-67.50016,14.4174185
240794760000.0,-0.5867420008715548,4.942455948299532,-2.4846828563390537,-1.7641789,0.06688975,2.1099286,62.11024,-67.09211,14.875881
240798811000.0,-0.5423580019750389,4.777024863151326,-2.561346145928237,-1.756543,0.1133155,2.1386392,61.953846,-66.685486,15.333875
240803790000.0,-0.4021623933812865,4.633065086042885,-2.6373873073099414,-1.7440202,0.16065755,2.1673498,61.782047,-66.25912,15.808703
240808792000.0,-0.1873917797192982,4.539686423976608,-2.698083359649123,-1.7330247,0.20097467,2.218968,61.598206,-65.8293,16.28701
240813928000.0,0.0783116151874999,4.44068724647943,-2.676134127333861,-1.7351627,0.23732115,2.3044891,61.39834,-65.37742,16.798855
240818856000.0,0.3770110161875,4.342676626859177,-2.5734561380933547,-1.7437148,0.27305678,2.3909266,61.186493,-64.92064,17.314579
240823777000.0,0.6162108477307187,4.183863372121703,-2.4698664083594464,-1.7510452,0.30726522,2.4623978,60.964855,-64.43267,17.885328
240828801000.0,0.7912941753360963,3.950418867603356,-2.362871001991307,-1.7599027,0.33414328,2.5247061,60.73267,-63.930984,18.467054
240833752000.0,0.834156861988881,3.68795520786406,-2.22846839383967,-1.7886134,0.36041048,2.5427265,60.484257,-63.350773,19.117622
240838843000.0,0.7336029925932568,3.3819216029949786,-2.057964038360832,-1.8212948,0.4092797,2.5567765,60.22071,-62.760746,19.770788
240843707000.0,0.5831667512105099,3.0568356819622564,-1.852177025127724,-1.88849,0.44073927,2.556471,59.948025,-62.103035,20.46255
240848787000.0,0.2483828973475133,2.610457125398812,-1.4971032455426965,-1.9462167,0.49296826,2.543643,59.65891,-61.447456,21.138613
240853709000.0,-0.0483880256349283,2.1277571011792222,-1.0046052639586789,-2.0207422,0.5513059,2.514016,59.34343,-60.736443,21.797588
240858799000.0,-0.2954194216587077,1.5196798865802554,-0.1732495865198324,-2.0928242,0.59498274,2.463925,59.022354,-60.030994,22.434649
240863841000.0,-0.2536007194326743,0.6368810220725113,1.0451572183565283,-2.141999,0.63529986,2.3634377,58.65981,-59.293777,22.99134
240868758000.0,0.4727102328889283,-0.8950506672901337,3.178173838287386,-2.1514673,0.65118235,2.209805,58.301872,-58.58151,23.509949
240873978000.0,1.2362013453495335,-2.449344322024472,5.37624252802259,-2.1022928,0.62858033,1.997224,57.888714,-57.77765,23.929789
240878742000.0,1.8256776796697185,-2.847533643937709,6.44198442517327,-2.0231857,0.5494733,1.7259997,57.50771,-57.029278,24.287724
240883784000.0,2.4495525070505693,-3.268959034593993,7.569916970394455,-1.9346102,0.40653083,1.4004086,57.011536,-55.753925,24.739517
240888759000.0,2.853908997292013,-3.7605280317333074,8.628771948479812,-1.8558086,0.20769419,1.0946705,56.58805,-54.567204,25.103552
240893736000.0,3.16144716433669,-4.287070741744061,9.66321870055724,-1.7562376,-0.022907447,0.79351395,56.261208,-53.487152,25.373604
240899595000.0,3.807025262328434,-5.474309708069697,11.072137240825464,-1.6542231,-0.301462,0.52015173,55.915703,-52.179234,25.677378
240903739000.0,4.355594573727246,-6.498048139297187,12.1306442475421,-1.4718798,-0.6612616,0.3295618,55.69119,-50.968044,25.941143
240910105000.0,6.05769814481405,-7.840486129338842,13.318247057024792,-1.207986,-1.0995574,0.2098322,55.50394,-49.607403,26.220505
240913885000.0,7.321717922293389,-8.569728571487602,13.894161296694216,-0.84665924,-1.5131133,0.1423316,55.4306,-48.359726,26.490103
240918780000.0,8.956054370344344,-9.165285198373656,13.9918825154101,-0.43371433,-1.7989981,0.006414085,55.34222,-46.878048,26.851213
240923745000.0,10.612459317638791,-9.590126905029615,13.75798122086136,-0.040011674,-1.9043725,-0.23518312,55.34573,-45.558464,27.178951
240928733000.0,11.956088005336468,-9.402726938404486,12.914878994663532,0.31031954,-1.9007072,-0.37690386,55.30161,-44.05871,27.813097
240933838000.0,13.154449354377714,-8.872087214725036,11.716517645622286,0.46792278,-1.7935003,-0.66920286,55.330788,-42.75716,28.32041
240938777000.0,13.93626291772152,-8.033084830350079,10.40483648318829,0.70554936,-1.5360206,-0.8206975,55.291016,-41.470512,29.1372
240943919000.0,14.27228285443038,-6.747443720282833,8.846484023140823,0.83016586,-1.2180653,-0.77457714,55.222332,-40.292343,29.851648
240948738000.0,14.335523303299622,-5.4400340784247625,7.489251434160792,0.8872818,-0.9804387,-0.6731735,55.188248,-39.31959,30.821991
240953735000.0,14.056867938808868,-3.944097671008275,6.223082895903565,0.8927795,-0.8206975,-0.54367006,55.07066,-38.400715,31.71119
240958796000.0,13.78614045000664,-2.6033477313975566,5.351843235891648,0.9370673,-0.70249504,-0.40683624,54.99151,-37.74614,32.715176
240963821000.0,13.53053869725136,-1.4723091514114992,4.958855340857788,0.95264435,-0.65209866,-0.27214047,54.852642,-37.083157,33.6868
240972049000.0,13.062679003827954,0.4782644619208889,4.59220378196608,0.9077458,-0.59803706,-0.07788532,54.764973,-36.644463,34.66744
240973814000.0,12.811051692966132,1.1989969363453663,5.362363113137327,0.64996064,-0.5653558,-0.014660766,54.665012,-36.16892,35.611805
240978802000.0,12.099937230315277,3.235831827240151,7.538881381625817,0.49968776,-0.5910121,0.11301007,54.6304,-35.8955,36.503063
240983849000.0,11.380411429794249,5.296759191784252,9.741144352969322,0.02107485,-0.44073927,0.537256,54.452248,-35.43051,37.400524
240988790000.0,10.675997524429793,7.314401773161784,11.89715412935297,-0.8713993,0.3830125,1.2684617,53.989895,-34.76627,38.234196
240993861000.0,12.550120354217285,10.614071047735164,14.17147547552933,-2.701857,1.8930714,2.2363777,53.127934,-33.70021,39.006744
240999019000.0,15.59779385126692,14.510463501171468,16.51188261610552,-6.2845817,3.9135082,3.1355712,51.73328,-32.012283,39.596222
241003794000.0,17.483454464056106,15.816804465225015,15.206961719462305,-9.243307,3.4342844,4.3921213,50.3582,-30.19107,39.63361
241008831000.0,18.042616907364117,13.678829060783167,8.525199679427235,-7.0350294,-0.34300083,7.156592,48.625504,-28.216164,40.392086
241013776000.0,18.501324714084507,9.620928277464788,4.413046694366197,-2.726597,-2.4071145,7.5903063,47.13748,-26.801132,40.66541
241018774000.0,18.785432856338023,1.622581109859155,5.125722777464789,-0.05955936,-1.1679744,6.831001,45.310867,-25.225504,41.20792
241023615000.0,17.64762015204618,-4.903898761777136,6.717589412947119,0.6753115,-0.095294975,6.099795,43.823868,-23.920021,42.90369
241028657000.0,13.381943664261415,-9.040161490774148,10.341174659004228,0.9398162,1.7864754,4.1673226,42.54741,-23.458523,43.734062
241033673000.0,9.37905744367551,-12.312572497885428,12.601923755094194,1.96271,1.2586879,2.8725939,40.799637,-22.277899,45.23284
241038676000.0,5.773165871203384,-14.223740618031526,12.698633033833142,2.5195136,0.66614854,2.3154848,39.03687,-21.34001,46.064075
241043630000.0,2.387039636478945,-15.850873482496194,11.222151367579908,2.173764,0.49663344,2.024102,37.27034,-20.280958,46.246437
241048650000.0,-0.6033534786910191,-16.865558365296803,5.968230828767123,0.95814216,0.09987647,1.7708983,35.854588,-19.2975,46.53083
241053624000.0,-3.374973494485828,-17.700221562155363,1.446817655519009,-0.67103547,-0.35308012,1.6569719,34.534664,-18.188232,46.515366
241058746000.0,-5.818814867321272,-18.19373471045758,-1.742039403608398,-1.9431623,0.07666359,1.5650368,33.22056,-16.993874,46.315937
241063658000.0,-7.307721462420123,-18.314018597525106,-3.4108876842438383,-2.3576343,1.4358387,0.92087936,32.57539,-16.24677,45.91488
241068653000.0,-6.434356427933867,-17.450358322649357,-1.2274748244406122,-1.9877555,2.36863,-0.2706133,32.202633,-15.560151,45.411526
241073635000.0,-5.506642264815661,-16.137586813452163,0.9250190267489335,-1.3716979,2.6364944,-1.2116512,31.502762,-14.642494,44.95686
241078728000.0,-4.414339051873857,-13.64832448308958,3.06132612213894,-0.84971356,2.4895813,-1.5607607,30.982477,-13.889336,44.279404
241085284000.0,-3.0082640736593538,-10.44400407510664,5.811302426355881,-0.45662177,2.031127,-1.452943,30.784903,-13.397103,43.375916
241088888000.0,-2.766882980603758,-7.721571258712393,6.929646377554164,-0.1414153,1.3448198,-1.2049317,30.737415,-13.0211115,42.543007
241093817000.0,-2.446986831728104,-3.979754691518636,8.451577032693294,0.07269296,0.7174612,-0.9773844,31.143515,-13.130498,41.543087
241098797000.0,-1.983725273249759,-1.069392214175506,8.780927277338476,0.13530666,0.40591997,-0.7846564,31.514658,-13.2081,40.66281
241103771000.0,-1.4738420201735778,1.5443335063645138,8.70283691629701,0.061391957,0.40408736,-0.5540548,31.82513,-13.231552,39.89039
241108845000.0,-0.9786624467460396,3.413516739043589,8.638117921775066,-0.15088372,0.5198463,-0.28710666,32.1208,-13.367613,39.110798
241113874000.0,-0.5000303234320576,4.877846589058349,8.581251080389649,-0.4560109,0.6065892,-0.043066,32.348053,-13.414486,38.359966
241118952000.0,0.2775462487623449,5.978066485480142,8.416898592561463,-0.8167268,0.6618725,0.17134771,32.47263,-13.468579,37.70497
241123802000.0,1.165699945862576,6.8418203003572176,8.207059403656231,-1.1582005,0.6939429,0.34116822,32.524723,-13.419795,37.05068
241128735000.0,1.6554370685173725,7.065030614711343,7.779921099725931,-1.2950343,0.7162395,0.4092797,32.58356,-13.431917,36.45063
241133800000.0,2.0028006435770487,7.047876962956415,7.261020335425692,-1.4782939,0.63071835,0.4914411,32.591534,-13.325902,35.889183
241138831000.0,2.442680669734365,6.892570655427735,6.395940812717005,-1.4596626,0.5109888,0.5839872,32.624355,-13.315376,35.44275
241143809000.0,2.9811371129470823,6.588442395293871,5.159485004580632,-1.3011429,0.4908302,0.71837753,32.617275,-13.2778845,35.00631
241148797000.0,3.5346027781683267,6.465240306912712,3.88293966504589,-1.0885619,0.5644395,0.86437434,32.57784,-13.250273,34.678562
241154623000.0,4.193764279457137,6.487030809724663,2.3576074830306584,-0.906524,0.7831292,1.0372492,32.476494,-13.230564,34.331596
241158800000.0,4.435393018347982,6.4979743321514185,1.4764247196464242,-0.8344419,1.0900891,1.2892311,32.280827,-13.197166,34.116547
241163914000.0,4.552794000789053,6.5077576920195765,0.5616751320914901,-0.91599244,1.3460416,1.6102408,31.994377,-13.136435,33.876915
241168808000.0,4.449129010199644,5.7111321766554655,0.5938150331587271,-1.0961977,1.4272866,1.8942931,31.629368,-13.06333,33.803787
241173799000.0,4.142066392251433,4.147474863471041,1.4724866011662383,-1.368949,1.1713341,2.021964,31.225418,-12.9301,33.76905
241178736000.0,3.785393974328617,2.281876872769275,2.50533746783136,-1.6572775,0.605062,2.002111,30.799496,-12.746882,33.904972
241183802000.0,3.36042864621234,0.0122814191356241,3.747543927837136,-1.8234328,-0.01282817,1.8985692,30.396227,-12.529875,34.1303
241189195000.0,2.9864382732087225,-2.3808030882450675,4.84074660694704,-1.8344283,-0.548557,1.7354681,30.05916,-12.196408,34.33117
241193816000.0,2.7474735510903425,-4.407407370633438,5.539258838380063,-1.6826283,-1.0128145,1.5045611,29.834967,-11.901828,34.66611
241198792000.0,2.716128461397312,-6.249274668040428,6.056812948778334,-1.4202617,-1.4126259,1.2779301,29.387989,-11.199117,35.010674
241203736000.0,2.925199941409087,-7.717421932096949,6.3216368460995,-1.0311406,-1.7275269,1.1313224,29.020329,-10.594856,35.4398
241208797000.0,3.0238932974269006,-9.408007759376218,6.556733620249513,-0.5742133,-1.8985692,1.0500773,28.527742,-9.780776,35.83727
241214108000.0,2.9723368425731,-11.434572720623782,6.755027683750488,-0.100792766,-1.915368,0.91965765,28.104532,-9.100915,36.253937
241218741000.0,2.927362062807018,-13.202427261286548,6.92800761148538,0.34300083,-1.8829921,0.7128797,27.592869,-8.331788,36.69429
241224687000.0,3.117940555218919,-14.128145770918415,7.390037601975496,0.7348709,-1.713477,0.48624873,27.115623,-7.694778,37.07966
241228709000.0,3.2679296790293475,-14.640303102478867,7.722940058486087,1.072374,-1.6471981,0.38026363,26.664005,-7.168942,37.46933
241234441000.0,3.831050716366258,-14.461557912400863,7.9604286770007215,1.2073752,-1.4566082,0.087964594,26.11555,-6.4248314,37.72187
241238778000.0,4.328896963211968,-14.13964236760995,8.091440785508292,1.3720033,-1.3976597,0.017715093,25.528887,-5.7654686,37.985985
241243704000.0,4.929140249959427,-13.422829325669465,8.078596163465875,1.351234,-1.260215,-0.0693332,24.972343,-5.066547,38.13487
241248803000.0,5.580763762050311,-12.374948276169867,7.924496117302318,1.1927143,-1.056186,-0.07880162,24.416904,-4.399059,38.23898
241253701000.0,6.22605599868696,-11.271569969859744,7.756476063563116,0.8924741,-0.818254,-0.03268129,23.882708,-3.758513,38.362495
241258814000.0,6.942064538336815,-9.907744228489008,7.537289947179946,0.5006041,-0.55771995,0.03970624,23.344622,-3.0795152,38.41252
241263957000.0,7.534098005063291,-8.621482305379747,7.305436881329114,0.08307768,-0.36163223,0.15515977,22.846893,-2.4656918,38.53173
241268788000.0,7.863520225949367,-7.564585440071203,7.067520641811709,-0.28710666,-0.23671028,0.27000242,22.325485,-1.7746255,38.58814
241273764000.0,8.146005045381884,-6.558013744849023,6.804731295737122,-0.5849035,-0.1563815,0.36102137,21.865763,-1.1703701,38.725506
241278803000.0,8.296006588099468,-5.735149967495559,6.4961574351687394,-0.8017606,-0.079107046,0.4266894,21.37708,-0.49504337,38.818592
241283837000.0,8.429738233199311,-4.8873014703618605,6.170835726278002,-0.9260717,-0.031154128,0.4728097,20.952269,0.08445404,38.972496
241288940000.0,8.299912901062608,-3.603083817130959,5.560305925581562,-0.9602802,0.011301007,0.50915617,20.511772,0.6936375,39.096294
241294526000.0,8.157799574526134,-2.197314698779437,4.89198935362579,-0.93309665,0.08277224,0.50488013,20.149529,1.1827366,39.258785
241298707000.0,8.045955913477536,-1.2565813962379369,4.497621322441764,-0.82924956,0.16523905,0.45906523,19.794718,1.6538965,39.398212
241303799000.0,7.893818645590682,-0.4350395862246257,4.325199032549917,-0.6844745,0.21288654,0.39675698,19.4535,2.0987601,39.520348
241308806000.0,7.746927180798666,0.2452872962051981,4.225008960278851,-0.4718934,0.2284636,0.32650748,19.320679,2.2208855,39.700455
241313893000.0,7.602957024551034,0.6882717657613094,4.258232848420096,-0.2443461,0.20219639,0.26725355,19.209845,2.2946293,39.876995
241318740000.0,7.465779248389786,1.1103566338443585,4.2898892639539286,0.013744468,0.17745635,0.25595254,19.236889,2.1505558,40.03234
241323806000.0,7.376650132198827,1.3260116043553505,4.442593475473512,0.1423316,0.11789699,0.25534168,19.28014,1.9763519,40.20525
241328792000.0,7.312377663205461,1.4407840895586963,4.644593156811845,0.38881573,0.048563786,0.25473082,19.325745,1.7193594,40.387936
241333798000.0,7.176284366767804,1.4073025878725682,4.864936040380154,0.5849035,0.02107485,0.22510384,19.527258,1.2794211,40.51515
241339004000.0,6.989421208102802,1.2782781077904692,5.10518857339818,0.6774496,0.046731193,0.15302174,19.736517,0.8092305,40.648594
241343813000.0,6.782723668049792,1.1208440800829875,5.39301394813278,0.6771441,0.13164146,0.06414085,19.995876,0.2797686,40.730656
241348795000.0,6.5154592650414935,0.8981237184024896,5.793910423443983,0.61758476,0.21930063,-0.04337143,20.277145,-0.26047358,40.80686
241353793000.0,6.265697944053617,0.615230895693507,6.133573586224927,0.5342017,0.28221974,-0.14630222,20.559992,-0.7551958,40.81459
241358772000.0,6.039046470577051,0.2616546917368572,6.396489210257629,0.42821655,0.321926,-0.24281894,20.868507,-1.2387917,40.805965
241364272000.0,5.8250639940722255,-0.1520195731674596,6.594563204375634,0.32742378,0.32528573,-0.3454443,21.183413,-1.6550331,40.714096
241368804000.0,5.693039881070119,-0.5210100997597691,6.645341823578504,0.24709499,0.3173445,-0.4334089,21.517265,-2.0575447,40.61598
241373708000.0,5.550178837344981,-0.9202884630450042,6.700288502433508,0.17256944,0.28313604,-0.505491,21.815342,-2.3531775,40.46744
241378793000.0,5.436767639604834,-1.6608601028049748,6.498102096577578,0.13225232,0.23793201,-0.5653558,22.133764,-2.6456409,40.325436
241383829000.0,5.334669213954308,-2.4904108384493253,6.221585095854283,0.13469578,0.20189096,-0.61575216,22.467615,-2.935712,40.191284
241389050000.0,5.291863879258366,-3.0684769222188724,6.008852883026831,0.15974127,0.16310102,-0.65240407,22.735987,-3.1105943,40.046516
241393911000.0,5.301220241784746,-3.386595006692795,5.868506712390714,0.21746802,0.13927728,-0.6762278,23.013748,-3.2959173,39.908188
241398796000.0,5.313076308548708,-3.649229769184891,5.798528127634195,0.28160888,0.11789699,-0.6927212,23.171263,-3.3200014,39.812347
241403802000.0,5.327372966838967,-3.868445395347913,5.788997022107355,0.36132678,0.087659165,-0.6936375,23.330547,-3.3595479,39.72613
241408834000.0,5.358517892397094,-3.986493046198548,5.861948175670702,0.4560109,0.070249505,-0.68844515,23.450245,-3.3639522,39.662563
241414017000.0,5.406592037094431,-4.010530118547216,6.01578543870218,0.5390886,0.055283304,-0.6774496,23.566923,-3.3803537,39.607216
241418842000.0,5.4681574291161175,-3.916901260923642,6.205173134162504,0.61483586,0.058643065,-0.67347896,23.659863,-3.3799527,39.55407
241423801000.0,5.550464796880416,-3.689345495993476,6.452095338566623,0.65576386,0.049785517,-0.67256266,23.74883,-3.3866048,39.50897
241428788000.0,5.639629488958991,-3.4362802651849726,6.686179150845999,0.7333437,0.027794369,-0.6765333,23.838226,-3.4129074,39.452606
241434961000.0,5.758305576235541,-3.091554535627569,6.957438863206194,0.7877107,0.005497787,-0.6765333,23.924465,-3.4401178,39.399265
241438784000.0,5.786517102984779,-2.8948269232457005,7.083658654398103,0.82924956,-0.013744468,-0.6805039,24.04419,-3.5185244,39.331005
241443751000.0,5.7677119172761415,-2.6597606782565726,7.196490455920142,0.8604037,-0.040317107,-0.70341134,24.169666,-3.6074524,39.27124
241448711000.0,5.778540770906157,-2.435907985318634,7.255068553383526,0.86101454,-0.06505715,-0.713796,24.330229,-3.7458372,39.20093
241453735000.0,5.84322730384512,-2.2289109448238773,7.216256678650175,0.8585711,-0.07941248,-0.729984,24.498867,-3.8921208,39.13512
241458829000.0,5.909708548869277,-2.0033062946497515,7.180656140099282,0.8753699,-0.073303826,-0.7535023,24.707153,-4.0856495,39.050156
241464019000.0,5.982815457584115,-1.678893984666299,7.166948633480419,0.8857546,-0.04062254,-0.7831292,24.919271,-4.276933,38.961723
241469153000.0,6.053404573353465,-1.3572593518158818,7.150998746478414,0.90194255,-0.032986723,-0.8213083,25.163553,-4.5182023,38.895058
241473740000.0,6.074915443311842,-1.0525218027911531,7.079295622002775,0.9334021,-0.0015271631,-0.8536842,25.409464,-4.7641215,38.812
241478730000.0,6.098316193495471,-0.7210109308414266,7.001292877042357,0.95386606,0.012217305,-0.88453287,25.706888,-5.082769,38.740257
241484787000.0,6.070168261059796,-0.3297270887544968,6.856113739718036,0.9746355,0.028405234,-0.9254609,26.011286,-5.408808,38.65775
241488929000.0,6.023886797472047,-0.0674650466846864,6.732696476635877,0.99204516,0.04917465,-0.95539325,26.314789,-5.73483,38.569668
241493752000.0,6.013034977400835,0.2057363978538622,6.646903882411274,0.999681,0.06811147,-1.0009027,26.684032,-6.1519647,38.486126
241498726000.0,6.052813633789144,0.4493811606997911,6.627014268653444,0.9941832,0.08399397,-1.0363328,27.04944,-6.5636244,38.39686
241503703000.0,6.06940610877193,0.6840696394736842,6.661068052850878,0.95386606,0.07819075,-1.0784826,27.472355,-7.04449,38.30789
241508773000.0,6.064969488157895,0.9147740967105262,6.745364076151316,0.9129381,0.058337633,-1.1252137,27.896688,-7.518677,38.21675
241513973000.0,6.193137038267525,1.19242659312924,6.848058340754914,0.86101454,0.03573562,-1.1814134,28.3672,-8.038572,38.123158
241518773000.0,6.516972766220213,1.5122642692468256,6.967997391024526,0.81092364,0.014049901,-1.2003502,28.827168,-8.537194,38.03441
241523855000.0,6.850584058323128,1.842169033953792,7.09116998685607,0.79137594,-0.033292156,-1.2223413,29.341633,-9.09165,37.926495
241528738000.0,7.041471287745939,2.0368739250469425,7.156071750102049,0.75991637,-0.07666359,-1.2272283,29.840124,-9.615869,37.824005
241533751000.0,7.237440503616622,2.2367624401093966,7.2227013915421665,0.74220127,-0.11026118,-1.2232577,30.378088,-10.214018,37.759274
241538913000.0,7.56570718289269,2.5012444360808708,7.377269191290824,0.75808376,-0.1337795,-1.207986,30.895042,-10.790748,37.7041
241543797000.0,7.953664697293934,2.7873632333437013,7.576097362986003,0.75808376,-0.13194689,-1.1792754,31.386602,-11.337425,37.65218
241549675000.0,8.347478607877893,3.107173589069424,7.914965160413589,0.7965683,-0.0888809,-1.1258247,31.879267,-11.927175,37.61392
241553795000.0,8.603916252387986,3.324757057311669,8.17917339675037,0.80970186,-0.01985312,-1.1087204,32.35119,-12.491701,37.56702
241558823000.0,8.84433237652721,3.485077452517586,8.5178740328582,0.81214535,0.050701816,-1.0784826,32.806362,-13.087217,37.536118
241563902000.0,9.04692637171418,3.588625588522769,8.869037239911144,0.7651087,0.11728613,-1.0390818,33.2251,-13.647321,37.48944
241569001000.0,9.210447053569588,3.5926768617286493,9.151611899763058,0.6985244,0.16798794,-1.0005972,33.63485,-14.222422,37.42567
241573796000.0,9.328714664056866,3.507524439043989,9.355032130524364,0.60139686,0.17806722,-0.93492925,33.998905,-14.745019,37.36202
241578729000.0,9.356312893671852,3.379929932996087,9.423350893671852,0.49235737,0.18234327,-0.8622363,34.339924,-15.22864,37.274376
241583907000.0,9.299515516941872,3.2095382970315933,9.366553516941872,0.36132678,0.1591304,-0.784351,34.642334,-15.653271,37.20017
241588798000.0,9.182980585285614,3.136955573262885,9.237232925630543,0.23487769,0.13836098,-0.7113526,34.90353,-16.00236,37.129658
241593906000.0,8.983035306450006,3.17109260562257,9.008027275147043,0.11301007,0.10751228,-0.6310238,35.129223,-16.295015,37.07753
241598758000.0,8.789354509877892,3.324676993586817,8.786604177305668,0.0021380284,0.09590584,-0.54275376,35.31919,-16.516748,37.035336
241603738000.0,8.58576332949469,3.637166332810484,8.554604798768986,-0.07971791,0.06872234,-0.46395215,35.48463,-16.697714,37.012833
241608787000.0,8.398471630463701,3.930954411820601,8.317837696788294,-0.15118915,0.042455133,-0.3408628,35.621616,-16.85235,36.99612
241613999000.0,8.232469628563283,4.201299920752565,8.071206193557583,-0.19792034,-0.016493361,-0.22174409,35.736473,-16.975517,37.003166
241619608000.0,8.064766308454164,4.416480970842247,7.883384192615482,-0.20647246,-0.03176499,-0.10598512,35.854168,-17.145885,36.991634
241623803000.0,7.950172443071072,4.502426286783932,7.819720971000713,-0.2134974,-0.03634648,-0.05131268,35.953915,-17.289661,36.99935
241628700000.0,7.816402202598843,4.6027538701370725,7.745404213849932,-0.20738874,-0.04184427,0.04886922,36.053196,-17.485771,37.002857
241634861000.0,7.572056814586741,4.555851710333879,7.64013823598576,-0.19975294,-0.021991149,0.15851954,36.12224,-17.660223,37.009808
241638847000.0,7.403100349850861,4.500757235976137,7.570351825093813,-0.14905111,-0.008857546,0.17195857,36.18713,-17.837301,37.021927
241643755000.0,7.162668943513346,4.29568921271467,7.430552809383406,-0.12675454,0.030848695,0.18936823,36.241924,-18.035799,36.999348
241648730000.0,6.906356078833023,4.0344473099110285,7.2678929043037455,-0.08002335,0.05681047,0.1826487,36.295593,-18.243628,36.979298
241653733000.0,6.546954378993184,3.473603870624949,7.087845423018806,-0.036957346,0.0711658,0.17531833,36.35188,-18.44972,36.932903
241660138000.0,6.048259616736471,2.642446108860967,6.851091333341546,0.007330383,0.051618114,0.14660765,36.414368,-18.66286,36.889835
241663810000.0,5.823360239488309,2.2564270967495017,6.6955948729055255,0.04795292,0.022602014,0.13408493,36.461372,-18.845829,36.842434
241668748000.0,5.610139812309951,1.8696553601656705,6.457581512477718,0.07086037,-0.015271631,0.11728613,36.520535,-19.034712,36.80189
241673733000.0,5.420433376683674,1.496288062244898,6.226365796683673,0.08979719,-0.05222898,0.0888809,36.53692,-19.108044,36.767296
241678732000.0,5.264108882530612,1.1445574020408165,6.006534006530612,0.10354166,-0.07269296,0.051618114,36.564716,-19.189114,36.735893
241683774000.0,5.159275885152006,0.8030663310111503,5.833116740722386,0.10903945,-0.09865474,0.022296581,36.57912,-19.225933,36.725628
241689374000.0,5.1081651713428,0.4401826485561804,5.700229962870485,0.122783914,-0.12003502,-0.010079277,36.608852,-19.274553,36.71474
241693740000.0,5.136861103879979,0.1929937145287118,5.627845075944128,0.11575896,-0.11575896,-0.0580322,36.632206,-19.286867,36.711494
241698959000.0,5.281659869425763,-0.0448896122462493,5.591645249560269,0.10629055,-0.101098195,-0.09743301,36.664513,-19.305613,36.707985
241703741000.0,5.453616289337641,-0.1543157791437802,5.602567245718902,0.095294975,-0.09743301,-0.14110987,36.686954,-19.285952,36.716972
241708802000.0,5.684603763295638,-0.1347405669919224,5.669123074959612,0.09560041,-0.08735373,-0.16218472,36.71109,-19.269125,36.718327
241713860000.0,5.915454315218094,-0.1151769584038772,5.735639452019386,0.09773844,-0.08002335,-0.18020524,36.727097,-19.225054,36.742897
241718799000.0,6.237770007179339,0.1369233282046834,5.9298883453406575,0.09621128,-0.089491755,-0.17715092,36.743187,-19.179464,36.769173
241723835000.0,6.567753992107545,0.3971924563226366,6.129737809887251,0.08735373,-0.12186762,-0.17684549,36.76368,-19.13327,36.827908
241728793000.0,6.824665814915358,0.7066462437852676,6.361440343526003,0.08460484,-0.14355333,-0.15363261,36.77458,-19.08278,36.8891
241733919000.0,7.082959263702913,1.0323204817904528,6.604760196736312,0.061086524,-0.17928895,-0.111177474,36.78492,-19.021685,36.964252
241738795000.0,7.35431179226449,1.3944031755324786,6.858902579792307,0.017104227,-0.20341812,-0.058337633,36.800484,-18.978533,37.06349
241743834000.0,7.702040062816573,1.9057683389636535,7.181062450672883,-0.056505036,-0.24037547,0.010079277,36.803345,-18.91307,37.180847
241748764000.0,8.009986807676151,2.3903742992743937,7.424786453503914,-0.14844026,-0.25534168,0.0852157,36.815525,-18.874126,37.302116
241753863000.0,8.275733893927821,2.865921186394883,7.559991253198396,-0.2510656,-0.23182335,0.15271631,36.80704,-18.806114,37.42756
241759237000.0,8.487610330884975,3.402887463509948,7.589290202096556,-0.35430184,-0.1826487,0.21838433,36.810154,-18.77036,37.54991
241763839000.0,8.563039089781075,3.9183181254653072,7.438432356129216,-0.44348818,-0.10873401,0.26083946,36.79136,-18.707962,37.66147
241768852000.0,8.645204315410398,4.479781382393211,7.274101547386435,-0.51893,-0.021991149,0.29718593,36.789837,-18.696882,37.761547
241773655000.0,8.544218014014934,4.769812002780012,7.067979460769672,-0.5329799,0.06841691,0.30909783,36.77035,-18.67636,37.8403
241778651000.0,8.236421943710512,4.791797444572085,6.798658329695577,-0.48655418,0.14110987,0.2968805,36.736732,-18.650913,37.899845
241783704000.0,7.922039876494418,4.656454299960478,6.609007330115601,-0.37873647,0.20525073,0.26145032,36.798733,-18.820648,37.920757
241788647000.0,7.613343397193954,4.464688121727102,6.4546589439482265,-0.20861048,0.24007004,0.23609942,36.849247,-19.006418,37.93083
241793633000.0,7.280983435933618,4.2244347627745205,6.3345251982410815,-0.028099801,0.23335053,0.20586158,36.931164,-19.26032,37.90278
241798625000.0,6.938925176726622,3.963140197893273,6.230007362367087,0.16157386,0.1994475,0.17745635,37.012356,-19.546005,37.874153
241803629000.0,6.631503832013298,3.675500156194387,6.17080559496431,0.3213151,0.18203785,0.15607607,37.08543,-19.83654,37.826126
241808739000.0,6.334826085948959,3.369252015195072,6.132524464916398,0.39553526,0.13439035,0.15088372,37.16632,-20.140736,37.7979
241813642000.0,6.09968756433735,3.0546782354216866,6.163540426506024,0.5158757,0.09865474,0.13469578,37.240326,-20.449928,37.747715
241818648000.0,5.887127545021686,2.721975904877109,6.23285362313253,0.6044512,0.067500606,0.124005646,37.316498,-20.758728,37.712883
241823699000.0,5.707698366932703,2.4036219183170755,6.317150222140112,0.64904433,0.046731193,0.11209377,37.371624,-21.026333,37.66731
241828698000.0,5.556749155975958,2.10172364417184,6.411493306591782,0.61911196,0.027794369,0.096516706,37.433327,-21.292486,37.63051
241833751000.0,5.464056666666667,1.8173131278911565,6.506886421088435,0.56230146,0.027183503,0.09040806,37.458996,-21.488909,37.579674
241839078000.0,5.418790033816425,1.5356532679187618,6.607479329508035,0.46853364,0.009162978,0.07574729,37.49705,-21.670902,37.536934
241843707000.0,5.4291071098393004,1.36905235614134,6.683354861479184,0.3576616,0.007330383,0.06994407,37.497246,-21.775703,37.47534
241848692000.0,5.482944547674091,1.2568909336246594,6.755138205619772,0.21471913,0.011911872,0.057726767,37.50574,-21.854965,37.415184
241853694000.0,5.560725128436118,1.1836558871605978,6.801467086223953,0.071776666,0.01038471,0.04642576,37.48824,-21.858797,37.352962
241858751000.0,5.677951944643233,1.1734622694801096,6.806563841843822,-0.05009095,0.011301007,0.04795292,37.46985,-21.835716,37.289772
241863752000.0,5.786985116666666,1.19690140625,6.811304383333333,-0.18600847,0.012217305,0.05009095,37.43926,-21.75429,37.23138
241868770000.0,5.889327412518519,1.2547470981944444,6.81575404837037,-0.2751948,0.01038471,0.052534413,37.40946,-21.657167,37.17402
241874454000.0,6.009496255563743,1.336005431708601,6.806704157858722,-0.3387248,0.026572637,0.042760566,37.375645,-21.53504,37.12684
241878730000.0,6.104339006927045,1.413603825476366,6.785149048478788,-0.38453966,0.057726767,0.029321533,37.341503,-21.39955,37.076065
241883815000.0,6.207457325776368,1.487247784509932,6.780800847104356,-0.39920044,0.0852157,0.013439035,37.313892,-21.268396,37.03458
241888943000.0,6.299054366679101,1.537626283735895,6.803700143196867,-0.3924809,0.12492194,0.005192355,37.282585,-21.135277,36.981224
241893762000.0,6.379998754052028,1.5675964373728724,6.844185316668451,-0.35918877,0.1863139,-0.010995574,37.257305,-21.02538,36.92732
241898801000.0,6.452325639471149,1.5572640328765657,6.932010700942084,-0.33505958,0.23151793,-0.015271631,37.228546,-20.916344,36.868046
241903739000.0,6.523431552241624,1.5571345461160926,7.030821432062294,-0.29046643,0.25411993,-0.027183503,37.202312,-20.82687,36.808777
241908900000.0,6.598071936290703,1.5711295998584238,7.152112141387447,-0.24220806,0.29657507,-0.036957346,37.16796,-20.745584,36.733246
241913816000.0,6.6693940581537206,1.577094425579504,7.268972682035381,-0.21960606,0.33200526,-0.03573562,37.130512,-20.663002,36.655518
241918773000.0,6.741789642130947,1.5674416810492071,7.389631837474583,-0.17531833,0.34300083,-0.03604105,37.095387,-20.599155,36.572887
241923712000.0,6.803571703051598,1.5428652503273008,7.497140469291491,-0.1301143,0.34238997,-0.029321533,37.052605,-20.533775,36.483685
241928757000.0,6.845431070446669,1.4870528252214092,7.580859398344244,-0.0870483,0.32070425,-0.01863139,37.011837,-20.478079,36.399105
241933780000.0,6.881682601152192,1.4276468447823234,7.652440089039597,-0.05131268,0.28405234,0.0030543262,36.966846,-20.416977,36.321392
241939001000.0,6.903559820921753,1.3547225758258588,7.692548471231678,-0.013133603,0.24495697,0.030543262,36.921856,-20.36402,36.253357
241944549000.0,6.926807247713849,1.2772309374097572,7.735168908772698,0.009468411,0.18753563,0.050701816,36.873302,-20.299559,36.20041
241948801000.0,6.91786394785826,1.2152014737467431,7.74501293194372,0.024740042,0.112704635,0.07147124,36.82596,-20.23814,36.166477
241953744000.0,6.888262255299636,1.1411970620427303,7.740079204898384,0.027183503,0.044898596,0.099571034,36.77889,-20.175188,36.149544
241959480000.0,6.843557860397149,1.0638359818228107,7.701849553564155,0.037873644,-0.0290161,0.11301007,36.731308,-20.09721,36.15635
241964015000.0,6.803753629694501,1.0063410024439918,7.657622681873727,0.048563786,-0.09285152,0.13775012,36.681133,-20.014494,36.182537
241968765000.0,6.756260961066519,1.0116824305101946,7.487856182544515,0.046731193,-0.14110987,0.1469131,36.63381,-19.923182,36.220383
241973741000.0,6.70350246083587,1.051251386022696,7.246046041682812,0.04550946,-0.18784106,0.15607607,36.588966,-19.83194,36.2763
241978740000.0,6.672920734719573,1.0641473168065625,7.045813379530713,0.049785517,-0.20219639,0.16554448,36.537445,-19.733303,36.337635
241983795000.0,6.668303153262114,1.045676942760397,6.893433046785578,0.03573562,-0.20250183,0.16126843,36.49317,-19.633272,36.405315
241988779000.0,6.6654577,1.0147021529754203,6.772815357647527,0.032986723,-0.17379116,0.15760323,36.44838,-19.558342,36.489197
241993760000.0,6.6654577,0.9624857435963776,6.701611196835506,0.024129177,-0.13347405,0.13683382,36.409428,-19.484379,36.565746
241998742000.0,6.656773142457532,0.9167919619367308,6.636775042325297,0.024129177,-0.09254608,0.113926366,36.366318,-19.417046,36.652084
242003735000.0,6.632453458885159,0.8827446639558539,6.583271931461703,0.019547688,-0.063224554,0.11056661,36.31999,-19.34836,36.729122
242008796000.0,6.607363184929011,0.8560782424386911,6.547618509035002,0.018936822,-0.023518313,0.092240654,36.273613,-19.281956,36.798
242014493000.0,6.5783666617189285,0.8395087833027105,6.539333744863716,0.009162978,0.028710667,0.059253927,36.2277,-19.217154,36.852467
242018715000.0,6.556877576061043,0.82722929296181,6.533193974049047,0.017715093,0.03940081,0.056505036,36.17652,-19.153767,36.910645
242023735000.0,6.520054702150538,0.8426559995698925,6.588534069892473,0.012217305,0.06719518,0.036651913,36.132298,-19.095377,36.94403
242028704000.0,6.479922195973012,0.8677388368838288,6.663782780887623,0.015271631,0.08093964,0.027794369,36.08668,-19.040356,36.97853
242033801000.0,6.4850012080248005,0.9084224653144376,6.678727802674934,0.022907447,0.082161374,0.013439035,36.04804,-18.987656,37.002705
242038966000.0,6.498144920690877,0.9522348866164748,6.683109040230293,0.020158553,0.06872234,-0.002443461,36.013733,-18.93623,37.025486
242043761000.0,6.511404513540198,0.9935160624823696,6.713787446685473,0.032986723,0.050396383,-0.004581489,35.986057,-18.89359,37.032425
242048741000.0,6.525818869171872,1.0367593300624622,6.761835466028612,0.043982297,0.036957346,-0.006414085,35.965313,-18.853579,37.039608
242053735000.0,6.544302478524374,1.087042071146245,6.806220257048748,0.044898596,0.029932396,-0.005192355,35.948578,-18.821976,37.050194
242058796000.0,6.565588462187088,1.1423856731225297,6.848792224374177,0.051923547,0.014966198,-0.008246681,35.937298,-18.79582,37.065388
242063796000.0,6.591043128040201,1.199818996281407,6.894654087497488,0.037873644,0.01282817,-0.01160644,35.929146,-18.77038,37.073948
242068812000.0,6.624838365025125,1.2625812551758795,6.94776052118593,0.0290161,0.014966198,-0.004276057,35.920246,-18.746668,37.08589
242073826000.0,6.653600628571429,1.3261598,7.005205980952381,0.017104227,0.018020526,-0.010995574,35.92548,-18.734695,37.089413
242078804000.0,6.673470769177868,1.390737640262582,7.069783769344586,0.0009162979,0.013133603,-0.016187929,35.92874,-18.718498,37.095295
242084080000.0,6.6846113,1.45614984628331,7.124765481171107,-0.015882496,0.0290161,-0.014049901,35.933193,-18.708572,37.090923
242088840000.0,6.6846113,1.512092864516129,7.160729016935484,-0.04734206,0.03848451,-0.013439035,35.941418,-18.693214,37.08865
242093784000.0,6.680930453149607,1.5665407702755905,7.192182,-0.06383542,0.051618114,-0.018020526,35.952538,-18.688082,37.07269
242098813000.0,6.657228815748032,1.6020932263779528,7.192182,-0.077579886,0.06780604,-0.019242255,35.960503,-18.676008,37.054108
242103706000.0,6.634168145275591,1.6366842320866142,7.192182,-0.084910266,0.08368854,-0.020463986,35.968376,-18.675703,37.021988
242108860000.0,6.570427303555396,1.656664577042557,7.179576940294488,-0.0888809,0.09865474,-0.018325957,35.973236,-18.672523,36.986797
242113858000.0,6.4930732692224815,1.669556931055845,7.162387284521458,-0.082161374,0.10445796,-0.02321288,35.97977,-18.671421,36.949646
242118882000.0,6.416276272690003,1.6759412,7.138478268306528,-0.062308256,0.103847094,-0.021991149,35.994175,-18.680067,36.90553
242123810000.0,6.341860519930622,1.6759412,7.1087116563859984,-0.047647487,0.10048734,-0.029626964,36.012352,-18.691092,36.86003
242128733000.0,6.268522129007703,1.6809522052741277,7.081380636502039,-0.029626964,0.084910266,-0.0290161,36.035557,-18.712809,36.806404
242133779000.0,6.194075589614863,1.689710616293611,7.055105494898052,-0.0018325958,0.058948494,-0.029932396,36.063225,-18.740814,36.75656
242138986000.0,6.121502536466858,1.682722132804828,7.020394009973405,0.01740966,0.03573562,-0.018325957,36.0889,-18.772102,36.703606
242143818000.0,6.059966354142799,1.6543208368964812,6.977792090824468,0.022296581,0.0290161,-0.03359759,36.12434,-18.810339,36.651096
242148797000.0,6.013385870556516,1.633463719513684,6.944421339027368,0.022296581,0.0012217305,-0.03390302,36.1627,-18.85601,36.60092
242153794000.0,5.9890420056363824,1.6237261532098892,6.924946206419778,0.013133603,-0.021685716,-0.029932396,36.20395,-18.901287,36.55122
242158802000.0,5.983883569276298,1.6085350624428305,6.898542099139091,0.009468411,-0.03940081,-0.031154128,36.25015,-18.942928,36.505886
242163875000.0,6.001310877885391,1.5867508698143664,6.863687345439871,-0.010079277,-0.053145275,-0.032375857,36.29677,-18.977123,36.466835
242168805000.0,6.027260407939869,1.567043792017785,6.824814104425154,-0.004581489,-0.06505715,-0.03268129,36.3441,-19.016922,36.43002
242173798000.0,6.082943933919119,1.551857428699979,6.769130631304256,-0.0061086523,-0.073303826,-0.025045475,36.389694,-19.048588,36.397305
242178703000.0,6.1314746243243246,1.547813623346751,6.728034586371478,-0.0033597588,-0.07391469,-0.01863139,36.42928,-19.077139,36.37591
242183985000.0,6.170259255855856,1.5672058125551085,6.71349045712095,-0.0012217305,-0.07574729,-0.011911872,36.466816,-19.103048,36.358246
242188798000.0,6.216258024225698,1.578919100122662,6.710034999386691,0.0076358155,-0.06291912,0.0018325958,36.489525,-19.125183,36.3555
242193815000.0,6.294838203414086,1.5740078453337425,6.734591273331288,0.0143553335,-0.050701816,0.008552114,36.512104,-19.146864,36.353336
242199527000.0,6.381054492176492,1.5816673222617723,6.776954177226548,0.022602014,-0.050396383,0.015577064,36.524906,-19.172173,36.359287
242203795000.0,6.441675600667408,1.6028847102335928,6.825451032369299,0.027794369,-0.042760566,0.017715093,36.533936,-19.19742,36.360367
242208753000.0,6.51209721638858,1.627532275736003,6.881788288179458,0.03940081,-0.03573562,0.02565634,36.53314,-19.216232,36.374905
242213837000.0,6.587185059354359,1.6349147267187645,6.929350287924458,0.04337143,-0.03634648,0.028710667,36.533085,-19.234625,36.388958
242218813000.0,6.662552317331845,1.6304813694948366,6.969250549232487,0.0421497,-0.03940081,0.04917465,36.524044,-19.249498,36.404663
242223752000.0,6.734282067017856,1.6193379336594376,7.018679738934118,0.03726278,-0.03268129,0.05375614,36.51775,-19.267435,36.420807
242228799000.0,6.803722841246493,1.59949770258603,7.08150724091811,0.03634648,-0.03023783,0.051618114,36.5081,-19.283195,36.44021
242233827000.0,6.872902197858658,1.579732162297325,7.144098221693918,0.025045475,-0.019547688,0.057726767,36.484783,-19.286243,36.466354
242239066000.0,6.912301583033419,1.5606977289956565,7.165604565286765,0.01863139,-0.020158553,0.056505036,36.466045,-19.291775,36.493282
242243824000.0,6.924419193830334,1.5445408161865084,7.153486870135627,0.0027488936,-0.011301007,0.051923547,36.443745,-19.292168,36.514896
242248706000.0,6.927362687141687,1.5272927497133495,7.1467961381859135,0.002443461,0.004276057,0.038179077,36.415672,-19.282896,36.540516
242253794000.0,6.902420652743653,1.5073391221949222,7.156773004033579,-0.016798794,0.0125227375,0.03176499,36.386967,-19.265793,36.565514
242258774000.0,6.87838592035829,1.480773241320222,7.15024308002142,-0.01038471,0.026267206,0.029321533,36.35598,-19.250544,36.59015
242264055000.0,6.853765590886964,1.4364565968552234,7.105926229889982,-0.034513887,0.0290161,0.022296581,36.3295,-19.22675,36.613678
242268809000.0,6.830150989438944,1.400101489438944,7.07213401080108,-0.035124753,0.016187929,0.01160644,36.309624,-19.207682,36.63227
242273803000.0,6.801452245984598,1.3714027459845983,7.053001581758176,-0.033292156,0.006414085,0.0061086523,36.28996,-19.184696,36.648804
242278742000.0,6.769700880442193,1.3408378701275931,7.031834037109185,-0.032375857,-0.00030543262,0.0012217305,36.274643,-19.157745,36.669968
242284337000.0,6.722730945358917,1.2990868106652382,7.000520674393689,-0.023823744,-0.0030543262,-0.0021380284,36.261723,-19.134138,36.691746
242288878000.0,6.686597468343753,1.269377846869108,6.980407636717278,-0.016187929,-0.010079277,-0.013133603,36.250393,-19.109974,36.71291
242293800000.0,6.653853737570706,1.2506671156594225,6.975729953914856,-0.01160644,-0.008552114,-0.016798794,36.23722,-19.08687,36.732567
242298804000.0,6.62171409059633,1.2345020380733944,6.971009138073394,-0.016493361,-0.017104227,-0.02443461,36.226883,-19.059711,36.7538
242303794000.0,6.594312390672783,1.2299351198776758,6.966442219877676,-0.013133603,-0.023518313,-0.03359759,36.217987,-19.036917,36.77304
242308864000.0,6.568755055818213,1.2295682816047944,6.963739776027968,-0.0018325958,-0.013133603,-0.03726278,36.20928,-19.012217,36.785896
242313806000.0,6.560876156933578,1.261083918278675,6.975558206625604,-0.00580322,-0.021380283,-0.02321288,36.20156,-18.983875,36.805897
242318768000.0,6.552965372581988,1.2927270969868487,6.987424465756618,0.0036651916,-0.002443461,-0.028405234,36.197784,-18.965515,36.80922
242323740000.0,6.566868080255218,1.3253111323573057,6.997601883885647,-0.004276057,-0.00030543262,-0.022602014,36.189648,-18.938414,36.821686
242328721000.0,6.590461927717875,1.358342518805025,7.007039324324859,0.009162978,0.016187929,-0.027183503,36.181984,-18.921432,36.82341
242333796000.0,6.586949163397424,1.4182331805609456,6.987281326794849,0.009468411,0.012217305,-0.022602014,36.175056,-18.904715,36.826225
242339539000.0,6.567545542864703,1.500698567825013,6.948474085729406,0.009162978,0.017715093,-0.016187929,36.165447,-18.891577,36.821953
242343933000.0,6.549231350750906,1.5366414824236148,6.927079333174522,0.025045475,0.020463986,-0.0125227375,36.160587,-18.888674,36.82026
242348732000.0,6.525430696582082,1.5461617937959606,6.912798990378042,0.025045475,0.028710667,-0.014660766,36.154076,-18.882202,36.815796
242353730000.0,6.508336487473904,1.5592267656924148,6.889309568615171,0.030848695,0.031154128,-0.010995574,36.154583,-18.898872,36.81025
242358796000.0,6.499896018528184,1.5761077917188586,6.855547516562282,0.028099801,0.030848695,-0.004276057,36.153866,-18.913076,36.803616
242363829000.0,6.492311215135043,1.59280497565823,6.832082144572787,0.029321533,0.035124753,0.0012217305,36.157352,-18.93293,36.79242
242368809000.0,6.488260471122813,1.6090076133344655,6.852335441668083,0.025045475,0.034513887,0.011911872,36.157524,-18.948343,36.784256
242373746000.0,6.484244703414302,1.625070348717513,6.872413860896891,0.01985312,0.04153884,0.01740966,36.157127,-18.968554,36.776142
242378738000.0,6.483498,1.6280571,6.898008982088159,0.018325957,0.04520403,0.02076942,36.154415,-18.986635,36.770283
242383778000.0,6.483498,1.6280571,6.925054361991035,0.0061086523,0.028099801,0.019242255,36.153473,-19.00069,36.768337
242388848000.0,6.486597306582255,1.6156601325668,6.9491042092915,0.0061086523,0.028710667,0.019242255,36.151268,-19.020128,36.755898
242393821000.0,6.491031383576948,1.5979241949818452,6.971274131272693,-0.0018325958,0.032375857,0.014660766,36.152977,-19.035795,36.746696
242398797000.0,6.484659343337335,1.578529063505402,7.001128463865546,0.0027488936,0.024740042,0.015271631,36.154392,-19.051262,36.737606
242403795000.0,6.468988161519153,1.5576342271417658,7.03769442750191,-0.0030543262,0.013133603,0.008552114,36.15965,-19.064468,36.72754
242408970000.0,6.461049966641832,1.5514427,7.068296800149003,-0.004581489,0.009162978,0.016187929,36.158676,-19.07136,36.718212
242413967000.0,6.456593338815422,1.5514427,7.095036567107469,0.007330383,0.008246681,0.015577064,36.1637,-19.082417,36.709602
242418738000.0,6.4547677,1.554185545463148,7.1169618964146775,-0.00580322,-0.0018325958,0.0070249503,36.170414,-19.08306,36.698307
242423734000.0,6.4547677,1.5592161093155297,7.137084361938808,-0.0036651916,-0.0015271631,0.006414085,36.1733,-19.088243,36.685673
242428731000.0,6.474154543370016,1.5471717258163449,7.1498371270250765,-0.010079277,-0.010995574,0.0009162979,36.185734,-19.09108,36.671516
242433795000.0,6.504776806260147,1.525298635215587,7.158586390672921,-0.023518313,-0.0070249503,-0.0027488936,36.19561,-19.092436,36.65424
242438866000.0,6.5282313119024,1.5238454422039278,7.1634517,-0.008246681,-0.003970624,-0.0030543262,36.201332,-19.097456,36.637875
242443749000.0,6.54214626361833,1.547037076829994,7.1634517,-0.01282817,-0.0009162979,-0.0012217305,36.206882,-19.095287,36.62062
242448733000.0,6.554511416727717,1.5610195,7.153512408180709,-0.019242255,-0.00061086525,0.004581489,36.211586,-19.09173,36.608086
242453736000.0,6.564261667114367,1.5610195,7.129136782214082,-0.021991149,0.0018325958,-0.0018325958,36.218796,-19.089762,36.593296
242458802000.0,6.5696893,1.567506734448624,7.106917941170065,-0.0290161,0.002443461,0.002443461,36.22071,-19.085419,36.583282
242464048000.0,6.5696893,1.5824265204711938,7.087024633488418,-0.025350908,0.0033597588,0.00061086525,36.226173,-19.084976,36.57138
242468743000.0,6.571824842652783,1.5705297931313769,7.06444656568844,-0.014049901,0.013439035,0.004276057,36.226482,-19.086365,36.56131
242473734000.0,6.57685243386978,1.5252809471968023,7.034280598401178,-0.030848695,0.01282817,0.0012217305,36.23085,-19.083696,36.553032
242478703000.0,6.579266,1.5035586,7.002188867607647,-0.03359759,0.004886922,0.0030543262,36.235115,-19.088184,36.54748
242483798000.0,6.579266,1.5035586,6.967317657137752,-0.028099801,0.013744468,0.012217305,36.235485,-19.089836,36.538418
242489041000.0,6.582829816959254,1.5017767008235805,6.930711687158648,-0.025045475,0.022907447,0.011301007,36.2333,-19.082737,36.538033
242493750000.0,6.592603849609882,1.496889710013004,6.8965027004551365,-0.022296581,0.010995574,0.008857546,36.230495,-19.07558,36.541718
242498734000.0,6.590091052092467,1.4835710118573138,6.878229440235153,-0.011911872,0.019242255,0.016798794,36.217606,-19.071629,36.54333
242503735000.0,6.57100234073336,1.4597101724890396,6.88300156824432,0.0018325958,0.01740966,0.026572637,36.208202,-19.069227,36.550533
242508794000.0,6.55424294239674,1.4363152971846638,6.893550069994443,0.010995574,0.0106901415,0.034513887,36.193348,-19.0654,36.56495
242513787000.0,6.540957946425264,1.4141736218188552,6.911263382543064,0.017104227,-0.003970624,0.032986723,36.18005,-19.06399,36.581757
242518764000.0,6.523203005619254,1.3954873637950624,6.934936630585684,0.028710667,-0.010995574,0.03726278,36.162636,-19.058609,36.597202
242524584000.0,6.488658921950211,1.3839726491994628,6.980995428850326,0.029932396,-0.014660766,0.035430185,36.14954,-19.053806,36.614426
242528708000.0,6.463761648947174,1.3848656451976358,7.020964977881419,0.029932396,-0.012217305,0.042760566,36.13162,-19.042095,36.630405
242533796000.0,6.432261158662726,1.4028660193387512,7.0839661933967495,0.033292156,-0.018325957,0.035124753,36.121178,-19.034678,36.647324
242538824000.0,6.40285140884699,1.4165610249274836,7.139560040962654,0.022296581,-0.03023783,0.03726278,36.105785,-19.017656,36.65784
242543769000.0,6.381387813850616,1.412268216279913,7.165316310134155,0.02443461,-0.035430185,0.033292156,36.09504,-19.007057,36.66643
242549147000.0,6.358160967515923,1.4080001875,7.191762635947452,0.021991149,-0.042760566,0.028099801,36.090504,-18.992931,36.66452
242553742000.0,6.340642895859872,1.4123797968749998,7.1830036458499205,0.02565634,-0.028099801,0.03481932,36.08112,-18.979477,36.65913
242559728000.0,6.321350948721695,1.416709037527392,7.1730285,0.015271631,-0.015271631,0.022602014,36.0802,-18.964865,36.646023
242563800000.0,6.324911643535428,1.4131482683528125,7.1730285,0.0143553335,-0.0067195175,0.022602014,36.07185,-18.950035,36.63257
242568752000.0,6.32924184017531,1.4088179812819577,7.1730285,0.0076358155,-0.011301007,0.009162978,36.074722,-18.940071,36.613213
242573802000.0,6.347917245596348,1.4254384824519688,7.155380554403652,0.0018325958,0.0012217305,0.00580322,36.07076,-18.928453,36.588684
242578748000.0,6.370442855640099,1.4479641395377592,7.132854944359901,-0.0015271631,0.0033597588,-0.01160644,36.07801,-18.920979,36.565273
242583808000.0,6.395193125339088,1.458514575832306,7.110944472564735,-0.009773844,0.004886922,-0.009468411,36.079334,-18.905237,36.54343
242588875000.0,6.420836367095297,1.462788456896248,7.089574844107803,-0.008246681,-0.00030543262,-0.009162978,36.087563,-18.894527,36.52098
242594816000.0,6.460008224757589,1.459152883610877,7.058964291631535,-0.012217305,0.002443461,-0.011911872,36.094566,-18.88457,36.503548
242598810000.0,6.492259311709528,1.45109016449199,7.034775923798482,-0.009162978,0.008246681,-0.0125227375,36.10104,-18.8762,36.48721
242603736000.0,6.5211905945732,1.4460979,7.015317999504053,-0.0067195175,-0.008857546,-0.009162978,36.110676,-18.868597,36.483997
242608796000.0,6.539677426428231,1.4460979,7.006074680095375,-0.007330383,-0.0076358155,-0.0106901415,36.118565,-18.862066,36.47397
242613922000.0,6.560879911814261,1.4481667207602047,7.0006456,-0.0070249503,-0.007941248,0.0015271631,36.1135,-18.850466,36.482174
242618813000.0,6.584368091936616,1.452864307732424,7.0006456,-0.0015271631,-0.0036651916,-0.004581489,36.114113,-18.843653,36.486412
242628735000.0,6.591701702085631,1.4758288041913166,6.993927672235035,-0.0021380284,-0.020463986,0.008857546,36.107384,-18.83071,36.503822
242633795000.0,6.58725141782352,1.484405,6.994252064640179,0.0067195175,-0.030543262,0.006414085,36.106316,-18.825232,36.515617
242638934000.0,6.583324801978618,1.484405,7.002105050327111,-0.0027488936,-0.030543262,0.01160644,36.101326,-18.810963,36.53608
242643718000.0,6.579669435136428,1.484405,7.009415555002393,0.00580322,-0.026572637,0.01740966,36.098633,-18.807268,36.556057
242648805000.0,6.588642325383872,1.4937812764307956,7.033663091076989,0.016187929,-0.021685716,0.013133603,36.097385,-18.802896,36.574837
242653963000.0,6.596426729292582,1.5048872563873628,7.058438555425824,0.009773844,-0.022602014,0.0143553335,36.09272,-18.794748,36.595043
242658779000.0,6.572668939869505,1.5207258929258245,7.062398111195055,0.017104227,-0.016798794,0.014966198,36.09321,-18.79346,36.60882
242664681000.0,6.543553808396291,1.5401361156936813,7.067250540212912,0.009773844,-0.0143553335,0.016798794,36.095894,-18.787119,36.622196
242668808000.0,6.544563651060939,1.5310518586181665,7.067683,0.01863139,-0.0125227375,0.018020526,36.09769,-18.785967,36.63402
242673707000.0,6.549467618166615,1.516339701264764,7.067683,0.018325957,-0.003970624,0.006414085,36.10166,-18.783134,36.642002
242678790000.0,6.540367260200934,1.509745920066978,7.071072550718252,0.014966198,-0.013744468,0.0125227375,36.10639,-18.782183,36.650192
242684697000.0,6.525410842398872,1.5047604474662908,7.076058127434564,0.004581489,-0.0067195175,0.0036651916,36.11593,-18.784185,36.648724
242688825000.0,6.5218053,1.506042596853717,7.067324064460432,0.0012217305,-0.00580322,0.013744468,36.115643,-18.780664,36.654823
242693815000.0,6.5218053,1.510626599923261,7.048988147913669,0.004886922,-0.007941248,0.017715093,36.11951,-18.779001,36.658176
242698805000.0,6.526184673309716,1.510945724777328,7.038953,0.009468411,-0.011911872,0.015882496,36.11848,-18.775871,36.658855
242703794000.0,6.535856516356275,1.5061098285020242,7.038953,0.0030543262,-0.023518313,0.0106901415,36.118656,-18.770967,36.662224
242708802000.0,6.536482832871053,1.494606312481558,7.047905240778991,0.009162978,-0.014660766,0.012217305,36.11909,-18.77185,36.663536
242713954000.0,6.526776935123438,1.4751946183338251,7.067316833579227,0.004581489,-0.022907447,0.0076358155,36.127148,-18.770863,36.67104
242718794000.0,6.523919050170477,1.4652514,7.062463594304052,-0.0030543262,-0.026572637,-0.00061086525,36.12989,-18.76926,36.67673
242723801000.0,6.528727567709587,1.4652514,7.028803620056157,-0.00580322,-0.020463986,0.004276057,36.129486,-18.766092,36.682938
242728789000.0,6.535368694319139,1.461264747309312,7.012215695124006,-0.013439035,-0.02107485,0.0106901415,36.133034,-18.754852,36.689125
242734327000.0,6.545295993392607,1.4513375518951803,7.0171792150865695,-0.005497787,-0.01740966,0.0036651916,36.137802,-18.748106,36.691555
242738771000.0,6.544600561851889,1.4490654535805236,7.015347708363044,-0.011301007,-0.011301007,0.0030543262,36.136505,-18.735197,36.700436
242743814000.0,6.524922125506774,1.4589046203830092,7.000589086584497,-0.004886922,-0.018325957,0.01160644,36.135807,-18.72647,36.711903
242748704000.0,6.516881184849384,1.4652514,6.991069,-0.0009162979,-0.022907447,0.0009162979,36.138958,-18.718218,36.719536
242753835000.0,6.531464523861107,1.4652514,6.991069,-0.004276057,-0.016493361,-0.00061086525,36.135746,-18.706705,36.727985
242758833000.0,6.5456698499925805,1.4652514,6.991069,-0.0018325958,-0.0106901415,0.0021380284,36.13629,-18.701756,36.734974
242763819000.0,6.54757776454717,1.4593354982075473,6.991069,0.0076358155,-0.016187929,0.014660766,36.13475,-18.696165,36.744087
242768821000.0,6.543058646301887,1.450297214528302,6.991069,0.008246681,-0.0143553335,0.011911872,36.13539,-18.69146,36.74825
242773819000.0,6.545731312616474,1.4484840438501678,6.98629661263511,0.007941248,-0.017715093,0.010995574,36.133816,-18.685284,36.760277
242778806000.0,6.5546316577991055,1.4529341932072308,6.977396128046962,0.008246681,-0.020463986,0.014966198,36.13113,-18.679007,36.77176
242783859000.0,6.563829186606618,1.459391306011357,6.970056846994321,0.017715093,-0.02107485,0.013439035,36.13663,-18.67386,36.782703
242789129000.0,6.573711597513217,1.4692737685138046,6.965115615743097,0.019547688,-0.02321288,0.015577064,36.14011,-18.665766,36.795433
242793787000.0,6.582640680573447,1.4697662231872013,6.9657130629544985,0.02107485,-0.019547688,0.012217305,36.142075,-18.662638,36.80801
242798806000.0,6.592627426916684,1.4547862340224391,6.975699757157698,0.030543262,-0.014660766,0.013744468,36.141727,-18.660387,36.8214
242803745000.0,6.600037505114536,1.4509512984506456,6.984727610229071,0.028710667,-0.02107485,0.007941248,36.150414,-18.659872,36.83726
242808861000.0,6.604118713677634,1.4631948815243647,6.992890027355269,0.034513887,-0.026267206,0.00580322,36.156307,-18.662079,36.85192
242813984000.0,6.608442416829571,1.4743822924826728,7.000199692482673,0.02565634,-0.02107485,0.002443461,36.158688,-18.657936,36.865597
242818808000.0,6.616652732806113,1.466172147965168,6.991989547965169,0.014966198,-0.013133603,0.015882496,36.15641,-18.651932,36.88134
242823720000.0,6.625012822374267,1.457812232983828,6.9836296329838286,0.020158553,-0.005497787,0.009468411,36.16121,-18.653013,36.892395
242828803000.0,6.633544467594208,1.452477632894278,6.978294999511514,0.022907447,-0.01038471,0.006414085,36.161095,-18.648165,36.906376
242833872000.0,6.642013509071877,1.4482431342637825,6.974060456664341,0.018936822,-0.002443461,-0.0015271631,36.161682,-18.644995,36.913548
242838795000.0,6.639084537932138,1.4581301860115237,6.979134586683739,0.0076358155,0.007330383,0.00061086525,36.15876,-18.637793,36.92546
242843746000.0,6.623906806850192,1.4834260875160052,6.994312159282971,-0.004276057,0.0076358155,-0.006414085,36.161568,-18.632654,36.93566
242849658000.0,6.628424549356772,1.50483293605028,7.0114967360502805,-0.0030543262,0.012217305,-0.009773844,36.15944,-18.627943,36.94382
242853803000.0,6.640119408582932,1.516527673161151,7.023191473161151,-0.007941248,0.009773844,0.0021380284,36.15551,-18.617779,36.95458
242858859000.0,6.649062299275945,1.519953958326629,7.029376,-0.01282817,0.0036651916,-0.0061086523,36.16475,-18.616934,36.956837
242863811000.0,6.653831537409493,1.5151848197908286,7.029376,-0.00580322,0.009468411,-0.0106901415,36.167393,-18.614765,36.95839
242868794000.0,6.65325999396089,1.507893497392638,7.0215131460889575,-0.0070249503,-0.0009162979,-0.01740966,36.18047,-18.61161,36.96577
242873801000.0,6.648663364455521,1.4987004303680982,7.007723545552148,-0.008857546,-0.0033597588,-0.004581489,36.18636,-18.607038,36.97124
242878793000.0,6.641823194726166,1.5007030430020285,7.00288601433401,-0.00030543262,-0.004886922,0.0009162979,36.194836,-18.604195,36.97954
242884022000.0,6.6321493174442185,1.5152139346855984,7.007722978228533,0.0061086523,-0.005192355,0.005192355,36.199455,-18.598372,36.989338
242889002000.0,6.6249172251919335,1.518245836933156,7.007989218466578,0.0036651916,0.0021380284,0.008857546,36.204945,-18.592836,36.99806
242893746000.0,6.620266366680315,1.5089445084041355,7.003338554202068,0.009773844,0.0021380284,0.008857546,36.211098,-18.590452,37.008682
242898740000.0,6.615429112116381,1.499270224232762,6.996357224232763,0.005497787,-0.007941248,0.01038471,36.217865,-18.588074,37.017
242903729000.0,6.610668385213232,1.4897487704264647,6.986835770426465,0.00580322,-0.0021380284,0.011911872,36.222126,-18.587908,37.02111
242908903000.0,6.597463084877687,1.484405,6.983598727020016,0.015577064,0.0067195175,0.01282817,36.230053,-18.585358,37.028652
242913809000.0,6.57569521015567,1.484405,6.987952392883618,0.013133603,0.0125227375,0.01282817,36.237133,-18.580029,37.035416
242919655000.0,6.553067218743434,1.491450256734608,6.984023694221476,0.018020526,0.009162978,0.015577064,36.24007,-18.577822,37.04243
242923736000.0,6.540748541447783,1.5037688911536036,6.97170497404917,0.025350908,0.009773844,0.018936822,36.241272,-18.575434,37.046947
242928693000.0,6.534832345880295,1.5131354,6.965788727866304,0.01740966,0.008552114,0.015577064,36.24077,-18.57471,37.045483
242933861000.0,6.544450138495919,1.5131354,6.97540647026817,0.026267206,0.009162978,0.013744468,36.238247,-18.578247,37.044075
242938777000.0,6.547411431820434,1.5162596518680012,6.993989007472005,0.025350908,0.013133603,0.016187929,36.23509,-18.58173,37.040833
242943766000.0,6.5379418243187,1.5257292099296402,7.031867239718561,0.023518313,0.018020526,0.018325957,36.23231,-18.587067,37.037132
242948705000.0,6.537040902868812,1.528044833927682,7.052447482358801,0.014660766,0.01282817,0.019547688,36.230667,-18.591204,37.034637
242953751000.0,6.556295672845901,1.513603794142843,7.033192662117741,0.015577064,0.016798794,0.013133603,36.228752,-18.597795,37.028076
242959013000.0,6.565192651295337,1.502059711881365,7.031790136251563,0.005192355,0.0125227375,0.01282817,36.23,-18.596277,37.020824
242963837000.0,6.552811467875648,1.4979326363766303,7.064806826478471,0.0070249503,0.017715093,0.009773844,36.232204,-18.599089,37.009304
242968862000.0,6.541730905584712,1.4947537096148134,7.0964136,0.007941248,0.01282817,0.0027488936,36.236214,-18.600483,37.005775
242973735000.0,6.550972910288147,1.5039957625705516,7.0964136,0.0009162979,0.0067195175,0.002443461,36.238323,-18.599665,37.00184
242978941000.0,6.5601125,1.511162081196202,7.096742486467299,-0.004276057,-0.0018325958,0.013133603,36.238293,-18.593576,36.99493
242984029000.0,6.5601125,1.4852182928920046,7.101066451184666,0.0033597588,0.0021380284,0.00580322,36.243244,-18.59202,36.984478
242988762000.0,6.5601125,1.4610846549117047,7.105088724181382,-0.008857546,-0.0018325958,-0.00030543262,36.244125,-18.585876,36.9799
242993772000.0,6.567400722345345,1.4629628603969935,7.109634720456735,-0.010995574,-0.0070249503,0.0030543262,36.243843,-18.583126,36.97508
242998741000.0,6.576571443245326,1.4721336291771054,7.114220344247446,-0.0009162979,-0.007330383,0.004276057,36.24602,-18.581774,36.969273
243003745000.0,6.564668073462365,1.460230303948387,7.100969560060215,0.01160644,-0.016493361,0.011911872,36.247948,-18.572302,36.969616
243008882000.0,6.543508494279569,1.4390707689548383,7.079809671552688,0.008857546,-0.018325957,0.0027488936,36.253895,-18.56455,36.96644
243013763000.0,6.525544321294451,1.4269443,7.056007642588901,-0.0009162979,-0.023518313,0.014966198,36.25362,-18.553873,36.970737
243018759000.0,6.510487510343019,1.4269443,7.025894020686038,0.008246681,-0.018325957,0.009162978,36.260883,-18.551676,36.969715
243023797000.0,6.49107597446703,1.4269443,6.998646674467031,0.005497787,-0.013439035,0.005497787,36.266754,-18.539623,36.971794
243028802000.0,6.467312026028756,1.4269443,6.974882726028755,0.008552114,-0.008246681,0.005192355,36.27247,-18.531368,36.97214
243033851000.0,6.445656491462451,1.4223886481620551,6.966894004268775,0.018325957,-0.014660766,0.004276057,36.283825,-18.525965,36.97564
243038794000.0,6.426945771146245,1.4130331903162054,6.976249364426877,0.021380283,-0.00580322,0.0027488936,36.29237,-18.519958,36.97363
243043741000.0,6.412276137782238,1.41197492775715,6.983584235725038,0.009468411,-0.01160644,-0.0036651916,36.304848,-18.516853,36.974556
243048735000.0,6.4026772838936274,1.4215739319919718,6.9883837879578525,0.03390302,-0.0067195175,-0.010079277,36.314835,-18.522694,36.97021
243053733000.0,6.399224253774184,1.4422824703333637,6.994903507548369,0.028710667,-0.007941248,-0.012217305,36.322754,-18.515644,36.965954
243059617000.0,6.404342729821055,1.4832306528385866,7.005140459642111,0.036651913,-0.005192355,-0.013133603,36.330933,-18.517775,36.958897
243063737000.0,6.410496456130047,1.5107841499842685,7.0090181437650765,0.032986723,-0.0009162979,-0.011911872,36.336494,-18.51962,36.947887
243068754000.0,6.425613384824332,1.5410181652228632,7.003979149994756,0.021685716,0.002443461,-0.006414085,36.340534,-18.52072,36.937035
243073707000.0,6.44503352031989,1.566402075010749,7.006028203112908,0.032986723,-0.00061086525,-0.0033597588,36.34491,-18.534573,36.923435
243078730000.0,6.473989610018059,1.5829483872989938,7.022574601788632,0.031154128,-0.003970624,0.0015271631,36.346344,-18.541372,36.910255
243084213000.0,6.505110044675151,1.6009655964501004,7.039772439668453,0.027794369,-0.004581489,-0.0021380284,36.35676,-18.5544,36.90044
243088814000.0,6.52724476845278,1.6157220789685198,7.047150603884796,0.026572637,-0.009773844,0.003970624,36.363224,-18.564434,36.894646
243093750000.0,6.55099112719357,1.631552984795713,7.055065974146014,0.022296581,-0.0009162979,0.002443461,36.373722,-18.577316,36.88636
243098747000.0,6.562960649688309,1.6404820496883092,7.0581064,0.022296581,-0.0021380284,0.0061086523,36.382313,-18.588346,36.88359
243103736000.0,6.5675428550398,1.6450642550398005,7.0581064,0.0061086523,-0.007941248,0.009773844,36.390453,-18.59466,36.8798
243108978000.0,6.580560970183665,1.6417748649081672,7.063542235091832,-0.0021380284,-0.01160644,0.008857546,36.39904,-18.604918,36.878757
243113798000.0,6.598599335169988,1.6327556824150058,7.072561417584994,-0.0061086523,-0.009162978,0.0061086523,36.40667,-18.611837,36.877975
243118745000.0,6.612864941569282,1.6183204202003338,7.074825779215359,-0.009773844,-0.008857546,0.011911872,36.405773,-18.613136,36.88184
243123740000.0,6.622847645033389,1.5983554302170284,7.069834427483305,-0.020463986,-0.010079277,0.016187929,36.405964,-18.612545,36.885048
243128781000.0,6.624623875938613,1.582170344395725,7.060103549922353,-0.024129177,-0.008552114,0.009162978,36.403423,-18.611115,36.888847
243133855000.0,6.620184786434639,1.5688536320909838,7.046787023020006,-0.0143553335,-0.008857546,0.016187929,36.395313,-18.60695,36.89551
243138778000.0,6.610264099704637,1.5500557090971745,7.027989190016737,-0.008552114,-0.0076358155,0.00580322,36.38682,-18.599783,36.902576
243143770000.0,6.591436685940731,1.5218146130254997,6.999748044796692,-0.003970624,-0.004581489,0.014049901,36.36989,-18.589968,36.91206
243148719000.0,6.570848661494487,1.4934578113719887,6.978125064597795,0.00061086525,-0.003970624,0.007330383,36.36264,-18.585867,36.919502
243153740000.0,6.546305423029808,1.4640059764699878,6.968307769211924,-0.0015271631,-0.0067195175,0.01160644,36.34926,-18.577837,36.929153
243158947000.0,6.526217594909455,1.444376407669198,6.970945771776684,0.007330383,-0.007330383,0.0061086523,36.338825,-18.570822,36.939007
243163866000.0,6.514423858307603,1.440445107402153,6.990602067862806,0.007330383,-0.007941248,0.017715093,36.321953,-18.557636,36.951874
243169086000.0,6.501573211942604,1.4370602440286986,7.00995277798565,0.013439035,-0.009468411,0.01160644,36.308777,-18.549479,36.959286
243173744000.0,6.485368059131778,1.4451628204341114,7.005901489782945,0.015271631,-0.009162978,0.0076358155,36.291256,-18.538141,36.967804
243178726000.0,6.468035712351285,1.4538289938243576,7.001568403087822,0.030543262,-0.011911872,0.0067195175,36.274937,-18.52846,36.97289
243183906000.0,6.472450250179801,1.4678332887496148,7.0249629774992295,0.034208454,-0.003970624,0.0067195175,36.258293,-18.517328,36.97473
243188769000.0,6.482020112555224,1.4821881572588105,7.05367271451762,0.028099801,-0.017104227,0.006414085,36.245636,-18.507692,36.982708
243193784000.0,6.503602113430484,1.4964674680582906,7.054085577313903,0.023823744,-0.017715093,0.007330383,36.22662,-18.501366,36.98231
243198712000.0,6.526836886175659,1.5104083317053958,7.049438622764868,0.020158553,-0.013744468,0.003970624,36.21058,-18.494719,36.983673
243203739000.0,6.534822741975417,1.5096947298788574,7.065732950605712,0.015882496,-0.0106901415,0.0067195175,36.18954,-18.486504,36.98356
243208992000.0,6.5392712326465645,1.5052463321071714,7.087974939464144,0.0125227375,-0.004886922,0.0106901415,36.168533,-18.4781,36.98158
243213897000.0,6.546335939361804,1.5116240511520294,7.091036632565314,0.0125227375,-0.009468411,0.009773844,36.15522,-18.473557,36.985043
243218748000.0,6.555293196519811,1.525060007037501,7.082079328641666,-0.00030543262,-0.005192355,0.008857546,36.138744,-18.464722,36.985195
243223742000.0,6.5601125,1.5396043382462885,7.074821511481363,0.0021380284,-0.0036651916,0.01282817,36.126263,-18.458883,36.984375
243228727000.0,6.5601125,1.5549008823560824,7.069722574708961,0.007330383,0.00061086525,0.007941248,36.116142,-18.452639,36.98073
243233988000.0,6.566054431867818,1.5550775681321811,7.052828092773716,-0.0076358155,-0.00030543262,0.010995574,36.10861,-18.443306,36.982174
243238842000.0,6.57488275671826,1.5462492432817396,7.030757165416389,-0.00061086525,0.0033597588,0.016493361,36.100636,-18.44037,36.981133
243244697000.0,6.593150129247764,1.5349238810099948,7.030212142240925,-0.017104227,0.0027488936,0.013439035,36.09777,-18.43363,36.980526
243248737000.0,6.609432243082588,1.5267827603366648,7.042423780746975,-0.01160644,-0.0036651916,0.012217305,36.09283,-18.431911,36.981426
