timestamp,acc_x,acc_y,acc_z,gyro_x,gyro_y,gyro_z,ori_azimuth,ori_pitch,ori_roll
979512581000.0,6.35835398788629,9.507857003883784,-3.217830273143618,1.4563028,5.861252,-2.960253,234.18414,21.776907,-37.375805
979517605000.0,6.351177965788688,9.465279203334925,-3.196780571357833,1.4563028,5.2219815,-3.7507126,234.31163,21.911531,-37.111897
979522595000.0,6.3440505075349,9.422989548729268,-3.175873323764069,6.8462725,0.745561,0.035124753,234.2053,19.892012,-37.431458
979527676000.0,6.336793069581494,9.379928679981504,-3.154584801715189,-1.1774428,0.7556403,0.026267206,236.20102,21.65963,-38.122986
979532556000.0,6.329822729645925,9.338571262250923,-3.134138435330907,-1.1774428,0.766025,0.03726278,236.19107,19.781988,-38.189697
979537558000.0,6.322678131211967,9.29617990907708,-3.113180909787018,-1.1911873,0.77182823,0.037873644,236.18146,19.63502,-38.256416
979542638000.0,6.315422121606908,9.253127515209998,-3.0918965775673146,-1.2027937,0.7620544,0.033292156,236.15741,19.481617,-38.325348
979547714000.0,6.308171825395239,9.210109020865648,-3.07062900466432,-1.1969905,0.74097955,0.0290161,236.12068,19.322456,-38.39565
979552591000.0,6.301205770504713,9.168777027777114,-3.0501952077675694,-1.1640037,0.7162395,0.029626964,236.0704,19.15509,-38.465008
979558417000.0,6.292884213032454,9.119402372920892,-3.0257852629817443,-1.1270463,0.7098254,0.029626964,236.01024,18.981726,-38.53539
979562552000.0,6.286977992615737,9.084358741298772,-3.0084603193344077,-1.1365148,0.820392,0.05009095,235.94595,18.802326,-38.63446
979567693000.0,6.279634853761484,9.040789379710056,-2.9869204075349,-1.2269229,0.80664754,0.04153884,235.86081,18.63297,-38.697918
979572656000.0,6.272545960913077,8.99872854688283,-2.9661262853289183,-1.2052372,0.8127562,0.043982297,235.77332,18.430634,-38.801353
979577561000.0,6.265539912268822,8.957159257135187,-2.9455751732152087,-1.1948525,0.8127562,0.05375614,235.67233,18.245792,-38.901474
979582558000.0,6.258402455576602,8.914810278364753,-2.9246385968172053,-1.1630874,0.8145888,0.057421334,235.56277,18.047667,-39.00521
979587544000.0,6.251280710716203,8.872554523281828,-2.9037481085401504,-1.1475104,0.8038987,0.06291912,235.43652,17.84387,-39.108795
979592712000.0,6.2438990064565685,8.828756339914687,-2.882095071352861,-1.1255192,0.79381937,0.06963864,235.29808,17.62615,-39.215252
979597593000.0,6.236927238172652,8.787390447303425,-2.8616445151394023,-1.0897835,0.77182823,0.086132,235.14026,17.394413,-39.318924
979602767000.0,6.229536963822932,8.743541414652189,-2.8399663389770518,-1.044885,0.6918049,0.09193522,234.96344,17.151905,-39.405407
979607568000.0,6.222679463406813,8.702853512495526,-2.819850969097761,-0.91874135,0.59559363,0.09621128,234.76553,16.876501,-39.48443
979612554000.0,6.215557718546414,8.6605977574126,-2.7989604808207056,-0.7678576,0.46578476,0.10354166,234.53871,16.579395,-39.534744
979617673000.0,6.2082460033558045,8.617214843198902,-2.777512745263095,-0.5928447,0.31978795,0.1255328,234.28038,16.241009,-39.556946
979622660000.0,6.2011228301470585,8.574950613235293,-2.7566180671568628,-0.43096542,0.172264,0.14110987,233.99527,15.866964,-39.543175
979628530000.0,6.192738425347512,8.525203063629041,-2.732023769887245,-0.2724459,-0.018020526,0.15607607,233.67023,15.445464,-39.478985
979632621000.0,6.186895052258083,8.49053232675695,-2.7148831787237,-0.08155051,-0.37690386,0.11362094,233.31369,14.9828415,-39.322533
979637607000.0,6.179773307397685,8.448276571674024,-2.693992690446645,0.3848451,-0.48838675,0.12675454,232.93542,14.404941,-39.184006
979642706000.0,6.172490159174024,8.405063155073977,-2.6726287514725766,0.42241332,-0.5326745,0.14630222,232.53223,13.876265,-38.95729
979647658000.0,6.165416978157439,8.363095545934256,-2.651880717387543,0.35460728,-0.5742133,0.1572978,232.1147,13.258023,-38.69399
979652607000.0,6.1583480821858965,8.321153361436583,-2.631145252790041,0.33261612,-0.63224554,0.18112154,231.68002,12.604919,-38.408863
979657615000.0,6.151194913661854,8.278711158978641,-2.610162588271089,0.344528,-0.67256266,0.20555615,231.24033,11.946561,-38.109917
979662603000.0,6.144070312104761,8.236438454134351,-2.58926372033568,0.3417791,-0.700357,0.21930063,230.79385,11.283386,-37.79094
979667778000.0,6.136678609406694,8.192580946602433,-2.5675813543441515,0.33933565,-0.72509706,0.23762658,230.3369,10.601717,-37.454838
979672687000.0,6.129666847369049,8.150977757332061,-2.547013482913733,0.35796702,-0.72265357,0.26542094,229.87537,9.901277,-37.110928
979677572000.0,6.122689365691743,8.109577965198067,-2.526546167383566,0.3680463,-0.7290677,0.2883284,229.41064,9.190471,-36.749035
979682580000.0,6.1155361971677005,8.067135762740126,-2.5055635028646144,0.3820962,-0.73364913,0.30268374,228.94415,8.46073,-36.379833
979687610000.0,6.108351604980014,8.024507112907171,-2.4844886621037663,0.3894266,-0.70249504,0.31306845,228.47774,7.7165656,-36.010124
979692566000.0,6.101272710570039,7.98250560424472,-2.4637238687020244,0.3903429,-0.6771441,0.3136793,228.01411,6.959555,-35.62784
979697654000.0,6.0940052741782,7.93938541133218,-2.442406017848904,0.41233405,-0.63591075,0.31978795,227.55263,6.1831136,-35.249622
979702713000.0,6.086779259888438,7.896510989959432,-2.42120967204192,0.4156938,-0.61453044,0.31612277,227.09973,5.402321,-34.8627
979707624000.0,6.079764641154099,7.854890850927694,-2.400633420953148,0.41996986,-0.59864795,0.32070425,226.62276,4.5900874,-34.419212
979712570000.0,6.0727000302275975,7.812974091072068,-2.3799105258431767,0.4147775,-0.57635134,0.33292156,226.15215,3.769039,-33.9729
979717659000.0,6.065431165487412,7.769845423278845,-2.35858848516088,0.4147775,-0.56413406,0.36254853,225.68112,2.9328425,-33.517834
979722585000.0,6.058395121527861,7.728098161036869,-2.3379493866344507,0.4089743,-0.5549711,0.38698313,225.21529,2.089047,-33.05746
979727573000.0,6.051270519970767,7.685825456192578,-2.3170505186990416,0.38056904,-0.5366451,0.40866885,224.74791,1.2376171,-32.59265
979732561000.0,6.044145918413673,7.643552751348288,-2.296151650763632,0.33841935,-0.5180137,0.4266894,224.28108,0.3791559,-32.119736
979737550000.0,6.037019888508233,7.601271571623315,-2.2752485929990454,0.2938262,-0.49663344,0.42913285,223.81996,-0.48095247,-31.642029
979742712000.0,6.029646754338683,7.55752423754027,-2.25362069478682,0.23365596,-0.4474588,0.40133846,223.3704,-1.3330263,-31.167105
979747703000.0,6.022517867736546,7.515226108053931,-2.2327092573638785,0.1432479,-0.39645153,0.36987892,222.92857,-2.1740417,-30.688587
979752555000.0,6.015587521554707,7.47410598698246,-2.212380206196556,0.04153884,-0.32803464,0.32375857,222.50711,-2.99822,-30.219774
979757557000.0,6.008442923120749,7.431714633808615,-2.191422680652667,-0.053450707,-0.23396139,0.28191432,222.0998,-3.8043034,-29.764008
979762546000.0,6.001316893215308,7.389433454083641,-2.1705196228880803,-0.12217305,-0.1282817,0.24923302,221.7087,-4.592394,-29.323036
979767623000.0,5.994065168655292,7.346406484858608,-2.149247860155908,-0.16890424,0.0030543262,0.1994475,221.33849,-5.3595824,-28.909492
979772640000.0,5.986899144996122,7.303888008474526,-2.1282274871743625,-0.19211712,0.13225232,0.16432275,220.97478,-6.1181483,-28.518171
979777628000.0,5.979774543439029,7.261615303630235,-2.1073286192389533,-0.18661933,0.20677789,0.13713925,220.62517,-6.871227,-28.142586
979782552000.0,5.972741356176172,7.219884991149624,-2.0866979003708783,-0.17195857,0.3555236,0.122478485,220.27629,-7.6221685,-27.818333
979787545000.0,5.9656096128773415,7.177569911901921,-2.065778083289584,-0.14905111,0.5152648,0.11209377,219.93185,-8.377722,-27.51202
979792675000.0,5.95828218585491,7.134093774000716,-2.044284259611025,-0.115453534,0.6618725,0.10140363,219.58537,-9.14166,-27.23757
979797636000.0,5.951196149703198,7.092049890934852,-2.023498517063397,-0.06536258,0.8005389,0.09040806,219.23273,-9.917878,-26.99928
979802562000.0,5.944160105743646,7.050302628692877,-2.0028594185369686,-0.028099801,0.90377516,0.087964594,218.87202,-10.702512,-26.785057
979807549000.0,5.9370369325349,7.008038398729269,-1.981964740430736,0.018936822,0.9773844,0.07574729,218.50778,-11.502868,-26.59519
979812546000.0,5.92989947584268,6.965689419958835,-1.9610281640327327,0.0888809,1.0189233,0.064751714,218.13544,-12.321395,-26.417734
979817687000.0,5.922556336988426,6.922120058370123,-1.939488252233226,0.1518,1.0192287,0.04886922,217.76224,-13.150701,-26.242744
979822604000.0,5.915533148164002,6.88044907005429,-1.918886862169391,0.24037547,0.9993755,0.03481932,217.38634,-14.00589,-26.066473
979827577000.0,5.9084299718321205,6.8383034884202365,-1.8980508416716384,0.33567044,0.9633345,0.015577064,217.01466,-14.878678,-25.879433
979832551000.0,5.901325367151891,6.7961494319055005,-1.8772106313447083,0.44959682,0.9025534,-0.027794369,216.65546,-15.776403,-25.675247
979837572000.0,5.894153630099332,6.753597055998688,-1.8561734990464545,0.5589417,0.84971356,-0.11148291,216.31418,-16.69204,-25.46069
979842644000.0,5.886909047281052,6.7106124611770674,-1.834922685460168,0.62980205,0.6976081,-0.19517145,216.00017,-17.623743,-25.199003
979847880000.0,5.879430215333791,6.666237985923518,-1.812984739888836,0.7101309,0.49693888,-0.26725355,215.7178,-18.578875,-24.90957
979852815000.0,5.872381316239112,6.624414449755399,-1.792307932899813,0.7666359,0.26389378,-0.33261612,215.47937,-19.538467,-24.571623
979857622000.0,5.865515245732908,6.58367569831464,-1.77216742404546,0.7840455,0.03023783,-0.37568212,215.28127,-20.504555,-24.179163
979862551000.0,5.858474916728314,6.541903011430617,-1.7515157560314998,0.7699956,-0.18234327,-0.3857614,215.12239,-21.47522,-23.728622
979867669000.0,5.851164629886052,6.498528572097602,-1.7300722103030663,0.7293731,-0.3631594,-0.35796702,214.99644,-22.444967,-23.220688
979872590000.0,5.844135727668237,6.456823684259039,-1.709454060922523,0.6469063,-0.43096542,-0.31337386,214.88905,-23.40294,-22.681507
979877576000.0,5.837013982807839,6.414567929176113,-1.688563572645468,0.5326745,-0.54092115,-0.2947425,214.81978,-24.34403,-22.080706
979883425000.0,5.828659573323589,6.364998352064193,-1.6640572617885694,0.45234573,-0.6218608,-0.2733622,214.75273,-25.279362,-21.461035
979887580000.0,5.822724785939924,6.329785222828422,-1.64664852155769,0.28710666,-0.66156703,-0.26328292,214.7038,-26.164225,-20.820297
979892585000.0,5.815575902460924,6.287368445012529,-1.6256784265262698,0.093767814,-0.6450737,-0.24495697,214.6612,-27.024174,-20.167173
979897617000.0,5.792026556974752,6.288903635321806,-1.6444198752914765,-0.09773844,-0.6096435,-0.22968534,214.63063,-27.841497,-19.506142
979902642000.0,5.760039652568635,6.313308448988696,-1.6837519108496142,-0.30482176,-0.5375614,-0.23671028,214.60362,-28.602285,-18.857668
979907630000.0,5.728288273627797,6.337533565520128,-1.7227943373897117,-0.4801401,-0.43066,-0.22540927,214.6188,-29.09792,-18.149555
979912580000.0,5.6967787857053525,6.361574128236765,-1.7615393276410116,-0.6377433,-0.29993483,-0.22113322,214.63039,-29.543152,-17.465946
979917601000.0,5.664817343511698,6.385959515186308,-1.8008400541161178,-0.7583892,-0.13469578,-0.20586158,214.62138,-29.954803,-16.81272
979922849000.0,5.631410920760793,6.411447368345281,-1.8419175710532536,-0.84971356,0.03634648,-0.1908954,214.59663,-30.333344,-16.191372
979927630000.0,5.600977211314893,6.4346671522540175,-1.8793397525464788,-0.91782504,0.25411993,-0.1777618,214.54126,-30.687687,-15.618753
979932629000.0,5.569155811289782,6.458945692258154,-1.9184682790649128,-0.94959,0.4908302,-0.1591304,214.45627,-31.029737,-15.088234
979937567000.0,5.537722710004727,6.482927974822752,-1.9571193420671185,-0.9618073,0.7486154,-0.1554652,214.33871,-31.359173,-14.614774
979942597000.0,5.505703977833031,6.507357071886324,-1.9964905139790448,-0.93676186,1.0161743,-0.12614368,214.17493,-31.694578,-14.192657
979947928000.0,5.471769214173527,6.533248029430243,-2.0382176943890813,-0.8961393,1.2825116,-0.09040806,213.97086,-32.03243,-13.829037
979953590000.0,5.435727452432744,6.560746547834607,-2.082535701419962,-0.84391034,1.5005904,-0.049785517,213.72542,-32.383804,-13.5105715
979957618000.0,5.410087004482925,6.580309252202812,-2.114063948032535,-0.76083267,1.681712,-0.011911872,213.4362,-32.758144,-13.239146
979962551000.0,5.378685730963447,6.604267251370726,-2.152675874680952,-0.6768387,1.779756,0.034208454,213.11394,-33.1515,-12.989074
979967615000.0,5.34645056998582,6.628861475531748,-2.192313173798645,-0.57848936,1.7947221,0.06505715,212.77039,-33.573975,-12.755195
979972659000.0,5.314342720070506,6.653358566106035,-2.2317939275011818,-0.46639562,1.7809776,0.07513642,212.40927,-34.02569,-12.529868
979977628000.0,5.282712286638865,6.67749140573007,-2.2706876358968806,-0.3753767,1.6942347,0.058948494,212.05693,-34.499157,-12.286385
979982610000.0,5.2509991010167205,6.701687382185481,-2.309683098812431,-0.3210097,1.5427402,-0.02107485,211.731,-34.989414,-12.029864
979987569000.0,5.219432323116236,6.72577165501615,-2.348498534500552,-0.23854288,1.3292428,-0.13591751,211.4432,-35.50863,-11.744116
979992643000.0,5.187133506607452,6.750414445970537,-2.3882141063258238,-0.15790866,1.112691,-0.24220806,211.20012,-36.03678,-11.432081
979997665000.0,5.155165698860682,6.774804689599417,-2.4275226600716877,-0.089186326,0.89888823,-0.31612277,211.0148,-36.577984,-11.08358
980002588000.0,5.123828080872361,6.798714121973964,-2.4660563140125253,-0.0033597588,0.68477994,-0.3390302,210.883,-37.141544,-10.693542
980007616000.0,5.091822079806898,6.8231335056788645,-2.5054118313829368,0.082161374,0.48838675,-0.3277292,210.79836,-37.72019,-10.264956
980012637000.0,5.059860637613243,6.847518892628408,-2.544712557858043,0.14813483,0.29718593,-0.3136793,210.75977,-38.31433,-9.792544
980017626000.0,5.028102893119289,6.871748865839176,-2.5837628116688984,0.1826487,0.13041973,-0.32436943,210.76,-38.920696,-9.284467
980022572000.0,4.996618867409308,6.895770001838467,-2.6224764928371678,0.17134771,0.0106901415,-0.32803464,210.78716,-39.531437,-8.741517
980027636000.0,4.964383706431681,6.920364225999488,-2.6621137919548605,0.14569137,-0.048258353,-0.3381139,210.84338,-40.143883,-8.179798
980032615000.0,4.932689617468883,6.94454563241689,-2.701085773058137,0.103847094,-0.057726767,-0.33383787,210.91629,-40.745827,-7.602576
980037615000.0,4.9008618518906575,6.9688290291003625,-2.740222126847329,0.06291912,-0.030543262,-0.32895094,211.00145,-41.33664,-7.0244126
980042647000.0,4.86883038861273,6.993267839522609,-2.779608953300772,0.00030543262,0.030543262,-0.3005457,211.08182,-41.9068,-6.4484253
980047762000.0,4.836270584426206,7.018109754329801,-2.819645443227115,-0.036957346,0.10445796,-0.27763826,211.16031,-42.468243,-5.883368
980052595000.0,4.805505866218292,7.041582085564046,-2.8574746427997475,-0.05955936,0.20158553,-0.2657264,211.22414,-43.01237,-5.335053
980057557000.0,4.773919991658461,7.065680928432724,-2.896313560300141,-0.076052725,0.2843578,-0.24465153,211.27478,-43.544155,-4.795216
980062566000.0,4.742034936102194,7.090008035230227,-2.935520359526154,-0.096516706,0.35124752,-0.22693644,211.31252,-44.063763,-4.272767
980067726000.0,4.709188682025465,7.1150685006075705,-2.9759090766366,-0.09193522,0.37507126,-0.21899518,211.34473,-44.581104,-3.7584782
980072706000.0,4.677488227509552,7.139254763704309,-3.0148888850106346,-0.0870483,0.38056904,-0.21563543,211.3691,-45.087833,-3.2537408
980077559000.0,4.646596198239326,7.162824228525287,-3.052874629998424,-0.070554934,0.3735441,-0.21838433,211.39525,-45.5938,-2.753259
980082586000.0,4.614596562726978,7.187238755550851,-3.0922223200980774,-0.051618114,0.3484986,-0.22449298,211.42842,-46.096214,-2.252754
980087563000.0,4.582915204870412,7.21141044860958,-3.1311786466598392,-0.008246681,0.31612277,-0.23854288,211.47107,-46.604298,-1.7542691
980093023000.0,4.548159284858989,7.237927917787931,-3.1739155449976364,0.040011674,0.27580565,-0.25289822,211.52623,-47.113014,-1.2534858
980097662000.0,4.520079090075712,7.262245375814879,-3.2084287116010173,0.11789699,0.22510384,-0.27855456,211.59969,-47.636044,-0.7527827
980102890000.0,4.516519746216188,7.32427971291366,-3.212496538464233,0.19975294,0.17348573,-0.3051272,211.6892,-48.16732,-0.2507114
980107606000.0,4.513308983851704,7.380238766807663,-3.216165985955995,0.30024028,0.10293079,-0.35124752,211.70547,-49.10667,-0.06957318
980112630000.0,4.5098885279316105,7.4398524832545405,-3.2200750835383967,0.38789943,0.044593163,-0.38331795,211.73433,-50.051933,0.120408654
980117670000.0,4.506457178839797,7.499656052301567,-3.2239966304761567,0.48747048,0.00030543262,-0.41141775,211.78517,-51.01524,0.3154539
980122666000.0,4.503055785970213,7.558937526698184,-3.227883941686682,0.5696318,-0.037873644,-0.44868052,211.85704,-51.98436,0.51416045
980127597000.0,4.499698646610742,7.617447724906693,-3.2317206773910656,0.657291,-0.08857546,-0.46761733,211.9456,-52.96885,0.7236504
980132575000.0,4.496309508559343,7.676515615128141,-3.235593983076813,0.74097955,-0.15088372,-0.47586402,212.05257,-53.960785,0.93824536
980137546000.0,4.492925136270572,7.735500444837024,-3.239461842169592,0.79351395,-0.2519819,-0.4886922,212.18692,-54.953663,1.1644387
980142649000.0,4.489450895315111,7.796051558497139,-3.243432408444074,0.84513205,-0.37293324,-0.4999932,212.34471,-55.95452,1.4037615
980147657000.0,4.486041332566737,7.855475422343867,-3.247329056671118,0.89858276,-0.5143485,-0.50426924,212.53584,-56.954884,1.6616778
980152707000.0,4.482603175242597,7.915397649265986,-3.251258384455977,0.91904676,-0.68203104,-0.51068336,212.76862,-57.944267,1.9388734
980157548000.0,4.479307309974052,7.972839926598656,-3.255025092536472,0.95417154,-0.8347474,-0.5012149,213.03508,-58.935932,2.236608
980162608000.0,4.475862344417588,8.03288081139587,-3.2589622011684294,0.9602802,-0.9630291,-0.49296826,213.34317,-59.907875,2.5513442
980167692000.0,4.472401039103544,8.093206475093307,-3.262917983833424,0.9654725,-1.0522153,-0.49938235,213.6859,-60.871788,2.877785
980172833000.0,4.468900926865247,8.154208488678776,-3.266918117326881,0.9819659,-1.0803152,-0.49846604,214.04926,-61.82181,3.2135348
980177594000.0,4.465659527455301,8.2107015030107,-3.270622578630586,0.9810496,-1.0965031,-0.48197266,214.43716,-62.749073,3.5576305
980182555000.0,4.462281963398856,8.269567674844488,-3.274482656876266,0.95356065,-1.0622946,-0.46731192,214.82573,-63.654003,3.8938203
980187561000.0,4.458873762296947,8.328967807116198,-3.2783777489338903,0.9242391,-1.0045679,-0.44868052,215.21585,-64.5373,4.229532
980192712000.0,4.455366841826325,8.39008847857676,-3.282385663274446,0.88056225,-0.90041536,-0.44348818,215.59071,-65.38842,4.551018
980197970000.0,4.451787073269825,8.452478789300821,-3.286476832678958,0.81336707,-0.7461719,-0.42821655,215.93936,-66.20254,4.8630347
980202606000.0,4.448630776763943,8.507488580194078,-3.2900840333939296,0.743423,-0.56107974,-0.40958515,216.25645,-66.98232,5.1582937
980208454000.0,4.444649322500267,8.576879705548645,-3.294634272777267,0.657291,-0.3585779,-0.3631594,216.52786,-67.71515,5.44316
980212554000.0,4.441857947247005,8.625529434336901,-3.2978244200877462,0.5815437,-0.129198,-0.27855456,216.741,-68.40633,5.7186327
980217635000.0,4.438398684402658,8.685819500671808,-3.301777868498611,0.516792,0.09987647,-0.18295415,216.89801,-69.05116,5.987542
980222623000.0,4.435002738118935,8.745006048768351,-3.3056589550314577,0.45814893,0.31948254,-0.07971791,216.99048,-69.64787,6.258802
980227570000.0,4.431634705587744,8.80370609957701,-3.309508140091199,0.39614612,0.5186246,0.025045475,217.02101,-70.195595,6.5361233
980232570000.0,4.42823058942523,8.863035037123662,-3.3133985636405643,0.32895094,0.6881397,0.13775012,216.9936,-70.693085,6.826096
980237554000.0,4.424837366434437,8.922174122070167,-3.317276537834571,0.23854288,0.8206975,0.22479841,216.91898,-71.13701,7.1232224
980242664000.0,4.421358359716347,8.982808296242847,-3.3212525507020225,0.11942416,0.9272934,0.30940324,216.7997,-71.5205,7.438052
980247952000.0,4.417758166462873,9.045554580592189,-3.325367062647831,-0.048563786,0.9969321,0.37720928,216.65273,-71.83654,7.7638836
980252568000.0,4.41461548642164,9.100327055735258,-3.3289587016686046,-0.23304509,1.029308,0.43890667,216.48483,-72.085686,8.104967
980257553000.0,4.411221582607614,9.159478006469271,-3.3328374539473216,-0.4560109,1.010982,0.5036584,216.31084,-72.25214,8.462756
980262577000.0,4.40780112668752,9.219091722916149,-3.3367465515297234,-0.71776664,0.9379836,0.569021,216.14313,-72.335106,8.837417
980267624000.0,4.404365011833078,9.27897835247574,-3.340673545060453,-0.9984592,0.8723156,0.634689,215.97841,-72.33248,9.228088
980272680000.0,4.4009227695695445,9.338971774122918,-3.3446075413535703,-1.1597277,0.6985244,0.66859204,215.86688,-72.27629,9.637816
980278829000.0,4.396736387512885,9.411934501517791,-3.3493919842345794,-1.4737124,0.40866885,0.766025,215.80171,-72.085396,10.091837
980282583000.0,4.394180577098069,9.45647866782782,-3.352312914235443,-1.8945986,0.34300083,0.7877107,215.7303,-71.83069,10.525553
980287608000.0,4.390759440354743,9.516104250062206,-3.3562227899025547,-1.996613,0.30848694,0.8200866,215.72888,-71.55385,11.002007
980292592000.0,4.387366217363949,9.57524333500871,-3.3601007640965617,-2.1310034,0.34574974,0.82344633,215.73065,-71.17279,11.46937
980297650000.0,4.41696080134622,9.578189186399724,-3.337181745012081,-2.1783454,0.37598756,0.8032878,215.74811,-70.78732,11.935559
980302640000.0,4.463340231816521,9.551413416512837,-3.3006041485779893,-2.1517727,0.3866777,0.76174897,215.76627,-70.39336,12.38883
980307630000.0,4.509719662286823,9.524637646625946,-3.264026552143897,-2.0906863,0.4089743,0.70432764,215.75874,-70.137505,12.714478
980312610000.0,4.556006148006683,9.497915535596546,-3.2275222575062656,-1.958434,0.44959682,0.60994893,215.75348,-69.915504,13.010653
980317606000.0,4.60244134532725,9.471107570395162,-3.190900679994297,-1.7705929,0.5027421,0.50701815,215.74771,-69.728935,13.280984
980322698000.0,4.649768812252055,9.443784480161888,-3.1535754052363014,-1.5311338,0.6010914,0.37904188,215.73087,-69.60146,13.507805
980327627000.0,4.695581279744663,9.417336029305678,-3.117444949760622,-1.2400564,0.6753115,0.23945917,215.71844,-69.54271,13.697771
980332617000.0,4.741960710214965,9.39056025941879,-3.0808673533265294,-0.9392053,0.6789767,0.09254608,215.71204,-69.556946,13.846429
980337605000.0,4.788321551735178,9.363795221303398,-3.044304417251729,-0.65484756,0.55863625,-0.03756821,215.73233,-69.644844,13.964158
980342610000.0,4.834840399331142,9.336938963130276,-3.0076168681229456,-0.43799037,0.30970868,-0.13958271,215.80003,-69.79465,14.058358
980348493000.0,4.889519796015868,9.30537145726964,-2.964493421264877,-0.2489276,0.04795292,-0.19028452,215.91418,-70.00049,14.140994
980352629000.0,4.927961744798467,9.28317815381229,-2.934175798248563,-0.08246681,-0.1133155,-0.2321288,216.07996,-70.25016,14.2091
980357619000.0,4.974341175268768,9.2564023839254,-2.897598201814471,0.084910266,-0.23090707,-0.30207285,216.316,-70.537834,14.270777
980362555000.0,5.020218704086686,9.229916371868953,-2.8614164350812685,0.24404067,-0.2687807,-0.38087448,216.58093,-70.84948,14.323865
980367675000.0,5.067806416312727,9.202443036834708,-2.823885915293182,0.39095375,-0.31581733,-0.45448375,216.88841,-71.18546,14.366986
980372679000.0,5.114315969433647,9.175592144547334,-2.787205696344044,0.45845437,-0.34513888,-0.48533243,217.20555,-71.52395,14.401206
980377569000.0,5.159765952399534,9.149352963235332,-2.7513611178745627,0.5849035,-0.37873647,-0.5314528,217.54411,-71.897514,14.413503
980382611000.0,5.206628695572131,9.1222981672895,-2.714402352098873,0.6762278,-0.38545597,-0.5479461,217.88445,-72.25455,14.425535
980387569000.0,5.25271070284102,9.095694105746574,-2.678059321413456,0.7867944,-0.38973203,-0.5580254,218.2368,-72.62135,14.427976
980392619000.0,5.29964780181397,9.068596382714754,-2.6410419142005974,0.8573494,-0.3744604,-0.5580254,218.58646,-72.973236,14.427834
980397605000.0,5.345990054384095,9.04184207637086,-2.6044936384850894,0.89675015,-0.34605515,-0.54336464,218.93393,-73.3105,14.42842
980402583000.0,5.392257951153868,9.015130697112957,-2.5680040042067507,0.91721416,-0.2910773,-0.51923543,219.26935,-73.62658,14.429719
980407617000.0,5.439046338526111,8.988118828253116,-2.5311038798682297,0.9071349,-0.23487769,-0.46975538,219.59517,-73.907364,14.441022
980412570000.0,5.485081873419779,8.961541596138934,-2.4947975000810434,0.8573494,-0.1826487,-0.41508293,219.90578,-74.152435,14.458522
980418073000.0,5.536229369587729,8.932013126862872,-2.4544595214884963,0.7965683,-0.13041973,-0.344528,220.19864,-74.35329,14.492314
980422735000.0,5.57956021224355,8.906997367501614,-2.4202862239783283,0.7076874,-0.07941248,-0.27916542,220.47617,-74.50975,14.53807
980427629000.0,5.625047373109613,8.880736722646617,-2.384412324790263,0.60048056,-0.051923547,-0.19456059,220.74414,-74.61376,14.607737
980432621000.0,5.671445392530004,8.85395022098823,-2.3478200679968784,0.46731192,-0.06719518,-0.122478485,221.01001,-74.675385,14.690986
980437562000.0,5.717369393723142,8.827437379503035,-2.311601650365445,0.36010507,-0.103847094,-0.052534413,221.274,-74.69288,14.795867
980442684000.0,5.764975694899271,8.799953312697292,-2.2740564702180666,0.24587326,-0.1853976,-0.006414085,221.55673,-74.674706,14.913527
980447702000.0,5.8116153706708085,8.773027298009435,-2.2372736287538832,0.15424347,-0.29626966,0.043676864,221.85968,-74.6209,15.050762
980452574000.0,5.856898053085901,8.746884702640912,-2.201560993518032,0.08032878,-0.44532076,0.081855945,222.19969,-74.544365,15.196592
980457552000.0,5.903165949855673,8.72017332338301,-2.1650713592396933,0.019547688,-0.5876524,0.116675265,222.57208,-74.44487,15.353748
980462541000.0,5.94953608585093,8.69340291938187,-2.128501092985247,-0.027488936,-0.64751714,0.13500121,222.96614,-74.33208,15.5142355
980467757000.0,5.99801606768121,8.665414459315734,-2.0902668759511336,-0.03940081,-0.77366084,0.16554448,223.42389,-74.20142,15.686411
980472627000.0,6.043280161146213,8.63928259571871,-2.0545689010745747,-0.051923547,-0.8698721,0.20097467,223.89258,-74.05985,15.861177
980477609000.0,6.089585235816162,8.612549752917811,-2.0180499460776518,-0.06719518,-0.9569204,0.226631,224.39818,-73.909966,16.038292
980482561000.0,6.135611476234786,8.58597788668938,-1.9817508964701116,-0.04795292,-1.0241156,0.24984388,224.92859,-73.7496,16.220491
980487605000.0,6.182492808357472,8.55891235897205,-1.9447774703351293,-0.04153884,-1.071763,0.26358834,225.48128,-73.58291,16.402672
980492638000.0,6.229271901254672,8.531905855997959,-1.9078846761762545,-0.0421497,-1.1178834,0.2669481,226.05574,-73.41202,16.583511
980497592000.0,6.270706886711479,8.523358,-1.9428082256773525,-0.032375857,-1.1551461,0.26145032,226.6439,-73.23936,16.76046
980502607000.0,6.310440259772492,8.523358,-2.012341589638056,-0.027183503,-1.174083,0.23640485,227.24242,-106.92896,16.927456
980507558000.0,6.306943414672686,8.471798930022574,-2.1059030410835216,-0.015577064,-1.1640037,0.21563543,227.95313,-107.361465,17.358017
980512559000.0,6.288141343105309,8.401291161644911,-2.20931453286878,-0.0076358155,-1.1316279,0.19608775,228.65936,-107.77652,17.770311
980517608000.0,6.234932963455399,8.300618552206572,-2.310569641746479,-0.0009162979,-1.0836749,0.15668693,229.379,-108.19417,18.18473
980522578000.0,6.167895410122065,8.188888985539906,-2.4088915017464787,0.0018325958,-1.001819,0.115453534,230.07552,-108.59524,18.582035
980527604000.0,6.067531481661413,8.061455001946968,-2.52286433867977,0.005192355,-0.89766645,0.06963864,230.78537,-108.99819,18.981464
980533574000.0,5.919111281772668,7.8971330489523455,-2.671284372519933,0.011301007,-0.7651087,0.008857546,231.45905,-109.37537,19.355032
980537552000.0,5.8143198498343,7.825320516114333,-2.7238317858533554,0.045814894,-0.6395759,-0.052534413,232.14352,-109.757095,19.73401
980542631000.0,5.6732741893744825,7.779984339581607,-2.733906520971417,0.0720821,-0.53969944,-0.094989546,232.79321,-110.118164,20.092588
980547564000.0,5.536743720107239,7.773069332975871,-2.716315585314269,0.09773844,-0.45540005,-0.09773844,233.4701,-110.50028,20.474308
980552742000.0,5.393950305630026,7.8075365812332445,-2.66707651233244,0.15027285,-0.37659842,-0.09254608,234.11609,-110.86541,20.838533
980557535000.0,5.280304954986308,7.8647898098224545,-2.6007294927391573,0.19547687,-0.33444872,-0.0870483,234.85501,-111.28731,21.265217
980562552000.0,5.182691887925095,7.953914791802844,-2.5073605125342286,0.20922135,-0.23976462,-0.09285152,235.54976,-111.699066,21.681194
980567671000.0,5.106329034092341,8.050893167581675,-2.407925280352804,0.21135938,-0.14202617,-0.09468412,236.41873,-112.24821,22.240808
980572569000.0,5.114772320313203,8.164878457294574,-2.298161325173252,0.2012801,-0.06169739,-0.08827003,237.25266,-112.788124,22.786417
980577997000.0,5.122823220653012,8.28829005373211,-2.175062019161882,0.18234327,-0.01038471,-0.076052725,238.42719,-66.32824,23.667253
980582562000.0,5.111583673476733,8.35198136875482,-2.0514268828605706,0.14294247,0.016798794,-0.06169739,239.54471,-65.45633,24.516207
980587547000.0,5.09931003871797,8.421532563801525,-1.9164167723541008,0.0852157,0.013439035,-0.044898596,241.24911,-63.786438,26.08252
980592646000.0,5.085399167587035,8.459359710684275,-1.7791667982793118,0.009773844,-0.011911872,-0.03604105,242.82501,-62.175735,27.546278
980597582000.0,5.071212167346939,8.478275612244898,-1.6467546972789116,-0.048258353,-0.05589417,-0.029321533,244.2988,-60.639324,28.916319
980603636000.0,5.061944439102499,8.514354913105558,-1.5951404516777157,-0.12095132,-0.119729586,-0.032375857,245.62543,-58.991695,30.379856
980607566000.0,5.0581059854564,8.54122481009689,-1.5913019178684344,-0.20066923,-0.17898351,-0.029932396,246.87967,-57.448406,31.741707
980612673000.0,5.080151916069641,8.521748802081248,-1.6672862116670002,-0.26816985,-0.226631,-0.025961773,247.84296,-56.12727,32.925804
980617599000.0,5.113194364778867,8.479265625575344,-1.7758546799079449,-0.3118467,-0.26511553,-0.01985312,248.78493,-54.88584,34.0392
980622648000.0,5.158257364892316,8.412323120568043,-1.89510531560237,-0.3576616,-0.26328292,-0.031154128,249.48767,-53.997387,34.86331
980627598000.0,5.207298955694536,8.336531279131007,-2.015479604608295,-0.37110063,-0.2406809,-0.028099801,250.18823,-53.14664,35.656326
980632556000.0,5.26146984021839,8.286824359118278,-2.15263433193183,-0.37873647,-0.19425514,-0.022296581,250.87508,-52.33671,36.410786
980637550000.0,5.320038874915808,8.25753971435861,-2.303938007082356,-0.376293,-0.13958271,-0.029321533,251.54782,-51.567867,37.12831
980642685000.0,5.376696663086336,8.253208265125766,-2.4286223169272603,-0.36102137,-0.06352998,-0.023823744,252.24721,-50.75687,37.887596
980647573000.0,5.428408778925901,8.26514207953773,-2.528068735078178,-0.344528,0.01985312,-0.025045475,252.92157,-49.98956,38.606197
980652617000.0,5.476219787394776,8.271739882797323,-2.6245494684869413,-0.32528573,0.10873401,-0.030543262,253.6105,-49.189404,39.3605
980657613000.0,5.507201241830348,8.261412515648608,-2.702003104575869,-0.28924468,0.13744467,-0.040011674,254.28842,-48.43355,40.0777
980662557000.0,5.5258174,8.269363459372027,-2.7485435,-0.26206118,0.21410827,-0.049785517,254.91406,-47.753696,40.728676
980667615000.0,5.5258174,8.306234402473834,-2.7485435,-0.2519819,0.26542094,-0.058337633,255.53932,-47.109455,41.349804
980673381000.0,5.514011246557377,8.343627399999999,-2.7367373465573768,-0.24617869,0.30604348,-0.086132,256.14526,-46.518253,41.925755
980677587000.0,5.492000306229508,8.365638800000001,-2.714726406229508,-0.24251351,0.30787608,-0.09315695,256.74744,-45.951023,42.4814
980682595000.0,5.464272499042646,8.386560209167392,-2.689721333014216,-0.24312437,0.29871312,-0.10995574,257.3463,-45.425907,42.99668
980687611000.0,5.422464641079199,8.358687721787062,-2.675785380359733,-0.2565634,0.2843578,-0.12461651,257.9496,-44.924988,43.490852
980692695000.0,5.380651358040816,8.32944180217687,-2.663433761768707,-0.2761111,0.27397305,-0.13927728,258.5596,-44.430904,43.978508
980697648000.0,5.350534692081633,8.282115831020407,-2.6849457302040816,-0.3042109,0.26511553,-0.15027285,259.17905,-43.961067,44.44475
980702537000.0,5.320807177469387,8.235401380589568,-2.7061797325623584,-0.33292156,0.26847526,-0.15454891,259.7986,-43.50984,44.89303
980707609000.0,5.352012585256888,8.097380874571854,-2.8393324254281462,-0.36193767,0.27672195,-0.1518,260.4242,-43.07836,45.323254
980712640000.0,5.396857038719285,7.940425193801191,-2.9962881061988087,-0.37201694,0.30207285,-0.14446963,261.04596,-42.665665,45.735867
980717677000.0,5.420775147794994,7.825426966507747,-3.0421314048867703,-0.37201694,0.3323107,-0.13103059,261.66653,-42.266884,46.136703
980722608000.0,5.434846227453317,7.731618560687326,-3.037440979698053,-0.36010507,0.36071593,-0.13194689,262.28308,-41.88762,46.51947
980727637000.0,5.430116435211684,7.649034416401855,-3.0073186084377777,-0.35918877,0.37782016,-0.1386664,262.89557,-41.582985,46.841133
980732620000.0,5.41598818197967,7.57368238835488,-2.9649332586302184,-0.32253686,0.38026363,-0.13041973,263.50565,-41.28862,47.156303
980737603000.0,5.395191668724809,7.567462744807479,-2.926100085078467,-0.2929099,0.37782016,-0.14019357,264.1073,-41.01789,47.448586
980743272000.0,5.367256979675843,7.604709061692822,-2.8841981973501416,-0.26389378,0.36102137,-0.14294247,264.71637,-40.754913,47.737457
980747738000.0,5.328914809680403,7.632946441989518,-2.847118455246121,-0.22052236,0.3475823,-0.13836098,265.31848,-40.50092,48.01815
980752627000.0,5.256741895488645,7.661815507183229,-2.799003028393793,-0.17501289,0.3368922,-0.118202426,265.92868,-40.25432,48.29523
980757609000.0,5.1918218161559055,7.687013689378161,-2.7510188210130915,-0.15454891,0.33628133,-0.110872045,266.54453,-40.01627,48.562447
980762608000.0,5.141967314192205,7.704818815531092,-2.7047255301993456,-0.13805555,0.32284227,-0.10170906,267.1713,-39.783752,48.82884
980767646000.0,5.091723869324605,7.722762849449569,-2.658071079485272,-0.12217305,0.3203988,-0.09040806,267.79114,-39.563225,49.080807
980772646000.0,5.037751995350319,7.74918603970276,-2.612144176475584,-0.1282817,0.31612277,-0.086132,268.42047,-39.3506,49.326214
980777563000.0,4.98276474589172,7.779179217728237,-2.56715446163482,-0.13805555,0.30573806,-0.07238753,269.05444,-39.141487,49.569824
980782611000.0,4.92605886066492,7.823431864052759,-2.5229274235884,-0.14660765,0.28893927,-0.059864793,269.68604,-38.947884,49.794872
980787573000.0,4.870248845234438,7.870655723263167,-2.4799966424880298,-0.15241088,0.2764165,-0.053145275,270.32245,-38.760048,50.01473
980792599000.0,4.8200016009543605,7.904220122517245,-2.427617818246244,-0.16493362,0.2519819,-0.038789943,270.97046,-38.57097,50.234367
980797638000.0,4.7744025315033545,7.92701960962865,-2.368339075574034,-0.17073683,0.22785273,-0.032986723,271.627,-38.391006,50.44632
980802589000.0,4.7282383213936905,7.972800304022944,-2.3350595873188125,-0.16920967,0.20158553,-0.017104227,272.29218,-38.21509,50.653355
980807615000.0,4.679735804627548,8.047419437718005,-2.331328558561352,-0.17073683,0.18845193,-0.009162978,272.96558,-38.04795,50.852455
980812737000.0,4.630306856980079,8.123463847345167,-2.3275262646306487,-0.17837265,0.15699236,-0.0009162979,273.65396,-37.881035,51.050537
980817627000.0,4.629906276941946,8.160870168642681,-2.3487079746933768,-0.18387043,0.13072516,0.0106901415,274.34787,-37.719913,51.243896
980822592000.0,4.63476613098937,8.194888842497956,-2.3730073464227317,-0.17165314,0.10873401,0.017715093,275.05667,-37.567066,51.43154
980827592000.0,4.630767183381866,8.171303438347223,-2.3926766664725374,-0.16890424,0.08307768,0.026572637,275.7889,-37.42881,51.60557
980832558000.0,4.625991765287679,8.142651079375439,-2.411778338849282,-0.17470746,0.06169739,0.03145956,276.53198,-37.298283,51.773277
980837563000.0,4.650781991987791,8.115101314813048,-2.4721187617417018,-0.14874569,0.030848695,0.01863139,277.2968,-37.197983,51.91532
980842632000.0,4.6785644054559326,8.087319239793972,-2.5369438935520794,-0.13408493,-0.00030543262,0.004886922,278.07373,-37.103046,52.052147
980847665000.0,4.711074711189366,8.030795139559567,-2.5794488820851105,-0.10720685,-0.013439035,0.005192355,278.8589,-37.02253,52.176594
980852605000.0,4.743925196657078,7.969786948110307,-2.61699239205436,-0.055283304,-0.011911872,0.0009162979,279.65494,-36.95514,52.289658
980858624000.0,4.78500719716653,7.893491925480769,-2.643994154337152,-0.020463986,-0.014660766,-0.004886922,280.46515,-36.90805,52.385315
980867696000.0,4.813098044284343,7.781361671392891,-2.638137071412104,0.05467244,-0.014966198,-0.019242255,281.27505,-36.87317,52.470554
980872564000.0,4.808619577809798,7.723142823054755,-2.611266833717579,0.09987647,-0.021685716,-0.020463986,282.0843,-36.851143,52.542633
980877551000.0,4.818704759821791,7.679602266342649,-2.5528687243013364,0.13500121,-0.03634648,-0.02565634,282.89343,-36.84036,52.60436
980882537000.0,4.833209647731875,7.64092259890644,-2.485179382017011,0.17195857,-0.070554934,-0.03145956,283.7132,-36.8352,52.660675
980887613000.0,4.843856966214222,7.628930326172912,-2.440538116583063,0.19914207,-0.109650314,-0.030848695,284.5264,-36.831043,52.713676
980892594000.0,4.853240617586309,7.624238573974624,-2.403003364119209,0.22785273,-0.12889257,-0.022296581,285.3436,-36.830757,52.761696
980897559000.0,4.876972225418711,7.647745542294028,-2.372670542463204,0.24373524,-0.16371189,-0.01038471,286.1702,-36.81737,52.819973
980902703000.0,4.906141733860599,7.681082160666554,-2.34350099050922,0.26633725,-0.19394971,-0.0030543262,287.0005,-36.807755,52.87298
980907621000.0,4.941645913766376,7.744476402423581,-2.307996808471616,0.2687807,-0.21533,0.012217305,287.8335,-36.788704,52.93173
980912606000.0,4.988552423646288,7.853924689650656,-2.2610903530131004,0.27550024,-0.23182335,0.028710667,288.67444,-36.772236,52.98632
980917566000.0,5.024355220855098,7.974063552099052,-2.2148306742503387,0.28008172,-0.2724459,0.052534413,289.5368,-36.73877,53.055218
980922563000.0,5.052129511646354,8.103677360263106,-2.168540028477462,0.2843578,-0.31887165,0.06536258,290.4057,-36.70899,53.118053
980927573000.0,5.08748775952452,8.235460259524519,-2.116728702934448,0.2764165,-0.36560285,0.07360926,291.29163,-36.674706,53.182278
980932634000.0,5.13087940318313,8.37045600318313,-2.058873412991147,0.26053402,-0.4288274,0.087659165,292.20258,-36.640835,53.244286
980937609000.0,5.168717245610913,8.502746709074733,-1.9998352892843017,0.26908615,-0.4822781,0.09162979,293.13333,-36.611565,53.298542
980942621000.0,5.201931258303677,8.635602611209965,-1.9381522148675363,0.27152961,-0.54519725,0.09712757,294.09314,-36.584053,53.348724
980947547000.0,5.21936,8.737986264263075,-1.8796494748811408,0.2724459,-0.58123827,0.105068825,295.06683,-36.552708,53.39917
980952645000.0,5.21936,8.81052344205626,-1.8216194801703645,0.26206118,-0.64904433,0.11636983,296.07953,-36.526047,53.4426
980957602000.0,5.207175069117923,8.863184788038367,-1.7807088050686477,0.2489276,-0.70829827,0.1255328,297.09982,-36.50425,53.477318
980962612000.0,5.180103448843333,8.894768423547113,-1.7581491529151776,0.24801129,-0.7858781,0.13225232,298.15427,-36.487656,53.50387
980967634000.0,5.154407006322764,8.920502096071935,-1.7294933240321817,0.23823744,-0.86254174,0.13775012,299.21207,-36.489674,53.507984
980972574000.0,5.132017140160909,8.933935716516801,-1.6891919015996213,0.23762658,-0.9431759,0.15057829,300.3009,-36.494537,53.50546
980977574000.0,5.110889527859486,8.957237245053433,-1.6557459056607766,0.22785273,-1.0238101,0.15454891,301.4114,-143.48392,53.481907
980982554000.0,5.095750559707967,9.01779290688816,-1.6506995653793248,0.21166481,-1.0965031,0.16432275,302.54727,-143.46123,53.452488
980987520000.0,5.088730495258349,9.090677349362004,-1.6426154049779458,0.19456059,-1.180497,0.15485434,303.6993,-143.41754,53.396896
980992658000.0,5.100357607955261,9.195320999409262,-1.6271126959672335,0.17379116,-1.2638801,0.14752395,304.87488,-143.37128,53.333225
980997657000.0,5.111670168557025,9.297133690453686,-1.6120293868304978,0.122478485,-1.3460416,0.14263703,306.07925,-143.30762,53.24647
981002612000.0,5.095353363325378,9.41153948851432,-1.5977067579952269,0.076052725,-1.4407257,0.12461651,307.3155,-143.23222,53.141457
981007523000.0,5.071968486237073,9.52846362977327,-1.5836758317422437,0.018936822,-1.536326,0.10170906,308.5765,-143.14755,53.021095
981012557000.0,4.943388459101837,9.53310478421002,-1.6643392378209445,-0.02565634,-1.6285667,0.07147124,309.86273,-143.03415,52.865044
981017646000.0,4.779356223011828,9.500298620828923,-1.77681861685739,-0.0842994,-1.6917913,0.03634648,311.16226,-142.90652,52.689114
981022585000.0,4.649491917055297,9.365306977348434,-1.8883344674217188,-0.14446963,-1.7250835,-0.0076358155,312.47504,-142.74738,52.475163
981027597000.0,4.530716437241839,9.182575286475682,-2.002541523784144,-0.19486602,-1.7165314,-0.047647487,313.77704,-142.57394,52.242558
981032557000.0,4.415602083224827,8.911528266493056,-2.1519675096354165,-0.22571471,-1.6719382,-0.093767814,315.11047,-142.38359,51.986645
981037562000.0,4.30118140749783,8.573467018663194,-2.3287997641927083,-0.22815818,-1.5897768,-0.14844026,316.39886,-142.17465,51.71034
981042592000.0,4.2537155034455605,8.260532351053357,-2.47327501733609,-0.22571471,-1.4721853,-0.1872302,317.66904,-141.97476,51.43901
981047592000.0,4.230145903130538,7.958841073242764,-2.6052648283225044,-0.18692477,-1.4019357,-0.20097467,318.90094,-141.76398,51.153675
981052602000.0,4.213275243906757,7.693758905399823,-2.750897501947477,-0.13927728,-1.2275337,-0.2012801,320.01782,-141.55048,50.86527
981057564000.0,4.1992533844791975,7.446039291236353,-2.900464100118029,-0.1142318,-1.024421,-0.20830505,321.0705,-141.33005,50.571865
981062547000.0,4.231511069736716,7.300042747754906,-2.989598527142173,-0.047647487,-0.79412484,-0.20708331,322.02234,-141.13776,50.305183
981067611000.0,4.287227869123982,7.202538227620871,-3.0499585466730497,0.0061086523,-0.56413406,-0.1853976,322.87158,-140.94945,50.051342
981072597000.0,4.392867099320142,7.209412535839675,-3.094262908797565,0.058337633,-0.32284227,-0.15851954,323.60583,-140.77797,49.81623
981077572000.0,4.533069363906646,7.286765431070522,-3.12810487302892,0.12064589,-0.07544186,-0.106901415,324.2314,-140.62358,49.60797
981082550000.0,4.70959021400306,7.540399713860276,-3.057670799153493,0.17654006,0.15760323,-0.040011674,324.75644,-140.50063,49.438316
981087543000.0,4.909538960112188,7.906159548210097,-2.9211204222947478,0.21502456,0.36957347,0.0036651916,325.18066,-140.38919,49.291325
981092617000.0,5.063745070197045,8.33943427515834,-2.7501272901125966,0.26847526,0.52687126,0.0290161,325.5421,-140.31258,49.18526
981097626000.0,5.190337983682266,8.799388079521464,-2.564457874604152,0.29046643,0.61575216,0.056505036,325.8433,-140.25018,49.101807
981102578000.0,5.317464431437583,9.261094823481535,-2.3549415360056973,0.27916542,0.6200282,0.06994407,326.12335,-140.2023,49.04345
981107554000.0,5.448369023807102,9.736230681859803,-2.102828640858684,0.26267207,0.56230146,0.07147124,326.39203,-140.15982,48.991135
981112548000.0,5.523922376833977,10.131041488899614,-1.8816576603281852,0.2144137,0.4550946,0.05497787,326.69418,-140.10742,48.93672
981117814000.0,5.519054478301158,10.423115655019306,-1.6966773635907335,0.14813483,0.3277292,0.025961773,327.02747,-140.04927,48.873047
981122547000.0,5.482167053866988,10.604928928377973,-1.5524312001805596,0.052534413,0.172264,-0.02107485,327.32306,-139.90167,48.72391
981127659000.0,5.379038594523021,10.64421605085766,-1.4394808191995183,-0.07574729,0.018020526,-0.06169739,327.67075,-139.74509,48.56285
981132518000.0,5.281532428296407,10.59868418952784,-1.3923283315077588,-0.22785273,-0.108123146,-0.09865474,328.0264,-139.52982,48.34633
981137830000.0,5.1759974330926894,10.379171332503526,-1.4640919484026222,-0.38912117,-0.20861048,-0.11636983,328.4349,-139.3053,48.11973
981142807000.0,5.077117976931374,10.173502000912787,-1.5313298100904489,-0.5335908,-0.25228736,-0.13103059,328.85342,-139.05324,47.870544
981147606000.0,5.006864320851434,9.772261727193744,-1.7043969802780192,-0.6411031,-0.24984388,-0.14782938,329.294,-138.79324,47.616394
981152608000.0,4.945560471770946,9.3644045969944,-1.8930104421471368,-0.6936375,-0.2443461,-0.16371189,329.75156,-138.52899,47.359783
981157557000.0,4.982802851262155,9.075775475395345,-2.135086151890777,-0.77640975,-0.183565,-0.18936823,330.20624,-138.27489,47.118706
981162656000.0,5.022986808006907,8.788219045078616,-2.390187610797056,-0.8323039,-0.079107046,-0.19608775,330.6918,-138.078,46.930347
981167680000.0,5.084206094965009,8.622053087430702,-2.709401603199128,-0.86132,0.06536258,-0.19822577,331.13458,-137.87411,46.743206
981172652000.0,5.144791742806508,8.457607000363538,-3.025311629119331,-0.88239485,0.24953845,-0.21044308,331.58948,-137.72626,46.61118
981177573000.0,5.225252038757632,8.360590277409079,-3.305246492009557,-0.88331115,0.46731192,-0.22327125,331.9711,-137.5776,46.48798
981182527000.0,5.309215302946642,8.272428277940005,-3.582325671515795,-0.86467975,0.6765333,-0.24373524,332.2806,-137.42455,46.368843
981187555000.0,5.366642470440502,8.290166177596173,-3.7479120679689055,-0.8481864,0.86315256,-0.28680122,332.55008,-137.28107,46.257538
981192818000.0,5.406827998365557,8.385607750548136,-3.838329610703608,-0.8237518,0.98868537,-0.32375857,332.76,-137.13745,46.151062
981197683000.0,5.432343150407732,8.518913089700996,-3.8601271336756255,-0.8017606,1.0778717,-0.35094208,332.90192,-136.97525,46.024555
981202622000.0,5.451390794483037,8.680817119601329,-3.8458414752038657,-0.7788532,1.1496484,-0.37598756,333.0,-136.8093,45.896923
981207623000.0,5.443906647200967,8.785270325714862,-3.864096964478453,-0.77671516,1.1985176,-0.42149702,333.071,-136.61902,45.745052
981212623000.0,5.419800726943214,8.852766801751914,-3.9026664368908577,-0.7602218,1.248914,-0.44440445,333.1154,-136.43549,45.599934
981217736000.0,5.422165200324266,8.773459235092776,-4.009885564582958,-0.76144356,1.2950343,-0.47219884,333.14963,-136.23073,45.43514
981222695000.0,5.439276028373266,8.615183070617906,-4.151050901008827,-0.7687739,1.3384057,-0.49174652,333.16733,-136.02855,45.272636
981227620000.0,5.449203,8.523358,-4.232949,-0.77304995,1.3918564,-0.49357912,333.16006,-135.81053,45.094868
981232622000.0,5.449203,8.523358,-4.232949,-0.77091193,1.4315627,-0.5039638,333.14316,-135.59143,44.915195
981237610000.0,5.497262248223897,8.456608765339075,-4.281008136706135,-0.7687739,1.4859297,-0.5002986,333.09818,-135.38708,44.748974
981242689000.0,5.582938949427537,8.337612849985321,-4.366684639103631,-0.7779369,1.5344934,-0.4804455,333.04376,-135.19064,44.590363
981247588000.0,5.667430430543319,8.148694727165932,-4.45805264390602,-0.7684685,1.5567901,-0.4709771,332.97238,-134.99359,44.430367
981253466000.0,5.770757535425844,7.843881046292217,-4.576878496237151,-0.77579886,1.6245961,-0.44776422,332.86987,-134.81146,44.28774
981257611000.0,5.809558990457811,7.65121055803581,-4.577497894285408,-0.7641924,1.6762142,-0.40561453,332.7559,-134.65288,44.16529
981262621000.0,5.799270415353275,7.455731498531146,-4.438605084700332,-0.7657196,1.6933185,-0.3680463,332.63394,-134.50461,44.052864
981267647000.0,5.789703934632902,7.263309192785571,-4.349967560429951,-0.7870999,1.6459764,-0.3173445,332.50507,-134.40059,43.981876
981272573000.0,5.78110950501002,7.078526936673347,-4.315589482965932,-0.82772243,1.5470163,-0.25320363,332.39633,-134.31496,43.926758
981277852000.0,5.763961514496439,6.88349311472533,-4.309402435885046,-0.8732319,1.4150693,-0.1704314,332.29077,-134.26198,43.904537
981282613000.0,5.733038989013225,6.713419466734486,-4.363516673855544,-0.91629785,1.2690725,-0.09468412,332.23633,-134.22719,43.896233
981287518000.0,5.701181188657172,6.538201814267548,-4.419267637360122,-0.9398162,1.1169671,-0.02321288,332.2243,-134.23067,43.922592
981292684000.0,5.571004747178329,6.424288983775395,-4.466883117607224,-0.9431759,0.9450085,0.04917465,332.28397,-134.25659,43.965897
981297593000.0,5.438350934537247,6.322587773589165,-4.511101055154252,-0.9410379,0.7290677,0.098043874,332.42535,-134.29613,44.016796
981302632000.0,5.2832156903065455,6.337005690969345,-4.619559582850042,-0.8961393,0.5305365,0.13133603,332.61133,-134.3534,44.079536
981307622000.0,5.124845134658934,6.380997435422995,-4.742736651063242,-0.8491027,0.34422258,0.14385876,332.88034,-134.418,44.14342
981312612000.0,4.93552517755043,6.443744420905317,-4.927715974857639,-0.7852673,0.22937989,0.15302174,333.1919,-134.47581,44.195023
981317732000.0,4.722563469607181,6.519464037158576,-5.154875169529968,-0.6988298,0.17073683,0.16126843,333.55508,-134.53766,44.24462
981322653000.0,4.481941574537129,6.588171892713518,-5.229272259784989,-0.57818395,0.118507855,0.12950343,333.97034,-134.55867,44.245144
981327638000.0,4.211067412681665,6.65470253834362,-5.196007036213419,-0.4605924,0.0729984,0.0842994,334.40384,-134.57991,44.240944
981332612000.0,4.003945347783552,6.745957276887802,-5.095701664231123,-0.35430184,-0.008246681,0.03268129,334.89288,-134.54996,44.174168
981337621000.0,3.847515446703353,6.858391231600938,-4.939271610017324,-0.23335053,-0.093767814,0.01160644,335.39645,-134.52084,44.10024
981342699000.0,3.702383791897932,6.96387796355001,-4.761957935053083,-0.12492194,-0.19058995,-0.014660766,335.9246,-134.43753,43.964245
981347843000.0,3.5647517556900725,7.064808244794189,-4.569273026876513,0.008246681,-0.22876903,-0.03023783,336.45602,-134.35834,43.822998
981352640000.0,3.464933762697511,7.176768997428483,-4.391495435515852,0.06811147,-0.31673363,-0.058948494,337.01416,-134.23941,43.636677
981357621000.0,3.395964634008055,7.314707306248064,-4.209219539409274,0.18784106,-0.4175264,-0.10903945,337.58163,-134.1203,43.436256
981362610000.0,3.375592413465327,7.461450406914894,-4.037938893055555,0.2959642,-0.49449542,-0.16157386,338.1406,-133.96994,43.202538
981367671000.0,3.404237862903861,7.61900095212766,-3.875614347222222,0.4089743,-0.5748242,-0.21746802,338.7267,-133.81339,42.94781
981372563000.0,3.452551350716333,7.777525265329513,-3.729356655816619,0.51343226,-0.634689,-0.2761111,339.2957,-133.62506,42.65741
981377612000.0,3.5264437309455587,7.9484008822349566,-3.590808527277937,0.61911196,-0.68386364,-0.3371976,339.8761,-133.43047,42.346615
981382551000.0,3.61762882041841,8.1141276167364,-3.4523546333891213,0.6936375,-0.70371675,-0.3753767,340.43472,-133.22165,42.0205
981387542000.0,3.742623194707113,8.279120888284519,-3.3073612281276152,0.74189585,-0.7281514,-0.408058,340.99768,-133.00679,41.67647
981392669000.0,3.856243825794927,8.4208965142015,-3.162402562504466,0.7687739,-0.7293731,-0.4279111,341.52713,-132.7829,41.326893
981397578000.0,3.948622822436585,8.525872427518756,-3.028032981305824,0.7724391,-0.73914695,-0.44837508,342.0548,-132.55646,40.96797
981402576000.0,4.054460749615116,8.637596310706789,-2.9063831927921626,0.74036866,-0.7309003,-0.46792278,342.54333,-132.32458,40.614918
981407554000.0,4.20220388803359,8.766275595221433,-2.8396605252524245,0.69027776,-0.7156286,-0.47586402,343.0223,-132.09384,40.262276
981412570000.0,4.351544507665095,8.884325280267296,-2.780774863404088,0.63621616,-0.68661255,-0.47433686,343.46143,-131.85878,39.92303
981417669000.0,4.505104530512972,8.961105416961479,-2.7519823998329405,0.57726765,-0.655153,-0.47861293,343.8855,-131.61978,39.584995
981422567000.0,4.641984816415662,9.024801937650604,-2.718177635090361,0.54275376,-0.625526,-0.47678033,344.2768,-131.38432,39.263897
981427584000.0,4.733640520381526,9.044097742771084,-2.6554658906626507,0.5155703,-0.6062838,-0.47769663,344.65463,-131.14679,38.9466
981432557000.0,4.797370326592083,9.021458941480208,-2.57602920697074,0.4990769,-0.589485,-0.48441613,345.01242,-130.92249,38.65247
981437553000.0,4.742469981019315,8.815582466437178,-2.420477949177663,0.49235737,-0.5708536,-0.4822781,345.3592,-130.70258,38.366146
981442617000.0,4.684942427262604,8.601520872140108,-2.277228521077141,0.48166725,-0.5525276,-0.48747048,345.6904,-130.49213,38.0997
981447579000.0,4.612781695839239,8.346553540494027,-2.257985726341365,0.48075095,-0.51923543,-0.48441613,346.00723,-130.28801,37.8422
981452575000.0,4.542779011568123,8.09062900874036,-2.225462804627249,0.4728097,-0.4709771,-0.49938235,346.29398,-130.09317,37.60813
981457566000.0,4.49193483051148,7.8406447240492865,-2.0983521528942477,0.464563,-0.3915646,-0.5198463,346.5555,-129.89996,37.380848
981462541000.0,4.441253644224803,7.591461831575215,-1.971648988724404,0.45875978,-0.34269542,-0.55833083,346.80246,-129.71649,37.16226
981467753000.0,4.442611695264514,7.273942349217357,-1.8980919959778089,0.441961,-0.33964106,-0.58246,347.03543,-129.53188,36.947052
981472629000.0,4.451863970477511,6.968615528175154,-1.8379518447988905,0.39675698,-0.35094208,-0.5934556,347.2529,-129.33981,36.73026
981477572000.0,4.444806776457772,6.633945941575016,-1.921661085754306,0.30451632,-0.35888332,-0.59406644,347.45612,-129.16214,36.542973
981482556000.0,4.434902123625234,6.292233479653455,-2.0306128874559035,0.1994475,-0.22632557,-0.60048056,347.6125,-128.97646,36.36277
981487556000.0,4.56814485925102,6.336368000352243,-2.0967436622358173,0.04184427,-0.089491755,-0.5946773,347.7602,-128.81549,36.22274
981492617000.0,4.716407013756025,6.417238070263256,-2.159642772302558,-0.09468412,0.053450707,-0.55680364,347.86273,-128.65555,36.1014
981497572000.0,4.849648673109572,6.588498224314567,-2.102826287813445,-0.22235495,0.18692477,-0.4981606,347.925,-128.52759,36.016922
981502583000.0,4.98075430823495,6.789839314469704,-2.0091793077958826,-0.2510656,0.26847526,-0.44135013,347.96066,-128.40831,35.95
981507559000.0,5.068572989945968,7.127805568259349,-2.0686724575908464,-0.28130344,0.24953845,-0.4025602,347.98795,-128.30421,35.90646
981512522000.0,5.139069568269943,7.52057115230427,-2.189523479330437,-0.23182335,0.22266038,-0.3915646,347.9947,-128.21516,35.876232
981517639000.0,5.141622692914997,7.926090019724077,-2.337069014187806,-0.17165314,0.27763826,-0.37568212,347.98508,-128.1399,35.874844
981522768000.0,5.1285064680729855,8.332686370289276,-2.490089019964397,-0.16065755,0.41447207,-0.3622431,347.95868,-128.06879,35.878136
981527594000.0,5.178526934459259,8.822903650666667,-2.583138542903704,-0.1853976,0.57971114,-0.3371976,347.919,-127.97983,35.858894
981532574000.0,5.272734565866666,9.402279064,-2.6443734098666667,-0.25320363,0.72692966,-0.30298916,347.8428,-127.89662,35.853016
981537560000.0,5.376585143483343,9.967723482174168,-2.6232754322618352,-0.33017266,0.7779369,-0.27885997,347.7753,-127.77467,35.80251
981542678000.0,5.491170812098188,10.53587831560491,-2.532561599298656,-0.37507126,0.83291477,-0.25778514,347.66245,-127.66211,35.770493
981547571000.0,5.578633194240543,10.986657576510446,-2.4877255833992096,-0.44135013,0.8381071,-0.23335053,347.56888,-127.5057,35.69925
981552701000.0,5.647985425748165,11.365782246188594,-2.4831021624505927,-0.5164866,0.85062987,-0.23365596,347.45895,-127.34979,35.6318
981557554000.0,5.657208577392394,11.59902359580025,-2.461913737985792,-0.602924,0.8210029,-0.22815818,347.3755,-127.16301,35.54046
981562542000.0,5.572369846928542,11.628966707793564,-2.4120087250313413,-0.6579019,0.711658,-0.2144137,347.3223,-126.982925,35.449215
981567629000.0,5.408773817917771,11.424560067903052,-2.411125394956334,-0.65270954,0.6072,-0.18051068,347.2899,-126.78584,35.337837
981572664000.0,5.158001717584143,10.951405194240015,-2.4679039007457564,-0.63041294,0.52748215,-0.14294247,347.2936,-126.59921,35.22942
981578478000.0,4.862517960778067,10.334545968481514,-2.5607256599961388,-0.6230826,0.47219884,-0.12736541,347.3324,-126.40988,35.11089
981582609000.0,4.648649801959649,9.849523539723911,-2.6447453109083887,-0.6441574,0.4392121,-0.12614368,347.39615,-126.23314,34.99817
981587524000.0,4.399570203766956,9.275028421879576,-2.74191912024007,-0.6872234,0.42730024,-0.12003502,347.46793,-126.071106,34.89082
981592680000.0,4.148993786435054,8.677499496340392,-2.8382947079437884,-0.72051555,0.410196,-0.124311075,347.55457,-125.91049,34.78084
981597560000.0,3.917522205370727,8.148473274585282,-2.9161003969113737,-0.7654142,0.40194935,-0.1255328,347.6281,-125.76079,34.676132
981602629000.0,3.690614792044725,7.685760589863441,-2.96504117146916,-0.81000733,0.38515055,-0.13316862,347.71173,-125.6097,34.568764
981607576000.0,3.473382433831885,7.250244516351938,-3.009002572459893,-0.8390234,0.35185838,-0.129198,347.79535,-125.47505,34.471447
981612615000.0,3.2838684142713905,6.927667382052139,-3.025131414438502,-0.88606006,0.31612277,-0.13164146,347.88654,-125.33554,34.370518
981617584000.0,3.096987056224933,6.609571374841243,-3.04103620026738,-0.91538155,0.2751948,-0.12370021,347.98096,-125.205215,34.273113
981622621000.0,2.9688898480975032,6.5357206978596905,-3.104565013555292,-0.9569204,0.23304509,-0.11728613,348.08942,-125.07267,34.173954
981627613000.0,2.864672449762188,6.554669324732461,-3.185096776694411,-0.98929626,0.21013765,-0.1469131,348.20535,-124.93348,34.066822
981632613000.0,2.9722183687600645,7.058490070652174,-3.4419522063405794,-1.0177015,0.22143865,-0.19058995,348.3187,-124.79097,33.954964
981637635000.0,3.165836281803543,7.760355510869565,-3.771102911231884,-1.0259482,0.24953845,-0.22357668,348.43466,-124.64465,33.838264
981642764000.0,3.3736785340068525,8.295483940964596,-3.903987886040587,-1.0149527,0.3213151,-0.25778514,348.53702,-124.468124,33.691048
981647929000.0,3.5866053981024337,8.769137309804094,-3.96482408106826,-1.01312,0.38789943,-0.29932398,348.63123,-124.282074,33.53465
981652555000.0,3.8050152110194975,9.240711417984285,-3.971159618624503,-0.97066486,0.44257188,-0.31123585,348.7387,-124.06565,33.338303
981657545000.0,4.073879354001358,9.806253302745176,-3.9201681983121546,-0.95142263,0.4822781,-0.33505958,348.82687,-123.837364,33.132027
981662554000.0,4.32640862707914,10.336383780273334,-3.850054929611188,-0.8979719,0.4905248,-0.35430184,348.9157,-123.60234,32.915527
981667664000.0,4.554531175442314,10.813367280644137,-3.746362803114737,-0.8350528,0.48991394,-0.38545597,348.99292,-123.36423,32.694565
981672562000.0,4.758002381497797,11.092549348017622,-3.593369742907489,-0.7812967,0.5002986,-0.41080686,349.06088,-123.11644,32.46639
981677557000.0,4.950002553303965,11.195573973568283,-3.38263775876652,-0.7583892,0.4334089,-0.42058071,349.15457,-122.872406,32.2369
981683364000.0,5.1335019579472565,11.063337701405151,-3.2065003106608287,-0.729984,0.27947086,-0.41722095,349.26282,-122.62138,32.000366
981687551000.0,5.239657180327869,10.8020326206089,-3.124842512880562,-0.67073005,0.12736541,-0.419359,349.3923,-122.37588,31.763887
981692716000.0,5.315160568403559,10.476469561198554,-3.071752557728028,-0.6017023,-0.022296581,-0.43096542,349.54776,-122.15063,31.549654
981697598000.0,5.333443465109004,10.165659792208428,-3.067181738097566,-0.56596667,-0.13408493,-0.46761733,349.7396,-121.92442,31.329063
981702703000.0,5.292601562050666,9.77466859226995,-3.062349477841193,-0.56688297,-0.20066923,-0.47067168,349.93436,-121.742935,31.152742
981707558000.0,5.185522828296786,9.327731983178133,-3.057693937789126,-0.5867361,-0.23151793,-0.46761733,350.1515,-121.55721,30.968801
981712565000.0,5.047801424452874,8.882833265830172,-3.044759405631748,-0.6453791,-0.20311269,-0.46303585,350.35306,-121.39525,30.811695
981717683000.0,4.871406201692443,8.448995524365335,-3.02092219991246,-0.72021013,-0.1386664,-0.453262,350.55133,-121.23624,30.659609
981722572000.0,4.691403358324716,8.072238289296795,-2.981698010099965,-0.7974846,-0.042760566,-0.45142943,350.714,-121.09157,30.527166
981727593000.0,4.488355052947259,7.744875060496381,-2.9153965791451224,-0.8912524,0.082161374,-0.4437936,350.8457,-120.94908,30.404068
981732643000.0,4.285199342030935,7.4199000657700065,-2.845593325823806,-0.98563105,0.16371189,-0.44623706,350.9555,-120.81267,30.291374
981737548000.0,4.10017250698434,7.153641972917668,-2.741797842828322,-1.0647382,0.3191771,-0.4474588,351.00104,-120.67797,30.188879
981743157000.0,3.8954214671673615,6.867320838062124,-2.623030236458044,-1.1145236,0.5366451,-0.45662177,350.99335,-120.53573,30.08547
981747583000.0,3.789306711599444,6.788717376216968,-2.528706000166898,-1.2244794,0.59742624,-0.4654793,350.9887,-120.39079,29.983149
981752806000.0,3.664083627927677,6.6959596082058415,-2.417396581696801,-1.2620476,0.7272351,-0.47311515,350.88345,-120.24164,29.882505
981757614000.0,3.637861694566306,6.677343496377537,-2.4219480711113133,-1.3154984,0.8542951,-0.5045747,350.76248,-120.08331,29.774874
981762616000.0,3.62478174000182,6.66862352666788,-2.443747949858924,-1.368949,0.97402465,-0.5198463,350.6063,-119.93206,29.67347
981767635000.0,3.705456918252705,6.819220737563654,-2.493154143650541,-1.396438,1.0793989,-0.52473325,350.40982,-119.76764,29.559288
981772612000.0,3.838193365690642,7.058146319191598,-2.5576261731381287,-1.4065173,1.142318,-0.5225952,350.194,-119.60713,29.44504
981777601000.0,3.970622445298165,7.301248998585627,-2.612268125382263,-1.4117095,1.1691961,-0.5222898,349.95456,-119.44497,29.32426
981782620000.0,4.099239500458716,7.572263295259939,-2.593894287767584,-1.4129313,1.1490375,-0.50243664,349.71695,-119.29656,29.21084
981787896000.0,4.231868057735185,7.856888756503031,-2.5749473684138477,-1.4031575,1.0961977,-0.4810564,349.49005,-119.154785,29.097239
981792695000.0,4.326249032436926,8.1130660029337,-2.5614642714648936,-1.3991868,1.010982,-0.44135013,349.2871,-119.030914,28.995249
981797926000.0,4.4235084041900645,8.388102156198705,-2.545868426704104,-1.3884968,0.90194255,-0.40683624,349.1082,-118.91222,28.892855
981802633000.0,4.40403626699784,8.555562780043196,-2.514713007196544,-1.3582588,0.7959574,-0.35888332,348.9619,-118.81513,28.806488
981807603000.0,4.383476139136069,8.732380137278618,-2.4818168026177103,-1.3607023,0.66523224,-0.3286455,348.8611,-118.719315,28.71697
981812612000.0,4.291561814942202,8.821879996399469,-2.434370936033732,-1.3579534,0.52015173,-0.29749137,348.8039,-118.64255,28.642471
981817819000.0,4.159264989577411,8.869128809740381,-2.3776724093613795,-1.3585643,0.40591997,-0.258396,348.78262,-61.419243,28.579927
981822648000.0,3.9898532013813233,8.860922168093385,-2.340081618297665,-1.357648,0.2941316,-0.21991149,348.80563,-61.49103,28.504782
981827706000.0,3.777812689747082,8.81380207626459,-2.3118094155933853,-1.3686435,0.22968534,-0.19364429,348.85254,-61.551712,28.438503
981832610000.0,3.5359327685004818,8.734884512148131,-2.329319606272075,-1.3949108,0.1957823,-0.18020524,348.92142,-61.62791,28.354267
981837619000.0,3.253543598137643,8.621928693888472,-2.390931914641978,-1.4092661,0.17928895,-0.1777618,349.00702,-61.696728,28.275602
981842674000.0,3.000712012772702,8.502904477531233,-2.4248982442289764,-1.4358387,0.20708331,-0.17501289,349.08795,-61.78787,28.171473
981847567000.0,2.7735364914227114,8.384947869103115,-2.4423732246783514,-1.4727961,0.27091873,-0.17928895,349.1641,-61.876453,28.06715
981852555000.0,2.56460958242682,8.254425117879748,-2.429055896232199,-1.4996742,0.34238997,-0.17898351,349.23138,-61.994278,27.930876
981857621000.0,2.3774924737440664,8.110488996044303,-2.381077239052611,-1.5289958,0.42271876,-0.1826487,349.27716,-62.10947,27.793314
981862593000.0,2.206883443616916,7.964738231454888,-2.3032425464989603,-1.5656476,0.5015204,-0.18997909,349.30173,-62.250294,27.625586
981867708000.0,2.046784703496088,7.809490863919976,-2.1868070715063883,-1.6099354,0.5684101,-0.19822577,349.3068,-62.386444,27.45774
981872574000.0,1.90695042931677,7.664145854658384,-2.0958931604968942,-1.6502525,0.6301075,-0.21899518,349.2849,-62.539165,27.266115
981877580000.0,1.7786788666220734,7.517549701003344,-2.027176207491639,-1.6994271,0.6627888,-0.2434298,349.25433,-62.68762,27.072603
981882564000.0,1.6950948,7.349015296114926,-2.0077289229851827,-1.7663169,0.6835582,-0.26450464,349.20004,-62.842735,26.861221
981887607000.0,1.6950948,7.135201163308637,-2.0819094117275028,-1.8231273,0.72021013,-0.29749137,349.13507,-62.99926,26.640686
981892655000.0,1.7170843577675967,6.9343380330695545,-2.1642227913785925,-1.8567249,0.75686204,-0.33444872,349.0591,-63.160545,26.40365
981897626000.0,1.863809313019575,6.811406424598084,-2.291120019758434,-1.885741,0.7825184,-0.36743546,348.9804,-63.319126,26.159908
981902769000.0,2.0156110520783006,6.684221298392337,-2.422407979033736,-1.917506,0.79412484,-0.39706242,348.894,-63.464592,25.92162
981907622000.0,2.197182479042806,6.564419149910821,-2.5888551098394768,-1.9449949,0.81153446,-0.43463063,348.80347,-63.611797,25.672873
981912522000.0,2.392476465368609,6.443522720065398,-2.770199536117717,-1.9553796,0.8216137,-0.4636467,348.71692,-63.755642,25.420267
981917819000.0,2.849240249537394,6.494843432420971,-3.187551937393986,-1.9526308,0.8671232,-0.4914411,348.61768,-63.869434,25.194304
981922680000.0,3.356224887654202,6.607008243359676,-3.649670754202005,-1.9498819,0.9202685,-0.5296202,348.51855,-63.986145,24.958569
981927615000.0,3.6998052974282594,6.741579483268791,-3.9129913882236127,-1.9107865,0.98746365,-0.56413406,348.407,-64.07535,24.755346
981932611000.0,3.956350666348923,6.8888555706483965,-4.069769003435607,-1.881465,1.0277808,-0.58551437,348.2922,-64.16511,24.546097
981938353000.0,4.194095225687459,6.993272038900066,-4.145491941649899,-1.863139,1.1261301,-0.6151413,348.16705,-64.21281,24.403503
981942805000.0,4.357498384641181,7.050462984574112,-4.165917523138833,-1.8341229,1.2250903,-0.636827,348.03275,-64.26467,24.257368
981947567000.0,4.528666880968006,7.129818593765381,-4.11767355783429,-1.788308,1.3277156,-0.64873886,347.8785,-64.300156,24.135864
981952573000.0,4.70564540754717,7.228140088679245,-4.009519933962264,-1.7427986,1.4114041,-0.66614854,347.70358,-64.34335,24.005125
981957548000.0,4.8418249870434185,7.315360372432805,-3.863452826326671,-1.6957619,1.4654657,-0.6921103,347.50705,-64.37057,23.892904
981962550000.0,4.95029914600768,7.395536961110564,-3.68895074071084,-1.6786577,1.4975362,-0.70829827,347.29486,-64.39936,23.777557
981967708000.0,5.001729803256959,7.481700325771634,-3.4496144226472256,-1.6685784,1.5015068,-0.72051555,347.0699,-64.40869,23.67722
981972684000.0,5.0062417472069685,7.567425659003976,-3.174391353834501,-1.6624697,1.4596626,-0.7302894,346.8531,-64.421265,23.57548
981977553000.0,4.965422751292861,7.601766819299232,-2.904392286275061,-1.6627752,1.3720033,-0.7305948,346.63916,-64.41032,23.486761
981982556000.0,4.866670590050591,7.574834236987071,-2.626090732433952,-1.677436,1.2641857,-0.7134906,346.44724,-64.394775,23.405014
981987553000.0,4.723609977235688,7.530298499477643,-2.356620900668617,-1.7055358,1.1585059,-0.6942484,346.26593,-64.36023,23.32051
981992638000.0,4.474319870936063,7.443810256790639,-2.102243191307981,-1.7446312,1.0506883,-0.6731735,346.12064,-64.316055,23.248608
981997565000.0,4.218746539534436,7.348225267410543,-1.8815569713832243,-1.8029687,0.9584476,-0.6640105,345.9862,-64.25279,23.1657
982002568000.0,3.937611530280877,7.233006119661408,-1.697206190611774,-1.8756617,0.8866709,-0.64873886,345.8804,-64.17393,23.09652
982008329000.0,3.605480592435536,7.079863983178888,-1.527983953857776,-1.9489655,0.829555,-0.63132924,345.78186,-64.09304,22.996216
982012550000.0,3.353036094057212,6.945498175866237,-1.4506219267324738,-2.03693,0.7974846,-0.61727935,345.70062,-63.99473,22.90345
982017601000.0,3.058845448319286,6.791877957610312,-1.3854672073971244,-2.1450534,0.784351,-0.6078109,345.61765,-63.894527,22.770855
982022579000.0,2.7846705356370847,6.654790451908776,-1.3760129068715914,-2.250122,0.788627,-0.59437186,345.5422,-63.773293,22.645895
982027543000.0,2.5311359829315894,6.527310052551966,-1.3823191344783838,-2.3518312,0.80664754,-0.59589905,345.45868,-63.65756,22.474506
982032559000.0,2.3201789417683223,6.41948759095345,-1.4245105133404898,-2.4058928,0.8179486,-0.5873469,345.3791,-63.52116,22.311749
982037520000.0,2.124556157274939,6.321115574540146,-1.472063755892944,-2.5222626,0.8570439,-0.57787853,345.28293,-63.3834,22.10285
982042629000.0,1.9626535632603408,6.244926288175183,-1.538729518199513,-2.6325238,0.9007208,-0.5739079,345.18707,-63.228985,21.895649
982047573000.0,1.824416338359865,6.168465318012543,-1.6059912018620357,-2.7241535,0.9639453,-0.56046885,345.0714,-63.076313,21.65424
982052575000.0,1.7550918999421128,6.0806541825180895,-1.684558892301013,-2.8319712,1.026559,-0.5488624,344.9485,-62.892868,21.411905
982057588000.0,1.6894970064262518,5.994581687933687,-1.7525556,-2.9245174,1.0720685,-0.5155703,344.81277,-62.7035,21.149746
982062555000.0,1.64884753174671,5.921412752358571,-1.7525556,-2.994767,1.1160508,-0.4886922,344.6644,-62.488205,20.88562
982068004000.0,1.604253413057597,5.8411434690993,-1.7525556,-3.0552425,1.149343,-0.44990227,344.5043,-62.252064,20.62134
982072584000.0,1.5682133613974591,5.763134727767695,-1.6695867211252269,-3.0769281,1.1655309,-0.4334089,344.34158,-62.000523,20.357313
982077544000.0,1.529419455045372,5.676926147005445,-1.5661363341923775,-3.086702,1.1472049,-0.4175264,344.1811,-61.724014,20.105202
982082558000.0,1.4987579409114182,5.545848049912954,-1.37893754906298,-3.059824,1.0943651,-0.41325033,344.02478,-61.440968,19.850677
982087538000.0,1.4743378364567332,5.384675156518177,-1.1347364025192013,-3.0100386,1.0231993,-0.40133846,343.88165,-61.150097,19.607738
982092835000.0,1.4427358275450124,5.181167737434935,-0.8384172367744688,-2.948952,0.93492925,-0.40530908,343.75375,-60.842293,19.363972
982097568000.0,1.4117932594760645,4.983908744833177,-0.5560660769758512,-2.8646526,0.8081747,-0.39767328,343.6588,-60.541275,19.139988
982102545000.0,1.3486374042619542,4.737717096413721,-0.2061950138253638,-2.7473664,0.6206391,-0.38759398,343.59082,-60.20694,18.932034
982107548000.0,1.2091823676923077,4.394060142307692,0.2769170704615384,-2.6160305,0.35613444,-0.36254853,343.58078,-59.887905,18.755306
982112519000.0,1.0190590588897517,4.042468488431677,0.7438085844332298,-2.3796256,0.008857546,-0.27366763,343.61322,-59.521687,18.63014
982117751000.0,0.7224308595108696,3.65344775923913,1.2106332563586957,-1.9608774,-0.310625,-0.12950343,343.70294,-59.2128,18.5559
982122580000.0,0.3338673736926147,3.0990431793413173,1.311468126229541,-1.3741413,-0.42210788,0.047036625,343.78076,-58.856808,18.510794
982127609000.0,-0.324631793512974,2.089664910329341,0.6866149615518962,-0.63499445,-0.46089783,0.15607607,343.91547,-58.623302,18.514662
982132527000.0,-0.9144709063097336,1.3275299969750394,0.2481021109000649,-0.19730948,-0.1695151,0.39492437,343.89795,-58.230286,18.504364
982137544000.0,-1.3870481453836874,1.0867831279484086,0.2124359101503201,0.72143185,0.44684792,0.66706485,343.78204,-58.10381,18.490849
982142743000.0,-1.9153474907996928,0.8542312012801911,0.3556414342792523,1.606881,1.3106114,1.0079277,343.49677,-58.16977,18.436031
982147616000.0,-2.58049377475463,0.7108463890415635,1.2836599585695996,2.4065037,2.2537873,1.4227052,342.9801,-58.3659,18.382236
982152539000.0,-3.252464871801656,0.5659903597678587,2.221200528050696,3.0677652,3.0631838,1.8661933,342.21997,-58.73275,18.24029
982157546000.0,-5.513281390662021,-0.1688549753509207,5.813351554982578,3.542713,3.9385536,2.2678373,341.1452,-59.171402,18.074886
982162525000.0,-8.157321917351917,-1.0470372157391736,10.047613900069685,3.7003162,6.0115247,2.3197608,339.5223,-59.66919,17.69725
982167708000.0,-10.357928114673244,-1.4522056435834203,12.630441328938632,2.6203065,6.867958,2.16399,337.9416,-59.70734,17.205978
982172586000.0,-12.294259537607893,-1.709201613838566,14.61551388703405,1.57084,5.9623504,1.8982637,336.33417,-59.786938,16.684895
982177558000.0,-13.210339380096618,-1.414065984057971,15.955541549565217,0.700357,4.0989056,1.4871514,334.7732,-59.01463,15.49087
982182568000.0,-13.65073386995169,-0.8624141579710145,16.99394464521739,-0.1301143,2.3683245,1.0803152,333.5673,-58.04964,14.406515
982187549000.0,-13.52525174156962,-0.0363278677670886,17.724177701367086,-0.74006325,0.7742717,0.7812967,332.83487,-56.896988,13.060915
982192630000.0,-13.037422230278482,0.9836792033316456,18.276065373468352,-1.2311989,-0.5354234,0.5296202,332.58017,-55.640404,11.959022
982197570000.0,-12.134979926001296,2.07310988230506,18.023471657201,-1.6533068,-1.3863586,0.34574974,332.63342,-54.290806,10.934301
982202569000.0,-10.988048133567665,3.228898750439368,17.337084588752194,-2.1068742,-1.8600847,0.27580565,332.94397,-52.884987,10.129376
982207551000.0,-9.569666982084346,4.196757057615474,16.042921027269845,-2.47095,-2.1135938,0.3475823,333.35364,-51.539623,9.478189
982212544000.0,-7.846213049149139,4.964982803001797,14.076869093330515,-2.6700919,-2.2104158,0.6035349,333.8104,-50.16805,8.975474
982217714000.0,-6.319845854612446,5.3884019485534935,12.059774427947598,-2.6746736,-2.2565362,1.0054842,334.26242,-48.929913,8.725628
982222575000.0,-5.049298397543668,5.549337886371907,10.175128641921397,-2.5259278,-2.250122,1.4608842,334.65344,-47.708496,8.581848
982227750000.0,-3.8797294114491847,5.618398340025094,8.526622986616479,-2.417194,-2.0992384,1.6835446,334.98578,-46.66888,8.677295
982232556000.0,-3.037553137107905,5.546211858218318,7.472699950230029,-2.191479,-1.8863518,2.058005,335.17346,-45.70015,8.887488
982237546000.0,-2.1929751034294966,5.593046951408105,6.689310787253459,-1.9978348,-1.7907515,2.2660046,335.34476,-44.909454,9.30307
982242632000.0,-1.3661257277156316,5.779446480836032,6.244819390550486,-1.863139,-1.7745636,2.324953,335.434,-44.17347,9.726726
982247563000.0,-0.6800835077802778,5.767672668910194,5.920803954617492,-1.8075503,-1.642922,2.2186625,335.45358,-43.51636,10.234436
982252772000.0,-0.1090980249481511,5.499260675210331,5.7207150129328905,-1.8347337,-1.5641204,2.0146337,335.48224,-42.89325,10.726144
982257550000.0,0.3277549660522038,5.324895989807821,5.212461935806482,-1.8875736,-1.750129,1.8374827,335.53384,-42.30209,11.343774
982263390000.0,0.7074209989807821,5.239337560894922,4.014642367587724,-1.7217237,-1.9920316,1.681712,335.61298,-41.794453,11.904571
982267611000.0,0.8967908323269774,5.277519076747881,3.1981749066031075,-1.4046847,-1.9046779,1.5143349,335.65433,-41.291367,12.484123
982272570000.0,0.9470995108492232,5.524870083130296,2.338735116825565,-1.138042,-1.4715744,1.344209,335.70212,-40.848454,12.990916
982277705000.0,1.0320899785078583,5.834863418102632,1.5396606785078584,-1.0567969,-0.79137594,1.1395692,335.7441,-40.523155,13.430775
982282554000.0,1.5860740882692672,6.903261052215489,2.093644788269267,-1.235475,0.032375857,0.93554014,335.70804,-40.22064,13.704645
982287560000.0,2.15799499020072,8.006251061778071,2.66556569020072,-1.668273,0.88025683,0.7675522,335.6385,-40.0042,13.794178
982292667000.0,3.564712109076667,9.81707059057084,4.3641497829335165,-2.1777346,1.4666874,0.65270954,335.49326,-39.736805,13.733277
982297746000.0,5.0315980759130525,11.674490927934984,6.145368311309116,-2.6435194,1.6450601,0.67103547,335.2712,-39.372097,13.572201
982302578000.0,6.903608977246797,11.779917367810716,8.39113416777331,-3.0201178,1.4199562,0.77824235,335.0459,-38.959476,13.404436
982307529000.0,8.86795431912466,11.72670742943982,10.74568817834097,-3.2201762,0.8167268,0.8402451,334.86554,-38.47763,13.280364
982312561000.0,8.879623794438604,10.17693180114668,11.04167344854276,-3.1569517,0.053145275,0.7684685,334.75327,-37.977993,13.366613
982317637000.0,8.173555201720019,8.072662298614429,10.581799974677496,-2.9465084,-0.6291912,0.55833083,334.7583,-37.48163,13.553381
982322613000.0,7.1857717995731365,6.220122224132043,9.583061739271486,-2.629164,-0.8741482,0.2434298,334.6805,-36.74411,14.05918
982327575000.0,6.049832793824701,4.4801522557768925,8.30738406812749,-2.434298,-1.131017,0.05589417,334.75717,-36.068436,14.670563
982333418000.0,4.257088025114536,3.0785684208246566,6.864817586838817,-1.9581286,-0.89644474,-0.40133846,334.82364,-35.432686,15.100219
982337549000.0,2.7823775446272387,2.3824061413161184,5.872065508288213,-1.03786,-0.6606508,-0.45356745,334.88327,-34.981667,15.599137
982342640000.0,1.118524823935558,1.8172275174913692,5.536158547679325,-0.71959925,-0.0015271631,-0.43157628,334.8803,-34.47002,15.797846
982347579000.0,-0.4055209912543156,1.4407519583141544,5.731200074472573,-0.106901415,0.65301496,-0.34697145,334.82773,-34.299084,15.934053
982352629000.0,-1.8069935952328715,1.1884399875635785,6.357808770360028,0.3744604,1.2205088,-0.22632557,334.73672,-34.19128,15.789751
982357555000.0,-3.044364412546125,1.0519998586715866,7.322299329889299,0.6994407,1.6856827,-0.11636983,334.5347,-34.20126,15.533482
982362585000.0,-4.086906565485164,0.9884554818444268,8.382904010906174,0.93126404,2.082745,0.00580322,334.26263,-34.283962,14.9843025
982367758000.0,-4.956949909382518,0.9924282794707298,9.54296191339214,1.0812315,2.456289,0.12858713,333.8968,-34.420074,14.357019
982372586000.0,-5.760507532292285,0.990497674879063,10.639470336671476,1.1551461,2.7171285,0.2510656,333.4978,-34.54239,13.510926
982377601000.0,-6.384137912840533,0.8478371620215565,12.123139551217855,1.1985176,2.7913487,0.3472769,333.0636,-34.685852,12.650087
982382611000.0,-7.007146528303488,0.7053188829754731,13.60532953424425,1.2208142,2.6196957,0.35521814,332.6686,-34.768757,11.644207
982387567000.0,-7.031463832195508,0.4037504993687543,14.987280270208766,1.2324207,2.1713204,0.21899518,332.34616,-34.86046,10.698645
982392635000.0,-6.776950145839517,0.0195790606193726,16.360693728603938,1.1902709,1.475545,0.043676864,332.12567,-34.941177,9.865359
982397811000.0,-5.661398352838428,-0.1187577295593489,17.145970994442237,1.0491611,0.6133087,0.0870483,331.99615,-34.858948,9.084762
982403334000.0,-4.044590750436681,-0.1397552261909488,17.676157069075032,0.82802784,-0.23487769,0.22540927,332.01727,-34.75169,8.471748
982407555000.0,-3.1526485084337352,-0.1064657388296041,17.17647241824441,0.64721173,-0.958753,0.34697145,332.08893,-34.46657,8.079046
982412559000.0,-2.2259332426647767,-0.0482427878606864,16.240053384732207,0.5161811,-1.4874569,0.43554693,332.2473,-34.14506,7.8696275
982417665000.0,-1.5372550005292396,0.1470558814170286,15.030714512877486,0.44929138,-1.8228219,0.4972443,332.35696,-33.71387,8.008889
982422586000.0,-0.9946298643975356,0.3993289608201192,13.74554996005454,0.42363504,-1.9184223,0.5155703,332.49713,-33.27558,8.221213
982427547000.0,-0.60911005762817,0.8095206516329136,12.402075056011675,0.4083634,-1.9645426,0.5222898,332.62387,-32.866096,8.632928
982432815000.0,-0.2777431212953841,1.320378079492793,10.952344715562852,0.38820487,-1.7846428,0.47891834,332.72986,-32.46191,8.999284
982437616000.0,0.1016162966044444,2.0465793146666664,9.552443649037038,0.3912592,-1.4062119,0.3915646,332.82132,-32.15919,9.391587
982442733000.0,0.5807716004681481,3.0726492515555552,7.984298947456789,0.41447207,-0.90224797,0.32436943,332.86505,-31.86319,9.696845
982447557000.0,1.1153794201831908,4.186095127549069,6.861090610689481,0.45753807,-0.17379116,0.29443705,332.8715,-31.723888,9.888129
982452492000.0,1.7528275534896829,5.484776713256165,6.09995858165073,0.49754974,0.82772243,0.24220806,332.7785,-31.596498,9.871655
982457448000.0,2.8331754460055096,7.642670268319559,7.1223096484848485,0.2312125,2.1432207,0.28710666,332.61218,-31.597296,9.693917
982462468000.0,4.446976373461892,10.835936060789717,10.266523264646464,-0.73364913,3.7067304,0.39736784,332.25336,-31.410091,9.217414
982467498000.0,7.609958290819982,13.699414155890668,13.211030542507068,-2.3115141,4.466341,0.6081163,331.80933,-31.14189,8.686567
982472464000.0,12.231328047483508,16.20060160433553,15.918409493685202,-3.5656204,3.805385,0.98899084,331.28036,-30.680958,8.18069
982477436000.0,15.298002963328198,17.842075289676423,17.797151153158705,-3.9904773,2.5897632,1.258077,330.7131,-30.13904,7.7652106
982482444000.0,15.770958277555213,18.04899288597843,18.29473903687725,-3.6624427,1.8863518,1.0479393,330.20746,-29.479095,7.380121
982487431000.0,15.353164108829755,17.19427209133597,17.71855164717798,-2.6371052,1.8506162,-0.015271631,329.89407,-29.026712,7.5017
982492510000.0,13.709567956311574,14.869948946413777,15.662936642482276,-1.2541064,1.6236799,-1.3374895,329.8434,-28.78562,7.730486
982497437000.0,11.888167764692364,12.909478818447718,13.349142554852188,0.039095376,1.237613,-2.3768766,330.022,-28.832281,7.896639
982502509000.0,9.34101121907448,11.762751170270551,10.020587903562102,0.8677341,1.0054842,-2.968805,330.4206,-29.153725,7.925419
982507494000.0,7.086020637921847,10.592147759325044,7.370973026021315,1.2223413,1.1081096,-3.0980031,330.89786,-29.570568,7.772123
982512515000.0,5.275354306642983,9.332368157371226,5.854966978188277,1.2394456,1.2599095,-2.8820622,331.4503,-30.123083,7.6191087
982517711000.0,3.4995617161367933,8.024522720226845,4.422002719333219,1.0094548,1.599856,-2.5518897,331.93546,-30.765614,7.174715
982522580000.0,2.4137577302801168,6.774446087901701,3.881104137076817,0.74464476,1.8429805,-2.3991733,332.38898,-31.38989,6.7279882
982527517000.0,1.31278950720055,5.506911001890359,3.33265141565561,0.63071835,1.9449949,-2.1465805,332.7072,-31.952084,6.120898
982532520000.0,0.5601955162210248,4.38383026397926,3.0607839549512,0.5109888,1.8863518,-1.933083,332.97687,-32.426327,5.520362
982537488000.0,-0.0831369216398942,3.314834196878813,2.872137691185441,0.5213735,1.679574,-1.7088956,333.18246,-32.890224,4.981154
982542579000.0,-1.5636692604362703,2.1498197938123758,2.6142216475239994,0.66859204,1.3765849,-1.488984,333.39023,-33.25944,4.4000325
982547591000.0,-3.215187357442259,0.9864575630738526,2.345051427696987,0.8891144,1.3591752,-1.3063353,333.53873,-33.642372,3.8362405
982552544000.0,-5.734999114976228,0.1455815261687797,3.552697397246434,1.0720685,3.723529,-1.1850786,333.38867,-33.951054,2.7814384
982557560000.0,-8.642167188193344,-0.5823999836727415,5.365514128229002,0.77518797,6.7833533,-0.89980453,333.0454,-34.172092,1.6289746
982562549000.0,-11.067950497900924,-1.1413071607332772,8.115752672823957,0.70616025,9.199936,-0.53786683,332.4124,-34.408325,-0.10606349
982567649000.0,-13.337115065491185,-1.637971671788413,11.355463274559192,0.79534656,9.963212,-0.23945917,331.52545,-34.584217,-2.1160457
982572592000.0,-15.052091477567092,-2.1714314994922805,13.710707444306289,0.840856,9.963212,-0.15790866,330.50452,-34.48953,-4.82004
982577569000.0,-16.400367533208996,-2.749263881121127,15.468898316858356,0.63132924,9.036835,-0.16432275,329.51044,-34.31121,-7.405901
982582551000.0,-16.69545956364637,-2.7977792211482027,16.620148829512104,0.12034045,6.9424834,-0.32559118,329.10553,-33.676292,-9.787562
982587547000.0,-16.344426418378575,-2.5213412492479823,17.401195813738077,-0.79290307,5.2784867,-0.43066,328.80612,-32.886497,-11.957926
982592681000.0,-15.16212398493827,-1.8851562873851853,18.004130505843623,-1.6594155,3.6792414,-0.16737708,328.79526,-31.847904,-13.746774
982597614000.0,-13.06635050617284,-0.8625432314814814,18.350186748971197,-1.9825631,1.7479908,0.26083946,329.07172,-30.789564,-14.979423
982602844000.0,-10.775105428825308,0.1633384233463657,18.51925803820864,-1.8127426,-0.3323107,0.61666846,329.41476,-29.706724,-15.751147
982607546000.0,-7.790167951057402,0.3073836710876133,16.03047573413897,-1.3054191,-2.3600779,0.700357,329.9677,-28.711798,-15.99944
982612522000.0,-4.631288986920206,0.4598228783952372,13.396664431491024,-0.47525316,-2.8041768,0.45265114,330.3592,-28.009241,-15.890707
982617663000.0,-3.2654335451030456,1.1204820273983218,10.322035269286886,-0.16462818,-3.7238345,0.073303826,331.0906,-27.333782,-15.169051
982623012000.0,-2.4759705084807586,1.9753443447291623,7.005356259894218,0.37812558,-5.468771,-0.26633725,332.01648,-26.958582,-14.163159
982627558000.0,-2.039575915825953,2.5369318532152483,4.143825503195996,1.2687671,-5.7467146,-0.40286562,332.72977,-26.927237,-13.069604
982632545000.0,-1.7177461501829034,3.0426642529264534,0.9761012979688104,1.3142766,-5.537188,-0.5867361,333.6861,-26.79065,-11.729622
982637553000.0,-1.0851258068160634,3.975771555954388,-1.40413651335647,0.9975429,-4.6431866,-0.74067414,334.57425,-27.064514,-10.512072
982642671000.0,-0.1033858400059495,5.390060340723847,-2.969088307169063,0.5015204,-3.073874,-0.8970556,335.37994,-27.291494,-9.574032
982647604000.0,0.7685122555539916,6.797104347979087,-3.737607333159059,-0.20799962,-0.9147707,-1.0302242,335.96725,-27.51856,-9.158498
982652570000.0,1.5670500185582144,8.260293358435552,-3.7232623536296,-1.1490375,1.2363913,-1.1285735,336.3749,-27.541983,-9.160523
982658344000.0,2.009744010857029,9.38899054275204,-2.6463064933028435,-2.0735822,3.1358767,-1.1749994,336.49945,-27.594105,-9.576177
982662544000.0,2.045735563849672,9.87287706094651,-1.2386358796619603,-2.8527408,4.59615,-1.1499538,336.38803,-27.427471,-10.425592
982667711000.0,2.0217461137155155,10.866411141655252,1.2362231081119155,-3.412904,5.4153204,-1.1383474,336.06042,-27.220484,-11.489017
982672582000.0,1.9304750959988264,12.20353209205635,4.316620415893171,-3.5592062,5.2925363,-1.1835514,335.6503,-26.915928,-12.679538
982677841000.0,1.650540153100506,13.285880657406487,7.091987636303204,-3.062573,4.5246787,-1.2296717,335.18433,-26.614431,-13.840436
982682558000.0,1.2068249174174026,13.873019158646692,8.996825726976883,-2.0430388,3.5081992,-1.1643091,334.7342,-26.431274,-14.884884
982687545000.0,0.5881042991024277,13.212524658767771,10.221735408550147,-0.9505063,2.7956247,-0.8741482,334.27484,-26.423643,-15.648979
982692907000.0,-0.3108706092658864,10.50069951184834,10.306170183093142,-0.26145032,2.4956899,-0.66859204,333.89276,-26.584894,-16.24733
982697643000.0,-0.970963415161473,8.446607770538243,10.250434241926346,0.014660766,2.2437081,-0.5907067,333.56384,-26.909008,-16.61942
982702703000.0,-1.4411358343116143,6.850767267705383,9.962153284419264,0.19517145,1.9874501,-0.5687156,333.2362,-27.390038,-16.886744
982707657000.0,-1.9014587917167136,5.28835741572238,9.679911414164303,0.3484986,1.738828,-0.56138515,333.0472,-27.644598,-17.181105
982712590000.0,-2.30242544254766,3.879959423136915,9.26069810918544,0.45020768,1.6187929,-0.5531385,332.8742,-27.9258,-17.432783
982717612000.0,-2.6589913591854417,2.57872532729636,8.709641679376082,0.49663344,1.353372,-0.5503896,332.7623,-28.222866,-17.580801
982722797000.0,-2.937442989471593,1.5518269714342472,8.057972102900278,0.5907067,1.0977248,-0.5476407,332.77048,-28.339085,-17.807926
982728481000.0,-3.1320838575685337,0.8165169437425506,7.241561252443385,0.659429,0.7583892,-0.5354234,332.8299,-28.458338,-17.942545
982732613000.0,-3.2332918977683645,0.4784356575720632,6.709045266081207,0.74097955,0.6646214,-0.528093,332.90216,-28.455153,-18.226828
982737605000.0,-3.31232063710094,0.2808639278644488,6.131147951399938,0.7648033,0.4700608,-0.5235115,333.03925,-28.455273,-18.396784
982743026000.0,-3.407737635492651,0.2022702893249864,5.590503877027763,0.7874053,0.2947425,-0.54428095,333.19803,-28.426489,-18.637383
982747628000.0,-3.4957066065868263,0.2342590076047904,5.1946434862275455,0.7644979,0.16065755,-0.57451874,333.3827,-28.389673,-18.838224
982752614000.0,-3.659165055502392,0.32107504,4.863918171770335,0.7153232,0.076358154,-0.6239988,333.59344,-28.348377,-19.062181
982757607000.0,-3.983283420773525,0.5307987235416667,4.763822855741627,0.6395759,0.026267206,-0.6826419,333.83057,-28.287956,-19.26603
982762552000.0,-4.283733378503449,0.6799533,4.697298054509735,0.5323691,0.014660766,-0.7629707,334.08554,-28.221022,-19.511875
982767735000.0,-4.543769688247621,0.6799533,4.714633793407841,0.44165558,0.017104227,-0.8689558,334.3689,-28.128002,-19.760128
982772786000.0,-4.798661280153016,0.677690553150315,4.736071590864087,0.37812558,0.052839845,-0.99112886,334.67685,-28.019789,-20.07766
982777566000.0,-5.078845218046805,0.6158852391989199,4.876163581323133,0.35338554,0.09254608,-1.1096367,335.01154,-27.886711,-20.40923
982782544000.0,-5.370635101485148,0.5515197888118812,5.022058545445545,0.35918877,0.1423316,-1.2336423,335.38202,-27.719337,-20.81352
982787551000.0,-5.788129950235184,0.46038946144873,5.218729098777046,0.40530908,0.15974127,-1.3414601,335.7796,-27.545286,-21.230045
982792592000.0,-6.246826663847601,0.3604753429012229,5.432182015992474,0.47769663,0.25411993,-1.4691309,336.19748,-27.363575,-21.693897
982798098000.0,-6.692828494412199,0.286779437754058,5.640810875966552,0.5549711,0.41141775,-1.5903877,336.64813,-27.153442,-22.232098
982802582000.0,-7.035015966561732,0.2403095423521888,5.801343192975898,0.6478226,0.63316184,-1.6911805,337.1056,-26.953148,-22.818563
982807559000.0,-7.318604308146495,0.276440055243989,6.045016053403672,0.71776664,0.7489208,-1.7705929,337.61118,-26.708378,-23.492071
982812544000.0,-7.541395979395354,0.3684627051425383,6.330770494815867,0.7464773,0.95478237,-1.7962493,338.0868,-26.469091,-24.239637
982817704000.0,-7.673138837558778,0.545977430031348,6.660616556377351,0.75319684,1.1026118,-1.8267925,338.59674,-26.19384,-25.060524
982822590000.0,-7.746480818318965,0.7568360531034484,6.990656331357759,0.7629707,1.1746938,-1.7919732,339.0826,-25.929445,-25.894245
982827564000.0,-7.744294848356807,1.029361085609308,7.343818828587467,0.72143185,1.1484267,-1.7443258,339.57336,-25.628695,-26.751719
982832552000.0,-7.690665652112676,1.34138629614207,7.709473388089406,0.64812803,1.0195341,-1.6566665,340.05536,-25.331783,-27.574316
982837545000.0,-7.587322761549838,1.6290522887311447,7.783619633146012,0.5516113,0.786489,-1.5195273,340.52414,-25.029205,-28.327053
982842690000.0,-7.451304239810707,1.9108047235137533,7.686463691117026,0.45234573,0.54733527,-1.3203852,340.9763,-24.732866,-29.008646
982847611000.0,-7.283691745543874,2.054731802063477,7.44257745795421,0.35705075,0.3481932,-1.0485502,341.37357,-24.46801,-29.56326
982852569000.0,-7.092402098928957,2.124715845258917,7.1066540311290165,0.2773328,0.17654006,-0.74036866,341.7362,-24.225616,-30.01966
982857556000.0,-6.946236522541942,2.121397605836299,6.678574711052364,0.2556471,0.050701816,-0.40958515,342.00204,-24.066116,-30.373688
982862545000.0,-6.8345019958922215,2.0631012296085407,6.18305596965938,0.28008172,-0.02076942,-0.027183503,342.17993,-23.961012,-30.641344
982867664000.0,-6.7878410581387145,1.7691442294644746,5.807847006491215,0.37415496,-0.034513887,0.33383787,342.25345,-23.942701,-30.85076
982872772000.0,-6.784389581133141,1.327350256846116,5.517919874592535,0.50915617,-0.022907447,0.6337727,342.24112,-23.992903,-31.000677
982877597000.0,-6.78112932730544,0.910033123352854,5.244055659359345,0.6737844,0.016493361,0.68477994,342.1831,-24.10589,-31.16764
982882611000.0,-6.476769753849917,0.7116061173583799,5.228605910370805,0.81214535,0.035430185,0.66339964,342.06622,-24.27687,-31.298786
982887520000.0,-6.095002524841013,0.5828172416084532,5.288400661833481,0.93401295,0.04520403,0.63255095,341.93988,-24.483654,-31.42933
982892825000.0,-5.470951422763084,0.9659209440630276,5.403560952054024,1.0436633,0.057421334,0.6188065,341.86594,-24.653484,-31.615545
982897653000.0,-4.833471350168824,1.4863128696304635,5.5249856501594445,1.1453724,0.07727446,0.59712076,341.80692,-24.838297,-31.809923
982902683000.0,-4.494003238800502,1.8997200915637429,5.632608773121206,1.2064588,0.09285152,0.5873469,341.745,-25.023203,-31.94866
982907622000.0,-4.360332052229433,2.2264722141092737,5.726673925350639,1.2702943,0.0983493,0.5699373,341.69562,-25.221571,-32.093746
982912584000.0,-4.1842674549176335,2.555162767131299,5.778139735159372,1.3219124,0.09040806,0.5656612,341.56528,-25.51382,-32.105656
982917773000.0,-3.9808216303733306,2.8990830004581345,5.812047338863437,1.3521502,0.06688975,0.54641896,341.45264,-25.801737,-32.120495
982922610000.0,-3.81310290945422,3.245272167909335,5.80743227253206,1.3820826,0.014660766,0.5348125,341.31564,-26.128082,-32.09411
982927632000.0,-3.6505399856248135,3.61821066078139,5.78352597488816,1.402852,-0.03604105,0.55680364,341.18588,-26.451033,-32.061657
982932611000.0,-3.4985962206988424,3.9426111024080335,5.709920095768009,1.3906348,-0.11056661,0.6102544,341.03116,-26.806059,-31.969978
982937612000.0,-3.351367067670868,4.241976937575571,5.606859627154422,1.3707817,-0.19639318,0.6750061,340.8867,-27.156258,-31.861498
982942793000.0,-3.235529408120473,4.383939449904689,5.459586724170797,1.3277156,-0.28710666,0.76052725,340.7036,-27.550625,-31.690504
982947676000.0,-3.1419311128383534,4.446338297912695,5.30358953434045,1.2611313,-0.38453966,0.84207773,340.52936,-27.93032,-31.493126
982952636000.0,-3.186020150310905,4.407419857020881,5.209935783387471,1.2110404,-0.46975538,0.90469146,340.3258,-28.368988,-31.23375
982957592000.0,-3.326976471535963,4.297297904983759,5.161481741809745,1.1554517,-0.52198434,0.9804387,340.11633,-28.793634,-30.950119
982962611000.0,-3.564658062238051,4.117512151605244,5.149958920305564,1.1169671,-0.569021,1.0699304,339.8938,-29.237967,-30.636356
982967818000.0,-3.9455928185609577,3.8343846576855576,5.19114136120574,1.1236867,-0.6010914,1.1786644,339.66064,-29.683657,-30.304638
982972631000.0,-4.333254353948677,3.6453989929182415,5.216801311915655,1.1835514,-0.57818395,1.2916746,339.42303,-30.11795,-30.003763
982977578000.0,-4.76677683118162,3.5228817700218817,5.230937952407002,1.2470814,-0.45173484,1.4440855,339.14038,-30.566042,-29.701792
982983321000.0,-5.535758656513468,3.498737276779814,5.374903641704216,1.3515394,-0.15088372,1.6041322,338.8286,-30.977396,-29.517496
982987615000.0,-6.281050483508562,3.556384194532893,5.564314789336137,1.4062119,0.32925636,1.7214183,338.43872,-31.39565,-29.389418
982992578000.0,-7.1376124436769,3.7070502905884495,5.953947464967105,1.4162911,0.94225967,1.7595973,337.98486,-31.8115,-29.418333
982997640000.0,-8.005818616959065,3.955109058479533,6.54308725263158,1.3723087,1.563815,1.7122552,337.44077,-32.217854,-29.548859
983002542000.0,-8.852033530170267,4.312102233864383,7.128035477217963,1.2568552,1.8640553,1.5561792,336.91293,-32.572536,-29.862612
983007627000.0,-9.744241412526137,4.990956113531813,7.772946589485213,1.0980303,2.3710735,1.2907583,336.27472,-32.867115,-30.371569
983012550000.0,-10.497024804778036,5.758139959226243,8.41966595418078,1.0094548,2.7217102,1.1441506,335.6614,-33.1154,-30.973269
983017803000.0,-10.985833827420215,6.888230520484935,9.17305984899269,0.840856,2.8689287,0.8155051,335.112,-33.223454,-31.69279
983022767000.0,-11.430968659878872,7.972745866409199,9.8964580327394,0.66431594,2.763249,0.46578476,334.60028,-33.293625,-32.475468
983027655000.0,-11.64873414394804,9.258796557184237,10.759303512595451,0.47494772,2.4190264,0.19150625,334.18475,-33.274033,-33.243446
983032527000.0,-11.865786811375406,10.540637589396995,11.619324620995348,0.30879238,1.9101756,-0.03604105,333.8596,-33.245342,-33.909775
983037609000.0,-11.845653242817423,11.859428046802597,12.01492534708063,0.16310102,1.3087788,-0.21197024,333.69754,-33.14075,-34.486916
983042598000.0,-11.743808286932346,13.147991498053752,12.23632828952734,0.044898596,0.73914695,-0.27000242,333.6772,-32.99196,-34.953205
983047635000.0,-11.492967321477428,14.060356904240766,11.854515033515732,0.015882496,0.34055737,-0.19028452,333.66022,-32.952805,-35.180134
983052629000.0,-11.147142825092828,14.709945818057456,11.078746370822747,0.061391957,0.090713486,-0.03573562,333.73615,-32.911793,-35.3053
983057613000.0,-10.671727805869542,14.771291034636524,9.853695733692836,0.17379116,-0.013133603,0.14874569,333.70886,-33.05007,-35.257954
983062615000.0,-10.090511278647725,14.36394263724982,8.264043430965467,0.31306845,-0.06383542,0.24098633,333.71683,-33.20757,-35.163017
983067695000.0,-9.501223903378945,13.515759730708368,6.722671491724844,0.5009095,-0.063224554,0.2452624,333.6097,-33.5205,-35.037807
983072633000.0,-8.928968860094946,12.446083119705856,5.2656220875360695,0.66889745,-0.06963864,0.22327125,333.50903,-33.857834,-34.893642
983077745000.0,-8.40160416381689,11.57697201985786,4.0494246726275085,0.8054258,-0.0983493,0.22693644,333.37164,-34.26981,-34.79572
983082612000.0,-7.9631709882107025,10.982651703177256,3.1774298486204016,0.9034697,-0.13591751,0.26633725,333.24176,-34.700478,-34.69219
983087612000.0,-7.544471339217,10.60011707370537,2.7041273618167896,0.93523467,-0.1151481,0.29779682,333.11343,-35.126366,-34.67723
983092790000.0,-7.136255702077151,10.38651552818991,2.5522332323442134,0.8454375,-0.044898596,0.3323107,332.97473,-35.548424,-34.654408
983097587000.0,-5.979112365739668,10.092241392429507,3.1296220739281573,0.6627888,0.018325957,0.39675698,332.80988,-35.97166,-34.652542
983102695000.0,-3.8818027337968326,9.671835137118578,4.541999463035921,0.38362336,0.012217305,0.5299256,332.6218,-36.372402,-34.627327
983107607000.0,-2.6910827,9.433155,5.3438582,0.060170226,-0.028405234,0.61422503,332.41364,-36.737793,-34.577793
983112618000.0,-2.6910827,9.433155,5.3438582,-0.11911872,-0.17654006,0.7761043,332.187,-37.11519,-34.460773
983117748000.0,-2.560910020067978,9.127164670089671,5.445291458923922,-0.4615087,-0.35216382,0.90469146,331.96976,-37.411808,-34.027843
983123226000.0,-2.268781408569569,8.440472729389644,5.672924147324269,-0.7761043,-0.45204028,1.01312,331.74228,-37.70057,-33.555275
983127568000.0,-2.0372329545487418,7.896183498553659,5.8533515173560895,-1.1991285,-0.41874814,0.9993755,331.5235,-37.897945,-33.07618
983132619000.0,-2.6719226722238028,7.237792110858226,5.684322108544334,-1.3170254,-0.28191432,0.8258898,331.3186,-38.076645,-32.615593
983137530000.0,-3.6843640467045993,6.586618193930773,5.354275151730678,-1.5393804,-0.15943582,0.47616947,331.154,-38.102913,-32.205734
983142641000.0,-4.779881508898305,6.086973743644068,4.855035304661017,-1.6722436,-0.0720821,0.049480084,331.06073,-38.000473,-31.852106
983147576000.0,-5.867011523728814,5.729364983050847,4.263789145762712,-1.690875,-0.099571034,-0.33444872,331.0332,-37.81522,-31.567236
983152705000.0,-6.435150324863794,5.388366578801387,3.744657587776127,-1.5775595,-0.23732115,-0.6435465,331.14014,-37.47612,-31.52478
983157557000.0,-6.628473806983656,5.084572741456166,3.311981364933135,-1.3472633,-0.41416663,-0.84788096,331.32022,-37.11727,-31.521915
983162551000.0,-6.559621971434925,4.885329229161107,3.007359278124722,-1.1071932,-0.65484756,-0.97127575,331.599,-36.7173,-31.700521
983167790000.0,-6.278428655110756,4.764818014278089,2.797580275713904,-0.88361657,-0.8561276,-1.0436633,331.94016,-36.349598,-31.873486
983172533000.0,-5.99658710723301,4.761281583737864,2.6555136742233008,-0.6737844,-1.0051788,-1.058324,332.32828,-36.030457,-32.075966
983177621000.0,-5.637049712592233,4.9788960847087385,2.603475240359223,-0.47983465,-1.0781772,-1.0042624,332.73947,-35.76671,-32.248276
983182524000.0,-5.31391569513082,5.190409705011087,2.564382409223947,-0.29138273,-1.02717,-0.93218035,333.13358,-35.575703,-32.39554
983187550000.0,-5.049237441525499,5.412397983858093,2.555844449933481,-0.11911872,-0.8396343,-0.84299403,333.48853,-35.442802,-32.541737
983193511000.0,-4.641848311149826,5.69603071358885,2.7180111104529616,0.020463986,-0.5195409,-0.6979135,333.73947,-35.39829,-32.66313
983197568000.0,-4.051992754438361,5.957114415007466,3.404564222166916,0.13439035,-0.121256754,-0.505491,333.89127,-35.412533,-32.81407
983202534000.0,-3.329975822067364,6.276695795644599,4.244944491521487,0.22937989,0.07971791,-0.40775254,334.00247,-35.483364,-32.934925
983207558000.0,-2.8334327464938247,6.427418541032969,5.150532082892722,0.2764165,0.39675698,-0.18845193,333.91586,-35.62605,-33.09911
983212548000.0,-2.496861397611514,6.461563444983158,6.087078732887619,0.37323865,0.5018258,0.07086037,333.80032,-35.822872,-33.231335
983217597000.0,-2.344812970969626,6.443686134112149,6.873518165566589,0.46853364,0.410196,0.3555236,333.5799,-36.091354,-33.1512
983222570000.0,-2.298448557165109,6.397321817133957,7.559710686214953,0.5494733,0.12705997,0.63804877,333.32336,-36.421413,-33.00045
983227619000.0,-2.330658293417646,6.155513889434376,8.04320965654252,0.61850107,-0.30390546,0.91415983,333.0704,-36.791737,-32.641785
983232554000.0,-2.415373254331806,5.788415496136228,8.372657027086237,0.6585127,-0.82619524,1.1472049,332.85654,-37.2074,-32.16497
983237552000.0,-2.601885174902874,5.260970516317016,8.19455854972805,0.6792821,-1.3729197,1.3481796,332.71005,-37.63413,-31.503706
983242821000.0,-2.8763384599456097,4.584639404137529,7.611344832847708,0.63255095,-1.7996091,1.4999796,332.61478,-38.069767,-30.74242
983247562000.0,-3.143091811001609,4.054352321017699,7.048872392799678,0.54825157,-1.9483547,1.6175711,332.56235,-38.454197,-29.92046
983252742000.0,-3.452392663576026,3.5455026993362835,6.400338372284795,0.4456262,-1.7620409,1.715615,332.48743,-38.82506,-29.078543
983257554000.0,-3.66478376102503,3.481226451549464,6.202146414600716,0.31948254,-1.2382239,1.7846428,332.37225,-39.12866,-28.37079
983262550000.0,-3.821608240723083,3.761609583651172,6.339962027353993,0.12156218,-0.535118,1.89918,332.12872,-39.39878,-27.726158
983267637000.0,-4.213268311908137,4.167507561922314,6.418925976155372,-0.119729586,0.22815818,2.0189097,331.78723,-39.613033,-27.270096
983272659000.0,-4.80871390890275,4.676590706294301,6.441652887411397,-0.41874814,1.0094548,1.9996674,331.28613,-39.753044,-26.97055
983277566000.0,-5.4391335516219765,5.329327753572098,6.691071361831989,-0.7779369,1.7800614,1.8490891,330.62015,-39.82564,-26.826563
983282549000.0,-6.150522534614663,6.219682587792987,7.277184426495406,-1.105666,2.3371704,1.6129897,329.85635,-39.81348,-26.8158
983287549000.0,-6.837907554551096,7.157234708378155,7.805214624038064,-1.323745,2.4275784,1.3087788,329.0985,-39.72366,-26.971087
983292887000.0,-7.493576004923459,8.288791711336367,8.19121331055027,-1.4483615,2.0690005,0.9669997,328.39255,-39.53876,-27.190477
983297533000.0,-7.835916336336457,9.185736431732112,8.176493781343432,-1.426065,1.7467692,0.6704246,327.73633,-39.32032,-27.499697
983302705000.0,-7.751998703408412,10.005169060793303,7.445915019533586,-1.3445144,0.93767816,0.45478916,327.34644,-39.05369,-27.675894
983308341000.0,-7.541869903054007,10.682844003495047,6.594436007006741,-0.89461213,0.15485434,0.35430184,327.06683,-38.90611,-27.833305
983312546000.0,-7.267077509569776,10.974391836564866,5.904104162827661,-0.7141015,-0.3652974,0.1777618,326.9822,-38.67535,-27.929295
983318145000.0,-6.8943683376794365,11.341939111822256,5.002959890518423,-0.39278635,-0.6585127,-0.08246681,327.0335,-38.662148,-27.957296
983322607000.0,-6.452868553076712,11.197377165767575,4.666951299844564,-0.11026118,-0.80939645,-0.16279559,327.16855,-38.68226,-27.908022
983327798000.0,-5.9392366880223095,11.029196739508093,4.276045743101399,-0.06352998,-0.8885035,-0.32803464,327.38193,-38.771027,-27.885965
983332560000.0,-5.317037759915134,10.62187339066478,4.344226575756718,-0.022907447,-0.9783007,-0.47861293,327.64496,-38.908268,-27.8458
983337559000.0,-4.61731677029703,10.116268732673266,4.547371181518152,-0.029932396,-1.1123856,-0.5555819,327.95413,-39.02646,-27.800379
983342939000.0,-3.88366256061507,9.549590835826445,4.8469417234971655,-0.054061573,-1.2641857,-0.57940567,328.28986,-39.158337,-27.720238
983347592000.0,-3.25849364271114,9.048627490848276,5.145035695112886,-0.09712757,-1.4370605,-0.56138515,328.66547,-39.277138,-27.618095
983352645000.0,-2.5474607768052056,8.466313119059615,5.372974716414777,-0.13927728,-1.5717562,-0.50762904,329.0557,-39.362892,-27.40988
983357555000.0,-1.821993487027708,7.859289530478589,5.491418159949622,-0.17837265,-1.6380352,-0.44684792,329.45953,-39.444496,-27.180653
983362549000.0,-1.1895501932720902,7.300526905369827,5.461944278890047,-0.21930063,-1.5992452,-0.36835176,329.8519,-39.487186,-26.844585
983367746000.0,-0.6192073453395209,6.767892680282224,5.30639638068946,-0.23884831,-1.4859297,-0.28619036,330.22098,-39.53738,-26.504375
983372561000.0,-0.1605696876632787,6.378210959749671,5.15868782301901,-0.25992316,-1.3307699,-0.18295415,330.5379,-39.5625,-26.092518
983378587000.0,0.3119275716007904,6.041488956719368,4.968602626482213,-0.2660318,-1.1685852,-0.06536258,330.7989,-39.602238,-25.692259
983382555000.0,0.5171415626136008,5.849851507364463,4.96395624124099,-0.25381452,-1.0421361,0.05681047,331.00366,-39.644268,-25.247484
983387553000.0,0.5771414170604826,5.664851892196803,5.1839557963021,-0.2452624,-1.0115929,0.15454891,331.1673,-39.69768,-24.802399
983392664000.0,0.4328975295157515,5.43147440630063,5.581481325562556,-0.25595254,-1.0033462,0.23854288,331.27988,-39.765934,-24.319557
983397572000.0,0.0182898869738974,5.148018189558956,6.194931406210621,-0.31123585,-1.0146471,0.26908615,331.37634,-39.829933,-23.834099
983402596000.0,-0.370800323207954,4.909257737741575,6.747496162322313,-0.3472769,-1.0027353,0.34300083,331.4378,-39.88254,-23.319557
983407561000.0,-0.6062282404456157,4.890271628493851,6.975329552595432,-0.43157628,-0.95539325,0.41141775,331.48352,-39.90961,-22.810349
983412521000.0,-0.8414190701533302,4.871304639195017,7.202933503402012,-0.5180137,-0.87109387,0.47800204,331.49658,-39.82896,-22.35825
983417759000.0,-1.2343952100932205,4.862101073050847,7.406715488237288,-0.63621616,-0.7516697,0.52931476,331.46912,-39.7242,-21.921394
983422610000.0,-1.6595956993008476,4.858163952118644,7.5799454382203395,-0.7302894,-0.63591075,0.55833083,331.40485,-39.60749,-21.500776
983427533000.0,-2.1668069946849204,4.864510745117777,7.678590208777934,-0.77824235,-0.5143485,0.5323691,331.30017,-39.441452,-21.149866
983432545000.0,-2.84808864912422,4.893501537547816,7.610944858264546,-0.7687739,-0.36132678,0.4746423,331.15625,-39.267677,-20.83676
983437540000.0,-3.49447990748625,4.95612057139947,7.567277718781829,-0.70432764,-0.14905111,0.39522982,331.0033,-39.057983,-20.635494
983442942000.0,-4.121525723355062,5.098391578529232,7.572547117233652,-0.5714644,0.03970624,0.31795537,330.83124,-38.866985,-20.474335
983448188000.0,-4.571087599104907,5.329441277516499,7.64526138682394,-0.4279111,0.21533,0.22724187,330.68274,-38.679886,-20.457876
983452570000.0,-4.7971025034665855,5.609572336228476,7.769410463741182,-0.2666427,0.31612277,0.15088372,330.5256,-38.52982,-20.474634
983457526000.0,-5.0527231940226045,5.926397878669499,7.909821879807327,-0.11881329,0.34300083,0.08857546,330.40286,-38.4077,-20.590492
983462546000.0,-5.204084125540294,6.225527676909039,7.955457180434156,0.01740966,0.32711834,0.043676864,330.28485,-38.320713,-20.724075
983467737000.0,-5.318685809105753,6.526356772173663,7.965007254250312,0.115453534,0.24007004,0.027183503,330.18695,-38.260635,-20.848742
983472595000.0,-5.195871697343795,6.516494983599584,7.929255544474903,0.19364429,0.0870483,0.009773844,330.13132,-38.237335,-20.98995
983477565000.0,-4.957415663786748,6.363523231921731,7.870766551186312,0.21838433,-0.105374254,-0.025350908,330.11295,-38.22198,-21.104746
983482553000.0,-4.626375195489423,6.130650857839071,7.729693740253007,0.22204952,-0.2657264,-0.050396383,330.13232,-38.243248,-21.19666
983487547000.0,-4.214761005506015,5.828139463189548,7.516447765346329,0.20372356,-0.37965274,-0.07391469,330.19098,-38.2602,-21.260931
983492724000.0,-3.802913749072682,5.4995162110275695,7.330534389273183,0.18081611,-0.41630468,-0.079107046,330.27072,-38.26843,-21.274248
983497730000.0,-3.413614468150376,5.172696929022557,7.17193111049624,0.16218472,-0.4746423,-0.06872234,330.37854,-38.272293,-21.260807
983502551000.0,-3.0636154730294587,4.876794445461783,7.083674745919586,0.13316862,-0.514654,-0.06383542,330.49106,-38.254093,-21.20708
983507547000.0,-2.7160102706807328,4.5815680370222935,7.031295653682324,0.11942416,-0.5458081,-0.048258353,330.60556,-38.23876,-21.141151
983512546000.0,-2.40196057812132,4.333546442991755,6.9933643285139375,0.09560041,-0.56107974,-0.01740966,330.714,-38.206944,-21.024292
983517996000.0,-2.0843316573321555,4.097886260424029,6.962626125235572,0.06169739,-0.5665775,0.009468411,330.81934,-38.171665,-20.904171
983522628000.0,-1.8510924465074805,3.945663319984148,6.96643942552264,0.0290161,-0.56413406,0.03176499,330.91257,-38.11918,-20.734398
983527622000.0,-1.6236401648072922,3.812982838818984,6.990132301436639,0.0012217305,-0.5687156,0.062002823,330.99463,-38.064938,-20.559366
983532614000.0,-1.434623383792483,3.751591377430654,7.0006456,-0.036651913,-0.55680364,0.089491755,331.05807,-37.984756,-20.351336
983537578000.0,-1.2771043334848056,3.747090834478841,7.0006456,-0.074830994,-0.5403103,0.11728613,331.10797,-37.90261,-20.141768
983542666000.0,-1.1722499434262148,3.818720072618449,6.998463626456092,-0.09621128,-0.48930305,0.13041973,331.14075,-37.80421,-19.906479
983547600000.0,-1.1389772332562118,3.980330187717533,6.993710488502163,-0.12644911,-0.4251622,0.14477506,331.15387,-37.698936,-19.676685
983552673000.0,-1.142758717779108,4.161459223825202,7.011114018557318,-0.14355333,-0.35705075,0.15882497,331.14685,-37.597374,-19.430431
983557547000.0,-1.1893289781203231,4.352397334989524,7.053027111842762,-0.15088372,-0.2874121,0.16401732,331.11942,-37.49271,-19.201727
983562554000.0,-1.244921313020121,4.536506649833952,7.101831621215081,-0.16432275,-0.22174409,0.1572978,331.07336,-37.397564,-18.983372
983567659000.0,-1.311775621136941,4.708417699355343,7.159135470599726,-0.17073683,-0.1554652,0.14049901,331.01047,-37.303066,-18.784935
983572549000.0,-1.378322969808487,4.893286173882839,7.207928158017274,-0.1685988,-0.09193522,0.109650314,330.94388,-37.22112,-18.605532
983577565000.0,-1.4504780262110402,5.114261269564401,7.24851537724371,-0.15943582,-0.03634648,0.07880162,330.86713,-37.13879,-18.444956
983582522000.0,-1.5346823458959329,5.343514426282521,7.301715992011726,-0.16310102,0.01863139,0.044593163,330.79343,-37.064995,-18.30564
983587556000.0,-1.6583421224074757,5.608499602372664,7.394460755221693,-0.160963,0.06811147,0.021380283,330.713,-36.994255,-18.183193
983592590000.0,-1.7773923528467568,5.8665840689831,7.485926913417052,-0.15760323,0.08674286,-0.013133603,330.6437,-36.93053,-18.084787
983597757000.0,-1.847475528883014,6.053472473364177,7.565354597488434,-0.16249016,0.112399206,-0.03268129,330.56494,-36.865753,-18.001637
983602985000.0,-1.9171451764877847,6.238514894769263,7.642069023282523,-0.1704314,0.15088372,-0.093767814,330.5036,-36.819347,-17.947296
983607552000.0,-1.9536765989977032,6.320710547734391,7.637502500104406,-0.19608775,0.1572978,-0.11301007,330.4382,-36.77039,-17.8884
983612730000.0,-1.99230527706422,6.4068837,7.631067607798165,-0.19883664,0.18020524,-0.14782938,330.38654,-36.723038,-17.8621
983617651000.0,-1.9964626017642908,6.4068837,7.610280897477065,-0.20097467,0.20219639,-0.17715092,330.3371,-36.669052,-17.83975
983622623000.0,-2.000663011926606,6.4068837,7.589278758944954,-0.19211712,0.19975294,-0.2003638,330.29584,-36.62766,-17.825602
983627556000.0,-2.0266545000193013,6.34592190536576,7.516697071376182,-0.1685988,0.19028452,-0.2144137,330.2567,-36.58873,-17.818064
983633402000.0,-2.06447555865663,6.254070706543138,7.414039912217719,-0.14996742,0.15821409,-0.22479841,330.22705,-36.550053,-17.808054
983637551000.0,-2.1146364293674846,6.158563632906443,7.310779312982696,-0.12034045,0.13500121,-0.22693644,330.20972,-36.52339,-17.793772
983642626000.0,-2.181156387818946,6.0350266522631735,7.177739644148988,-0.08368854,0.11362094,-0.23243423,330.20105,-36.50295,-17.775381
983647568000.0,-2.2348789260490967,5.921868825845299,7.055652029597035,-0.043676864,0.083383106,-0.22052236,330.2029,-36.492214,-17.755222
983652573000.0,-2.283721003260769,5.810863999536823,6.935766631727652,-0.013439035,0.050396383,-0.21471913,330.21155,-36.487755,-17.732101
983657557000.0,-2.318430842139119,5.690533012865242,6.834465457871784,0.03023783,0.038179077,-0.20250183,330.22775,-36.49937,-17.718609
983662546000.0,-2.339267749847361,5.560303141997383,6.7511184797645,0.060170226,0.027183503,-0.17928895,330.2453,-36.51697,-17.695644
983667753000.0,-2.3562933577306366,5.463037694879132,6.709617756359151,0.09193522,0.038789943,-0.160963,330.26996,-36.54019,-17.68999
983672590000.0,-2.370005143108042,5.389908268317711,6.691335375855945,0.116675265,0.05100725,-0.14172074,330.29037,-36.571396,-17.678322
983677568000.0,-2.3992641021539374,5.320634084309851,6.723962192362415,0.14049901,0.08857546,-0.12095132,330.30847,-36.60207,-17.678795
983682563000.0,-2.437075427961664,5.254464128426045,6.78540567699832,0.15699236,0.12797627,-0.100792766,330.31924,-36.638435,-17.679508
983687552000.0,-2.4884060868144577,5.209151693985542,6.859985324346988,0.16432275,0.15577064,-0.07422013,330.31897,-36.672497,-17.687702
983692648000.0,-2.5495573991614457,5.176224068038554,6.944656187074699,0.16707164,0.19975294,-0.058948494,330.30646,-36.709538,-17.706509
983697578000.0,-2.628623179424533,5.177637686824836,7.041823587178193,0.16493362,0.25442538,-0.052534413,330.28378,-36.741714,-17.730808
983703429000.0,-2.7417656883493184,5.211580575365977,7.171937894800606,0.14752395,0.31887165,-0.040317107,330.24683,-36.771732,-17.762655
983707549000.0,-2.835863945424096,5.22722538308541,7.269925835917643,0.13255776,0.33536503,-0.043066,330.22012,-36.786243,-17.800455
983712543000.0,-2.958363306866319,5.241359864239977,7.3924250005713725,0.12583824,0.3555236,-0.03970624,330.1775,-36.79981,-17.848583
983717656000.0,-3.062198845422168,5.307246482635511,7.475783225781793,0.12522738,0.37415496,-0.038789943,330.13647,-36.8041,-17.908772
983722567000.0,-3.143907911553162,5.41346805957262,7.520723141765115,0.11301007,0.38973203,-0.05681047,330.0972,-36.801754,-17.973581
983727547000.0,-3.249585541436295,5.506881631643374,7.548482358216872,0.10140363,0.39767328,-0.06872234,330.05664,-36.795914,-18.049303
983732546000.0,-3.4351644031418958,5.5508343817198815,7.514296908599408,0.110872045,0.39553526,-0.082161374,330.02106,-36.79048,-18.127262
983737535000.0,-3.58667157737069,5.602269109375,7.481243103987069,0.11789699,0.39461896,-0.10048734,329.99042,-36.786297,-18.220314
983742656000.0,-3.643923400862069,5.6771370625,7.4504150150862065,0.12308934,0.3839288,-0.11911872,329.96667,-36.78275,-18.310398
983747695000.0,-3.6958740734,5.75201284265,7.419189474516666,0.129198,0.37140608,-0.13713925,329.9626,-36.777336,-18.433998
983752748000.0,-3.6837761808,5.8447634368,7.3748306192,0.14935656,0.36377025,-0.15363261,329.9649,-36.775352,-18.555956
983757553000.0,-3.6722720498,5.93296185455,7.332648885616667,0.17898351,0.35705075,-0.16493362,329.97552,-36.784763,-18.686644
983762550000.0,-3.624125470829736,6.036417010091127,7.240775005544364,0.19547687,0.32711834,-0.16249016,329.99387,-36.79559,-18.807556
983767620000.0,-3.554262962052758,6.148196965774581,7.119679867127098,0.21960606,0.312763,-0.15424347,330.01294,-36.81523,-18.92818
983772548000.0,-3.5110602206094628,6.2410895975040095,6.9990192698977545,0.23304509,0.3051272,-0.13469578,330.02246,-36.85684,-19.039886
983777578000.0,-3.486916623977546,6.323177876473537,6.87347271867482,0.2660318,0.28619036,-0.11362094,330.0359,-36.909653,-19.141459
983782560000.0,-3.4624765795374035,6.386808140925193,6.763069618149615,0.27488935,0.2602286,-0.1001819,330.04678,-36.978344,-19.230429
983787549000.0,-3.437586677891227,6.436587944217545,6.6635100115649095,0.27458394,0.24190263,-0.080634214,330.05493,-37.053967,-19.31008
983792621000.0,-3.4163872386732805,6.4820142445968285,6.57265734758292,0.2733622,0.21960606,-0.06780604,330.06885,-37.136765,-19.389471
983797570000.0,-3.39794717128684,6.523504444353662,6.489676851794572,0.27977628,0.18387043,-0.062308256,330.0874,-37.22019,-19.458145
983802597000.0,-3.3986787168857227,6.572085821009331,6.417981526828534,0.26908615,0.15118915,-0.04642576,330.09656,-37.31351,-19.520859
983807551000.0,-3.4129588815892444,6.62444652433029,6.356100813113274,0.23793201,0.116980694,-0.047647487,330.11703,-37.39868,-19.576551
983812550000.0,-3.41892,6.679202043950595,6.294840639316625,0.21563543,0.10262536,-0.043066,330.12888,-37.492638,-19.630789
983817654000.0,-3.41892,6.736490210557158,6.23314569420303,0.18448131,0.09743301,-0.039095376,330.14703,-37.573204,-19.679235
983822569000.0,-3.4264525195893745,6.780218149486719,6.207492818710975,0.1441642,0.112704635,-0.035430185,330.1629,-37.650467,-19.735575
983827645000.0,-3.447031136077892,6.805941420097365,6.238360850883692,0.109650314,0.12889257,-0.040011674,330.18134,-37.718353,-19.791004
983832555000.0,-3.464274445800901,6.825733770329783,6.305334778011061,0.0729984,0.14813483,-0.050396383,330.19055,-37.78663,-19.854553
983837542000.0,-3.478948606472757,6.840407982077018,6.412945238529291,0.049785517,0.15790866,-0.05100725,330.198,-37.848198,-19.91737
983842736000.0,-3.498247651843738,6.847417,6.520878841146404,0.027794369,0.16707164,-0.050396383,330.1983,-37.89948,-19.988157
983847581000.0,-3.5194230790069367,6.847417,6.618285982986492,0.009162978,0.16768251,-0.05375614,330.20026,-37.943684,-20.058414
983852550000.0,-3.532211464845582,6.844156712669452,6.7009126515441855,-0.00030543262,0.16982053,-0.06658431,330.19626,-37.979385,-20.127539
983857550000.0,-3.527330820670676,6.834395373356436,6.749719093293242,-0.008246681,0.1554652,-0.06047566,330.19275,-38.011593,-20.188606
983862538000.0,-3.529461651317207,6.823066466771129,6.795969853951621,-0.0015271631,0.15974127,-0.06078109,330.19247,-38.029728,-20.254845
983867656000.0,-3.5438620222113406,6.808666145999412,6.839170966634022,-0.014049901,0.1441642,-0.058337633,330.19766,-38.041523,-20.31042
983872557000.0,-3.5700042841531032,6.788193615498122,6.8665705,0.00061086525,0.13439035,-0.059253927,330.1903,-38.062965,-20.36619
983877614000.0,-3.621977056698265,6.7535451155428365,6.8665705,-0.008857546,0.11056661,-0.051618114,330.1872,-38.075897,-20.412006
983882577000.0,-3.67995004482202,6.714896454761703,6.86296058906635,0.004581489,0.09682214,-0.052534413,330.18433,-38.092377,-20.46003
983887563000.0,-3.8016473297765696,6.633764776144762,6.826451428994988,0.007330383,0.074830994,-0.05467244,330.187,-38.10413,-20.498741
983892674000.0,-3.926395589584572,6.550599110398436,6.789026977104749,0.009468411,0.040317107,-0.040317107,330.19614,-38.114346,-20.538807
983897578000.0,-3.9887277801522414,6.491174054835072,6.746872649873132,0.015882496,0.004276057,-0.050701816,330.21652,-38.12272,-20.577736
983902579000.0,-4.03373621618269,6.437163865802087,6.701864119847759,0.032070424,-0.020463986,-0.056199603,330.23737,-38.136326,-20.607265
983907617000.0,-4.068985566081285,6.404462831038636,6.666614796557953,0.057726767,-0.038789943,-0.058643065,330.27805,-38.142834,-20.65816
983912624000.0,-4.097857339989965,6.385215048760663,6.637743123140994,0.06169739,-0.056199603,-0.0571159,330.32364,-38.14776,-20.703213
983917710000.0,-4.102341197477177,6.365935726847943,6.633259238735644,0.081855945,-0.06505715,-0.05497787,330.3792,-38.160316,-20.754993
983922793000.0,-4.0927840896829295,6.346821561156376,6.642816246736036,0.08032878,-0.09010262,-0.050701816,330.44034,-38.16872,-20.798058
983927629000.0,-4.083419716879374,6.325154542198435,6.640427447560724,0.09040806,-0.09896017,-0.041233405,330.50284,-38.18997,-20.84245
983932608000.0,-4.073604383985179,6.300616209962947,6.630612165911898,0.092240654,-0.10415252,-0.03359759,330.56854,-38.20865,-20.881393
983937609000.0,-4.067579698639175,6.276583884783505,6.6271505,0.089491755,-0.10781772,-0.02565634,330.6351,-38.221043,-20.91807
983942647000.0,-4.063600530424743,6.252708709294845,6.6271505,0.07544186,-0.09987647,-0.015577064,330.69742,-38.23204,-20.953995
983947547000.0,-4.050065166338481,6.233451316633848,6.632400916830759,0.067500606,-0.09560041,-0.016798794,330.75372,-38.2461,-20.989866
983952604000.0,-3.9998735634780807,6.228432156347808,6.657496718260959,0.051923547,-0.0711658,-0.003970624,330.79834,-38.257477,-21.026848
983957566000.0,-3.955116794846383,6.222020218235877,6.683747584638256,0.036651913,-0.051923547,0.017715093,330.83725,-38.271538,-21.059437
983962572000.0,-3.921178340365284,6.211838611015149,6.714292193671244,0.02076942,-0.047647487,0.015882496,330.87653,-38.279778,-21.095613
983970711000.0,-3.866729715421816,6.196577388769479,6.763525984578184,-0.007330383,-0.056505036,0.03573562,330.90402,-38.281334,-21.116964
983972755000.0,-3.856211188178399,6.198330513254523,6.774044511821601,-0.032375857,-0.06811147,0.042455133,330.93442,-38.277714,-21.141018
983977630000.0,-3.831124191939817,6.202511766612933,6.799131508060182,-0.039095376,-0.0729984,0.058643065,330.95767,-38.272667,-21.147234
983982554000.0,-3.79085859982684,6.203699942145263,6.821793097594997,-0.0421497,-0.081855945,0.061391957,330.9851,-38.261734,-21.151379
983987630000.0,-3.6973292346320346,6.194347015392015,6.835822536556036,-0.046731193,-0.0852157,0.06872234,331.00714,-38.251823,-21.15177
