timestamp,acc_x,acc_y,acc_z,gyro_x,gyro_y,gyro_z,ori_azimuth,ori_pitch,ori_roll
750563025000.0,0.1735564645169366,9.75619565154639,-1.830802010490918,4.2189407,-4.139223,9.667248,208.7582,-152.09236,-51.472008
750567992000.0,0.181496140133726,9.755962151340205,-1.8265986507746683,4.2189407,0.7498371,0.033292156,204.02489,-154.56277,-52.61066
750573033000.0,0.189554103649779,9.755725172371132,-1.8223326680225824,-1.1878275,0.75655663,0.03359759,208.95627,-151.45375,-50.888336
750578036000.0,0.1975513247310751,9.755489979793811,-1.8180988430456555,-1.1942415,0.75594574,0.03481932,209.18584,-151.51987,-50.26451
750583067000.0,0.2055933033958762,9.755253470927832,-1.8138413228659795,-1.1881329,0.7593055,0.034513887,209.39479,-150.8514,-49.64221
750588013000.0,0.2134994108250368,9.755020957938145,-1.809655734551792,-1.1951579,0.75502944,0.035124753,209.59404,-150.17574,-49.02224
750593837000.0,0.2228089881941089,9.754747169896904,-1.8047271323799703,-1.1753048,0.7357872,0.03176499,209.78328,-149.5022,-48.406666
750598022000.0,0.2294986484430043,9.754550431752577,-1.801185545826215,-1.1673635,0.77946407,0.03359759,209.94275,-148.82115,-47.78038
750602893000.0,0.2372848694877761,9.754321444536082,-1.7970634268051056,-1.2012665,0.7846564,0.03940081,210.10962,-148.13379,-47.166096
750607874000.0,0.245246923896318,9.754087286185566,-1.7928482194874815,-1.2202033,0.7819075,0.04153884,210.25302,-147.44746,-46.547462
750612891000.0,0.2532665237693667,9.753851435463917,-1.7886025469091802,-1.2290609,0.75502944,0.06047566,210.39723,-146.74991,-45.929058
750617874000.0,0.261231775148159,9.753617183092782,-1.784385647077074,-1.2217305,0.7507534,0.06872234,210.52179,-146.05225,-45.311085
750622864000.0,0.2692082159228277,9.753382601649484,-1.7801628234442808,-1.2513574,0.73945236,0.07971791,210.65178,-145.34119,-44.696312
750627844000.0,0.2771686718462445,9.753148490309275,-1.775948462383898,-1.2544118,0.7171558,0.080634214,210.77553,-144.63464,-44.086857
750632854000.0,0.2851770823234167,9.752912968659793,-1.7717087136062837,-1.2534955,0.70066243,0.09193522,210.89542,-143.91864,-43.475853
750637888000.0,0.2932238564435935,9.752676318762886,-1.7674486546548849,-1.2559389,0.6759224,0.095294975,211.01294,-143.20341,-42.87413
750642878000.0,0.3012002972182621,9.752441737319586,-1.7632258310220912,-1.2550226,0.6432411,0.118202426,211.1348,-142.48177,-42.271873
750647852000.0,0.3091511622309278,9.752207908041235,-1.7590165475051545,-1.2702943,0.58001655,0.11942416,211.25989,-141.76268,-41.685608
750652842000.0,0.3171276030055964,9.751973326597938,-1.7547937238723612,-1.2226468,0.4914411,0.1328632,211.40079,-141.04619,-41.103004
750657930000.0,0.3252606953225331,9.751734138144329,-1.750487967029946,-1.1175779,0.4098906,0.12736541,211.54555,-140.34236,-40.536076
750663239000.0,0.3337470528521354,9.75148456041237,-1.7459951873372606,-0.98899084,0.31673363,0.13683382,211.71777,-139.64493,-39.980392
750667959000.0,0.3412919026430044,9.751262671752576,-1.7420008531595483,-0.86742866,0.2321288,0.14080444,211.90114,-138.96776,-39.44086
750672907000.0,0.3492012070424153,9.751030064742269,-1.7378135723308787,-0.73639804,0.14996742,0.13225232,212.10329,-138.31534,-38.918087
750677897000.0,0.3571776478170839,9.750795483298967,-1.7335907486980853,-0.6151413,-0.10842858,0.08979719,212.37299,-137.69038,-38.443417
750682899000.0,0.3651732704132547,9.750560337731958,-1.7293577699783995,-0.15485434,-0.19700404,0.06963864,212.60945,-137.13817,-37.954388
750687944000.0,0.3732376278698085,9.750323170721648,-1.725088402197349,-0.010995574,-0.20647246,0.0729984,212.8906,-136.56311,-37.497505
750692930000.0,0.3812076747039764,9.750088777319586,-1.72086896359352,0.00030543262,-0.17623462,0.076052725,213.1766,-136.04648,-37.054604
750697945000.0,0.3892240776067746,9.749853020618556,-1.7166249835297005,-0.04337143,-0.18325958,0.079107046,213.47157,-135.54541,-36.61961
750702919000.0,0.3971749426194403,9.749619191340203,-1.7124157000127638,-0.03481932,-0.20066923,0.07788532,213.75403,-135.05737,-36.184464
750707910000.0,0.4051529818792341,9.749384562886595,-1.7081920301227294,-0.04428773,-0.20861048,0.07788532,214.03035,-134.56161,-35.750324
750713034000.0,0.4133436196606774,9.749143682061856,-1.7038558080196369,-0.027488936,-0.21624629,0.077579886,214.30576,-134.07494,-35.32144
750717970000.0,0.4212337422385861,9.748911639175256,-1.6996786822778596,-0.019242255,-0.22724187,0.070249505,214.57758,-133.59045,-34.89846
750722966000.0,0.4292197739240058,9.748676775670102,-1.69545078110162,-0.015882496,-0.22357668,0.065973446,214.80708,-133.13307,-34.455048
750727951000.0,0.4371882222730486,9.74844242927835,-1.691232188755032,-0.0143553335,-0.23396139,0.059864793,215.03809,-132.68294,-34.021248
750732990000.0,0.4452429888188512,9.748205544329895,-1.6869678985174277,-0.016798794,-0.22968534,0.055588737,215.25845,-132.23749,-33.58969
750737990000.0,0.4532354144447717,9.747970492783503,-1.6827366123122238,-0.024129177,-0.22907446,0.05375614,215.47806,-131.7966,-33.165
750742972000.0,0.4611990673384388,9.74773628742268,-1.6785205587373588,-0.017104227,-0.22113322,0.04520403,215.68813,-131.3646,-32.745728
750748014000.0,0.469258629339617,9.747499261443298,-1.674253729728031,-0.015577064,-0.20158553,0.032070424,215.88939,-130.93634,-32.330677
750753001000.0,0.4772302746589101,9.747264821030928,-1.6700334448669611,-0.02687807,-0.19242255,0.03726278,216.08896,-130.50925,-31.917664
750758013000.0,0.4852418821063328,9.747029205360825,-1.665792003574865,-0.03176499,-0.18509217,0.034513887,216.27621,-130.09288,-31.51209
750762975000.0,0.4931735652974963,9.746795940206184,-1.6615928751448208,-0.035124753,-0.17440203,0.026267206,216.45601,-129.67953,-31.109417
750767981000.0,0.5011755818341679,9.74656060659794,-1.6573565113961708,-0.03848451,-0.15577064,0.018325957,216.62735,-129.27061,-30.709929
750773005000.0,0.5092063711030927,9.746324426804124,-1.6531049150171822,-0.03726278,-0.1518,0.015271631,216.79599,-128.8674,-30.316296
750778953000.0,0.5187141606276877,9.746044809484536,-1.6480713769474715,-0.03970624,-0.15271631,0.0106901415,216.95589,-128.46992,-29.927954
750782953000.0,0.5251081011284241,9.745856768247425,-1.6446863479833087,-0.034513887,-0.1459968,0.004886922,217.10863,-128.07977,-29.543898
750788043000.0,0.5332443904156112,9.745617485773195,-1.6403788986264114,-0.032070424,-0.14294247,-0.0061086523,217.25835,-127.69579,-29.16754
750793033000.0,0.5412208311902797,9.745382904329896,-1.636156074993618,-0.017104227,-0.13622294,-0.011911872,217.40201,-127.31989,-28.794708
750798006000.0,0.5491700977178203,9.745149122061855,-1.6319476377339224,-0.022907447,-0.13530666,-0.019242255,217.54204,-126.9485,-28.430082
750802960000.0,0.5570889930279823,9.74491623298969,-1.6277552793618066,0.0018325958,-0.129198,-0.016798794,217.67644,-126.589005,-28.06763
750807940000.0,0.5650494489513991,9.744682121649484,-1.6235409183014236,0.00580322,-0.12370021,-0.01038471,217.80777,-126.230484,-27.710629
750813030000.0,0.5731857382385861,9.744442839175258,-1.6192334689445262,0.015577064,-0.12705997,-0.008246681,217.93726,-125.88263,-27.359085
750818040000.0,0.5811941487157585,9.744207317525774,-1.614993720166912,0.012217305,-0.122478485,-0.010079277,218.0608,-125.537476,-27.010017
750823006000.0,0.5891322258474226,9.743973864329895,-1.6107912067079038,0.008246681,-0.12950343,-0.0033597588,218.1879,-125.19646,-26.664595
750827953000.0,0.5970399317617083,9.743741304329896,-1.6066047721364751,0.01863139,-0.12370021,0.0030543262,218.30743,-124.86281,-26.322388
750833010000.0,0.6051234710397644,9.743503573195875,-1.602325249268532,0.024740042,-0.124311075,0.0067195175,218.42926,-124.53176,-25.985365
750837978000.0,0.6130647451416789,9.74327002597938,-1.5981210432950417,0.032986723,-0.105374254,0.011301007,218.54257,-124.20634,-25.648233
750842995000.0,0.6210843450147275,9.743034175257732,-1.5938753707167403,0.03726278,-0.11026118,0.0125227375,218.66106,-123.88621,-25.31852
750848921000.0,0.6305569678665685,9.742755592164947,-1.5888604503063328,0.041233405,-0.10995574,0.0070249503,218.77037,-123.57298,-24.991379
750852949000.0,0.63699566595081,9.742566234639176,-1.5854517261394208,0.051618114,-0.09987647,0.010995574,218.87775,-123.26437,-24.66562
750857945000.0,0.6449816976362297,9.74233137113402,-1.5812238249631811,0.04795292,-0.08460484,0.017104227,218.98138,-122.95955,-24.344816
750862987000.0,0.6530412596374079,9.74209434515464,-1.5769569959538536,0.047647487,-0.08857546,0.021685716,219.0863,-122.66167,-24.029093
750867994000.0,0.6610448746592047,9.741858964536082,-1.5727197859479627,0.049480084,-0.09254608,0.016187929,219.18471,-122.36928,-23.717451
750872975000.0,0.6690069290677467,9.741624806185568,-1.5685045786303389,0.048563786,-0.09040806,0.02107485,219.28278,-122.07801,-23.406322
750877939000.0,0.6769418092291606,9.74139144701031,-1.5643037576858123,0.05497787,-0.07880162,0.016798794,219.37598,-121.79649,-23.103115
750882939000.0,0.684934234855081,9.741156395463918,-1.560072471480609,0.051923547,-0.07666359,0.018936822,219.47119,-121.51543,-22.802351
750888036000.0,0.6930817135381443,9.740916783917529,-1.555759098323024,0.05681047,-0.07360926,0.021685716,219.56099,-121.24271,-22.505796
750893071000.0,0.7011300861434462,9.74068008701031,-1.551498193114384,0.048563786,-0.069027774,0.018936822,219.64801,-120.972336,-22.214315
750898015000.0,0.7090329966023563,9.740447668041238,-1.5473142973146785,0.05375614,-0.06780604,0.026572637,219.73538,-120.7075,-21.923931
750902972000.0,0.7169566873678939,9.740214637938143,-1.5431194001708397,0.048563786,-0.06078109,0.029626964,219.81769,-120.44528,-21.638893
750907995000.0,0.7249858781516936,9.73997850515464,-1.5388686500490918,0.04062254,-0.056505036,0.022296581,219.89893,-120.18877,-21.359247
750913072000.0,0.7331013871322534,9.739739833814433,-1.534572202036328,0.03634648,-0.051618114,0.024740042,219.97833,-119.93396,-21.079865
750917963000.0,0.7183002056122965,9.741736588633836,-1.5301652339569218,0.038789943,-0.051923547,0.028405234,220.05617,-119.684784,-20.806614
750923033000.0,0.6741107644150066,9.74664611639195,-1.525255296046112,0.03726278,-0.042760566,0.032986723,220.12923,-119.437874,-20.535345
750928004000.0,0.6400905704643094,9.749189,-1.5542538061632518,0.036957346,-0.023518313,0.03604105,220.21725,-119.13612,-20.222023
750932967000.0,0.616529908849967,9.749189,-1.6210090263714474,0.027488936,-0.028710667,0.03268129,220.30803,-118.837494,-19.91532
750938058000.0,0.5919436589873418,9.747976753164556,-1.6833965537974684,0.03726278,-0.032986723,0.035430185,220.40675,-118.52814,-19.60613
750943027000.0,0.5613147259300579,9.727557585282128,-1.6476627701351645,0.03390302,-0.027183503,0.028405234,220.50117,-118.221634,-19.304253
750948030000.0,0.5326757266649975,9.71178838607912,-1.624824879519279,0.03481932,-0.03634648,0.0290161,220.60594,-117.91571,-18.999802
750953008000.0,0.5135777306209314,9.716562978567852,-1.6582463788282424,0.051923547,-0.029321533,0.03023783,220.70273,-117.61839,-18.699144
750957951000.0,0.49799395,9.719257271328871,-1.6879214071499786,0.042455133,-0.04062254,0.0290161,220.82552,-117.301956,-18.406584
750963084000.0,0.49799395,9.712255599059963,-1.7019244592508191,0.04520403,-0.04520403,0.028710667,220.94353,-116.99571,-18.116085
750967977000.0,0.49799395,9.70558129896026,-1.715272780686512,0.04642576,-0.040927973,0.031154128,221.0786,-116.67747,-17.82557
750973006000.0,0.4904519671850312,9.712618007692308,-1.7257106947193348,0.03604105,-0.04062254,0.021685716,221.21375,-116.364395,-17.543142
750977972000.0,0.470677159022869,9.742280307692308,-1.7306543941787942,0.048258353,-0.03756821,0.031154128,221.34811,-116.05682,-17.258232
750982937000.0,0.4656983618181818,9.756762082273676,-1.7414175035111028,0.04734206,-0.027488936,0.03176499,221.50398,-115.73142,-16.97575
750988555000.0,0.4810150727272727,9.75165640890112,-1.7618397705067377,0.043982297,-0.020463986,0.02687807,221.6593,-115.412155,-16.69613
750992991000.0,0.486735518248138,9.75759715875931,-1.778435744566881,0.04428773,-0.02107485,0.02443461,221.86371,-115.06106,-16.415947
750998016000.0,0.4818254662126314,9.782147418936844,-1.798076003979186,0.04337143,-0.02107485,0.028405234,222.06488,-114.71408,-16.138414
751002940000.0,0.47884035,9.799754359149128,-1.8207417126132877,0.043066,-0.008552114,0.022296581,222.33035,-114.31964,-15.852863
751007933000.0,0.47884035,9.806917562055276,-1.8493939258707213,0.04153884,-0.009773844,0.014660766,222.59837,-113.93055,-15.571519
751014712000.0,0.4793769690706212,9.816227,-1.8866309,0.039095376,-0.01863139,0.007941248,222.94206,-113.47719,-15.273665
751017987000.0,0.485437063747464,9.816227,-1.8866309,0.03848451,-0.008552114,0.008857546,223.27846,-113.03141,-14.977467
751023034000.0,0.4947760859868612,9.816227,-1.8866309,0.03940081,-0.021380283,0.016493361,223.63582,-112.55762,-14.662353
751028010000.0,0.5059304977598567,9.816227,-1.870757832104455,0.046120327,-0.015577064,0.0143553335,223.98215,-112.09445,-14.350515
751032975000.0,0.51810379390681,9.816227,-1.84641128218126,0.042455133,-0.024129177,0.011911872,224.33476,-111.63566,-14.042331
751038028000.0,0.519136344964344,9.81243303058682,-1.8253760777644128,0.03726278,-0.020463986,0.010079277,224.74713,-111.1124,-13.706178
751042967000.0,0.4947528681776785,9.800241478907122,-1.813184356345047,0.031154128,-0.028405234,0.011301007,225.16243,-110.59712,-13.374554
751048340000.0,0.4691100223736834,9.787036497023356,-1.8004397,0.033292156,-0.030543262,0.007941248,225.68471,-109.97348,-13.000865
751052947000.0,0.4657425768287284,9.776933938864296,-1.8004397,0.027488936,-0.040927973,0.0067195175,226.20697,-109.35804,-12.629965
751058087000.0,0.4619855396893604,9.765662580293084,-1.8004397,0.026572637,-0.03481932,0.012217305,226.91743,-108.57001,-12.194309
751062954000.0,0.45968673,9.758766,-1.78956334641385,0.02443461,-0.027794369,0.012217305,227.62015,-107.79943,-11.762141
751067999000.0,0.45968673,9.758766,-1.7576985358202803,0.03359759,-0.027488936,0.013744468,228.31401,-107.04709,-11.329403
751073846000.0,0.457704191578272,9.759261644568006,-1.7238252,0.028099801,-0.022602014,0.013133603,229.35431,-105.95878,-10.748144
751077945000.0,0.4409140573000428,9.763459262510692,-1.7238252,0.026267206,-0.019547688,0.015271631,230.37091,-104.905334,-10.164961
751083116000.0,0.4198783392669422,9.768643238165795,-1.71752032391796,0.03145956,-0.012217305,0.02107485,231.97238,-103.27453,-9.292032
751087992000.0,0.4016702304749279,9.772284932933012,-1.6410462548233642,0.03390302,-0.026267206,0.022296581,233.51147,-101.718315,-8.417845
751092972000.0,0.3830737616922717,9.776004301255556,-1.5629410735085394,0.03940081,-0.030543262,0.024129177,235.13373,-100.029,-7.4162707
751098081000.0,0.3621741824089219,9.77792,-1.5023339088475836,0.04550946,-0.021380283,0.025045475,236.67926,-98.427635,-6.423402
751102940000.0,0.3405507202174721,9.77792,-1.463411693159851,0.04550946,-0.03359759,0.027183503,238.16245,-96.90849,-5.44227
751107949000.0,0.3287630084462151,9.768465261752988,-1.4239147262151397,0.052534413,-0.038789943,0.027794369,239.48108,-95.56729,-4.543171
751112978000.0,0.3383569780079681,9.739683252888446,-1.3855388479681274,0.044898596,-0.05375614,0.029626964,240.7566,-94.2929,-3.657786
751117932000.0,0.355666858495106,9.729803442801794,-1.349004788009788,0.054367006,-0.058643065,0.023823744,241.94702,-93.13791,-2.820053
751123077000.0,0.3908329125122349,9.759945861745514,-1.3138387549755302,0.05131268,-0.0720821,0.025350908,243.10576,-92.071686,-1.9951701
751127973000.0,0.4144762305009163,9.781930265729994,-1.2982160954184483,0.049480084,-0.089491755,0.03023783,244.21753,-88.791595,-1.1919913
751132945000.0,0.4217480538546121,9.792837837507635,-1.3127597269395237,0.054367006,-0.09101892,0.02565634,245.29724,-89.009346,-0.40698016
751137973000.0,0.4291017802871106,9.803868262064752,-1.3274671644471594,0.054061573,-0.10140363,0.027183503,246.35347,-88.393,0.3663567
751142991000.0,0.4397391411592076,9.809577671802396,-1.3311762,0.043982297,-0.10293079,0.022296581,247.38196,-87.546036,1.1203725
751148000000.0,0.4514706748569332,9.813488260617918,-1.3311762,0.0571159,-0.11636983,0.033292156,248.3931,-86.675385,1.8634177
751152917000.0,0.4608905570238201,9.819838434561513,-1.3468259676509948,0.05131268,-0.11789699,0.032070424,249.39162,-85.805824,2.5930681
751157934000.0,0.4651770014372379,9.832697602194663,-1.402549803211705,0.050396383,-0.11484267,0.031154128,250.37222,-84.96395,3.309345
751163003000.0,0.4710930049528262,9.84289883635301,-1.46070568314269,0.059864793,-0.116675265,0.03145956,251.34354,-84.14916,4.0103803
751168014000.0,0.5031473724304918,9.806837794272356,-1.5488551853385657,0.058643065,-0.12644911,0.04062254,252.29865,-83.36033,4.697276
751173028000.0,0.5352209303097604,9.770755163062535,-1.6370574611338398,0.06169739,-0.12461651,0.03848451,253.25995,-82.581665,5.3899484
751177963000.0,0.5673135162333105,9.740010098510783,-1.687799907839781,0.06414085,-0.13225232,0.029626964,254.21107,-81.83327,6.06605
751182937000.0,0.5999290738180417,9.711471752225265,-1.720415452653201,0.064751714,-0.12797627,0.027183503,255.14377,-81.114365,6.725471
751187955000.0,0.6380068920834889,9.679035239820696,-1.7514412429678743,0.053145275,-0.12308934,0.025961773,256.10675,-80.387146,7.405807
751192981000.0,0.6874524763774748,9.638579413149047,-1.7784115906892044,0.06627888,-0.11453723,0.024129177,257.05353,-79.69609,8.065903
751197927000.0,0.7329765738136765,9.602110839519302,-1.8047224229607568,0.06688975,-0.113926366,0.024129177,258.01907,-79.003624,8.732864
751202957000.0,0.7637144421642029,9.581619059236417,-1.8303372820482824,0.062308256,-0.11026118,0.015271631,258.96802,-78.34561,9.376506
751207911000.0,0.7880001943035715,9.563177017857145,-1.8537277514285715,0.055588737,-0.10995574,0.009162978,259.94153,-77.678665,10.036455
751213038000.0,0.7977423030267857,9.54856405059524,-1.8732119790476192,0.04062254,-0.094989546,0.010079277,260.89618,-77.040726,10.674303
751218001000.0,0.8168030000280195,9.534382838787153,-1.890747989562694,0.0421497,-0.08155051,0.008857546,261.84827,-76.426544,11.299588
751223120000.0,0.8609552330611429,9.519665137496249,-1.9054654347243072,0.046120327,-0.06780604,0.005497787,262.78378,-75.83928,11.903532
751227938000.0,0.9038039915271472,9.512161945705468,-1.9057898045759945,0.03940081,-0.049785517,0.0009162979,263.74362,-75.24568,12.515673
751237976000.0,0.9992651751577372,9.530561626884824,-1.8366986056999253,0.025045475,-0.029626964,0.0033597588,264.68585,-74.67978,13.106711
751243874000.0,1.0475885973585712,9.554723180301572,-1.806496506245321,0.020463986,-0.018325957,0.004276057,265.60965,-74.13239,13.688143
751247976000.0,1.078881750156264,9.569024137512278,-1.788171740566122,0.0018325958,-0.0009162979,0.004581489,266.49353,-73.61262,14.242618
751252948000.0,1.1086443135279935,9.577527904634342,-1.7754163118671311,0.01038471,0.013439035,0.00030543262,267.3659,-73.121506,14.776101
751263027000.0,1.1350773581413434,9.613759946437252,-1.721068623272091,-0.014049901,0.03390302,0.010995574,268.19632,-72.66005,15.277715
751267991000.0,1.130456065714008,9.641487797511424,-1.6794769914260717,-0.027183503,0.035124753,0.012217305,269.02167,-72.22569,15.758339
751272964000.0,1.144216918380602,9.691024061268674,-1.62404418334055,-0.03756821,0.033292156,0.013439035,269.81705,-71.81853,16.212301
751278036000.0,1.159858102213454,9.74032264344144,-1.572370464180541,-0.043982297,0.04337143,0.0143553335,270.60272,-71.42828,16.650433
751282946000.0,1.1734339616110097,9.749372901356944,-1.5949968177557503,-0.061086524,0.042455133,0.015882496,271.3624,-71.07101,17.054827
751288355000.0,1.1867466601711767,9.758506848880437,-1.6189985914152332,-0.061391957,0.06719518,0.017104227,272.07715,-70.75018,17.42333
751292982000.0,1.175253963404513,9.754675883288666,-1.626660362591856,-0.09040806,0.081855945,0.02107485,272.79187,-70.43664,17.781466
751297982000.0,1.1628347968098902,9.750536089046424,-1.6349397781706578,-0.10720685,0.100792766,0.021685716,273.50952,-70.13421,18.130953
751302951000.0,1.1682469160382003,9.761793640740375,-1.6502383104164615,-0.106901415,0.12950343,0.028405234,274.21564,-69.84148,18.470238
751307934000.0,1.182342030885104,9.780587454267993,-1.6690317805257455,-0.10323623,0.17623462,0.023823744,274.90744,-69.56327,18.793276
751313630000.0,1.152468402917772,9.808530103448277,-1.6969745962864722,-0.11148291,0.20341812,0.027183503,275.59305,-69.291855,19.110226
751317988000.0,1.1129309474611595,9.832252221674878,-1.7206970447896932,-0.10903945,0.22357668,0.023823744,276.26376,-69.03737,19.41115
751323011000.0,1.091756,9.844957,-1.733402,-0.111177474,0.24037547,0.01863139,276.9347,-68.784935,19.709793
751327952000.0,1.091756,9.844957,-1.733402,-0.106901415,0.2501493,0.0070249503,277.59824,-68.5482,19.993862
751332937000.0,1.0599183404944423,9.839168521464163,-1.7015643404944425,-0.093462385,0.24617869,-0.004276057,278.25177,-68.334045,20.259134
751338019000.0,1.0086187255270218,9.829841619777692,-1.6502647255270215,-0.09132435,0.24037547,-0.01282817,278.9001,-68.13238,20.511204
751342964000.0,0.981542442531716,9.803895092230762,-1.6353601116214465,-0.09315695,0.22143865,-0.027488936,279.56305,-67.93903,20.756104
751347957000.0,0.9726866295119918,9.76404402611353,-1.648643877386795,-0.09254608,0.21380283,-0.036651913,280.2207,-67.757545,20.9895
751352945000.0,0.9672575,9.72634050647275,-1.6567876,-0.10048734,0.20677789,-0.05009095,280.87518,-67.59875,21.196575
751357930000.0,0.9672575,9.692005591976988,-1.6567876,-0.10262536,0.20677789,-0.062308256,281.5265,-67.45198,21.392212
751362965000.0,0.9672575,9.657326295189389,-1.6567876,-0.10140363,0.20280726,-0.06536258,282.18723,-67.302284,21.591528
751368008000.0,0.9876931201372996,9.637072589244852,-1.66087472402746,-0.10415252,0.1908954,-0.08002335,282.8473,-67.167885,21.77492
751373083000.0,1.0108635339435543,9.618536354977117,-1.665508806788711,-0.116675265,0.19120082,-0.090713486,283.5007,-67.04151,21.94907
751377937000.0,1.029181894320202,9.615114,-1.6768946682511463,-0.11484267,0.19394971,-0.09590584,284.14728,-66.92797,22.111105
751383186000.0,1.0479968112940956,9.615114,-1.6910058191447552,-0.11056661,0.18661933,-0.100792766,284.7931,-66.82461,22.261974
751387970000.0,1.093453162097659,9.649403547000732,-1.6865224430870518,-0.10873401,0.1872302,-0.10354166,285.4508,-66.710754,22.422407
751392981000.0,1.1548879946049744,9.702062118873446,-1.673357845940015,-0.11209377,0.19242255,-0.09682214,286.10425,-66.604225,22.575005
751397968000.0,1.2123123876426385,9.775481025048704,-1.6622330007514612,-0.10323623,0.21166481,-0.09193522,286.74603,-66.511215,22.71429
751402951000.0,1.265439285416087,9.872879975507932,-1.653378479265238,-0.099265605,0.23976462,-0.08674286,287.37836,-66.42328,22.846691
751407981000.0,1.2994919198733803,9.989463605697892,-1.6501645647047185,-0.1001819,0.2779437,-0.06811147,288.00305,-66.33056,22.981565
751413011000.0,1.2899614406964093,10.146715168661588,-1.659694994124048,-0.094989546,0.32345316,-0.050396383,288.61136,-66.24466,23.108341
751417959000.0,1.2377538526951093,10.290913718210197,-1.6606721185848077,-0.07788532,0.3726278,-0.023518313,289.20425,-66.157,23.235308
751422961000.0,1.078242779292404,10.410547400624347,-1.6407331888657648,-0.06352998,0.3998113,-0.016493361,289.78436,-66.07713,23.352968
751427908000.0,0.8542187891071025,10.478940509396937,-1.6063439388633105,-0.04795292,0.41355577,-0.013744468,290.35675,-66.01009,23.457714
751432950000.0,0.504344761986565,10.457073322288474,-1.5443870863159483,-0.039095376,0.4083634,-0.024129177,290.9213,-65.95147,23.553047
751437982000.0,0.155164653999547,10.43524950524568,-1.482553115269077,-0.06047566,0.3622431,-0.046120327,291.4921,-65.92908,23.610802
751442968000.0,0.0353109922794348,10.327886326899993,-1.4589229095576692,-0.073303826,0.30573806,-0.07941248,292.06342,-65.91848,23.656723
751447949000.0,0.0044757794521193,10.186925038830918,-1.4501129009234464,-0.09162979,0.2611449,-0.10262536,292.64075,-65.91433,23.69427
751453006000.0,0.0194495193356576,10.090243281569856,-1.435853303767912,-0.1020145,0.22388211,-0.12308934,293.21088,-65.99881,23.64083
751457946000.0,0.0708991253988613,10.032740727194216,-1.417694600722876,-0.09437868,0.20158553,-0.15118915,293.78726,-66.09348,23.57667
751462974000.0,0.1232652426631908,9.974213835817554,-1.399212422805783,-0.09101892,0.18692477,-0.1704314,294.36017,-66.19094,23.507893
751467944000.0,0.185906804691604,9.926201578027351,-1.3831906883253329,-0.07513642,0.18906279,-0.1863139,294.9316,-66.297485,23.429834
751472948000.0,0.2640339834000543,9.891478594964225,-1.370169501693687,-0.067500606,0.16920967,-0.18906279,295.51077,-66.40659,23.348448
751477923000.0,0.3354440084102842,9.864111,-1.369739162810067,-0.058337633,0.15699236,-0.19914207,296.07077,-66.509834,23.270914
751482931000.0,0.3832049226670287,9.864111,-1.4175000498642043,-0.051618114,0.15088372,-0.20647246,296.6312,-66.61431,23.191242
751488236000.0,0.4313933430122512,9.864329525727412,-1.467873656248086,-0.04428773,0.14721853,-0.21380283,297.1906,-66.7108,23.117691
751492973000.0,0.4383405670022971,9.86780320482389,-1.5095569711715162,-0.049480084,0.15943582,-0.22082779,297.7428,-66.81028,23.039455
751498812000.0,0.4469039701852986,9.872084989127105,-1.560937354502297,-0.05589417,0.16737708,-0.22602014,298.31064,-66.901215,22.969454
751502944000.0,0.4608503714811257,9.862947523004514,-1.59807385137835,-0.06627888,0.15974127,-0.22999077,298.87445,-66.994965,22.894875
751507937000.0,0.4884079379329555,9.835389865430797,-1.6440031687638077,-0.061086524,0.15821409,-0.23426682,299.42886,-67.09182,22.815762
751512972000.0,0.5145732461545659,9.812025560067363,-1.678742198952096,-0.05589417,0.14966199,-0.23548855,300.01288,-67.18055,22.7438
751518046000.0,0.5373056301777694,9.798386336639222,-1.6878351411676646,-0.059864793,0.1423316,-0.23365596,300.59064,-67.27132,22.668049
751523039000.0,0.5561709503215051,9.779619331507504,-1.695810950321505,-0.06658431,0.12705997,-0.23426682,301.18164,-67.35786,22.595375
751527947000.0,0.5599022303405573,9.738575173374612,-1.6995422303405572,-0.06505715,0.105068825,-0.23273966,301.76978,-67.4453,22.520144
751532929000.0,0.5636897684528062,9.696912175041676,-1.703329768452806,-0.05955936,0.09468412,-0.21899518,302.34583,-67.533134,22.442598
751538004000.0,0.5489147076518939,9.671407472417592,-1.683182404592831,-0.06688975,0.08032878,-0.2171626,302.92264,-67.62544,22.358742
751543053000.0,0.5243303603813236,9.65501801025337,-1.650403266341835,-0.07513642,0.06383542,-0.20891592,303.49594,-67.71369,22.277208
751547969000.0,0.4793552452088747,9.6650066078353,-1.6294678738556865,-0.07971791,0.056505036,-0.1994475,304.05954,-67.801315,22.19443
751553028000.0,0.3825152261123326,9.737636576654008,-1.6343098717769338,-0.10262536,0.05589417,-0.19517145,304.619,-67.88948,22.109217
751557952000.0,0.3042400693082472,9.80715451948649,-1.642548302963644,-0.10842858,0.06872234,-0.17623462,305.15082,-67.982155,22.01779
751563005000.0,0.263166420345169,9.875610374734755,-1.659662347191965,-0.11636983,0.08277224,-0.16523905,305.6762,-111.92323,21.922832
751568172000.0,0.2211661147460744,9.945610652602914,-1.6771624988895175,-0.12064589,0.1001819,-0.15393804,306.1881,-111.80786,21.805593
751572951000.0,0.1732004571593654,10.006944939121755,-1.6762138212417272,-0.1414153,0.11453723,-0.14538592,306.69086,-111.69461,21.689156
751577941000.0,0.1129568198865427,10.06718848203593,-1.6561325703750394,-0.1423316,0.129198,-0.13255776,307.18256,-111.58579,21.575693
751582938000.0,0.0438645136406995,10.102419298887122,-1.6323963496025438,-0.14049901,0.15149458,-0.12339478,307.66577,-111.46259,21.446451
751587993000.0,-0.0331001276709062,10.117812135532592,-1.6054587448330684,-0.14905111,0.14935656,-0.122783914,308.14645,-111.3409,21.317394
751593012000.0,-0.1095821465721718,10.131790207679195,-1.57876067633444,-0.16187929,0.1469131,-0.12767084,308.61014,-111.20278,21.170887
751597987000.0,-0.186517917362519,10.123242062438324,-1.5531153926258183,-0.15974127,0.13744467,-0.124005646,309.07153,-111.06845,21.026712
751602957000.0,-0.2633763657701624,10.114702508298198,-1.5274958830716785,-0.16798794,0.13408493,-0.12889257,309.524,-110.91287,20.860651
751607933000.0,-0.3546522317751137,10.042593479950392,-1.5419434296982224,-0.16432275,0.13194689,-0.14110987,309.97418,-110.7581,20.693825
751612961000.0,-0.4502001700570484,9.95500775692435,-1.5658304412897892,-0.16187929,0.12797627,-0.13958271,310.42126,-110.60729,20.52987
751618023000.0,-0.5058298927742682,9.888491280363022,-1.5853956471305275,-0.16340645,0.12583824,-0.14110987,310.85,-110.43098,20.339579
751622962000.0,-0.5016213541311505,9.854823111842691,-1.598021276243438,-0.15393804,0.13072516,-0.1432479,311.27356,-110.257675,20.150757
751627958000.0,-0.4968005843141388,9.82043386687463,-1.6124836032880872,-0.1459968,0.13836098,-0.14049901,311.708,-110.07641,19.952105
751632937000.0,-0.4887603031911306,9.784252685776917,-1.6366044886350224,-0.13561209,0.14874569,-0.14263703,312.13556,-109.89598,19.752617
751639286000.0,-0.4780760600726392,9.738657638837772,-1.6669376166973364,-0.11728613,0.14202617,-0.14721853,312.55774,-109.71834,19.553629
751642979000.0,-0.464374493559322,9.721530703050847,-1.6772137781694916,-0.10873401,0.13683382,-0.14935656,312.97192,-109.54338,19.355936
751647976000.0,-0.4458348976029055,9.698356238353512,-1.6911184569878934,-0.0852157,0.13500121,-0.1423316,313.39252,-109.37847,19.165043
751653050000.0,-0.4353791894729071,9.683997972759489,-1.7260182900708696,-0.070554934,0.13988814,-0.1432479,313.8078,-109.21309,18.971992
751657910000.0,-0.4285073087701166,9.673689936438802,-1.7672496101653623,-0.049785517,0.13775012,-0.13897185,314.22122,-109.054825,18.7829
751663492000.0,-0.4213795,9.662998,-1.8169965418627627,-0.041233405,0.14905111,-0.14721853,314.63086,-108.90213,18.597506
751668013000.0,-0.4213795,9.662998,-1.8753269841207116,-0.013439035,0.14844026,-0.14966199,315.03992,-108.75641,18.414974
751673025000.0,-0.4213795,9.662998,-1.93999236270882,-0.002443461,0.15241088,-0.13622294,315.44775,-108.62003,18.238548
751677943000.0,-0.4190069724484685,9.660625427855903,-1.991629011096128,0.0018325958,0.16157386,-0.13958271,315.84863,-108.48159,18.05677
751682910000.0,-0.4159524508444102,9.657570848840942,-2.040501318487125,0.02443461,0.16187929,-0.13775012,316.2462,-108.35233,17.88024
751688020000.0,-0.4128099895203236,9.654428328453092,-2.090780660296667,0.044898596,0.17592919,-0.13469578,316.64246,-108.2324,17.70736
751692984000.0,-0.4178319190800681,9.656435679348856,-2.100868367215597,0.0693332,0.19028452,-0.13775012,317.03302,-108.11527,17.533007
751697970000.0,-0.4268703394207837,9.660954979178497,-2.0918299563127007,0.07544186,0.20372356,-0.13561209,317.4145,-108.00281,17.361088
751702953000.0,-0.4332718034287233,9.672259965358377,-2.0715354276424205,0.09712757,0.20708331,-0.13805555,317.80237,-107.897804,17.187906
751708280000.0,-0.4377916593337468,9.690339294586693,-2.039896341915478,0.10629055,0.204029,-0.14874569,318.18216,-107.79292,17.012762
751712967000.0,-0.445952918870858,9.69859517899135,-1.992252173918958,0.1133155,0.20341812,-0.16126843,318.54346,-107.685745,16.831074
751717974000.0,-0.4645909910455738,9.689276446992515,-1.894402374064717,0.12003502,0.21227567,-0.17012598,318.89755,-107.58028,16.647785
751722975000.0,-0.4745815684390105,9.678957851293717,-1.802558184873472,0.11453723,0.20861048,-0.17287487,319.23993,-107.468376,16.457506
751727941000.0,-0.4565516372950431,9.665435138185954,-1.7304385073642308,0.10781772,0.21899518,-0.1872302,319.57043,-107.35477,16.262997
751732983000.0,-0.44173977869,9.654627702,-1.6639510401,0.08307768,0.22815818,-0.18906279,319.87973,-107.229546,16.063772
751738000000.0,-0.451349154861,9.6642372638,-1.64473226769,0.0571159,0.24312437,-0.18142697,320.18057,-107.10575,15.865389
751743003000.0,-0.4649767613272558,9.681712310723116,-1.6304616631180469,0.026572637,0.25137106,-0.17989981,320.4593,-106.97332,15.665901
751747949000.0,-0.5052298304728059,9.751240216625463,-1.6487585387824475,0.008552114,0.27366763,-0.17715092,320.72684,-106.84527,15.471969
751753001000.0,-0.5463455816501854,9.822258207045737,-1.6674475432014833,-0.02076942,0.27030787,-0.15790866,320.99588,-106.716965,15.282307
751757944000.0,-0.5793913825726964,9.873680516710724,-1.6879076792296073,-0.045814894,0.26175576,-0.14080444,321.25726,-106.59055,15.095611
751762977000.0,-0.6066950416918429,9.91008566163142,-1.710660716616314,-0.06414085,0.25686884,-0.13072516,321.51627,-106.467834,14.914496
751767955000.0,-0.6450157148411466,9.945481861637171,-1.734063049943082,-0.064751714,0.23701571,-0.12522738,321.7826,-106.33617,14.721186
751772952000.0,-0.6994924110421195,9.980148516816724,-1.7588251681258409,-0.06811147,0.19792034,-0.113926366,322.0537,-106.20957,14.533935
751777951000.0,-0.7564382821003024,10.002271936866444,-1.775795072870354,-0.06811147,0.16615535,-0.100792766,322.32263,-106.08087,14.340015
751782943000.0,-0.8159531227191891,10.010774228170016,-1.78429723100658,-0.053145275,0.12675454,-0.0870483,322.60266,-105.96038,14.150219
751787974000.0,-0.874938421708185,10.010326059786475,-1.791864885480427,-0.049785517,0.09101892,-0.08093964,322.89417,-105.8345,13.951245
751793005000.0,-0.930663684475089,9.980319994128116,-1.7961514407117438,-0.051923547,0.04153884,-0.07391469,323.19824,-105.71721,13.756701
751798374000.0,-0.988018741652987,9.94593841253301,-1.802506664756263,-0.052534413,-0.0076358155,-0.069027774,323.51163,-105.596214,13.551253
751802961000.0,-1.0099659210049248,9.886367651488117,-1.8307244246877452,-0.050701816,-0.055588737,-0.05467244,323.83597,-105.48319,13.350834
751807913000.0,-1.033659496795375,9.822056683819856,-1.861187548119335,-0.05955936,-0.08979719,-0.04795292,324.16776,-105.36374,13.13919
751813039000.0,-1.0481782057337992,9.741237111340531,-1.897172080670267,-0.048563786,-0.11789699,-0.031154128,324.50864,-105.25729,12.93481
751817979000.0,-1.021878472728717,9.605981464898347,-1.949771507449174,-0.062308256,-0.15393804,-0.014966198,324.85785,-105.15091,12.732323
751823918000.0,-0.9902602309641042,9.443373512627064,-2.013007943813532,-0.058948494,-0.19822577,-0.007941248,325.22662,-105.05531,12.529273
751827953000.0,-0.9438132170024174,9.39233966317486,-2.032065627558421,-0.043982297,-0.22021692,0.0106901415,325.59573,-104.96923,12.334731
751832943000.0,-0.8796334355537649,9.345274656907511,-2.0491802240307995,-0.042455133,-0.2415972,0.02687807,325.9726,-104.88556,12.140701
751837957000.0,-0.8302018784505322,9.321821230282673,-2.0715705590123887,-0.016493361,-0.26847526,0.05222898,326.36288,-104.83708,11.967783
751843010000.0,-0.8006484852556273,9.330265012824986,-2.101124040376898,-0.021685716,-0.28680122,0.06658431,326.7513,-104.78657,11.795588
751848030000.0,-0.777457774811035,9.343753728591931,-2.127787577228512,-0.014966198,-0.2941316,0.09285152,327.1254,-104.76215,11.64298
751852944000.0,-0.7887144315675331,9.385028272524318,-2.139044249657152,-0.006414085,-0.30085114,0.1160644,327.4995,-104.7407,11.492138
751857912000.0,-0.8000947878488279,9.426756382873544,-2.15042462178281,-0.0070249503,-0.2959642,0.129198,327.87018,-104.73154,11.351835
751863036000.0,-0.843553477832221,9.494867591112612,-2.126106970448593,-0.011301007,-0.2950479,0.15332718,328.23956,-104.73081,11.219463
751867982000.0,-0.903577405950832,9.57489944512968,-2.082089367170736,-0.029321533,-0.29718593,0.16035213,328.60233,-104.72641,11.084863
751873037000.0,-0.94810385,9.638074862332696,-2.032939966883365,-0.028099801,-0.3023783,0.17837265,328.96088,-104.7228,10.949912
751877946000.0,-0.94810385,9.651558186424474,-1.974511415678776,-0.03634648,-0.30115658,0.19517145,329.31268,-104.715355,10.81606
751882970000.0,-0.9492867521029548,9.662998,-1.9119262984829968,-0.049480084,-0.3109304,0.21685717,329.66516,-104.69392,10.671487
751888003000.0,-0.9562175393953556,9.662998,-1.8356877649148036,-0.061086524,-0.3286455,0.22693644,330.0145,-104.67284,10.5278635
751894228000.0,-0.9647897927025668,9.662998,-1.7413931351786611,-0.076052725,-0.34238997,0.24251351,330.35397,-104.64492,10.390236
751898157000.0,-0.9565267727716024,9.665144188024328,-1.6842023727244129,-0.10598512,-0.34697145,0.2501493,330.691,-104.61272,10.252764
751902942000.0,-0.9324993840079698,9.669949761115772,-1.6169257042575504,-0.112399206,-0.364992,0.267559,331.03217,-104.5879,10.12092
751907938000.0,-0.9154636161342018,9.664755369011912,-1.556714064144314,-0.1133155,-0.3717115,0.28191432,331.35422,-104.544075,9.988344
751912969000.0,-0.9072056924655068,9.648239599280144,-1.5071664531493705,-0.13225232,-0.37751472,0.29901853,331.6777,-104.500015,9.860695
751917961000.0,-0.8934512309902276,9.630286457436592,-1.4660477085126815,-0.14355333,-0.37904188,0.31764993,331.98825,-104.455925,9.742308
751922976000.0,-0.8473307493543467,9.603156789018811,-1.471473642196238,-0.14538592,-0.3717115,0.32925636,332.29425,-104.4126,9.626979
751928079000.0,-0.8004009751194713,9.575551066598882,-1.4769947866802238,-0.15882497,-0.37812558,0.35338554,332.59433,-104.36728,9.522763
751933365000.0,-0.7517882401389595,9.546955368242672,-1.482713926351466,-0.15363261,-0.376293,0.35918877,332.88568,-104.3249,9.417404
751938061000.0,-0.702246138277984,9.52091596864622,-1.49319698507521,-0.15943582,-0.376293,0.37293324,333.1772,-104.28391,9.320422
751943010000.0,-0.6466935552705606,9.493139597382305,-1.5070851223676498,-0.1591304,-0.36774087,0.37873647,333.46173,-104.245445,9.223169
751948015000.0,-0.5955927832022084,9.491798799171844,-1.529275211111111,-0.15271631,-0.36560285,0.3820962,333.74625,-104.22186,9.147241
751953019000.0,-0.5483460887212857,9.510697372375038,-1.5576232682539684,-0.1563815,-0.35460728,0.3747658,334.0216,-104.19519,9.070128
751957993000.0,-0.5061793334635879,9.533042742806394,-1.58885856017762,-0.13927728,-0.35185838,0.3726278,334.29575,-104.18418,9.006581
751963920000.0,-0.4608102539698046,9.563288865985792,-1.6291865840497337,-0.12675454,-0.31031954,0.3707952,334.55145,-104.16984,8.942866
751967945000.0,-0.4267948962301918,9.583676097581318,-1.6389677829024187,-0.10293079,-0.28710666,0.36865717,334.8096,-104.16598,8.884891
751972943000.0,-0.3768940659674729,9.608626497080902,-1.609027303502919,-0.086437434,-0.26053402,0.3481932,335.05002,-104.15911,8.822724
751977907000.0,-0.3124103655122652,9.64034647668685,-1.5500893372635915,-0.06841691,-0.22999077,0.32375857,335.28412,-104.162254,8.767316
751982966000.0,-0.2186633447600025,9.68570790656014,-1.435173651763311,-0.051923547,-0.20708331,0.29046643,335.5074,-104.16275,8.703772
751987993000.0,-0.125509307732601,9.730782409025654,-1.3209848494288745,-0.018020526,-0.17562376,0.26206118,335.72098,-104.16914,8.649896
751993019000.0,-0.0314452825470894,9.777194615002369,-1.2112893261713205,-0.004276057,-0.16157386,0.24098633,335.92813,-104.16945,8.5883255
751998079000.0,0.0679335373235526,9.830706170452752,-1.1233772741126362,0.013744468,-0.15607607,0.21624629,336.12384,-104.17216,8.518567
752002964000.0,0.1638753426729768,9.882367029815429,-1.0385056586370092,0.02321288,-0.14630222,0.1853976,336.27988,-104.15964,8.471582
752007942000.0,0.2695684130885195,9.950907378817163,-0.9570754105334364,0.029932396,-0.124311075,0.16646078,336.42798,-104.148125,8.421662
752012979000.0,0.3814471340316969,10.03015494568999,-0.8778279896888288,0.02443461,-0.106595986,0.14874569,336.57086,-104.130775,8.363649
752018030000.0,0.5030841519811127,10.09851357729419,-0.7983726362348594,0.020463986,-0.09101892,0.14110987,336.68723,-104.11121,8.329867
752023030000.0,0.6308797791623897,10.157495819133649,-0.7197291851981114,0.009773844,-0.086437434,0.12095132,336.79852,-104.08383,8.287842
752027995000.0,0.7300814162127929,10.211804955668145,-0.6473169451551615,-0.007941248,-0.07544186,0.10629055,336.88962,-104.05672,8.27116
752033396000.0,0.8189950305527911,10.26796108721614,-0.5724423148376007,-0.015577064,-0.07238753,0.1020145,336.9801,-104.02818,8.251224
752037954000.0,0.8746626931126925,10.31328159534022,-0.5253725474020278,-0.0076358155,-0.07452556,0.08277224,337.05542,-103.99547,8.249344
752042979000.0,0.9075018616884384,10.360195148177032,-0.4972246851238058,-0.021685716,-0.07544186,0.07788532,337.1293,-103.95842,8.249883
752047945000.0,0.9451690036478332,10.40558031449991,-0.4685193190729567,-0.025045475,-0.08246681,0.0711658,337.19473,-103.923004,8.263738
752052949000.0,0.9933629723258366,10.4493929925032,-0.4378504124465167,-0.015882496,-0.08277224,0.058337633,337.2573,-103.88634,8.273957
752057944000.0,1.0381067951063148,10.49498968784058,-0.4087533286910995,-0.029932396,-0.09621128,0.05681047,337.32742,-103.84683,8.29281
752062980000.0,1.0638728307511485,10.551674686451545,-0.388140532460733,-0.015882496,-0.10903945,0.042760566,337.3955,-103.812454,8.303628
752067987000.0,1.1141790233480555,10.589578156923878,-0.3663843886948991,-0.017104227,-0.118507855,0.054367006,337.46228,-103.77791,8.330689
752072949000.0,1.2252938753096043,10.5813474764874,-0.3416922012799861,-0.013744468,-0.15027285,0.049480084,337.53677,-103.743324,8.346232
752079114000.0,1.346638906500174,10.56859077479986,-0.3151937749599721,-0.004276057,-0.18112154,0.05100725,337.61728,-103.714424,8.371813
752082960000.0,1.3690741853898365,10.55256555168813,-0.3119887303376261,0.0070249503,-0.21074851,0.06841691,337.70627,-103.6896,8.3976345
752087944000.0,1.398147880134006,10.531798595892797,-0.307835339178559,-0.00580322,-0.23915374,0.07666359,337.79,-103.67215,8.444645
752092973000.0,1.4592493878194923,10.497668156071528,-0.309484809682614,-0.007330383,-0.26175576,0.09285152,337.88083,-103.66491,8.495701
752097952000.0,1.5351421018163094,10.4574898030147,-0.3139490814923696,-0.018020526,-0.27214047,0.10781772,337.97537,-103.65462,8.546056
752103099000.0,1.5941272839639988,10.409959887254429,-0.3447946999845156,-0.03176499,-0.27366763,0.12889257,338.0729,-103.65248,8.608123
752107942000.0,1.6345245031549405,10.360585471789411,-0.394169059206426,-0.052534413,-0.2657264,0.13775012,338.16937,-103.647446,8.668827
752112999000.0,1.6655238805462709,10.324638537006972,-0.4541405748543596,-0.07666359,-0.2510656,0.15851954,338.26285,-103.65639,8.754936
752117982000.0,1.6837537322891796,10.306408304555438,-0.5225025664788463,-0.12675454,-0.22204952,0.16737708,338.34814,-103.655205,8.838784
752122968000.0,1.678628350263371,10.296896832658025,-0.5723500212560778,-0.14660765,-0.17898351,0.18142697,338.42465,-103.670364,8.936244
752127963000.0,1.6350175780287683,10.30174307556726,-0.5917325844448946,-0.17592919,-0.13958271,0.19547687,338.49265,-103.67532,9.034743
752132946000.0,1.573172116594868,10.313577845851285,-0.614058266214647,-0.19639318,-0.09712757,0.21166481,338.55872,-103.69508,9.1432085
752137988000.0,1.4827315367109946,10.336187990822252,-0.6411904685109571,-0.21930063,-0.0720821,0.22479841,338.61725,-103.71113,9.252867
752143037000.0,1.3981210320247932,10.35039046137953,-0.6618689469802924,-0.2284636,-0.056199603,0.22571471,338.6742,-103.72582,9.355272
752148980000.0,1.3167105272727273,10.341344671328672,-0.6663917475524476,-0.22907446,-0.042455133,0.21471913,338.72302,-103.73872,9.456283
752152946000.0,1.2623820632231404,10.33530805626192,-0.6694099920534011,-0.22632557,-0.03726278,0.19883664,338.785,-103.743706,9.5369835
752157939000.0,1.2168292265859435,10.289577075282969,-0.6797617135825217,-0.22479841,-0.040927973,0.18845193,338.84387,-103.74799,9.614035
752162997000.0,1.178577441431956,10.230074012371675,-0.6925122938404843,-0.21471913,-0.045814894,0.16890424,338.89896,-103.75025,9.682055
752167968000.0,1.1672963041941564,10.150408556314796,-0.7288663091894438,-0.19975294,-0.03268129,0.14813483,338.9547,-103.74199,9.729054
752172964000.0,1.1853343127521203,10.046690230772857,-0.7919992214231857,-0.19120082,-0.028710667,0.13194689,339.0125,-103.732056,9.769675
752177940000.0,1.2229648329108067,9.936433091367508,-0.8483962767810881,-0.18967366,-0.024740042,0.110872045,339.07608,-103.720665,9.798868
752182942000.0,1.2983121785251666,9.812331610890082,-0.8927182407059585,-0.17715092,-0.014966198,0.09407325,339.13513,-103.71109,9.824048
752188038000.0,1.3966517130000906,9.678511376122652,-0.9411986286129004,-0.172264,-0.0061086523,0.077579886,339.19904,-103.71026,9.849572
752193045000.0,1.5793555668148418,9.51755833366597,-1.0020999510704889,-0.15454891,0.004581489,0.063224554,339.25766,-103.711334,9.870475
752198395000.0,1.7662113998334603,9.354048252376655,-1.0616659326000972,-0.1432479,0.025350908,0.05589417,339.3143,-103.728134,9.9087715
752202941000.0,1.820590089695372,9.320816490805637,-1.0435396921310112,-0.1337795,0.016798794,0.038789943,339.37357,-103.7425,9.938093
752207963000.0,1.880662632697245,9.284105116716397,-1.02351549951426,-0.1160644,0.007941248,0.032070424,339.41574,-103.804375,10.012376
752212970000.0,1.937849218545329,9.247027226818338,-0.998479481239228,-0.09712757,0.004581489,0.025350908,339.45593,-103.86295,10.079607
752219007000.0,1.9777079855911757,9.19720376801103,-0.9137795492416408,-0.07360926,-0.026267206,0.01740966,339.5042,-103.92233,10.140886
752223010000.0,2.0041374446742504,9.164166944157186,-0.8576169141933816,-0.055588737,-0.0421497,0.021380283,339.5457,-103.99349,10.222766
752227937000.0,2.0384329102453407,9.1359244926819,-0.8232564804633042,-0.04337143,-0.06414085,0.014049901,339.59454,-104.061874,10.295204
752232906000.0,2.073508179740971,9.11087072875645,-0.7982027008413183,-0.026572637,-0.09590584,0.011301007,339.64896,-104.13416,10.366611
752237997000.0,2.078167,9.111584878940851,-0.7706241732603105,-0.018325957,-0.10598512,0.008246681,339.692,-104.201416,10.443987
752242934000.0,2.078167,9.11608832203067,-0.7436040460872464,0.0015271631,-0.1160644,0.0021380284,339.74176,-104.27092,10.516079
752247959000.0,2.056309780580248,9.124405511575656,-0.726485490290124,-0.007330383,-0.11789699,0.0076358155,339.7884,-104.34016,10.597071
752252956000.0,2.028261366240109,9.133754690143595,-0.7124612831200547,-0.006414085,-0.12217305,-0.004276057,339.83545,-104.4081,10.668754
752257935000.0,1.99670308554674,9.178278700931354,-0.684680563615902,-0.011911872,-0.11026118,-0.00061086525,339.8746,-104.47162,10.744838
752263006000.0,1.96319915122456,9.236910935839944,-0.6511765986823043,-0.02076942,-0.09285152,-0.0012217305,339.91095,-104.52964,10.814584
752267987000.0,1.8916779816807736,9.308651543329304,-0.5756235890558243,-0.043982297,-0.08399397,-0.0061086523,339.95285,-104.57756,10.879005
752272961000.0,1.7668783970374848,9.3998515675131,-0.4412240591102378,-0.06994407,-0.06811147,-0.01160644,339.98624,-104.62179,10.942587
752277946000.0,1.6815980202005307,9.455308186965496,-0.3459229603863167,-0.09896017,-0.04886922,-0.0290161,340.01563,-104.64742,10.992464
752282934000.0,1.6499021926865232,9.462351475375996,-0.3036618729696255,-0.121256754,-0.03573562,-0.03604105,340.04147,-104.66998,11.042858
752287995000.0,1.61774249279711,9.46949784318785,-0.260782289285609,-0.14569137,-0.03023783,-0.040011674,340.0616,-104.65007,11.063155
752293027000.0,1.5981025308311825,9.453460384718635,-0.2309953434403717,-0.17134771,-0.015577064,-0.04550946,340.07468,-104.62476,11.081625
752297979000.0,1.5834125008053692,9.42897700134228,-0.2065119447248322,-0.2012801,-0.008246681,-0.054061573,340.0877,-104.59359,11.097574
752302954000.0,1.590785746803653,9.402352817208904,-0.2064192661722317,-0.21380283,0.00061086525,-0.060170226,340.1,-104.54997,11.106702
752307963000.0,1.6044758698630135,9.374972714041096,-0.2132643312756849,-0.24251351,0.009468411,-0.055283304,340.1103,-104.50008,11.116644
752313506000.0,1.6161469593786344,9.339297288503074,-0.2249332350714404,-0.27000242,0.005192355,-0.0580322,340.11856,-104.443634,11.120304
752318015000.0,1.591037095746802,9.256793226117296,-0.2751530035371324,-0.28221974,0.00030543262,-0.05955936,340.12482,-104.38808,11.125957
752323051000.0,1.5629924576341585,9.164646307027745,-0.3312423257800299,-0.2996294,-0.008552114,-0.058337633,340.1376,-104.33479,11.137742
752327954000.0,1.5344924833346367,9.113984309845938,-0.3924798286916399,-0.31429017,-0.020463986,-0.058337633,340.15247,-104.28126,11.148144
752332938000.0,1.5046303837021977,9.091587686400253,-0.4596695197341049,-0.30848694,-0.027488936,-0.053450707,340.16864,-104.23169,11.159842
752338380000.0,1.473706315944931,9.069983901877348,-0.5323338437046308,-0.28955013,-0.03176499,-0.047647487,340.1947,-104.1877,11.166716
752342973000.0,1.4626960307634542,9.077323887609513,-0.5873854995494368,-0.28771752,-0.03481932,-0.04184427,340.22223,-104.14453,11.174493
752348065000.0,1.450489548694201,9.085461315727994,-0.6484181648143513,-0.27947086,-0.03359759,-0.03848451,340.26086,-104.111855,11.175663
752352947000.0,1.4460979,9.098763658142426,-0.6963126037115965,-0.26939157,-0.042455133,-0.034513887,340.3029,-104.082344,11.177825
752358483000.0,1.4460979,9.117594513052744,-0.7433887578582845,-0.25320363,-0.06872234,-0.025350908,340.3493,-104.058205,11.18144
752362942000.0,1.4529042337618336,9.126697,-0.7712492760847035,-0.22510384,-0.07544186,-0.022602014,340.39972,-104.03882,11.179391
752367989000.0,1.4721703955655208,9.126697,-0.7856989703637269,-0.2134974,-0.087964594,-0.029932396,340.4583,-104.019585,11.175319
752372920000.0,1.476651924577861,9.132899427954971,-0.807279895532833,-0.18448131,-0.08857546,-0.029321533,340.51843,-104.016106,11.173182
752377937000.0,1.454115899437148,9.150928153939962,-0.8433375498771106,-0.16187929,-0.08093964,-0.03176499,340.5782,-104.011024,11.167494
752382921000.0,1.4272013799756789,9.178465630117552,-0.877702485422578,-0.14813483,-0.062308256,-0.028710667,340.63593,-104.015526,11.168
752387992000.0,1.382909165220916,9.242443068098906,-0.9072306542865828,-0.13500121,-0.04428773,-0.032986723,340.69,-104.02103,11.165514
752392970000.0,1.3409346053453866,9.305943667288986,-0.9266014556283776,-0.129198,-0.014049901,-0.029626964,340.73782,-104.02428,11.158924
752397979000.0,1.3032258473125675,9.371934301464083,-0.9171742833467624,-0.12064589,0.015577064,-0.03390302,340.77914,-104.02705,11.149424
752402960000.0,1.26928495999564,9.43908420543565,-0.9061047053702492,-0.12675454,0.02107485,-0.029932396,340.82162,-104.0242,11.131223
752407945000.0,1.2484694605406583,9.511938525979216,-0.8887584340890924,-0.111177474,0.026267206,-0.032986723,340.8546,-104.02371,11.11116
752412951000.0,1.2275662729234795,9.585099755395683,-0.8713390892478745,-0.11881329,0.027794369,-0.03970624,340.89032,-104.009544,11.081941
752417999000.0,1.202172244645851,9.664590752095558,-0.8759948431003772,-0.10415252,0.039095376,-0.043066,340.92126,-104.002,11.053773
752422949000.0,1.1723701223700755,9.749030159052808,-0.9057969394436296,-0.08460484,0.04886922,-0.044593163,340.9516,-103.99293,11.024603
752428087000.0,1.130596240612766,9.84154184068085,-0.893525848479149,-0.05589417,0.057421334,-0.05131268,340.98108,-103.975235,10.985165
752432942000.0,1.0831116135489365,9.932553877276597,-0.8499982364834042,-0.025350908,0.0580322,-0.047036625,341.01016,-103.96374,10.949127
752437970000.0,1.0359372057084606,10.038510412028543,-0.7961752795759429,-0.00030543262,0.043676864,-0.0421497,341.05115,-103.94861,10.903519
752442990000.0,0.9967318244648318,10.190431680122323,-0.7079632050397554,0.03023783,0.0125227375,-0.034513887,341.0967,-103.94158,10.859928
752447924000.0,0.966118807093071,10.329696172611726,-0.6086238890528906,0.086437434,0.005192355,-0.027488936,341.14255,-103.92659,10.804452
752452952000.0,0.9611831623206232,10.438280048380484,-0.465490118499385,0.100792766,-0.030848695,-0.029932396,341.205,-103.909546,10.74674
752457908000.0,0.960271092360908,10.537352389164962,-0.3341291262106596,0.13683382,-0.06811147,-0.035124753,341.2718,-103.886536,10.679916
752463012000.0,0.9697965697456884,10.618319145863785,-0.224586056714411,0.16249016,-0.10170906,-0.034208454,341.34735,-103.8657,10.613759
752468005000.0,0.9779047152199762,10.68991447800238,-0.124384612627824,0.1966986,-0.115453534,-0.04520403,341.42056,-103.83095,10.541234
752474021000.0,0.9831744516875516,10.747881138937164,-0.0295292901801884,0.23396139,-0.119729586,-0.059864793,341.4998,-103.80164,10.467901
752478107000.0,0.9875407848753016,10.787249616251003,0.031742915360016,0.24465153,-0.11789699,-0.06963864,341.57086,-103.76451,10.395398
752482947000.0,1.001524607884151,10.833862359613835,0.0690331392538214,0.25289822,-0.08857546,-0.0870483,341.63364,-103.72971,10.318797
752488137000.0,1.014340424401578,10.879652546163962,0.1069470320333187,0.24709499,-0.056505036,-0.09865474,341.68896,-103.683914,10.243063
752493002000.0,1.0061701250591846,10.883737781148618,0.1232876392494519,0.21868975,-0.011301007,-0.1151481,341.7308,-103.63153,10.16428
752497997000.0,0.997781503226655,10.887932179658044,0.1400648916738272,0.17562376,0.031154128,-0.14508049,341.7574,-103.56812,10.082759
752502941000.0,0.9888094670469928,10.834990752852448,0.1580089771494875,0.11728613,0.08307768,-0.16340645,341.76822,-103.496666,10.00388
752507913000.0,0.9796012192032488,10.765928894024366,0.1764254872597176,0.064751714,0.13103059,-0.18753563,341.76685,-103.412186,9.918388
752512974000.0,0.9798474821116698,10.672860692246626,0.1668934100026462,0.01282817,0.17928895,-0.21624629,341.74796,-103.310814,9.828498
752517984000.0,0.9840796218311724,10.571289427361735,0.1457326981476581,-0.030543262,0.2284636,-0.2406809,341.71518,-103.19934,9.737249
752522967000.0,1.0037688286485935,10.450242375968202,0.1080387215269058,-0.069027774,0.27366763,-0.25473082,341.66837,-103.07549,9.644791
752527993000.0,1.0430130680493273,10.303076158071748,0.0491723952085201,-0.11301007,0.30176744,-0.26633725,341.61298,-102.94095,9.549877
752532942000.0,1.0961003766669883,10.11336999218373,-0.0117161777093505,-0.116675265,0.34513888,-0.26939157,341.54327,-102.81626,9.462824
752538133000.0,1.1680581158448329,9.863916970568368,-0.078876734609283,-0.13469578,0.35827246,-0.2666427,341.47583,-102.6828,9.376341
752544071000.0,1.219074444804928,9.640159664887063,-0.1490127508665297,-0.13225232,0.37415496,-0.25625798,341.39722,-102.57065,9.305852
752547983000.0,1.2344602524435315,9.528612639835728,-0.1913237499876796,-0.13805555,0.37659842,-0.25045475,341.32065,-102.45654,9.236904
752552944000.0,1.2369529719398054,9.404117263901632,-0.2443623530510185,-0.13469578,0.37904188,-0.22540927,341.23477,-102.377365,9.198033
752557936000.0,1.2194057575518444,9.298833611121308,-0.2970040374408148,-0.10842858,0.37384954,-0.20830505,341.15222,-102.30376,9.159953
752562979000.0,1.1926165499535364,9.205591578833246,-0.3604982983376355,-0.09865474,0.35705075,-0.1872302,341.0787,-102.24926,9.13915
752568037000.0,1.1426015732059889,9.145573460505936,-0.4505252147031492,-0.09132435,0.32925636,-0.17348573,341.0117,-102.2033,9.121575
752572918000.0,1.0935181448778566,9.10912407289204,-0.5455157233884949,-0.06719518,0.30757064,-0.14935656,340.95386,-102.17589,9.111488
752577935000.0,1.0414579239066195,9.11385691459811,-0.6591016313002364,-0.04428773,0.2947425,-0.13744467,340.90256,-102.15121,9.101866
752582911000.0,0.9945304153090287,9.12401642343112,-0.7677583847004652,-0.026572637,0.29077184,-0.11453723,340.86804,-102.139755,9.09294
752587973000.0,0.9577106729849046,9.147028747365423,-0.8690126820991171,-0.027794369,0.28496864,-0.095294975,340.83865,-102.1313,9.0863285
752592972000.0,0.92895025,9.176119553961495,-0.9601457775037024,-0.008857546,0.28221974,-0.07574729,340.82373,-102.13721,9.074261
752597977000.0,0.92895025,9.2293572071455,-1.0178202723898555,0.011911872,0.29168814,-0.05955936,340.80783,-102.14654,9.067291
752603056000.0,0.9274661458373068,9.28378371638375,-1.0717119384321954,0.026267206,0.3200934,-0.04428773,340.7993,-102.16894,9.058159
752607937000.0,0.9051771845508296,9.341735699980926,-1.0583385756246424,0.04917465,0.33444872,-0.029321533,340.7927,-102.199356,9.053418
752613605000.0,0.8789044144015957,9.410601526595745,-1.039548426868351,0.070554934,0.34116822,-0.005192355,340.7801,-102.240486,9.05271
752618011000.0,0.8543558903125,9.480740125,-0.99045135671875,0.08857546,0.33475417,0.008246681,340.76755,-102.28477,9.053212
752623032000.0,0.8263808246176861,9.560668836436172,-0.934501200290891,0.12889257,0.31887165,0.025350908,340.75015,-102.33175,9.051512
752627948000.0,0.7897583241377152,9.660681527595202,-0.8720429691559729,0.14996742,0.30665436,0.040317107,340.7345,-102.37939,9.052879
752632932000.0,0.7449406673990611,9.78019509170579,-0.8023266315618154,0.16982053,0.29626966,0.04917465,340.7236,-102.43512,9.056593
752638036000.0,0.6692578852997362,9.876014785408897,-0.7227209569253161,0.19364429,0.28160888,0.06841691,340.71155,-102.48347,9.055658
752642997000.0,0.5784982112435186,9.953808572546166,-0.6406050299754389,0.19975294,0.27916542,0.0729984,340.6991,-102.52961,9.053186
752648734000.0,0.4578481485007422,10.072572404552202,-0.5386610388005938,0.21380283,0.26236662,0.092240654,340.6924,-102.56905,9.045808
752652942000.0,0.3581469904997526,10.180249731815932,-0.4589001123998021,0.20555615,0.25778514,0.08582657,340.68237,-102.59993,9.033128
752657935000.0,0.2452777283244427,10.302441107163268,-0.3693355973213945,0.20799962,0.25137106,0.09132435,340.67935,-102.61688,9.006403
752663021000.0,0.1385644807249,10.418434173080588,-0.2858208805448656,0.19517145,0.23762658,0.08460484,340.67926,-102.62507,8.974562
752667938000.0,0.0306565923256751,10.519464738814994,-0.2182014222128174,0.17104226,0.21930063,0.0729984,340.68256,-102.60226,8.91518
752672978000.0,-0.0909352715195485,10.597283070133011,-0.1792920280169286,0.13652839,0.21746802,0.056199603,340.68478,-102.57301,8.853882
752677916000.0,-0.2017247965066318,10.6591898103867,-0.1616124175733233,0.1020145,0.20586158,0.03848451,340.7002,-102.51334,8.766003
752682941000.0,-0.2961197641416028,10.69065496543994,-0.1885824083261722,0.0693332,0.21074851,0.0076358155,340.7102,-102.44275,8.672322
752688032000.0,-0.3818740893069307,10.722032767776778,-0.2190683793069307,0.05222898,0.20189096,-0.020158553,340.7397,-102.34545,8.5507765
752693015000.0,-0.4248274944884488,10.750668447644763,-0.2620217844884488,0.028405234,0.20708331,-0.045814894,340.76254,-102.237274,8.424758
752698186000.0,-0.4677881099671608,10.779983944830176,-0.3039697252242447,0.007330383,0.22113322,-0.08735373,340.79202,-102.1089,8.266772
752702942000.0,-0.5019763647354101,10.805624755488834,-0.3338844386639144,-0.013439035,0.22327125,-0.111177474,340.82324,-101.97805,8.109862
752708021000.0,-0.5360528762879564,10.828139802115318,-0.3646636316547254,-0.025961773,0.226631,-0.1432479,340.84808,-101.83722,7.9315557
752712989000.0,-0.5319947440464006,10.775384252473556,-0.3768380368543159,-0.021991149,0.22143865,-0.17348573,340.87415,-101.69617,7.7510676
752717961000.0,-0.527933344387581,10.72258622654384,-0.3890222443125213,-0.019547688,0.204029,-0.20952678,340.90515,-101.54612,7.553909
752723036000.0,-0.4952379937912813,10.678882261965247,-0.4241354752494665,-0.009468411,0.19792034,-0.23060162,340.9342,-101.401276,7.3575015
752727958000.0,-0.4521292062087186,10.640563584188598,-0.4672442478274565,-0.023518313,0.18997909,-0.26175576,340.96722,-101.24883,7.1520824
752732935000.0,-0.3895942546708268,10.615701938897557,-0.5188637387852314,-0.04062254,0.17531833,-0.2742785,341.00055,-101.105835,6.950925
752737967000.0,-0.3194260998127925,10.595653749609983,-0.5739958746645867,-0.064446285,0.15790866,-0.29138273,341.036,-100.957565,6.744106
752742969000.0,-0.2538926876057287,10.5590954873631,-0.5973265102342039,-0.086437434,0.15943582,-0.3109304,341.06317,-100.815834,6.544095
752747955000.0,-0.1895288000522325,10.518868296545914,-0.6134174663706824,-0.101098195,0.1554652,-0.31337386,341.09753,-100.67612,6.3478756
752752947000.0,-0.1293986895953097,10.483182662343053,-0.6398235023876725,-0.11789699,0.15821409,-0.32345316,341.12292,-100.544914,6.1610565
752757937000.0,-0.074851533714849,10.453429586697103,-0.6794941680823907,-0.13988814,0.16554448,-0.33200526,341.1489,-100.41436,5.978519
752763000000.0,-0.0339077986968987,10.417755712920451,-0.7317181132296449,-0.15790866,0.16462818,-0.33322698,341.16507,-100.297005,5.813584
752768061000.0,-0.0066606042643118,10.376885043848963,-0.7952949045066992,-0.17379116,0.172264,-0.33933565,341.17715,-100.177704,5.6496816
752773124000.0,0.0135180460240249,10.332822612484922,-0.8509177738590672,-0.17745635,0.17684549,-0.3313944,341.18335,-100.070175,5.500765
752777945000.0,0.0228002704181745,10.286411037394451,-0.8926877795134701,-0.17654006,0.18509217,-0.3313944,341.18677,-99.96234,5.3522406
752782919000.0,0.02873042,10.228760412349253,-0.922873393888085,-0.17501289,0.19181168,-0.32895094,341.1892,-99.872765,5.215863
752788007000.0,0.02873042,10.153542935069948,-0.9322755662759288,-0.1704314,0.19456059,-0.3200934,341.19174,-99.78897,5.0849886
752792985000.0,0.0212131922887373,10.085274843503935,-0.9256403728662824,-0.16157386,0.19272798,-0.31581733,341.1871,-99.71569,4.9562716
752797975000.0,-0.0023046549082536,10.028159971456692,-0.8853240600780371,-0.16432275,0.18173242,-0.30848694,341.1859,-99.645775,4.8339386
752802953000.0,-0.0257659461600815,9.97118244980315,-0.8451047003465972,-0.15149458,0.1695151,-0.30787608,341.18768,-99.59118,4.716294
752807940000.0,-0.0625055456448745,9.89672808749753,-0.7950073530910526,-0.14782938,0.15760323,-0.2968805,341.19415,-99.53883,4.606049
752812991000.0,-0.1150531412920205,9.801187070709066,-0.7329056622496544,-0.13561209,0.15118915,-0.29352075,341.203,-99.493355,4.4962487
752818002000.0,-0.1589955346149954,9.707542611454013,-0.674995792712739,-0.13988814,0.13622294,-0.3032946,341.21793,-99.438065,4.382256
752822972000.0,-0.1927076787513912,9.616038389051909,-0.6220195755519579,-0.13988814,0.106595986,-0.30573806,341.23993,-99.39079,4.272916
752827937000.0,-0.2126114214533472,9.52303163683663,-0.5783886483073187,-0.13439035,0.09468412,-0.30176744,341.25684,-99.337585,4.155526
752832934000.0,-0.2167612020291363,9.427586856919875,-0.5451903603694068,-0.14996742,0.08735373,-0.30818152,341.28088,-99.28009,4.0360484
752838002000.0,-0.2142992466854667,9.344311811345433,-0.5251039460348209,-0.15577064,0.08277224,-0.2950479,341.30453,-99.22448,3.9188197
752843056000.0,-0.1786926930235409,9.328486355076016,-0.5725793605566454,-0.15149458,0.083383106,-0.2938262,341.3286,-99.16817,3.7989194
752847951000.0,-0.1442063297122772,9.313158771293116,-0.6185611876410005,-0.15149458,0.07513642,-0.30207285,341.35413,-99.10216,3.6794484
752852941000.0,-0.1310361836665773,9.30561682337175,-0.6594212706539802,-0.14660765,0.089186326,-0.2932153,341.37448,-99.04362,3.5685549
752857950000.0,-0.1267504478236397,9.301331002501565,-0.6979928842901814,-0.13683382,0.103847094,-0.29168814,341.39685,-98.98748,3.455353
752862960000.0,-0.1374270430816539,9.28830521326521,-0.735498574525499,-0.13316862,0.12675454,-0.28710666,341.40198,-98.950386,3.3555462
752868015000.0,-0.1649097326643958,9.265402987889107,-0.7721421686072476,-0.13164146,0.1337795,-0.2843578,341.40823,-98.91737,3.2578118
752872943000.0,-0.1900445256807688,9.23179047498351,-0.8013431275577122,-0.11728613,0.1441642,-0.27366763,341.40216,-98.90141,3.1664355
752877958000.0,-0.2126713428342598,9.177485958824082,-0.8194445841157071,-0.098043874,0.1572978,-0.26450464,341.39438,-98.88887,3.0779526
752882910000.0,-0.2394579215137976,9.130504348226015,-0.8504884063074901,-0.099571034,0.17073683,-0.26083946,341.38773,-98.87633,2.9856565
752887999000.0,-0.282152950784056,9.104887708716602,-0.9273394393780114,-0.096516706,0.17806722,-0.26542094,341.3802,-98.87148,2.895953
752893368000.0,-0.3257547961856486,9.078096219071757,-1.010438814802788,-0.08399397,0.19975294,-0.26358834,341.36395,-98.870804,2.8052592
752897951000.0,-0.3292309940630445,9.060715229684778,-1.1286296515285918,-0.08002335,0.21838433,-0.26389378,341.34756,-98.86917,2.7149775
752903628000.0,-0.3335369891208617,9.039185254395692,-1.2750336183827025,-0.07727446,0.23273966,-0.26450464,341.3324,-98.88459,2.6177633
752907941000.0,-0.327085227332145,9.053212103980986,-1.3575109774212717,-0.07360926,0.24740042,-0.26389378,341.31357,-98.90199,2.5238094
752912974000.0,-0.3079923140562488,9.105717189344425,-1.419562913170925,-0.0711658,0.25411993,-0.26511553,341.29443,-98.9201,2.43161
752917955000.0,-0.286774244583419,9.172657480148116,-1.4758881508331618,-0.06536258,0.25992316,-0.25961772,341.2776,-98.955154,2.3377228
752922982000.0,-0.2620146149444559,9.261792364019747,-1.5254074101110882,-0.059864793,0.2764165,-0.25442538,341.2573,-98.990685,2.2463326
752927943000.0,-0.2408288036896329,9.343370773985834,-1.5289802543740223,-0.043066,0.2828306,-0.25625798,341.22992,-99.03641,2.155216
752932935000.0,-0.2232379985898261,9.41813184030908,-1.48060556560574,-0.032986723,0.2782491,-0.24770586,341.20343,-99.08241,2.0708954
752938091000.0,-0.1986050933791535,9.507715914655854,-1.4007804199268197,-0.0033597588,0.27000242,-0.2312125,341.17218,-99.141396,1.9918361
752942972000.0,-0.1616237711431962,9.618659712420886,-1.262100407238924,0.01985312,0.27305678,-0.22693644,341.14056,-99.20021,1.9140689
752948071000.0,-0.1184015931516322,9.735502271636326,-1.103223192790603,0.03604105,0.26542094,-0.22388211,341.10754,-99.25772,1.8445296
752952946000.0,-0.0661737593267568,9.849454219159972,-0.9180518085487644,0.06566802,0.25717425,-0.19517145,341.0768,-99.325745,1.7853289
752957935000.0,-0.008360617665148,9.973246448747153,-0.7432005766173121,0.089186326,0.24007004,-0.17654006,341.03992,-99.37653,1.7342904
752963008000.0,0.0608067231947608,10.116191801822325,-0.6002547324202734,0.116675265,0.24831672,-0.15515977,341.00107,-99.43683,1.6942347
752967965000.0,0.1091493048174885,10.257853038230808,-0.4662897121352313,0.1459968,0.26389378,-0.12339478,340.95322,-99.477394,1.6748308
752973912000.0,0.0744040465073716,10.437370806812403,-0.3330995572953736,0.15974127,0.28924468,-0.06078109,340.90393,-99.522644,1.6718644
752977969000.0,0.0308821385554371,10.546567642945984,-0.2474782756263326,0.18203785,0.32589662,-0.038179077,340.81854,-99.55174,1.6773
752982934000.0,-0.0831742596055436,10.639502156538734,-0.1587677393123667,0.17654006,0.36651915,0.0061086523,340.73032,-99.580025,1.7081273
752988392000.0,-0.2183948329255696,10.739370605367087,-0.0645239199677974,0.17715092,0.40866885,0.030543262,340.6268,-99.59213,1.7335317
752992969000.0,-0.4625282400870886,10.792636225012656,-0.029013604049924,0.17745635,0.44257188,0.043982297,340.5173,-99.60379,1.7698725
752998301000.0,-0.7479007907401033,10.846096232702235,0.0089867042623063,0.14385876,0.47678033,0.049480084,340.40607,-99.582985,1.7858925
753002945000.0,-1.0081657376592084,10.78868488261618,0.0013318519889845,0.10567969,0.50488013,0.038789943,340.28848,-99.56087,1.8028047
753007941000.0,-1.2881579156970742,10.72692194010327,-0.0069032130320137,0.06658431,0.49510628,0.008552114,340.20004,-99.51855,1.7659467
753013007000.0,-1.5402172134455985,10.60614689800192,-0.0383548580786144,0.015882496,0.49602258,-0.047647487,340.1004,-99.4613,1.7219499
753017974000.0,-1.772640959811535,10.460882191955326,-0.079859091443155,-0.023823744,0.46975538,-0.099265605,340.01157,-99.39626,1.6705883
753023022000.0,-1.9610102184095428,10.276580179125247,-0.1281692832465208,-0.057421334,0.4392121,-0.15699236,339.9516,-99.319435,1.540166
753027949000.0,-2.073578650994036,10.04206232554672,-0.1844534848459244,-0.089491755,0.41538838,-0.21074851,339.89627,-99.2334,1.3989077
753032936000.0,-2.1468996144863834,9.83352249297659,-0.2609421295279503,-0.12461651,0.40439278,-0.26145032,339.87692,-99.142334,1.1916448
753038009000.0,-2.1515420517916866,9.67103718729097,-0.3723607121118012,-0.13622294,0.364992,-0.28069258,339.87247,-99.05511,0.9807946
753043381000.0,-2.126271631308116,9.510136440642771,-0.4944587468493274,-0.13439035,0.3408628,-0.33505958,339.87726,-98.97456,0.7251088
753047952000.0,-2.055136769468268,9.391578475128645,-0.6051129181475128,-0.122783914,0.3295618,-0.3436117,339.89188,-98.90356,0.48133335
753053056000.0,-1.9575020698429888,9.247681652048366,-0.7383266855260783,-0.1151481,0.32253686,-0.364992,339.91614,-98.858185,0.22010677
753057938000.0,-1.674835062804548,8.99032818065331,-0.9661478895686698,-0.089186326,0.34269542,-0.39675698,339.93637,-98.83091,-0.040077843
753062989000.0,-1.3823829832160262,8.724065914365637,-1.2018555711784875,-0.06383542,0.35216382,-0.41325033,339.95358,-98.83804,-0.28301257
753067962000.0,-1.2155769127553562,8.689547205281514,-1.2996877285999002,-0.03634648,0.35918877,-0.44593164,339.9655,-98.86136,-0.53317386
753072956000.0,-1.0686259537286165,8.693518932403256,-1.375149050938382,-0.0061086523,0.3622431,-0.45204028,339.97818,-98.89968,-0.7747284
753077944000.0,-0.9278657306697184,8.745922664046175,-1.4821855609612895,0.01740966,0.3549127,-0.45906523,339.9716,-98.98418,-0.96024984
753082939000.0,-0.7945776177231565,8.860169433376456,-1.6297544827943078,0.050701816,0.34972036,-0.46120325,339.96573,-99.0815,-1.1417696
753088001000.0,-0.6848502576195663,9.009109551440735,-1.774804468402812,0.0888809,0.33108896,-0.45998153,339.9422,-99.18649,-1.2942635
753092976000.0,-0.6093661723140905,9.197819641548667,-1.9116193822556689,0.101098195,0.30818152,-0.44868052,339.92392,-99.292435,-1.4414064
753097928000.0,-0.5402345086538461,9.402122043956044,-2.041569982692308,0.11636983,0.30695978,-0.43799037,339.89075,-99.41704,-1.5628289
753102946000.0,-0.4789380532967033,9.633162737833594,-2.1641628934065937,0.11056661,0.3118467,-0.41233405,339.86533,-99.53514,-1.6747378
753107944000.0,-0.434007779724366,9.84643572491731,-2.2654427723263506,0.089186326,0.3182608,-0.3915646,339.82956,-99.653534,-1.7734087
753113200000.0,-0.4155088135060639,10.04067447905182,-2.3348139560088206,0.042760566,0.33292156,-0.38056904,339.79248,-99.75902,-1.864555
753118005000.0,-0.4072155318445211,10.191787580308262,-2.3779721106123137,-0.014049901,0.3390302,-0.36926803,339.73846,-99.85844,-1.9413482
753122944000.0,-0.4311184323877705,10.247561299166176,-2.3461014794912827,-0.07971791,0.33383787,-0.38423425,339.68472,-99.94001,-2.0201354
753127956000.0,-0.4553746254476543,10.304159371430975,-2.3137597902467784,-0.13958271,0.3387248,-0.40194935,339.61462,-100.009224,-2.0933628
753133057000.0,-0.3654889627088908,10.13952701333843,-2.321711837190433,-0.20922135,0.34422258,-0.43004912,339.54666,-100.05681,-2.1716602
753138008000.0,-0.2547114933838834,9.934085225224075,-2.33782497510726,-0.2657264,0.3555236,-0.44012842,339.47772,-100.089966,-2.2468884
753143038000.0,-0.1421664174992566,9.725365331421774,-2.354195220254025,-0.28924468,0.37965274,-0.45265114,339.39572,-100.11304,-2.3338573
753147989000.0,-0.0313889481742491,9.51992354330742,-2.370308358170851,-0.321926,0.40439278,-0.464563,339.31213,-100.11864,-2.4199042
753152997000.0,0.0928866090714132,9.311121116019727,-2.3858757551361784,-0.3436117,0.41722095,-0.46883908,339.22714,-100.12144,-2.5036612
753159007000.0,0.3479806058188577,9.05191263864465,-2.3982190036886126,-0.35460728,0.44440445,-0.47128254,339.133,-100.1194,-2.5852468
753162973000.0,0.5163171767174208,8.880860921295303,-2.406364315462149,-0.3417791,0.47555858,-0.46975538,339.01416,-100.11695,-2.6212137
753167963000.0,0.7280663710186005,8.66005456775908,-2.4281540443046943,-0.32467487,0.48655418,-0.4269948,338.89798,-100.1096,-2.6439133
753172993000.0,0.9414026605668732,8.425384350752879,-2.47508795404783,-0.30268374,0.49877146,-0.3915646,338.7752,-100.10723,-2.6647315
753178160000.0,1.1487576686649874,8.192655467657431,-2.5258356685810246,-0.26847526,0.5137377,-0.35002577,338.611,-100.09811,-2.6261032
753182989000.0,1.2380664353652393,8.048985054508817,-2.5957295036272043,-0.21594086,0.5235115,-0.31612277,338.44946,-100.097374,-2.5787673
753187941000.0,1.3296499956675063,7.901655196171284,-2.6674036123761544,-0.15027285,0.56169057,-0.29993483,338.2424,-100.09968,-2.4935806
753192998000.0,1.365632731565149,7.818624631233068,-2.76265980795246,-0.08277224,0.64934975,-0.2761111,338.02417,-100.11392,-2.3939126
753198014000.0,1.374028602927554,7.768249140050686,-2.8676088794197323,-0.039095376,0.75411314,-0.26389378,337.79428,-100.138954,-2.2904627
753202854000.0,1.355513635567701,7.750738865463545,-2.876164948417036,-0.00030543262,0.895223,-0.23823744,337.5123,-100.17934,-2.166119
753207839000.0,1.2915119315355263,7.78520132148087,-2.728468554119831,0.02321288,1.0424415,-0.21960606,337.2038,-100.226906,-2.0348327
753212863000.0,1.269545858337673,7.779410509738569,-2.362781096812832,0.047647487,1.1780536,-0.22082779,336.857,-100.29816,-1.9028724
753217860000.0,1.3044367433392354,7.719597653244453,-1.7098236116654515,0.049785517,1.2269229,-0.23518312,336.49878,-100.368645,-1.7662404
753222838000.0,1.3800754339222614,7.702358501766785,-1.2010263455830388,0.03359759,1.187522,-0.24587326,336.1311,-100.42821,-1.6345979
753228094000.0,1.5020397332458355,7.727767719737506,-0.8097241235133771,-0.014966198,1.1392636,-0.23945917,335.75858,-100.47716,-1.499968
753232836000.0,1.563807646338571,7.715803148235992,-0.6339119596323748,-0.05131268,1.0253373,-0.23335053,335.4001,-100.4597,-1.346016
753237929000.0,1.5879081712916296,7.672422303982606,-0.6001711944994566,-0.10751228,0.91354895,-0.20861048,335.0621,-100.42029,-1.1877028
753242895000.0,1.5329584763936015,7.599722459040232,-0.7026999699156569,-0.19120082,0.7910705,-0.17470746,334.73343,-100.30813,-1.0092262
753247868000.0,1.40367951987397,7.498145981095492,-0.9335553368841494,-0.23273966,0.6927212,-0.15699236,334.43378,-100.19342,-0.83363605
753252867000.0,1.267306720652584,7.383297320162203,-1.176793061241041,-0.26206118,0.6209445,-0.15668693,334.14706,-100.05288,-0.66555715
753257899000.0,1.1218808292153903,7.2515051876084495,-1.4358328191437195,-0.23060162,0.59773165,-0.17379116,333.87698,-99.9211,-0.5009785
753262919000.0,0.9924514861312173,7.148086448925876,-1.648852892877879,-0.16371189,0.5870415,-0.2012801,333.6323,-99.82871,-0.38573956
753267905000.0,0.8954175090807044,7.101879487613703,-1.7689902106638282,-0.06536258,0.59559363,-0.24617869,333.3901,-99.75633,-0.28072876
753272854000.0,0.8149275465165535,7.091237147645486,-1.860379873061896,0.06627888,0.6035349,-0.2855795,333.16528,-99.7588,-0.22542325
753277881000.0,0.7802783261978202,7.185285360682706,-1.870279641435328,0.19517145,0.6059783,-0.3277292,332.94156,-99.78762,-0.1826686
753282868000.0,0.765402121627907,7.296759835400515,-1.8461336412144704,0.31245756,0.60048056,-0.37384954,332.72397,-99.86655,-0.18190104
753287926000.0,0.7942867399821109,7.450810871894255,-1.7450375322699263,0.41630468,0.59437186,-0.39767328,332.50974,-99.975204,-0.1850071
753292899000.0,0.8264034071256748,7.59734992870537,-1.633316732948196,0.48288897,0.57910025,-0.42180246,332.29474,-100.103065,-0.21286502
753297857000.0,0.8668747079496164,7.732254389999053,-1.4939156065347097,0.50701815,0.58246,-0.4569272,332.07977,-100.24383,-0.24776159
753302873000.0,0.9011236613988848,7.858769567156614,-1.346523230765332,0.5045747,0.5897904,-0.47769663,331.8524,-100.369576,-0.28534
753307910000.0,0.9060135084946782,7.941896661429295,-1.1704886331981754,0.4859433,0.5900958,-0.49754974,331.6303,-100.4928,-0.33004165
753312934000.0,0.906777899192616,8.003191287525638,-0.9970637734476973,0.44593164,0.5910121,-0.5036584,331.39072,-100.57964,-0.36693138
753317937000.0,0.8933769583591273,7.98979056125303,-0.8317857550438188,0.3998113,0.5821546,-0.50488013,331.15894,-100.655556,-0.40553644
753322924000.0,0.8749301389696845,7.969809928717739,-0.6734337330028677,0.3378085,0.55833083,-0.5002986,330.92102,-100.68512,-0.44279107
753327904000.0,0.7967777503994264,7.872119506759525,-0.5903967927324867,0.28496864,0.54428095,-0.49938235,330.68808,-100.70194,-0.4781819
753332915000.0,0.7109556717261729,7.77371935579817,-0.5113262900029507,0.26267207,0.49938235,-0.49571714,330.4609,-100.68838,-0.5137907
753337993000.0,0.5722422277544998,7.673271551175371,-0.4634940772440248,0.2321288,0.4428773,-0.48197266,330.24634,-100.65659,-0.5443537
753342934000.0,0.4374330086745291,7.580869273332159,-0.4237564230329168,0.2098322,0.3885103,-0.4804455,330.03723,-100.62408,-0.5938144
753347922000.0,0.3028958095863404,7.538826517972188,-0.4489821508801268,0.20677789,0.30451632,-0.46944994,329.85776,-100.588,-0.6377197
753352900000.0,0.1686283322284809,7.496868050413659,-0.4741573058968492,0.19700404,0.21410827,-0.46883908,329.69144,-100.551796,-0.7205818
753357994000.0,0.0050131655314081,7.493024026972313,-0.5422181382147465,0.18845193,0.1133155,-0.4633413,329.55603,-100.515594,-0.79969424
753362946000.0,-0.1597037259005655,7.497730122357844,-0.6175172762280441,0.17989981,-0.0012217305,-0.45875978,329.45285,-100.47759,-0.8803282
753367969000.0,-0.326686803035933,7.526464637607186,-0.7592698727235607,0.16584991,-0.10720685,-0.44684792,329.38626,-100.45602,-0.9910287
753372933000.0,-0.4916862966292363,7.560434998325848,-0.9145635250796244,0.1563815,-0.21502456,-0.42363504,329.35498,-100.43453,-1.0990951
753378015000.0,-0.6114086584735842,7.600239580494109,-1.0924868409692132,0.13530666,-0.3191771,-0.42119157,329.36362,-100.42904,-1.2527411
753382964000.0,-0.719494449790954,7.639871232687192,-1.269026925655644,0.092240654,-0.39950588,-0.41783184,329.39774,-100.416504,-1.3995612
753387944000.0,-0.8292416958389262,7.689345384408879,-1.481082493908105,0.064751714,-0.45631635,-0.40408736,329.4661,-100.437904,-1.5863305
753393156000.0,-0.947778526657718,7.776959508022715,-1.8315392574393392,0.051923547,-0.47952923,-0.3903429,329.54745,-100.454834,-1.7696846
753397971000.0,-1.06277262781552,7.90862441144388,-2.216479537288298,0.027794369,-0.49693888,-0.37782016,329.65805,-100.50375,-1.9914402
753402949000.0,-1.1950592506267343,8.16863595904698,-2.7638722966606064,0.016798794,-0.47952923,-0.36132678,329.7654,-100.5558,-2.2024097
753407958000.0,-1.305182297805766,8.40798316304241,-3.2428926341139426,0.010995574,-0.43860126,-0.3436117,329.88086,-100.66238,-2.4412894
753413011000.0,-1.3194669294302863,8.555591122601594,-3.42383145051658,0.008857546,-0.40653083,-0.31764993,329.9942,-100.76795,-2.667351
753418028000.0,-1.3237407885093169,8.698149655279503,-3.5870198074534163,0.0125227375,-0.34697145,-0.29840767,330.11658,-100.95766,-2.9272373
753423008000.0,-1.281422675110914,8.820871967613131,-3.6716559458740017,0.027183503,-0.269697,-0.28680122,330.2242,-101.14818,-3.173348
753427972000.0,-1.2392405235226265,8.94319999139308,-3.756020160958296,0.06688975,-0.2510656,-0.27214047,330.33493,-101.36554,-3.4153764
753432959000.0,-1.166703502864423,9.087906194710484,-3.8056711980493807,0.079107046,-0.20433442,-0.25992316,330.41476,-101.57628,-3.6434245
753438260000.0,-1.0864118208944733,9.24402881908444,-3.8547384017221686,0.11789699,-0.15790866,-0.267559,330.48776,-101.80264,-3.866535
753443023000.0,-1.0036157881094625,9.35485315908653,-3.96408572383889,0.15882497,-0.12705997,-0.2724459,330.54462,-102.03332,-4.0714946
753448042000.0,-0.910985205357487,9.45674737078435,-4.1122946949315855,0.204029,-0.10048734,-0.2843578,330.58768,-102.27277,-4.2731676
753453010000.0,-0.817253558862544,9.634697654597884,-4.240570963152836,0.24281894,-0.08552113,-0.29871312,330.6137,-102.50961,-4.455058
753457944000.0,-0.7226285092966998,9.869367373758411,-4.354120942005768,0.2773328,-0.06872234,-0.32498032,330.6296,-102.75469,-4.6374507
753463083000.0,-0.6166963666184774,10.118208988708298,-4.472015726090676,0.312763,-0.058337633,-0.3585779,330.63245,-103.01637,-4.806242
753467964000.0,-0.4367564477570573,10.402114504020531,-4.579979771770744,0.35643986,-0.03848451,-0.4156938,330.6241,-103.28881,-4.983124
753472957000.0,-0.2526876063567151,10.69253454867408,-4.690421173139435,0.38515055,-0.032070424,-0.44868052,330.6031,-103.56008,-5.1321335
753478006000.0,-0.0133520751056081,10.904385530954116,-4.813655106882738,0.39858958,-0.01740966,-0.5021312,330.56885,-103.84047,-5.2968
753482904000.0,0.2386075731828113,11.079475653313912,-4.937499502913329,0.40378192,-0.008552114,-0.5311473,330.53354,-104.12028,-5.459413
753488008000.0,0.5788875423337906,11.388534819935986,-4.919648084773662,0.44593164,-0.022907447,-0.5662721,330.46838,-104.397026,-5.597976
753492975000.0,0.9790938536351166,11.801791491083677,-4.771745950617284,0.4538729,-0.045814894,-0.59223384,330.402,-104.661736,-5.7382836
753497999000.0,1.340995623655244,12.304378585046727,-4.498605276178608,0.4016439,-0.105374254,-0.6065892,330.33087,-104.900764,-5.8301616
753502939000.0,1.616107558026999,12.957769762616822,-3.99750839933541,0.30787608,-0.17012598,-0.6407976,330.26514,-105.13024,-5.934472
753507916000.0,1.8358986710175145,13.44483775237698,-3.678978643302752,0.19333886,-0.3268129,-0.6774496,330.19623,-105.25994,-5.963901
753512989000.0,1.97366573853211,13.6839038293578,-3.634406986055046,0.112704635,-0.45142943,-0.72387534,330.13577,-105.37677,-6.00896
753518424000.0,2.1033557732587607,13.95361728375426,-3.583333501389496,0.00030543262,-0.5009095,-0.7993172,330.05792,-105.35014,-6.016524
753523012000.0,2.072637623752512,14.287676447959452,-3.5142177652363893,-0.119729586,-0.52931476,-0.82802784,330.01224,-105.30367,-6.034631
753528000000.0,2.0392413443852133,14.6508602123569,-3.439076245634886,-0.2843578,-0.5467244,-0.85062987,329.9624,-105.196266,-6.043804
753532955000.0,1.9762236759478564,14.859580539979804,-3.4888791486826403,-0.36560285,-0.57848936,-0.915687,329.92303,-105.09389,-6.0793796
753537985000.0,1.9010457937299183,15.014358437712293,-3.5861682053245203,-0.51893,-0.61391956,-0.9636399,329.89258,-104.93778,-6.1207976
753542973000.0,1.8108120776658876,15.08347,-3.688636071210214,-0.6747007,-0.6227771,-1.0189233,329.85165,-104.75421,-6.1885724
753548044000.0,1.7060165479590002,15.08347,-3.797798077522028,-0.81581056,-0.63163465,-1.0677924,329.82114,-104.55087,-6.2716813
753553250000.0,1.5702670344658247,15.034310551112448,-3.901803041972339,-0.93034774,-0.6026186,-1.1276573,329.78204,-104.34838,-6.3832173
753557872000.0,1.4061291048406497,14.91453460342754,-3.9816538590499095,-1.0595458,-0.5876524,-1.1753048,329.75015,-104.1242,-6.5059733
753562911000.0,1.2482744125960823,14.756112478965203,-4.051417408182494,-1.1743884,-0.56779927,-1.239751,329.71472,-103.91858,-6.666583
753567860000.0,1.138589577113811,14.54066020390115,-4.082755880014877,-1.2999213,-0.56016344,-1.2910637,329.67957,-103.69786,-6.8339972
753572833000.0,1.0283728289114802,14.324163100669477,-4.114246326655096,-1.426065,-0.5500842,-1.3646729,329.64578,-103.503914,-7.049942
753577842000.0,0.9642599871369794,14.04800529463121,-4.21130966248871,-1.5460999,-0.5375614,-1.425454,329.60995,-103.304344,-7.2710037
753582838000.0,0.9066434780110386,13.764723822277972,-4.3169401431309575,-1.6514742,-0.5216789,-1.4785993,329.56964,-103.107635,-7.5041595
753587985000.0,0.938154253671493,13.320077529868636,-4.703845938076517,-1.7455474,-0.5149594,-1.5384641,329.53702,-102.938095,-7.7758703
753592910000.0,0.97885727956084,12.87686672586058,-5.106353782308947,-1.8289305,-0.5015204,-1.6019942,329.49805,-102.77915,-8.05491
753597849000.0,0.9864111,12.611840284594544,-5.300415060412232,-1.8768835,-0.46700647,-1.6481144,329.4603,-102.65703,-8.354697
753602860000.0,0.9864111,12.384292685117089,-5.449017492219857,-1.9321668,-0.41996986,-1.7085901,329.41428,-102.55422,-8.666932
753607882000.0,1.0035919474804895,12.139797560169573,-5.521871694960979,-1.9825631,-0.3753767,-1.781283,329.36642,-102.51682,-9.001788
753612950000.0,1.0269734015704788,11.887277465362752,-5.568634603140958,-2.0402899,-0.32986724,-1.8490891,329.3049,-102.50087,-9.342008
753617919000.0,1.0539783537020155,11.634334356021473,-5.560314312488605,-2.0943515,-0.28710666,-1.924531,329.2292,-102.53404,-9.7073345
753622920000.0,1.0830841939633342,11.377232910564166,-5.526357659252507,-2.1316142,-0.27091873,-1.9837849,329.14832,-102.59298,-10.077754
753627878000.0,1.158225063566187,11.117050761078817,-5.456101983245973,-2.165212,-0.23854288,-2.0207422,329.05276,-102.68408,-10.460049
753632888000.0,1.254248710759554,10.851842569903743,-5.369223531706853,-2.1991148,-0.21288654,-2.0748038,328.9539,-102.80763,-10.854491
753637951000.0,1.3747663622531563,10.568782757202978,-5.227184869601813,-2.245846,-0.19242255,-2.1303926,328.8524,-102.95515,-11.257638
753642902000.0,1.5077958374878602,10.282257856911622,-5.053223281018669,-2.291661,-0.18387043,-2.1774292,328.74774,-103.128426,-11.6638365
753647886000.0,1.616493091757841,10.014196630196937,-4.846437022428884,-2.3295345,-0.17379116,-2.2244658,328.6404,-103.32192,-12.076954
753652930000.0,1.7177899299781183,9.749944008752736,-4.626226274617068,-2.3652701,-0.17287487,-2.2660046,328.53458,-103.538765,-12.492404
753657944000.0,1.793213873754217,9.458139639710843,-4.395143149792771,-2.3970351,-0.17623462,-2.302962,328.43036,-103.76842,-12.90787
753663008000.0,1.8493067401445784,9.140280047228917,-4.152074127180723,-2.4336872,-0.20097467,-2.323426,328.33423,-104.01722,-13.321375
753667972000.0,1.8958447498603632,8.816277905844805,-3.926138283443048,-2.4565945,-0.22357668,-2.3554964,328.24533,-104.283356,-13.740194
753672982000.0,1.9341290751147016,8.476504363056055,-3.710789135028925,-2.484389,-0.24709499,-2.3872614,328.1667,-104.56733,-14.155638
753677948000.0,1.9791655731442253,8.128861594768834,-3.494641923153436,-2.511267,-0.27275133,-2.3900104,328.1075,-104.86451,-14.570448
753682938000.0,2.031979975796648,7.767962992816357,-3.274581728274084,-2.5433373,-0.30451632,-2.3918428,328.05978,-105.18269,-14.984556
753688004000.0,2.060855795738265,7.367745492712835,-3.049335551482561,-2.5772405,-0.31795537,-2.3866506,328.02628,-105.51886,-15.400241
753693645000.0,2.033705967212785,6.841038592521861,-2.7941269932455524,-2.6108382,-0.3359759,-2.3823745,328.00693,-105.86765,-15.807152
753697915000.0,2.010317854874074,6.443406075259259,-2.61405111517037,-2.6429086,-0.3463606,-2.379931,328.0003,-106.23923,-16.218807
753702945000.0,1.977014237293827,5.977155131061728,-2.428502189935802,-2.6774223,-0.34666604,-2.3741279,327.99988,-106.62024,-16.618458
753707912000.0,1.926719904651163,5.531496813953488,-2.2567855430232555,-2.7143798,-0.34269542,-2.3753495,328.01736,-72.96066,-17.03545
753713022000.0,1.8311558288478609,5.110146334635186,-2.109095702529735,-2.7733283,-0.3390302,-2.3759604,328.0392,-72.53188,-17.440758
753718045000.0,1.7362521017103762,4.694764965564424,-1.970070368301026,-2.8316658,-0.33567044,-2.3759604,328.07568,-72.05897,-17.867176
753722968000.0,1.6287341287239556,4.269580249569814,-1.9260857337099615,-2.886949,-0.32803464,-2.3759604,328.11447,-71.574104,-18.284155
753727988000.0,1.5228265638802552,3.85459192707345,-1.8899427575822016,-2.9177978,-0.30573806,-2.3744333,328.16467,-71.033844,-18.732668
753732949000.0,1.4451061241616228,3.578684163185016,-1.9171449520611807,-2.9825497,-0.2782491,-2.3787093,328.21634,-70.478546,-19.17374
753737945000.0,1.366837364469164,3.300829861958122,-1.9445390588172748,-3.0399709,-0.22510384,-2.3732114,328.26566,-69.871574,-19.646088
753742966000.0,1.2690990798513702,3.035066685620065,-2.0014379008824896,-3.112053,-0.1600467,-2.3631322,328.30847,-69.25199,-20.110783
753747997000.0,1.1616822525963773,2.775476058699489,-2.0730491502090107,-3.186273,-0.09560041,-2.3527474,328.34058,-68.62333,-20.566757
753752951000.0,0.9826402793433856,2.487857810213177,-2.1875240082596745,-3.2436945,-0.015882496,-2.3451116,328.35553,-67.94596,-21.055998
753757936000.0,0.7344172345168238,2.1687139113050584,-2.3435498798336183,-3.2840116,0.07269296,-2.3386977,328.35336,-67.26149,-21.537933
753763379000.0,0.4633885418406002,1.820248466619624,-2.513910726168016,-3.3487632,0.16310102,-2.332589,328.33167,-66.52879,-22.05593
753768112000.0,0.2914924433303948,1.7045761804522803,-2.563576119988501,-3.3912184,0.24801129,-2.31915,328.28906,-65.794914,-22.567654
753772943000.0,0.1230283786671138,1.6070443268876966,-2.603475523045228,-3.4321463,0.32650748,-2.3026567,328.2253,-65.05509,-23.074907
753777999000.0,-0.0833568709713213,1.516928667838148,-2.56610483300657,-3.4666603,0.3943135,-2.273335,328.1317,-64.24071,-23.66767
753782909000.0,-0.2942184026784858,1.433564865981854,-2.502355940942747,-3.4923167,0.44684792,-2.2284365,328.02032,-63.431114,-24.251469
753788005000.0,-0.6172228345304778,1.386412469686985,-2.4039835685337727,-3.510337,0.5006041,-2.1740694,327.88687,-62.59117,-24.86872
753792995000.0,-0.956998939481488,1.349119953689413,-2.3003933232376657,-3.520722,0.5500842,-2.0998492,327.7369,-61.767105,-25.46853
753798010000.0,-1.4697380435317071,1.3214069296780488,-2.174837704,-3.544851,0.636827,-2.03693,327.56567,-60.905632,-26.104267
753802965000.0,-2.131766311970732,1.3028886686048782,-2.031321084,-3.5924985,0.76052725,-1.9819523,327.3651,-60.0589,-26.726023
753807972000.0,-2.942323198543834,1.2796293711342248,-1.8764374968994555,-3.6483927,0.9092729,-1.921782,327.13867,-59.153713,-27.408375
753813021000.0,-3.924237564041605,1.2508903831104508,-1.7087935418028728,-3.7259727,1.0509937,-1.8643607,326.874,-58.25678,-28.083508
753818004000.0,-4.978409622551929,1.081065210158259,-1.5841818825222551,-3.7617083,1.1184943,-1.7760907,326.60495,-57.27148,-28.85524
753823014000.0,-6.141125070623145,0.739369285232443,-1.5082494602670624,-3.774231,1.2730432,-1.7461584,326.26932,-56.28916,-29.639652
753828000000.0,-7.16906893384785,0.3222115083792723,-1.397179007166483,-3.7604864,1.4553864,-1.6872098,325.9584,-55.184704,-30.557522
753833008000.0,-8.030230384154985,-0.1990178029453456,-1.238544040526067,-3.7174203,1.6380352,-1.6655241,325.6122,-54.10634,-31.471771
753837950000.0,-8.880042661994015,-0.7133778781382895,-1.0819997104268388,-3.6758816,1.8295414,-1.6264287,325.27972,-52.836372,-32.609447
753843171000.0,-9.574260176151762,-1.152727946244677,-0.6774506566666667,-3.6285396,2.043955,-1.4489723,324.88428,-51.65905,-33.685574
753847923000.0,-10.182104078590786,-1.5403383114014713,-0.2810308966666667,-3.651447,2.2687535,-1.2464706,324.43433,-50.537548,-34.728516
753852969000.0,-10.288816498686073,-1.788628818051344,0.4042992175419446,-3.7125335,2.4107797,-1.0589349,324.09268,-49.235718,-35.945248
753857914000.0,-10.269669742571256,-1.994446925136446,1.1366287476409946,-3.755294,2.5094345,-0.6600399,323.6609,-48.103237,-37.015224
753863005000.0,-10.166890133671208,-2.4408995644599303,2.2618085532942667,-3.8380663,2.486527,-0.24862215,323.36252,-46.853733,-38.14185
753868050000.0,-10.048283893569844,-2.930630195121951,3.4517010873059863,-3.8200457,2.3057108,0.092240654,323.0527,-45.770332,-39.11361
753872953000.0,-9.935754297213622,-3.2974753341589267,4.467713950877193,-3.6572502,2.01555,0.3998113,322.77484,-44.68572,-40.012547
753878811000.0,-9.80838360371517,-3.453793736676986,5.3187806343859645,-3.3774738,1.6349808,0.68844515,322.54742,-43.75425,-40.753475
753882978000.0,-9.716474939926371,-3.5448959766566266,5.759064665495314,-3.0042353,1.1902709,0.9419542,322.47574,-42.739548,-41.42908
753888091000.0,-9.601761841700132,-3.626834111746988,6.054041814926372,-2.5787675,0.72387534,1.1801916,322.4966,-41.864086,-41.96066
753893413000.0,-9.49463100867584,-3.7161073364823416,6.3416990933309965,-2.1502457,0.26542094,1.3860532,322.69595,-41.04269,-42.34826
753898112000.0,-9.545898741740425,-3.842305321076154,6.365361282359127,-1.7498235,-0.20463985,1.5763378,323.0063,-40.34683,-42.597168
753903016000.0,-9.599403096485847,-3.9740088572430112,6.390055765226536,-1.4107933,-0.72234815,1.7574593,323.47256,-39.720104,-42.703262
753908074000.0,-9.825169787119856,-4.157310669051878,6.269896012522361,-1.0910053,-1.1777482,1.9184223,324.01767,-39.198887,-42.692894
753913203000.0,-10.122952023752733,-4.362341195189822,6.089273858079904,-0.82344633,-1.6029104,2.0598376,324.66125,-38.766632,-42.557346
753917983000.0,-10.568660081560283,-4.702551807624113,5.912217907801418,-0.6056729,-1.7971655,2.1762075,325.32617,-38.372272,-42.37851
753923123000.0,-11.116572335303388,-5.129244209121355,5.71826695429472,-0.5161811,-2.1138992,2.2296581,326.1095,-38.025036,-42.083572
753928102000.0,-11.72966162662568,-5.511550870418539,5.75833767609364,-0.38362336,-2.3099868,2.2467623,326.86322,-37.68079,-41.837814
753932996000.0,-12.36876587333491,-5.8735869024198,5.898718866304091,-0.31215215,-2.4260514,2.2418754,327.63916,-37.358547,-41.53387
753938034000.0,-13.127232800368713,-6.273602100359933,6.0482859227635855,-0.30543262,-2.5723536,2.08977,328.49512,-36.924397,-41.35364
753943046000.0,-14.526201195417434,-6.846673590764639,6.229477664700202,-0.37720928,-2.7824912,1.7055358,329.41547,-36.45026,-41.17822
753949034000.0,-16.123102964775516,-7.4699727737693085,6.47732918709398,-0.48502702,-2.977968,0.7840455,330.55225,-35.694515,-41.2578
753952906000.0,-16.1953707955825,-7.081868049415331,7.042088643135557,-0.768163,-2.9675834,0.41141775,331.60617,-34.967693,-41.266766
753957877000.0,-16.288150595928975,-6.583606534755305,7.767145269164141,-0.89736104,-2.831055,-0.36774087,333.0469,-33.786404,-41.76113
753962959000.0,-16.168959561383467,-5.91398632021396,8.661924893851268,-1.2351695,-2.5167649,-1.033584,334.46515,-32.52332,-42.278694
753967919000.0,-13.28772142262152,-3.1906242705255505,11.51849439945991,-1.7363845,-2.1569653,-1.4343116,335.93945,-31.150969,-42.87369
753972894000.0,-10.298644960681331,-0.400015910396431,14.18761890591098,-2.5360072,-1.7238617,-1.6560557,337.4273,-29.6258,-43.45098
753977915000.0,-6.632414815471966,2.80306033427152,15.596583387204705,-3.794084,-0.89949906,-1.9144517,338.8263,-27.891415,-44.206463
753982868000.0,-3.70060732115879,6.007726669705359,16.875396182024915,-5.699678,-0.1994475,-2.5964828,340.1883,-26.071009,-44.30933
753987932000.0,-4.477402189736998,9.532075099367214,17.570674770120625,-7.1843863,0.39492437,-3.2168164,341.40552,-24.0963,-44.56693
753992885000.0,-5.615991423316523,12.74294312429546,18.20256876386829,-7.7485204,0.9428705,-3.2394185,341.91898,-22.473272,-44.296402
753997926000.0,-9.20583342470088,14.494899731335904,18.53673028844062,-7.33527,1.1136073,-2.9724703,342.43652,-20.752266,-44.130577
754002884000.0,-12.535253033734463,15.722574946537778,17.824246290183467,-5.3462925,3.072652,-2.9232957,342.44275,-19.44929,-44.543217
754007875000.0,-14.307987507792465,13.072902129463404,8.941711292498521,-3.2290337,6.863071,-3.5353825,342.26462,-18.204742,-45.552975
754012861000.0,-16.006531930402573,10.245573123357053,0.6671708378906327,-2.8023443,7.6733837,-4.6459355,342.3162,-17.10922,-46.64659
754018017000.0,-16.911402642947657,5.20140104898723,-0.844155525275368,-2.973692,6.4431014,-6.320928,342.52618,-16.042131,-48.270123
754023066000.0,-17.768029219929186,0.9377384474193222,-2.095024601375822,-3.03936,3.4394767,-7.2729616,343.2781,-14.729636,-50.502243
754027874000.0,-18.205890885887708,5.544596076279212,-0.3482382684673748,-1.8719965,0.7498371,-8.463233,345.06317,-13.165918,-52.626106
754032963000.0,-18.650471080754976,9.614154693294838,1.6522472236318193,0.09621128,0.14049901,-4.02774,345.47858,-12.508229,-54.20621
754037875000.0,-18.841019680944584,3.3463092569076966,5.499715095320176,4.3380594,3.601356,5.221065,343.82745,-13.340992,-55.702232
754042890000.0,-19.03556390528312,-3.0529669775144352,9.427860733861932,8.74087,5.6850176,7.5701475,343.1872,-14.172798,-56.66767
754047889000.0,-19.169999833453275,-7.534703147126555,12.177125771049656,7.920173,2.1114557,4.504215,341.37332,-15.671033,-56.602505
754052837000.0,-19.282046828004525,-11.3004487205202,14.486263314793874,5.6520305,-2.1294763,1.221425,338.52075,-17.962658,-56.53438
754057876000.0,-17.168733841870825,-13.486781496288048,13.27277122197476,3.736968,-4.87837,-0.9841039,338.5092,-18.826435,-56.29881
754062836000.0,-14.479833886414257,-15.18828220155902,11.1040190467706,2.3362541,-5.8685822,-2.20278,340.1765,-18.875668,-55.863056
754067872000.0,-10.946032966283363,-14.625325476579809,6.94179743099483,1.2867876,-5.456554,-2.7006352,343.26617,-18.00697,-55.34233
754072854000.0,-6.979709033294652,-12.727731396719063,1.6768554655132402,0.5128214,-4.5426993,-2.8704557,346.65323,-16.823795,-54.761215
754077843000.0,-4.141897104882943,-10.667597878356426,-2.154140077955089,-0.080634214,-3.4669657,-2.9480357,349.98236,-15.398421,-54.350273
754082856000.0,-1.705917105150501,-8.538982752317247,-5.475514029976111,-0.44837508,-2.133447,-2.9486465,352.95807,-13.908025,-54.157806
754087847000.0,0.3438672468749999,-6.483498128125,-6.751648871875,-0.5458081,-1.02717,-2.9205468,355.10138,-12.767892,-54.273823
754092849000.0,2.1866219677728878,-4.459419850466549,-6.88658728868838,-0.4196644,-0.20891592,-2.900999,357.02686,-11.629559,-54.63066
754097826000.0,3.3518825,-3.1794999,-6.9719152,-0.1432479,0.3594942,-2.87687,14.210484,-10.610231,-55.21359
754102822000.0,3.3518825,-3.1794999,-6.9719152,0.122478485,0.70707655,-2.8631253,14.833893,-9.598293,-55.940212
754107828000.0,3.5873962512861284,-2.367383805550463,-6.379070512786456,0.31398472,0.7974846,-2.8166997,15.419594,-8.833635,-56.553787
754112926000.0,3.9846990653353287,-0.9973745899635204,-5.37896388955196,0.4184427,0.8713993,-2.7217102,16.027672,-8.0994625,-57.248764
754117837000.0,4.185065,-0.30645782,-4.8745947,0.43890667,0.8213083,-2.653904,16.64906,-7.372838,-57.92886
754122834000.0,4.185065,-0.30645782,-4.8745947,0.5109888,0.62949663,-2.5030203,17.270725,-6.700603,-58.574318
754127831000.0,5.139700019526788,0.5153157341365243,-4.6802230462968,0.6243043,0.27366763,-2.2996023,17.82018,-6.2033577,-58.982426
754132832000.0,6.824290609736198,1.9654531879956485,-4.337226348989212,0.80939645,-0.24281894,-2.014939,18.365,-5.7795873,-59.275326
754137880000.0,8.464558053867702,3.2151245424477484,-3.932677055526826,1.0512991,-1.0412198,-1.6621643,18.907345,-5.4427676,-59.371758
754142880000.0,9.986405931480284,4.086962670006464,-3.4322730477698773,1.3539828,-2.1685717,-1.2525792,19.456255,-5.2245846,-59.211124
754147838000.0,11.149695748164538,4.724946818867545,-3.230469947752188,1.7073684,-3.4929276,-0.8078693,19.94424,-5.3543515,-58.550373
754152827000.0,11.985810602433874,5.147809601830433,-3.312159391199839,1.996613,-4.923574,-0.43860126,20.435223,-5.613693,-57.51938
754157836000.0,12.201992915822292,5.3293343819173815,-3.479615851334762,2.1661282,-6.261063,-0.15027285,20.859465,-6.123209,-55.942387
754162893000.0,11.829237228371008,5.282150167575994,-3.729692335151988,2.2146919,-7.418958,0.034513887,21.264416,-6.7454042,-53.980896
754167838000.0,11.183729927417748,5.0825927898305086,-3.826211250229312,2.1591032,-8.380766,0.087964594,12.235399,-7.50005,-51.60394
754172834000.0,10.210596794017947,4.705741969491525,-3.754657273040877,2.0470095,-9.144652,0.08582657,12.495511,-8.31005,-48.92178
754177826000.0,9.01097682591265,4.429040313489294,-3.184625649382133,1.8469511,-9.750325,0.026267206,12.875188,-9.113644,-46.0467
754182836000.0,7.535510559051033,4.270631353674182,-2.0169255587303083,1.5861117,10.002613,-0.07238753,11.331339,-9.883654,-48.58792
754187895000.0,6.967413681595922,4.63587374724303,-0.8585709100187267,1.2834278,10.002308,-0.17562376,11.981831,-10.578495,-45.531727
754192846000.0,8.121705696525177,5.967749561152726,0.2365267799625467,1.0729848,-9.694431,-0.61086524,12.814728,-11.149369,-42.558582
754197818000.0,9.822451659520926,7.978758306365924,2.670294699245037,2.8808405,-6.2564816,-1.5775595,11.502585,-11.816528,-46.066544
754203614000.0,12.698953680212508,11.434698801845467,7.709346390996366,4.4437394,-2.716823,-2.4947736,12.4661455,-12.398969,-44.182472
754207881000.0,14.13714723892465,13.570436102612646,10.82343069140477,3.7953057,-1.536937,-2.9608638,13.348901,-12.987535,-42.360218
754212986000.0,14.17879860725104,15.11616960034078,13.077239383661492,2.6386325,0.7797695,-2.9657507,13.869892,-13.6996975,-41.85776
754217938000.0,13.589258078287306,16.086351708386115,15.047429744616164,-0.18997909,2.806315,-2.3417518,14.059294,-14.2713785,-40.75605
754222904000.0,10.094973299501731,14.620358815556118,16.02743614660924,-2.6994135,4.2907176,-0.9746355,13.809746,-14.769969,-40.116753
754227885000.0,6.590133894924415,13.14993783303775,17.010402696816147,-4.4241915,4.961142,0.47525316,13.181017,-15.0610285,-39.598137
754232947000.0,1.3247774537610608,10.128659813938052,17.708405650442476,-5.2684073,4.3887615,1.4654657,12.244924,-15.125944,-39.135136
754238005000.0,-4.3601773658976,6.729934422597976,18.330994721238937,-5.3921075,2.32984,2.047315,11.081383,-15.127763,-38.419186
754242978000.0,-7.622048117238494,4.652292461037657,18.60237585874477,-4.810564,-0.14385876,2.543032,9.877561,-14.917132,-37.7365
754247945000.0,-10.687098817112972,2.681902556175732,18.845191914142266,-3.8114936,-1.8332067,3.098614,8.6173,-14.876368,-36.690174
754252950000.0,-13.106520845641528,1.1841791759529874,17.949448195102843,-2.8356364,-2.3408356,3.7916405,7.508451,-14.502693,-35.835945
754258018000.0,-14.936694775905975,0.1193508392007836,15.986170516748288,-2.012801,-1.6362026,4.4693956,6.246748,-14.434595,-34.851563
754262985000.0,-16.268081355603247,-0.684241692781562,13.590173193617618,-1.1621711,-0.21288654,5.0008483,5.02592,-14.379642,-34.235947
754267982000.0,-17.1254312444714,-1.2424121507026222,10.687686935523,-0.34880406,1.0177015,5.399438,3.568522,-14.609964,-33.729588
754274104000.0,-17.558384701007373,-1.7643115698411052,7.261758838695607,0.33383787,1.9788979,5.705176,1.9478892,-15.014068,-33.776035
754277952000.0,-17.382336602970195,-1.97480444303666,5.202756260483954,0.88147855,2.7159069,5.969986,0.13765025,-15.632573,-34.024162
754282942000.0,-16.697387209612817,-2.2367296951172992,2.8807082534617585,1.2360858,3.3157766,6.214943,358.2115,-16.4191,-34.671696
754287998000.0,-15.339807332443256,-2.4860809978065994,1.0336613172191496,1.3041973,3.8063014,6.402784,356.1824,-17.28638,-35.399273
754293015000.0,-13.964531207322006,-2.800225179136327,-0.4183237780885922,1.1258247,4.1065416,6.553973,353.98874,-18.29907,-36.287163
754298105000.0,-12.510237698017798,-3.2586973030238675,-1.0937075080036407,0.74281216,4.172515,6.6431594,351.73514,-19.289879,-37.155575
754302911000.0,-11.212978516309054,-3.623756477263543,-1.5101037756374482,0.2938262,4.073555,6.703635,349.28162,-20.356913,-38.008835
754308061000.0,-9.979134053689982,-3.875270822495911,-1.5006126720100068,-0.22235495,3.8466184,6.759224,346.80603,-21.339094,-38.773193
754313012000.0,-8.743549700467037,-4.096376074016527,-0.798047062044189,-0.79168135,3.695124,6.787324,344.29828,-22.239597,-39.40666
754317961000.0,-7.377105197592958,-4.262392799299443,1.7475412736123583,-1.0564915,3.2458324,6.848105,341.8643,-23.110481,-39.849575
754323141000.0,-6.050718676552701,-4.454825146530447,4.338129183896418,-1.4285084,2.4859161,6.857573,339.57794,-23.829388,-40.032055
754327949000.0,-6.157844184786566,-4.874011545721221,5.791308276350394,-1.4908166,1.3154984,6.8294735,337.48895,-24.553019,-39.973907
754333090000.0,-6.301592572663364,-5.315325310472919,7.26178876142355,-1.1682798,-0.13591751,6.743036,335.86267,-25.13212,-39.281185
754337978000.0,-6.757815095238856,-5.659362141596102,7.747927851054481,-0.5522222,-1.5531249,6.6113944,334.5314,-25.71227,-38.324417
754343746000.0,-7.296172605512062,-6.06533686375619,8.321587889718804,0.1337795,-2.737898,6.4702845,333.47473,-26.263996,-37.033245
754347968000.0,-8.060210465226454,-6.627605169698692,8.443267904112185,0.7443393,-3.4324517,6.2769456,332.6729,-26.846544,-35.559185
754353043000.0,-9.211487246541596,-7.470339358158045,8.401821589918514,1.1407908,-3.3921347,5.966626,332.04245,-27.431595,-34.0312
754358047000.0,-9.982325907370695,-8.108241554694539,7.943822378590737,1.1139128,-2.7559185,5.46816,331.57892,-27.858984,-32.59281
754363075000.0,-10.325092523337538,-8.52042927464408,6.989282810452334,0.75441855,-1.8753563,4.860655,331.17175,-28.184666,-31.305578
754367936000.0,-10.556726409669473,-8.850118754362553,6.051615034715664,0.3277292,-0.8686504,4.214054,330.8418,-28.24508,-30.474604
754373026000.0,-10.436638042804352,-8.945188689694108,5.015851237754054,-0.06383542,0.118202426,3.5347717,330.51526,-28.114786,-29.960602
754377939000.0,-10.270811227017695,-8.974630628254927,4.292266799194361,-0.31612277,1.0015136,2.8499918,330.23898,-27.797365,-29.895775
754382967000.0,-9.966006358653432,-8.836083223852683,4.299194097079557,-0.43188173,1.7082846,2.1670444,330.00064,-27.322968,-30.129969
754387983000.0,-9.66192894820889,-8.69786648151345,4.30610486203424,-0.4474588,2.2201898,1.4920384,329.84094,-26.75449,-30.680897
754393090000.0,-8.428111269489248,-7.358411615994624,5.2622815255376345,-0.34330627,2.5289822,0.7831292,329.80466,-26.090214,-31.452297
754398022000.0,-6.373919537922427,-4.945983003782643,7.0716029610215045,-0.13897185,2.5891523,0.04184427,329.93982,-25.348368,-32.37997
754402946000.0,-4.66111555263569,-2.8927172062866067,8.238620950800469,0.13713925,2.379931,-0.591623,330.17218,-24.628136,-33.347317
754407940000.0,-3.4098931303787587,-1.3209080643108164,8.503182699596511,0.43860126,2.1868975,-0.8414669,330.51715,-23.912182,-34.371506
754413432000.0,-2.0338992290902,0.4076413565404135,8.79412645698295,0.57940567,1.4978416,-1.3164146,330.94287,-23.353567,-34.872063
754418014000.0,-0.9038781391961348,1.905060104255757,8.898513886615953,0.93309665,1.2861768,-1.4052955,331.29114,-22.936277,-35.41733
754423012000.0,0.296680148036595,3.63701311901727,8.765665628597862,1.006095,0.9443977,-1.505172,331.93637,-22.405441,-35.816105
754427956000.0,1.115024578443672,5.003254700016954,8.573597232008137,1.0876455,0.70463306,-1.5580118,332.51968,-22.305944,-35.6656
754432962000.0,1.3710484856065102,5.848539972052217,8.285062034585064,1.0839803,0.59223384,-1.5876387,333.14252,-22.198965,-35.483536
754438247000.0,1.588411064887785,6.726329546590715,8.002543037759123,1.0073168,0.6621779,-1.6166549,333.47012,-22.29784,-35.23127
754443010000.0,1.268008901935926,7.374948350419737,7.963469791331163,0.8933904,0.86651236,-1.6303993,333.79492,-22.386152,-34.99429
754448049000.0,0.9290404998543772,8.061152455499402,7.922132380298098,0.7107417,1.1276573,-1.6297885,333.9614,-22.560276,-34.811787
754453012000.0,0.036407270832792,8.728429783681955,8.018293161127712,0.46975538,1.3723087,-1.6108516,334.0971,-22.69752,-34.679245
754458003000.0,-1.0875903751461606,9.395997594127582,8.170436504482266,0.24556783,1.4709635,-1.5519031,334.20267,-22.805874,-34.5721
754462954000.0,-2.202579825204625,10.058215231778616,8.321360506275173,0.11575896,1.4850134,-1.4395039,334.189,-22.98422,-34.543316
754468048000.0,-3.1119146553562773,10.080979483761512,7.930937648473098,0.21013765,1.4761559,-1.2846496,334.1333,-23.181206,-34.520092
754473015000.0,-3.858983717983519,9.716667970819197,7.229984062927775,0.54458636,1.455081,-1.1389582,334.0473,-23.422104,-34.483425
754478003000.0,-4.439289118873502,9.24039795409989,6.575260900280068,0.91415983,1.466382,-1.0195341,333.85626,-23.809368,-34.60974
754483096000.0,-4.898425089590789,8.667426341061148,5.945371664190136,1.2275337,1.459968,-0.9224065,333.63873,-24.270065,-34.70775
754488334000.0,-5.430570586068296,8.032593448956824,5.34251665889466,1.4330899,1.4526376,-0.86559606,333.39288,-24.785816,-34.96308
754493064000.0,-6.811545623452269,6.775057636047006,5.473670782031849,1.5176947,1.464244,-0.85918194,333.13535,-25.335108,-35.20762
754497977000.0,-8.245949504777313,5.468868746231797,5.609899155599081,1.4749341,1.461495,-0.93218035,332.89758,-25.85282,-35.599014
754502958000.0,-9.4473165771119,4.752506929642797,6.355463694599628,1.282817,1.423316,-1.1154399,332.70154,-26.315182,-35.991444
754507948000.0,-10.507120941425429,4.380361945979347,7.447627875232775,0.956615,1.2464706,-1.2437216,332.54474,-26.715643,-36.344456
754512977000.0,-11.468081109061425,4.08965555426718,8.506067571761605,0.7644979,0.9025534,-1.5351044,332.62936,-26.885609,-36.90969
754518031000.0,-12.14999510703426,4.02097361013582,9.457804005371983,0.34788775,0.4025602,-1.7901406,332.82416,-26.90387,-37.399353
754522919000.0,-12.618288495917753,3.923673042616672,10.06972987743171,-0.015271631,-0.13988814,-1.9559906,333.28976,-26.62335,-37.94511
754527983000.0,-12.637841630480798,3.747693810684407,9.952410559621006,-0.28771752,-0.59620446,-2.0088303,333.88428,-26.253128,-38.399773
754532911000.0,-12.543126248788369,3.515198660258481,9.707989082390952,-0.45081854,-0.90316427,-1.9688187,334.62775,-25.750586,-38.772934
754538048000.0,-12.181065952073237,3.131061389113265,9.151652259019924,-0.5009095,-1.0635164,-1.8887954,335.42975,-25.22959,-39.058407
754543035000.0,-11.814313908468709,2.7576117021274844,8.620916236332151,-0.4746423,-1.0803152,-1.7660115,336.22983,-24.7083,-39.301823
754548014000.0,-11.31495432695638,2.3801432302383114,8.172672390038755,-0.4007276,-1.0143417,-1.640784,337.00757,-24.219728,-39.501335
754552918000.0,-10.823116731508206,2.00836066624062,7.731180559907644,-0.30207285,-0.91965765,-1.4908166,337.7318,-23.766737,-39.698456
754557942000.0,-10.263495451265188,1.6408979526354253,7.333338010413812,-0.21044308,-0.82924956,-1.3426818,338.39493,-23.364664,-39.883232
754563071000.0,-9.66223463976432,1.2729620839134008,6.956428195533023,-0.118202426,-0.72601336,-1.1924089,338.9801,-23.023975,-40.06442
754568005000.0,-9.09721110217666,0.9909161622388496,6.622904104042367,-0.0421497,-0.6261369,-1.0351112,339.5033,-22.717686,-40.23909
754572957000.0,-8.54421090200175,0.7835412134875133,6.318754246574676,0.03726278,-0.5174029,-0.883922,339.9527,-22.466871,-40.41639
754577941000.0,-7.93559538929849,0.7469133612307468,5.9134025851741,0.12034045,-0.4370741,-0.7165449,340.34366,-22.247927,-40.568607
754582942000.0,-7.250352155923791,0.9566817098985329,5.364508573998102,0.20433442,-0.32589662,-0.5693264,340.66193,-22.07598,-40.734764
754587961000.0,-6.562642540185415,1.1672050736185122,4.813638939506533,0.27550024,-0.19120082,-0.4361578,340.913,-21.942518,-40.882057
754593040000.0,-6.158523443779986,1.5782212122429744,4.451018550179918,0.34880406,-0.04428773,-0.35705075,341.10864,-21.847178,-41.04631
754598349000.0,-5.87973935719671,2.1052976133139136,4.16787841818026,0.43768495,0.116980694,-0.36926803,341.26218,-21.77864,-41.241013
754602951000.0,-5.678737937840785,2.6897830116982253,3.9885857192425895,0.5320636,0.21594086,-0.46028697,341.31363,-21.825062,-41.40768
754607937000.0,-5.536723390839694,3.5608042419153367,3.917578594031922,0.57451874,0.4175264,-0.52381694,341.31125,-21.880129,-41.63732
754612951000.0,-5.461214151685393,4.462885994382023,3.998559015308989,0.6927212,0.6386596,-0.6478226,341.1932,-22.081717,-41.879444
754617983000.0,-5.528897378651685,5.423988571161049,4.404658706919475,0.8081747,0.84299403,-0.77396625,341.06583,-22.270382,-42.174576
754622995000.0,-5.596169217762548,6.366357462446749,4.878761469346175,0.9315695,1.0033462,-0.86132,340.7326,-22.658838,-42.460045
754628125000.0,-5.664416841211335,7.2672228518707165,5.66133142470828,0.98899084,1.0592403,-0.93462384,340.43372,-23.011719,-42.78178
754633232000.0,-5.727862396756757,8.14240798108108,6.446174511891892,0.9850202,1.0219775,-0.9746355,340.15033,-23.366848,-43.06392
754638022000.0,-5.738801873386327,8.729493874165343,7.244756876995231,0.87964594,0.8933904,-0.9966267,339.90164,-23.68487,-43.340416
754643039000.0,-5.750259776152623,9.344402000596183,8.081184377146265,0.6414085,0.64843345,-0.98899084,339.6924,-23.984161,-43.476563
754647982000.0,-5.664632305817288,9.82896825522327,8.690402736583367,0.29229903,0.35338554,-0.95081174,339.5262,-24.233074,-43.566185
754652940000.0,-5.489566260139287,10.203415061040555,9.103752882425235,-0.1282817,0.052534413,-0.8765916,339.40765,-24.42424,-43.58843
754657950000.0,-5.192887336117983,10.333657009895337,9.030933761370123,-0.4810564,-0.15851954,-0.75808376,339.2969,-24.601976,-43.428013
754663003000.0,-4.79691401527117,10.264591490485252,8.561291306374882,-0.73364913,-0.24709499,-0.6206391,339.20132,-24.733236,-43.21795
754667995000.0,-4.347860339410133,10.04332616986949,8.009390057856336,-0.88056225,-0.24617869,-0.47800204,339.08542,-24.860018,-42.901756
754673011000.0,-3.82952599227212,9.643468856129894,7.352833235330388,-0.90377516,-0.1994475,-0.32498032,338.9363,-24.988071,-42.56319
754677938000.0,-3.358450400968433,8.807291000027936,6.849507232572866,-0.8790351,-0.1695151,-0.16920967,338.7516,-25.127043,-42.212296
754682943000.0,-2.9165787631064344,7.530772577781916,6.474585893714499,-0.79412484,-0.1685988,-0.03848451,338.52744,-25.295895,-41.853073
754688050000.0,-2.672393227042368,6.478868109953375,6.251117604358402,-0.68936145,-0.2171626,0.06352998,338.29758,-25.477798,-41.493603
754692986000.0,-2.773010880397324,5.870370927792418,6.294239362882627,-0.55833083,-0.29657507,0.14569137,338.04446,-25.701832,-41.113834
754697931000.0,-2.887054500206368,5.273375963443396,6.31888837995283,-0.43249258,-0.34666604,0.22937989,337.85556,-25.852451,-40.759155
754702963000.0,-3.0243897767000782,4.686149079795597,6.314152682468554,-0.31337386,-0.4334089,0.2669481,337.6822,-26.03275,-40.374374
754707913000.0,-3.202949266679059,4.143925800483316,6.30651467023887,-0.26145032,-0.5122105,0.32986724,337.52072,-26.18152,-40.001766
754712986000.0,-3.469368524927967,3.656242972190724,6.292967935486569,-0.15851954,-0.5830709,0.38728857,337.36713,-26.36613,-39.609806
754717964000.0,-3.7535228670142913,3.179527474150251,6.253287721832754,-0.09285152,-0.61850107,0.44593164,337.21097,-26.51163,-39.248802
754722967000.0,-4.128275007184241,2.7076172768829663,6.1098638956546925,-0.042760566,-0.6258314,0.4746423,337.05643,-26.672699,-38.879295
754728000000.0,-4.504904763714475,2.252792550272637,5.963508375413086,-0.015271631,-0.5888741,0.47678033,336.95114,-26.7678,-38.568657
754732936000.0,-4.872013646728354,1.9286433015614672,5.80729196827495,0.010079277,-0.5186246,0.44043383,336.84192,-26.865482,-38.27068
754737994000.0,-5.248196128552545,1.5964822602362856,5.647214458691342,0.030543262,-0.39736784,0.37965274,336.7946,-26.889078,-38.073315
754743029000.0,-5.700482507941092,1.3934378097410725,5.5190071852921365,0.036651913,-0.24007004,0.28344148,336.74408,-26.899265,-37.915295
754747979000.0,-6.175036420733468,1.2428582760997209,5.404931817114256,0.04062254,-0.058337633,0.16432275,336.6867,-26.895718,-37.806988
754753007000.0,-6.561861541669903,1.2400369486524272,5.308112054135923,0.040317107,0.16035213,0.04734206,336.68216,-26.815926,-37.841305
754757953000.0,-6.88929096737864,1.3209744835339805,5.223495309902913,0.015271631,0.4034765,-0.06841691,336.66992,-26.709778,-37.94274
754763050000.0,-7.236915846104996,1.4157921310330228,5.148477111822608,-0.0143553335,0.6627888,-0.17501289,336.66724,-26.552204,-38.194405
754767958000.0,-7.694607625105842,1.6446381244284505,5.223100997301016,-0.045814894,0.8793405,-0.27397305,336.65762,-26.370134,-38.507126
754773131000.0,-8.161753349089462,1.8762860038909344,5.347037552244004,-0.09101892,1.0418307,-0.364992,336.6337,-26.163574,-38.94055
754778009000.0,-8.542953831127475,2.057588725455269,5.63991099268584,-0.12705997,1.1304061,-0.45081854,336.61267,-25.937267,-39.41496
754782991000.0,-8.915732581866624,2.231286212861295,6.030025452123365,-0.16615535,1.1340714,-0.5213735,336.596,-25.696072,-39.950935
754787973000.0,-9.204637498869692,2.3468480589940257,6.881331238333602,-0.20952678,1.0577132,-0.57940567,336.60522,-25.437044,-40.48893
754792983000.0,-9.495166128774423,2.4630593896092363,7.737421561278863,-0.2657264,0.89552844,-0.6047566,336.65268,-25.15784,-41.014458
754797969000.0,-9.552700049747047,2.545479136181376,8.235873180906875,-0.30207285,0.79381937,-0.61636305,336.72113,-24.872227,-41.52998
754802948000.0,-9.50356076222597,2.612487221603897,8.570913608019486,-0.30879238,0.548557,-0.61941737,336.86322,-24.585741,-41.963478
754808310000.0,-9.429260217086016,2.726619812151356,8.75611353949678,-0.32345316,0.28802297,-0.5479461,337.0409,-24.272205,-42.282692
754813061000.0,-9.349389763311878,2.855299586122489,8.804923184025744,-0.3155119,-0.006414085,-0.505491,337.2865,-23.965504,-42.530506
754817956000.0,-9.188331381878603,2.939437489004008,8.660898738344248,-0.301462,-0.2678644,-0.4007276,337.53598,-23.690039,-42.65099
754823090000.0,-8.938433894242987,2.9778832756328804,8.310081092170853,-0.24740042,-0.44532076,-0.29535335,337.80835,-23.442757,-42.70945
754827946000.0,-8.667988546017614,3.0637078404335623,7.979764674344334,-0.17989981,-0.54519725,-0.24740042,338.08008,-23.235416,-42.69244
754832940000.0,-8.348619998645118,3.2118206589567406,7.641882127358947,-0.092240654,-0.58062744,-0.25045475,338.34766,-23.061016,-42.63944
754837944000.0,-8.016311341720701,3.342657627155715,7.364826579115455,0.02107485,-0.57971114,-0.25473082,338.5823,-22.943605,-42.569042
754843008000.0,-7.659612748088648,3.445912552850092,7.186477037259266,0.12858713,-0.5907067,-0.26358834,338.8205,-22.844912,-42.489697
754847924000.0,-7.28698892365137,3.545180027021716,7.028479049729783,0.22052236,-0.6035349,-0.25289822,339.01328,-22.81416,-42.39673
754852939000.0,-6.848099796698437,3.6442840552225606,6.901059859447774,0.27885997,-0.5833763,-0.21227567,339.18814,-22.803493,-42.308918
754857911000.0,-6.422166184468226,3.725618149654323,6.788248244170849,0.30298916,-0.5729916,-0.14721853,339.3076,-22.84788,-42.18564
754862978000.0,-6.01315174448338,3.7623834839473433,6.710121860810682,0.32559118,-0.5494733,-0.07941248,339.40216,-22.910553,-42.068302
754868033000.0,-5.622450748926092,3.7881169849081258,6.642721964981625,0.32650748,-0.5122105,-0.00061086525,339.43414,-23.016869,-41.9065
754872944000.0,-5.319020372699061,3.7650716612004897,6.623517408240098,0.29871312,-0.4877759,0.06841691,339.4439,-23.129562,-41.743813
754877917000.0,-5.011759272927725,3.7417353967333606,6.604070399346672,0.27458394,-0.45081854,0.12308934,339.40152,-23.268488,-41.546585
754882941000.0,-4.73184804894327,3.7031828469410457,6.588888174082314,0.23426682,-0.41722095,0.1740966,339.33478,-23.40666,-41.349762
754888072000.0,-4.458552192398962,3.657633569225065,6.57522339076752,0.18417588,-0.3753767,0.22143865,339.24435,-23.543037,-41.160988
754893025000.0,-4.27814672669802,3.589384069928552,6.554748556579543,0.1414153,-0.31642818,0.25503623,339.1283,-23.67945,-40.9417
754897988000.0,-4.157785650420548,3.5034119110608666,6.528956935850593,0.09254608,-0.27916542,0.2666427,339.0025,-23.804453,-40.72778
754902943000.0,-4.061780819953758,3.4066476587899808,6.475069791283237,0.06780604,-0.21563543,0.26847526,338.84402,-23.930256,-40.503407
754907952000.0,-4.010021114682081,3.288339634181117,6.367853217572255,0.036957346,-0.14294247,0.26511553,338.67722,-24.0414,-40.292877
754912973000.0,-3.958137409317919,3.169748180485549,6.2603797864277455,0.006414085,-0.052839845,0.23273966,338.50888,-24.131182,-40.099453
754918042000.0,-3.9942460595670086,3.105551390507494,6.228021241879218,-0.021991149,0.036651913,0.21319197,338.32642,-24.213211,-39.92442
754923751000.0,-4.066128669532825,3.052837339758086,6.218436987290735,-0.052839845,0.13194689,0.17928895,338.1431,-24.275902,-39.781414
754928004000.0,-4.15739703842829,2.994987313831041,6.2221579695481335,-0.07452556,0.19333886,0.1600467,337.96017,-24.327435,-39.66219
754932963000.0,-4.2973520992927305,2.911014394223969,6.23615326129666,-0.09682214,0.22724187,0.1414153,337.77808,-24.363983,-39.56443
754937991000.0,-4.471730757273541,2.80215928369295,6.260990020483246,-0.11209377,0.23945917,0.14752395,337.60672,-24.38545,-39.48654
754942964000.0,-4.684830655841703,2.6648282841006266,6.298874469971164,-0.13683382,0.24709499,0.1459968,337.44116,-24.394455,-39.418922
754948000000.0,-4.912380657394173,2.526655520285872,6.330221916162727,-0.15699236,0.24190263,0.12583824,337.29443,-24.382353,-39.37462
754952943000.0,-5.150936522264981,2.3921966357430824,6.351908796499908,-0.17745635,0.2489276,0.10903945,337.14624,-24.365633,-39.33352
754958022000.0,-5.3901524070996585,2.266293438013849,6.377172043868876,-0.19700404,0.25350907,0.08246681,337.03537,-24.318539,-39.321423
754963036000.0,-5.609009617722851,2.177908910202472,6.410842400867736,-0.20463985,0.25228736,0.051618114,336.93277,-24.266968,-39.311012
754968334000.0,-5.840285388218367,2.086260666898011,6.444449334997884,-0.24098633,0.27030787,0.030543262,336.8619,-24.180798,-39.342396
754972970000.0,-6.043205089750318,2.0486828949809563,6.425660488277614,-0.25961772,0.28405234,0.004886922,336.8039,-24.091913,-39.37583
754977999000.0,-6.263326569259416,2.00791960443504,6.405278885569191,-0.2929099,0.28344148,-0.025350908,336.78177,-23.96534,-39.445595
754982945000.0,-6.482869444724296,1.9842769728343976,6.402439524646937,-0.2996294,0.2996294,-0.038179077,336.7564,-23.841915,-39.521454
