timestamp,acc_x,acc_y,acc_z,gyro_x,gyro_y,gyro_z,ori_azimuth,ori_pitch,ori_roll
189467715000.0,-1.065435644520495,9.827402277755873,-0.6767568112430937,-5.0717087,8.209418,-9.685574,357.99844,-21.821178,4.123254
189472704000.0,-1.0618587339808248,9.826925346855456,-0.6777106531240797,-5.0717087,0.7495316,0.034513887,356.27487,-21.515522,7.095336
189477911000.0,-1.0581255262878877,9.826427575919706,-0.6787061742053173,-1.1844677,0.7635816,0.03604105,358.02844,-21.9561,3.7487936
189482702000.0,-1.0546905737131107,9.825969573124778,-0.6796221606658914,-1.1893547,0.7492262,0.040927973,358.0194,-21.00728,3.4549475
189487757000.0,-1.0510663438518089,9.825486332855869,-0.680588621020348,-1.1869112,0.73548174,0.035124753,358.00262,-21.182415,3.160493
189492805000.0,-1.047447132706438,9.8250037617624,-0.6815537430518609,-1.1685852,0.7330383,0.028710667,357.9785,-21.371262,2.8705306
189497838000.0,-1.0438386759523464,9.82452262461632,-0.682515997248494,-1.1578951,0.7360926,0.027488936,357.95142,-21.569803,2.5867102
189504197000.0,-1.0392795310091183,9.823914726521364,-0.683731768048492,-1.1624765,0.752586,0.032375857,357.91885,-21.78711,2.3030946
189507845000.0,-1.0366640630498645,9.823565990517212,-0.6844292254912334,-1.1933253,0.7296785,0.034513887,357.88687,-22.01692,2.03186
189512752000.0,-1.0331459431825236,9.823096898529167,-0.6853673898748771,-1.1582005,0.6976081,0.028710667,357.85077,-22.28169,1.7615311
189517738000.0,-1.0295711835211092,9.822620254418233,-0.6863206581888871,-1.1276573,0.8072584,0.059253927,357.7875,-22.553509,1.4671558
189522737000.0,-1.025987103387252,9.82214236755289,-0.6872764119597929,-1.2556335,0.7703011,0.06536258,357.74847,-22.80761,1.2197459
189527767000.0,-1.0223807975114168,9.821661517196288,-0.6882380925894501,-1.2449434,0.76174897,0.064751714,357.6838,-23.127079,0.9420418
189532835000.0,-1.0187472471776724,9.821177034172976,-0.6892070384008026,-1.2449434,0.75655663,0.062308256,357.6184,-23.423927,0.67702734
189537750000.0,-1.0152233916349824,9.820707177412997,-0.690146732296382,-1.2476922,0.74006325,0.070249505,357.54947,-23.739878,0.42176282
189542731000.0,-1.0116522167706612,9.820231011284518,-0.6910990446654323,-1.2437216,0.7180721,0.087659165,357.47687,-24.074364,0.17358558
189547741000.0,-1.008060250083199,9.819752072857764,-0.6920569015152498,-1.251052,0.70738196,0.09743301,357.402,-24.421135,-0.06973433
189552774000.0,-1.0044517933291075,9.819270935711684,-0.6930191557118829,-1.2583824,0.66828656,0.10629055,357.3264,-24.785017,-0.29453582
189557771000.0,-1.0008691471140878,9.818793240039328,-0.6939745271048048,-1.2247849,0.59956425,0.099571034,357.255,-25.174107,-0.50617176
189562750000.0,-0.997299406168604,9.818317265103836,-0.694926457095871,-1.1297953,0.52687126,0.102319926,357.1825,-25.59394,-0.70111585
189567740000.0,-0.9937217786695148,9.817840238606928,-0.695880490165849,-1.0125091,0.45142943,0.094989546,357.12195,-26.044426,-0.8766054
189573596000.0,-0.9895232643138704,9.817280425547631,-0.6970000929028812,-0.8744536,0.3830125,0.0870483,357.06842,-26.54204,-1.0320971
189577779000.0,-0.986524223065636,9.816880545420062,-0.6977998364563317,-0.729984,0.32436943,0.079107046,357.02493,-27.088192,-1.1691111
189582758000.0,-0.982954482120152,9.81640457048457,-0.6987517664473979,-0.61117065,0.15363261,0.0421497,357.01498,-27.678493,-1.2628436
189587727000.0,-0.9793919107688546,9.815929551514,-0.6997017845485444,-0.28619036,-0.035430185,-0.0033597588,357.02072,-28.38028,-1.3377143
189592754000.0,-0.9757877557712752,9.815448987946876,-0.7006628916112256,0.06414085,-0.032375857,-0.004276057,357.0231,-29.13363,-1.415721
189597722000.0,-0.9722259013793964,9.8149740645728,-0.70161271852338,0.056199603,-0.0125227375,0.00061086525,357.06143,-29.88574,-1.4554981
189607693000.0,-0.965077099015986,9.814020871947417,-0.7035190639624082,0.018325957,-0.017104227,-0.0012217305,357.1073,-30.736315,-1.4909606
189612672000.0,-0.961507358070502,9.813544897011925,-0.7044709939534745,0.01740966,-0.014049901,0.007330383,357.14798,-31.601324,-1.5307884
189617659000.0,-0.9579318814496688,9.813068157304492,-0.7054244534564764,0.017104227,-0.02076942,0.007941248,357.1957,-32.460884,-1.5683521
189622677000.0,-0.9543341790868574,9.812588454105798,-0.7063838398182298,0.010995574,-0.011301007,0.014966198,357.23935,-33.323166,-1.6080357
189627712000.0,-0.9507242884139288,9.812107125766731,-0.707346476392847,0.013744468,-0.018936822,0.0027488936,357.29364,-34.191418,-1.6447622
189632774000.0,-0.9470950398366964,9.811623216322374,-0.7083142750702475,0.011911872,-0.021685716,0.012217305,357.34134,-35.0598,-1.6800866
189637671000.0,-0.9435840895635422,9.811155080299256,-0.7092505275639713,0.008552114,-0.021380283,0.01160644,357.39743,-35.93042,-1.7177516
189643579000.0,-0.9393482933181276,9.810590296222356,-0.7103800721285866,-0.002443461,-0.025961773,0.013744468,357.45438,-36.799778,-1.7514629
189647701000.0,-0.9363929865944312,9.81019624748082,-0.7111681531535263,0.0030543262,-0.022296581,0.01160644,357.51334,-37.673405,-1.7878327
189652708000.0,-0.9328031707852248,9.809717595843544,-0.7121254364363679,-0.0021380284,-0.014660766,0.004581489,357.57526,-38.54063,-1.8244435
189657723000.0,-0.9292076193006692,9.809238179434326,-0.7130842492311454,-0.009468411,-0.02443461,0.0030543262,357.64117,-39.407917,-1.857321
189662670000.0,-0.9256608210565824,9.80876526358659,-0.7140300611744683,-0.0076358155,-0.022296581,0.009162978,357.70554,-40.274704,-1.894312
189667678000.0,-0.9220702882879576,9.80828651635282,-0.7149875356463019,-0.0021380284,-0.017715093,0.012217305,357.77432,-41.13806,-1.9304601
189672678000.0,-0.9184854911946816,9.807808533890988,-0.7159434806061997,-0.012217305,-0.010995574,0.01985312,357.84198,-41.994595,-1.9654667
189677735000.0,-0.9148598274145426,9.807325102429092,-0.7169103233386404,0.003970624,-0.013133603,0.0061086523,357.9163,-42.85625,-2.0030937
189682656000.0,-0.9113316701153408,9.806854672090155,-0.7178511643681718,-0.007941248,-0.020463986,0.014966198,357.98584,-43.70307,-2.0351856
189687733000.0,-0.9070177032101208,9.798313245700731,-0.7127025864202411,0.005497787,-0.0033597588,0.020158553,358.05637,-44.556515,-2.0752454
189692737000.0,-0.9022813613243724,9.784104417869145,-0.7032299026487447,0.01282817,-0.0012217305,0.021991149,358.13187,-45.399338,-2.109669
189697672000.0,-0.912347010507992,9.770643556218996,-0.694256038783759,0.011911872,-0.0009162979,0.019547688,358.2174,-46.24174,-2.1292236
189702745000.0,-0.9346614952838508,9.757254582950578,-0.6853302430093698,0.002443461,-0.005497787,0.015577064,358.30542,-47.078194,-2.148401
189707695000.0,-0.9427480057480316,9.752759637401574,-0.6763827371653544,0.01863139,-0.004276057,0.01740966,358.41766,-47.94478,-2.1671627
189713402000.0,-0.9266097781102364,9.76351868051181,-0.6656239187401575,0.021685716,-0.01282817,0.016798794,358.53613,-48.79795,-2.1845944
189717705000.0,-0.9160924500039288,9.771624070228858,-0.6640807017090659,0.010079277,-0.008857546,0.015577064,358.68506,-49.686092,-2.2107422
189722667000.0,-0.9067574029967588,9.780959317061193,-0.6734157535900206,0.008246681,-0.012217305,0.0143553335,358.8392,-50.569073,-2.2338734
189727730000.0,-0.8957851816874027,9.787497,-0.675518630948678,0.016798794,-0.0106901415,0.018020526,359.04764,-51.52598,-2.2519417
189732701000.0,-0.881903074702566,9.787497,-0.661636552954899,0.02076942,-0.0012217305,0.015271631,359.25732,-52.468174,-2.2725444
189737672000.0,-0.8703115048128341,9.786319080213904,-0.6417997262032086,0.022907447,-0.0009162979,0.005497787,359.4682,-53.380844,-2.2920992
189742669000.0,-0.8655724208754209,9.781579897306395,-0.6038870052188553,0.02321288,-0.015577064,0.009773844,359.68027,-54.28386,-2.3078136
189747653000.0,-0.8619126,9.780702955915274,-0.5764637336490442,0.018020526,-0.020463986,0.008857546,359.83206,-55.052685,-2.3296847
189752712000.0,-0.8619126,9.79321759944894,-0.5848069629206131,0.0290161,-0.02076942,0.01038471,359.98834,-55.821716,-2.347501
189757688000.0,-0.8619126,9.805526922679524,-0.5930133097985191,0.028405234,-0.008552114,0.014049901,0.104717694,-56.504555,-2.3674414
189762694000.0,-0.8582369175716695,9.817677277571669,-0.5974377224283305,0.024129177,-0.0143553335,0.0067195175,0.23042716,-57.18665,-2.385874
189767695000.0,-0.8541986733220911,9.82979226332209,-0.6014759666779089,0.018325957,-0.015271631,0.005497787,0.35400006,-57.86529,-2.4037888
189772773000.0,-0.8523358,9.839504132613424,-0.60333884,0.02107485,-0.015882496,0.002443461,0.46307266,-58.508476,-2.4238913
189777861000.0,-0.8523358,9.847074864745183,-0.60333884,0.02107485,-0.016187929,0.0067195175,0.5749087,-59.1469,-2.4414787
189783422000.0,-0.8552983130567315,9.855027761971964,-0.6018575829560636,0.02076942,-0.013133603,-0.00030543262,0.6773198,-59.76124,-2.4621148
189787789000.0,-0.8789065147332769,9.858962540314234,-0.5900534780092201,0.02687807,-0.0143553335,-0.00030543262,0.7827771,-60.375362,-2.478375
189792684000.0,-0.9053691085520744,9.863373060118542,-0.5768221764944962,0.027794369,-0.015882496,0.0033597588,0.8863856,-60.974724,-2.495596
189797690000.0,-0.889203956711175,9.855873756984389,-0.6487420819535744,0.02321288,-0.008857546,0.007330383,0.9918184,-61.571865,-2.5127168
189802665000.0,-0.8647356742029582,9.84608625184881,-0.7368278397082991,0.008857546,-0.011301007,0.004276057,1.1042444,-62.16368,-2.528216
189807686000.0,-0.8581046574391988,9.844957,-0.6784478941434192,0.020463986,-0.017104227,-0.0021380284,1.2146285,-62.75046,-2.5508282
189812659000.0,-0.8538463038626609,9.844957,-0.6017974853004292,0.0027488936,-0.016798794,0.008552114,1.3262036,-63.322533,-2.5691082
189817672000.0,-0.8613337824175824,9.844957,-0.583606394945055,0.008246681,-0.018325957,0.0070249503,1.4522868,-63.920296,-2.583345
189822662000.0,-0.8751533983805668,9.844957,-0.5974260301484481,0.010079277,-0.009468411,-0.0018325958,1.5794369,-64.50933,-2.5970476
189827729000.0,-0.8836879883772176,9.839713620354807,-0.6479089796003735,0.0125227375,-0.009162978,-0.002443461,1.7175791,-65.089325,-2.6055877
189832757000.0,-0.8881840156489262,9.8307219038282,-0.7243409925303455,0.016187929,-0.014049901,0.004886922,1.8595587,-65.66737,-2.6137981
189837682000.0,-0.8949342713720643,9.832240727441285,-0.7618532886279358,0.012217305,-0.0070249503,0.004276057,2.0169706,-66.25755,-2.6263218
189842672000.0,-0.90477939539349,9.847008207869797,-0.7520081646065101,0.016187929,0.0015271631,0.006414085,2.1792567,-66.848335,-2.634777
189847664000.0,-0.9120172203777694,9.852313390929748,-0.735888086517705,0.0070249503,0.0015271631,0.00061086525,2.3751159,-67.47011,-2.6415794
189852821000.0,-0.9166931819409204,9.84763732683204,-0.7125082542889604,0.021991149,0.0021380284,-0.003970624,2.574037,-68.0966,-2.6476543
189857696000.0,-0.91937345,9.84866192147969,-0.6991069,0.022602014,0.00061086525,0.004581489,2.778746,-68.71286,-2.6527352
189862662000.0,-0.91937345,9.858249540066526,-0.6991069,0.013744468,0.0036651916,0.0027488936,2.9895961,-69.32613,-2.661587
189867642000.0,-0.9146681527666386,9.864111,-0.6991069,0.018325957,0.0067195175,-0.00061086525,3.203176,-69.932205,-2.6694267
189872664000.0,-0.902512801580455,9.864111,-0.6991069,0.025045475,0.009773844,0.00580322,3.421177,-70.53238,-2.6748552
189877864000.0,-0.89064306,9.864342147423352,-0.6984134722113503,0.024129177,0.015882496,0.0021380284,3.64498,-71.12771,-2.6838815
189882700000.0,-0.89064306,9.868118596542724,-0.6870843614481409,0.023823744,0.017104227,0.003970624,3.8742042,-71.72075,-2.6891713
189887655000.0,-0.89064306,9.871987973173516,-0.6754764739726028,0.023518313,0.010995574,0.005192355,4.1159244,-72.311844,-2.6914017
189892656000.0,-0.8865197229181278,9.875749705137975,-0.6765614862479037,0.02076942,0.014049901,0.0033597588,4.3609304,-72.896736,-2.694892
189899126000.0,-0.8770728422808355,9.880473229303249,-0.6907317628144534,0.026572637,0.014049901,0.0061086523,4.613958,-73.47869,-2.6961863
189903147000.0,-0.8711730106657722,9.88310680202918,-0.6981577303454637,0.023518313,0.0143553335,0.004276057,4.870695,-74.04819,-2.7000835
189907686000.0,-0.8638832076806976,9.87946182441724,-0.6762882833305384,0.017715093,0.016798794,0.011911872,5.131792,-74.61318,-2.7011728
189912670000.0,-0.8558787181284588,9.87545949605903,-0.6522747728827771,0.0106901415,0.0125227375,0.011301007,5.402225,-75.17414,-2.7029312
189917664000.0,-0.8546000569877883,9.86915939145183,-0.6371174931173678,0.016187929,0.01863139,0.013133603,5.674086,-75.73109,-2.7035398
189922693000.0,-0.8586843282903663,9.860990678256444,-0.628948963306479,0.007941248,-0.0021380284,0.007330383,5.9608297,-76.2751,-2.705156
189932680000.0,-0.8619126,9.850001811397984,-0.604364058913728,0.009468411,-0.006414085,0.01282817,6.2458773,-76.81129,-2.7038584
189937638000.0,-0.8619126,9.846264188129725,-0.5894138819600127,0.021991149,-0.0076358155,0.014966198,6.5419216,-77.34079,-2.7051177
189942658000.0,-0.8728290561928714,9.844957,-0.5896434595473073,0.01160644,-0.009468411,0.018325957,6.8451676,-77.856026,-2.7064972
189947667000.0,-0.8894695093487122,9.844957,-0.5979636730934005,0.0076358155,-0.016798794,0.016493361,7.1557198,-78.368935,-2.7097986
189952715000.0,-0.9035627905605856,9.844957,-0.6100246976305144,0.0018325958,-0.016493361,0.021685716,7.457564,-78.86001,-2.7133002
189957692000.0,-0.9127447802957042,9.844957,-0.6283886675130034,-0.003970624,-0.027794369,0.009468411,7.7707543,-79.34107,-2.7227077
189962662000.0,-0.9241299047565374,9.841389713255186,-0.6380786685554554,-0.005192355,-0.022296581,0.015271631,8.088376,-79.82068,-2.7312393
189968636000.0,-0.9447653882100993,9.825913336339044,-0.6226020977132551,0.0061086523,-0.021380283,0.025961773,8.415591,-80.29317,-2.7426803
189972765000.0,-0.9591863647585264,9.815624721518986,-0.6141201736934613,0.014660766,-0.03176499,0.029932396,8.751152,-80.76109,-2.7576125
189977796000.0,-0.9786094401435136,9.807855329113924,-0.6296586583391115,0.0070249503,-0.047647487,0.02687807,9.0922785,-81.218414,-2.7732203
189982720000.0,-0.9976194228896236,9.80025117721519,-0.6448666683560429,0.01160644,-0.038179077,0.03756821,9.435464,-81.671165,-2.7900982
189987733000.0,-1.0255926449499546,9.785628536851682,-0.6741119457992114,0.014660766,-0.04062254,0.03359759,9.79134,-82.10895,-2.8129385
189992732000.0,-1.0594740990294207,9.766267835911432,-0.712833549843292,0.009162978,-0.04337143,0.035124753,10.147935,-82.53581,-2.833692
189997731000.0,-1.0833222543593493,9.74804620160848,-0.7439171011277645,0.012217305,-0.04428773,0.032070424,10.505388,-82.95227,-2.8636792
190002788000.0,-1.101026468433559,9.7303420799671,-0.7704734545905685,0.015271631,-0.032070424,0.032070424,10.863361,-83.35423,-2.894749
190007737000.0,-1.1263516200037922,9.722389290291998,-0.7814376559290861,0.017715093,-0.03604105,0.03145956,11.240541,-83.75283,-2.9346828
190012726000.0,-1.1625887967671598,9.726919026071291,-0.7723783404541146,0.021685716,-0.03359759,0.025961773,11.615676,-84.13405,-2.9786983
190017655000.0,-1.1930884820953491,9.728644875424798,-0.775882183192543,0.02321288,-0.027488936,0.018936822,11.998975,-84.49928,-3.0287793
190022723000.0,-1.2119389422953686,9.723932161957473,-0.808870537751238,0.030848695,-0.023518313,0.017104227,12.382807,-84.842224,-3.0816205
190027741000.0,-1.2258313,9.723387930472786,-0.8322058721716329,0.027183503,-0.014660766,0.017104227,12.759824,-85.147964,-3.145953
190038247000.0,-1.2258313,9.747371830353597,-0.8242110941787842,0.04184427,-0.023518313,0.0012217305,13.143701,-85.42565,-3.216937
190042664000.0,-1.2111486034126515,9.7697448978745,-0.82360536,0.04062254,-0.027183503,0.00030543262,13.532541,-85.67368,-3.2896605
190047656000.0,-1.1909066753916504,9.798083766195274,-0.82360536,0.03390302,-0.029321533,-0.004886922,13.925766,-85.87847,-3.3698587
190052669000.0,-1.1674075837328026,9.826766763433415,-0.8220996884935536,0.040317107,-0.03481932,-0.006414085,14.319796,-86.03991,-3.4509966
190057713000.0,-1.138149284970148,9.856025193129703,-0.817919937762395,0.040927973,-0.021991149,-0.010079277,14.710801,-86.14983,-3.5361369
190062734000.0,-1.1101234267239202,9.884575288793464,-0.8114079807712385,0.044593163,-0.022602014,-0.005497787,15.111618,-86.217804,-3.6160293
190067653000.0,-1.0982243918161152,9.904407013639808,-0.7717445062288457,0.04153884,-0.02687807,-0.011911872,15.510897,-86.23163,-3.701991
190072659000.0,-1.0861149043697902,9.924589492717017,-0.7313795227852151,0.056199603,-0.022296581,-0.0125227375,15.892626,-86.20755,-3.7796655
190077714000.0,-1.075955051663665,9.931149,-0.7182605,0.03726278,-0.025350908,-0.0036651916,16.276659,-93.858955,-3.8584516
190082692000.0,-1.0669166005498152,9.931149,-0.7182605,0.04550946,-0.026572637,-0.005497787,16.657635,-93.96684,-3.9424171
190087674000.0,-1.032174127841964,9.936758177532496,-0.7154558233752837,0.029626964,-0.029321533,-0.004581489,17.034603,-94.09744,-4.021805
190092647000.0,-0.9781324332164224,9.946583623065814,-0.7105429467093047,0.025961773,-0.029626964,0.0015271631,17.409647,-94.25371,-4.1021204
190097656000.0,-0.9548632374023898,9.94184977401449,-0.7255883873271239,0.02565634,-0.03390302,0.008552114,17.782326,-94.42619,-4.181269
190102780000.0,-0.950246455071032,9.92799969216295,-0.7532889366920689,0.02076942,-0.038179077,0.0070249503,18.153452,-94.61513,-4.2628584
190108142000.0,-0.9569176325434358,9.901006420479078,-0.7896479098899969,0.016187929,-0.040927973,0.014660766,18.516315,-94.80097,-4.331077
190112762000.0,-0.9705636363472808,9.869165610362908,-0.8260372375346973,0.009162978,-0.051923547,0.018020526,18.88106,-94.99782,-4.4027944
190117662000.0,-0.9697499047194104,9.823835105842656,-0.8592892416817617,0.01985312,-0.043982297,0.02443461,19.241255,-95.2021,-4.471245
190122715000.0,-0.9568592135588704,9.767975720831114,-0.8893674956313267,0.006414085,-0.05100725,0.018325957,19.60729,-95.41054,-4.5441937
190127743000.0,-0.94810385,9.730036,-0.90979666,0.01985312,-0.047036625,0.022907447,19.980776,-95.638054,-4.6179643
190132741000.0,-0.94810385,9.730036,-0.90979666,0.021685716,-0.051923547,0.02687807,20.358242,-95.867325,-4.6951375
190137721000.0,-0.9439669137527072,9.738309829297108,-0.9139335940874188,0.029932396,-0.042455133,0.021380283,20.726105,-96.106804,-4.772706
190142674000.0,-0.9346276953238828,9.75698816863556,-0.9232728076402836,0.028099801,-0.044593163,0.022296581,21.09624,-96.34441,-4.8490644
190147733000.0,-0.9307832674205608,9.77200911140187,-0.9271172325794392,0.027183503,-0.032986723,0.021991149,21.460346,-96.58895,-4.929193
190152715000.0,-0.9352422971028036,9.780927357009348,-0.9226582028971962,0.03390302,-0.03481932,0.03023783,21.826752,-96.83275,-5.0081673
190157662000.0,-0.9424729291836954,9.788812180899118,-0.9101664077274684,0.034208454,-0.040011674,0.03176499,22.181995,-97.073105,-5.087078
190162656000.0,-0.9579041904549366,9.793955496020647,-0.8741601672348892,0.028099801,-0.037873644,0.032070424,22.53483,-97.31128,-5.164751
190167638000.0,-0.9720146721859914,9.80658737748793,-0.8602644302447701,0.030848695,-0.03145956,0.03940081,22.890131,-97.54925,-5.2419853
190172658000.0,-0.9842300196917084,9.831018157533666,-0.8806233682645888,0.024740042,-0.038789943,0.03756821,23.247246,-97.784195,-5.3228707
190177935000.0,-1.0005273977098423,9.855895876331486,-0.9015817074169152,0.03023783,-0.03573562,0.032986723,23.60203,-98.016304,-5.4055543
190182683000.0,-1.0489623081060928,9.870426637729016,-0.9161121603057094,0.03023783,-0.03390302,0.038789943,23.95804,-98.24192,-5.486761
190187700000.0,-1.0957118440201004,9.881682629346733,-0.92895025,0.022602014,-0.030543262,0.037873644,24.319853,-98.47483,-5.5750256
190192644000.0,-1.1195046576884422,9.872165305125629,-0.92895025,0.024129177,-0.036651913,0.03268129,24.681898,-98.70629,-5.663673
190197729000.0,-1.1403332907600836,9.86549761047726,-0.9275636692037602,0.02565634,-0.028405234,0.032375857,25.04126,-98.940865,-5.7599645
190202732000.0,-1.1441829396753975,9.873197069098506,-0.9198643753928972,0.02076942,-0.022296581,0.034208454,25.399273,-99.170876,-5.857793
190207694000.0,-1.1480010403985217,9.880833430017676,-0.9122281779334728,0.031154128,-0.014049901,0.027794369,25.75441,-99.40636,-5.9630346
190212670000.0,-1.152321603131265,9.883265,-0.9004822311541767,0.03145956,-0.004581489,0.028099801,26.104603,-99.63278,-6.0656924
190217659000.0,-1.1568828112649163,9.883265,-0.886798578176611,0.01863139,-0.0067195175,0.029321533,26.452698,-99.85538,-6.170025
190224142000.0,-1.1344540672259185,9.87515165297464,-0.8729530224086395,0.0106901415,0.00061086525,0.024740042,26.799528,-100.07727,-6.2769203
190227708000.0,-1.1146965498409025,9.868565676308938,-0.8663671832803008,0.009468411,0.012217305,0.02107485,27.143063,-100.293175,-6.3829303
190232716000.0,-1.0936972432432432,9.86156576126126,-0.8491866614414415,0.007330383,0.013744468,0.0125227375,27.474957,-100.49907,-6.4907727
190237734000.0,-1.078937912039312,9.85664588144963,-0.8245877555528256,0.0036651916,0.013133603,0.019547688,27.802168,-100.698166,-6.594487
190242709000.0,-1.0578165568092677,9.854534,-0.8041713586536532,-0.003970624,0.010995574,0.01038471,28.130453,-100.89317,-6.700384
190247678000.0,-1.031772297746967,9.854534,-0.7868085676256499,-0.009773844,0.014660766,0.0143553335,28.455442,-101.0803,-6.7999926
190252749000.0,-1.0151415,9.858064228393864,-0.7721912268984269,-0.0067195175,0.004886922,0.015882496,28.771906,-101.25315,-6.897356
190257798000.0,-1.0151415,9.867455231112835,-0.7628003712662652,-0.016798794,0.006414085,0.025961773,29.08235,-101.41614,-6.990123
190262723000.0,-1.010467910748243,9.869014313145929,-0.7659148882637453,-0.008246681,0.0036651916,0.029932396,29.39033,-101.57586,-7.0794992
190267673000.0,-0.99577015547747,9.854316250930136,-0.7953104294997932,-0.017715093,-0.016187929,0.026267206,29.70043,-101.72567,-7.1685953
190272702000.0,-0.9899378124975476,9.850247179223071,-0.8105018493437316,-0.019242255,-0.02076942,0.0421497,30.007704,-101.86782,-7.249017
190277767000.0,-0.9994544874043556,9.864522489699825,-0.8009851794055326,-0.029626964,-0.03359759,0.04642576,30.319704,-102.005516,-7.3347154
190282652000.0,-1.0103462677945374,9.867312609559722,-0.7900933905554423,-0.033292156,-0.040927973,0.044898596,30.624767,-102.14374,-7.4148493
190287723000.0,-1.025194602323685,9.847514933550752,-0.7752450198491643,-0.040317107,-0.052534413,0.051923547,30.932583,-102.27374,-7.4918933
190292654000.0,-1.0477118371277618,9.837057949855907,-0.7728528703150817,-0.03176499,-0.059864793,0.050701816,31.242052,-102.404755,-7.573316
190297734000.0,-1.085099124351585,9.84173096426513,-0.7915465188069164,-0.025961773,-0.06841691,0.056199603,31.552921,-102.52837,-7.6511464
190302682000.0,-1.1149668820854568,9.84766191121129,-0.816623620378283,-0.019242255,-0.06505715,0.050396383,31.860828,-102.65204,-7.734364
190307766000.0,-1.12928140125441,9.857205123284986,-0.8595672277087417,-0.023518313,-0.07574729,0.046120327,32.17246,-102.77062,-7.816325
190312642000.0,-1.1373913868968222,9.869732532757943,-0.8940159784807769,-0.02076942,-0.06536258,0.04917465,32.473793,-102.89791,-7.903735
190317669000.0,-1.1279479632797176,9.893341091800703,-0.9081811089760692,-0.025961773,-0.058643065,0.042455133,32.77519,-103.02198,-7.995133
190322677000.0,-1.122456136906889,9.913964778042486,-0.9203583184534444,-0.025350908,-0.048258353,0.042760566,33.080387,-103.15432,-8.086041
190327782000.0,-1.1321622246575342,9.92367106849315,-0.9252113623287672,-0.025350908,-0.038789943,0.03359759,33.37932,-103.28494,-8.180314
190332682000.0,-1.1389192617635613,9.928265986847226,-0.9224636021091136,-0.040011674,-0.029932396,0.026572637,33.673126,-103.412384,-8.2717495
190337726000.0,-1.1351597957195112,9.91322780862324,-0.8886283880846758,-0.032986723,-0.025350908,0.02687807,33.960793,-103.54159,-8.362526
190342638000.0,-1.1314987137987391,9.898583175110904,-0.8556786316833995,-0.052839845,-0.022602014,0.020463986,34.239708,-103.65626,-8.454275
190347728000.0,-1.1219316152786474,9.876578056981842,-0.8725748247964934,-0.063224554,-0.0061086523,0.02076942,34.509613,-103.77033,-8.542107
190352717000.0,-1.10910972015386,9.850934623758834,-0.9195884625682084,-0.06994407,-0.00030543262,0.018936822,34.777317,-103.879395,-8.631734
190357693000.0,-1.105194013687584,9.823797318618835,-0.963548714829939,-0.06963864,-0.0027488936,0.022296581,35.033245,-103.97716,-8.717975
190363090000.0,-1.1158806651090665,9.79173725276543,-1.0062953484131083,-0.08124508,-0.0106901415,0.014049901,35.28534,-104.07074,-8.806854
190367660000.0,-1.12631086631132,9.766271026831692,-1.0421917192067938,-0.080634214,-0.008552114,0.013744468,35.533047,-104.17312,-8.889993
190372659000.0,-1.1392861368506642,9.740320395428675,-1.0811175759869909,-0.06811147,-0.007941248,0.01160644,35.779606,-104.274704,-8.975266
190377691000.0,-1.1536149915270373,9.71716041089109,-1.117506881549886,-0.06719518,-0.008246681,0.005497787,36.023483,-104.38341,-9.064358
190382691000.0,-1.1718496164318355,9.703484668316833,-1.144858795106626,-0.06811147,-0.01160644,0.004886922,36.26473,-104.49089,-9.151309
190387672000.0,-1.19289103694359,9.687703783282052,-1.1723957027076923,-0.062002823,-0.0125227375,0.007330383,36.506523,-104.612885,-9.243819
190392659000.0,-1.2320783203076924,9.658313218461538,-1.2017861652307693,-0.058337633,-0.011301007,0.003970624,36.7438,-104.73191,-9.3367815
190397679000.0,-1.2703128521457967,9.63073982245738,-1.2302415449539488,-0.065973446,-0.016493361,0.00061086525,36.984398,-104.85225,-9.431254
190402740000.0,-1.3035558268371543,9.611743964432687,-1.2539864914560064,-0.058337633,-0.021991149,0.0030543262,37.220215,-104.97286,-9.523486
190407711000.0,-1.3371947164393396,9.594456337503846,-1.2737153,-0.051923547,-0.022907447,0.0018325958,37.452873,-105.10517,-9.627079
190412678000.0,-1.376220788442211,9.584699603015077,-1.2737153,-0.04062254,-0.024740042,0.00061086525,37.68258,-105.236,-9.728582
190417690000.0,-1.41155868956952,9.571154725482437,-1.2699471301039091,-0.03634648,-0.024129177,-0.00030543262,37.917763,-105.37627,-9.8380165
190422664000.0,-1.4304148011578426,9.542870607323108,-1.2510911169619,-0.02565634,-0.02321288,-0.00061086525,38.148033,-105.51635,-9.94568
190427685000.0,-1.446935849401168,9.522697815104426,-1.2328942255468671,-0.018325957,-0.026572637,-0.0027488936,38.37942,-105.65718,-10.059504
190432832000.0,-1.4518147244778778,9.542213417301792,-1.2182574474809462,-0.016187929,-0.02321288,0.011911872,38.60442,-105.79198,-10.166088
190437712000.0,-1.45644516904999,9.562276430392352,-1.1966602943039235,-0.024740042,-0.02076942,0.014049901,38.830853,-105.93002,-10.282443
190442651000.0,-1.461155367735511,9.590537720872335,-1.1354276622087234,-0.015577064,-0.028710667,0.0027488936,39.054085,-106.06806,-10.396714
190447697000.0,-1.460470956796278,9.61989448064141,-1.0785938613575938,-0.01038471,-0.030848695,0.022907447,39.2757,-106.18942,-10.498843
190452728000.0,-1.428446443137255,9.65191924509804,-1.0545754343137257,-0.01985312,-0.03970624,0.020158553,39.494427,-106.31219,-10.609286
190457724000.0,-1.3966447197740113,9.683721217514124,-1.0307241002824858,-0.0106901415,-0.049480084,0.043066,39.71049,-106.41685,-10.705413
190462674000.0,-1.369823790677876,9.72182997775886,-1.0247183,-0.025045475,-0.058948494,0.05497787,39.923763,-106.51388,-10.804014
190467626000.0,-1.34459003862935,9.762203770245822,-1.0247183,-0.02565634,-0.061086524,0.058643065,40.134308,-106.61017,-10.896938
190472660000.0,-1.3147388236312547,9.82408758049311,-1.0247183,-0.029321533,-0.07544186,0.067500606,40.347347,-106.68546,-10.976335
190477700000.0,-1.2841124632251633,9.889715397751994,-1.0247183,-0.038789943,-0.07788532,0.06780604,40.55343,-106.757935,-11.054986
190482712000.0,-1.2505846302393646,9.945038813943764,-1.0313270972927773,-0.04153884,-0.083383106,0.07666359,40.75854,-106.82029,-11.122296
190487674000.0,-1.2158150503083516,9.99470964241664,-1.0412613148531409,-0.044898596,-0.099571034,0.08460484,40.96395,-106.878494,-11.189207
190492673000.0,-1.1609943787589294,10.026036379378604,-1.0590997631465702,-0.037873644,-0.093767814,0.093462385,41.159824,-106.92631,-11.241992
190497682000.0,-1.0990653513985713,10.050808059299424,-1.0797427578965486,-0.05589417,-0.09896017,0.09712757,41.359745,-106.966064,-11.2948675
190502979000.0,-1.0605425328834222,10.055291653749864,-1.089272932883422,-0.07086037,-0.09865474,0.09682214,41.545467,-106.99549,-11.33346
190507768000.0,-1.0555503379122673,10.035322717481224,-1.0842807379122672,-0.062002823,-0.09468412,0.101098195,41.72878,-107.02364,-11.36938
190512663000.0,-1.0507039909208562,10.00770286510702,-1.0821792,-0.0720821,-0.0983493,0.10293079,41.900818,-107.03858,-11.391422
190517653000.0,-1.0459465760876057,9.974401010950723,-1.0821792,-0.07880162,-0.10293079,0.095294975,42.06846,-107.056465,-11.414605
190522666000.0,-1.0387262569223483,9.939296242613636,-1.0873249162121212,-0.08460484,-0.09682214,0.0983493,42.23316,-107.06974,-11.433916
190527741000.0,-1.029521235378788,9.902476540909092,-1.0965298896969695,-0.079107046,-0.09407325,0.093767814,42.39619,-107.086334,-11.457792
190532703000.0,-1.0247183,9.871917987608809,-1.089985787608807,-0.09010262,-0.08552113,0.093462385,42.55415,-107.09676,-11.478435
190537661000.0,-1.0247183,9.84760576313364,-1.0656735631336405,-0.0870483,-0.0870483,0.09315695,42.711086,-107.11159,-11.500574
190542656000.0,-1.028917980781702,9.824881852861274,-1.0555486294277452,-0.0983493,-0.080634214,0.087659165,42.863773,-107.120834,-11.520364
190547662000.0,-1.0373206994040838,9.803875165980196,-1.0597499668039612,-0.09773844,-0.07574729,0.07849618,43.01455,-107.13334,-11.541094
190552692000.0,-1.0484834307199316,9.78288547297586,-1.0618727423200172,-0.09987647,-0.06872234,0.07574729,43.161045,-107.13798,-11.560525
190557704000.0,-1.068991408331553,9.762377067079685,-1.0567457479171116,-0.09193522,-0.057421334,0.06780604,43.30187,-107.14706,-11.582895
190562635000.0,-1.0807021208596712,9.749189,-1.0490175471554994,-0.096516706,-0.05375614,0.06414085,43.44866,-107.15943,-11.609834
190567662000.0,-1.0763547690807296,9.749189,-1.0359754464240565,-0.09162979,-0.051923547,0.065973446,43.59027,-107.17502,-11.63617
190572728000.0,-1.074209834261967,9.75186805710328,-1.0225750543173773,-0.09773844,-0.050396383,0.056199603,43.729244,-107.19054,-11.669242
190577732000.0,-1.0852739347391105,9.770308224565182,-1.0078229203478528,-0.09590584,-0.04062254,0.064446285,43.864326,-107.203926,-11.695377
190582652000.0,-1.096152306910882,9.78843884485147,-0.993318424118824,-0.096516706,-0.03970624,0.06841691,43.99415,-107.214386,-11.724114
190587672000.0,-1.1060192260305275,9.81113232702678,-0.974695022689882,-0.099265605,-0.038789943,0.0720821,44.119637,-107.222435,-11.749323
190592663000.0,-1.114756600822594,9.837344542637783,-0.9528515629010146,-0.10903945,-0.040317107,0.076358154,44.24381,-107.227264,-11.772678
190597674000.0,-1.1237635172278009,9.866003978735971,-0.9401656086139004,-0.09621128,-0.03848451,0.081855945,44.373077,-107.23308,-11.796595
190602744000.0,-1.133323347115574,9.899463582988776,-0.9449455235577868,-0.11484267,-0.04550946,0.086437434,44.50341,-107.22913,-11.819597
190607682000.0,-1.13964,9.931502054848188,-0.9398287628174992,-0.118202426,-0.046120327,0.090713486,44.629032,-107.2248,-11.8406925
190612659000.0,-1.13964,9.962624147404506,-0.913893555697029,-0.13652839,-0.049480084,0.106595986,44.75648,-107.210014,-11.857342
190618760000.0,-1.1486910055721664,9.97601560315303,-0.8730669062897527,-0.13469578,-0.05467244,0.1133155,44.893177,-107.19943,-11.875629
190622724000.0,-1.1590097246081363,9.972576149859565,-0.8421108210129564,-0.14294247,-0.053145275,0.11575896,45.02709,-107.180885,-11.89031
190627754000.0,-1.171327677260982,9.969456,-0.8169857434366925,-0.15577064,-0.057726767,0.119729586,45.165028,-107.156296,-11.903229
190632752000.0,-1.1816344917312662,9.969456,-0.8272925794315246,-0.16982053,-0.065973446,0.13500121,45.30195,-107.12742,-11.912382
190637705000.0,-1.1875241,9.969456,-0.8232795559260355,-0.17715092,-0.070249505,0.13744467,45.44182,-107.09556,-11.927612
190642738000.0,-1.1875241,9.969456,-0.7995122656903353,-0.19364429,-0.0720821,0.13988814,45.581818,-107.05669,-11.938948
190647700000.0,-1.1893795752952854,9.967600485955334,-0.7778762552565757,-0.2049453,-0.08399397,0.15088372,45.73262,-107.01595,-11.94803
190652713000.0,-1.194144686799007,9.962835274937966,-0.7588157744119107,-0.21013765,-0.08674286,0.16035213,45.87876,-106.97381,-11.956438
190657675000.0,-1.1971009,9.95651373977801,-0.7368953301679158,-0.2284636,-0.096516706,0.16065755,46.02641,-106.92286,-11.965084
190662741000.0,-1.1971009,9.947308335736649,-0.7092796947633052,-0.23060162,-0.10903945,0.16065755,46.173584,-106.87345,-11.971647
190667690000.0,-1.194637737009019,9.93703030695374,-0.6882985185045097,-0.24404067,-0.109650314,0.17165314,46.32402,-106.81572,-11.976746
190672731000.0,-1.1852736309475318,9.922984343419648,-0.6836164654737659,-0.25320363,-0.12064589,0.17165314,46.47762,-106.76197,-11.986389
190677660000.0,-1.1751608149172903,9.912923844525404,-0.6799533,-0.26267207,-0.13775012,0.17165314,46.631725,-106.69842,-11.992276
190682732000.0,-1.1608125384304844,9.917706686589208,-0.6799533,-0.27214047,-0.1469131,0.18295415,46.784847,-106.63225,-11.995287
190687713000.0,-1.147613851409052,9.920770508966694,-0.6831591971818958,-0.26053402,-0.15974127,0.17745635,46.942455,-106.571205,-12.00231
190692735000.0,-1.138486858411614,9.916206917164816,-0.7014131831767719,-0.269697,-0.16737708,0.1881465,47.100273,-106.49996,-12.001875
190697773000.0,-1.1287654695359783,9.912643878782784,-0.7179360673839946,-0.267559,-0.18020524,0.19333886,47.26306,-106.43326,-12.001547
190702754000.0,-1.1127257786146605,9.920663891728312,-0.7139261446536651,-0.2669481,-0.19333886,0.19150625,47.425747,-106.3652,-12.000762
190707775000.0,-1.0965572806993946,9.928748309515804,-0.7098840201748488,-0.26389378,-0.18906279,0.21044308,47.580563,-106.298676,-11.992964
190712744000.0,-1.077697496085259,9.92060490186768,-0.6946251960852591,-0.25870144,-0.18142697,0.20922135,47.73431,-106.238594,-11.9920025
190717667000.0,-1.057798124385354,9.90568006141184,-0.674725824385354,-0.25778514,-0.18325958,0.20647246,47.887913,-106.17591,-11.986675
190722768000.0,-1.0315161188715032,9.89145183119962,-0.6338220568990043,-0.23609942,-0.1826487,0.21380283,48.033436,-106.10896,-11.971043
190727752000.0,-1.0043577380654338,9.877872853485064,-0.588558120398293,-0.23151793,-0.17501289,0.21319197,48.174385,-106.04259,-11.95849
190732722000.0,-0.9531794641333734,9.873688,-0.5449717971663163,-0.20952678,-0.15943582,0.2144137,48.305508,-105.97674,-11.939097
190737882000.0,-0.8888546158305797,9.873688,-0.5004392198157606,-0.19761491,-0.1459968,0.21105394,48.432507,-105.91235,-11.921366
190742814000.0,-0.8303258286718139,9.8531061068795,-0.4590145994898933,-0.18692477,-0.12614368,0.20952678,48.56255,-105.8414,-11.896385
190747780000.0,-0.7725642307018304,9.824225157109394,-0.4177563158410687,-0.19242255,-0.10995574,0.20891592,48.687435,-105.77155,-11.872166
190752777000.0,-0.7194215389599408,9.812647645597716,-0.378654857507663,-0.17959438,-0.10262536,0.20769419,48.807377,-105.69008,-11.833635
190758455000.0,-0.6676940647394567,9.82989049709333,-0.3384223535524785,-0.17287487,-0.08674286,0.20189096,48.91805,-105.60927,-11.796172
190762798000.0,-0.6316227630033303,9.854981009082652,-0.3109113462064789,-0.17562376,-0.080634214,0.204029,49.025898,-105.51549,-11.746752
190767763000.0,-0.5932343290039358,9.893369192552225,-0.2821200382440206,-0.1994475,-0.08124508,0.204029,49.12888,-105.422935,-11.700424
190772752000.0,-0.5651043538417155,9.935755115395713,-0.2847826907010289,-0.20799962,-0.086437434,0.204029,49.233025,-105.32139,-11.644774
190777636000.0,-0.5471129734397538,9.980733566400616,-0.3162676251908837,-0.20922135,-0.07971791,0.20463985,49.33216,-105.21915,-11.589905
190782607000.0,-0.5342984920295809,10.019779289646673,-0.3472044961873459,-0.22937989,-0.08674286,0.20555615,49.427788,-105.10088,-11.527182
190787565000.0,-0.5294215636811832,10.049040961585868,-0.3764660866474938,-0.25320363,-0.093767814,0.2171626,49.5206,-104.98165,-11.462278
190792558000.0,-0.5368881797265441,10.065224,-0.4109438983658651,-0.2919936,-0.09101892,0.22632557,49.61226,-104.857056,-11.392402
190797558000.0,-0.5594643230551627,10.065224,-0.4515809893606789,-0.3109304,-0.094989546,0.22815818,49.706398,-104.73374,-11.32377
190802595000.0,-0.5829952063783953,10.055159803621605,-0.4972913282360287,-0.31764993,-0.09040806,0.24709499,49.791607,-104.602356,-11.245227
190807591000.0,-0.6078915133697576,10.025284149963577,-0.5520632160953274,-0.33841935,-0.0870483,0.25870144,49.87642,-104.46949,-11.170474
190812543000.0,-0.6353019337554338,9.983974022869024,-0.5878450943942545,-0.3594942,-0.08979719,0.27214047,49.955822,-104.342316,-11.095777
190817555000.0,-0.6670532852995653,9.925007478170478,-0.5969168996484597,-0.35796702,-0.08827003,0.2733622,50.03145,-104.21888,-11.022949
190822579000.0,-0.7051383140252961,9.852048533427023,-0.6132713421240715,-0.3549127,-0.08399397,0.2874121,50.110886,-104.099884,-10.9491205
190827765000.0,-0.7599785565288094,9.742367913069664,-0.6481696863079703,-0.3631594,-0.08032878,0.29657507,50.188267,-103.982925,-10.878216
190832629000.0,-0.8059350557042643,9.642159718478863,-0.6648464492080488,-0.35369098,-0.07788532,0.2910773,50.265022,-103.88036,-10.816897
190837604000.0,-0.8411165943095809,9.545410341517446,-0.6472556546492524,-0.35124752,-0.08032878,0.2929099,50.341354,-103.77391,-10.752557
190842633000.0,-0.8778183730092036,9.447117398759504,-0.6341788903621449,-0.3475823,-0.0870483,0.2874121,50.423504,-103.68883,-10.70504
190847602000.0,-0.9206639682172868,9.347144359843938,-0.6484607736584634,-0.3222314,-0.0888809,0.2773328,50.502926,-103.611,-10.659745
190852698000.0,-0.9613747005764244,9.245995997694305,-0.6630161003458546,-0.2950479,-0.09254608,0.26511553,50.582104,-103.54455,-10.628623
190857654000.0,-0.98417353850514,9.15480064597944,-0.6766954031030838,-0.27550024,-0.08246681,0.24465153,50.65524,-103.487236,-10.603335
190862688000.0,-1.0055647,9.063223949729233,-0.6872755813446408,-0.2507602,-0.08093964,0.22540927,50.73115,-103.45073,-10.593172
190867639000.0,-1.0055647,8.985709207826709,-0.6582075556605702,-0.23060162,-0.07422013,0.20952678,50.80019,-103.42169,-10.587726
190872662000.0,-1.0033016836119848,8.906502321718259,-0.6184911226924351,-0.22082779,-0.069027774,0.19303341,50.865635,-103.40691,-10.593796
190877724000.0,-0.9832397064558848,8.822241933868565,-0.498119180151465,-0.19058995,-0.059864793,0.16554448,50.92524,-103.40558,-10.607049
190882600000.0,-0.9639148940076148,8.741077640870715,-0.3821702287824863,-0.17470746,-0.06414085,0.14844026,50.993595,-103.402954,-10.623637
190887711000.0,-0.9051034533973428,8.705035912520609,-0.2921878036912035,-0.14844026,-0.058643065,0.129198,51.05368,-103.41396,-10.647514
190892689000.0,-0.8311267621627388,8.691165488701387,-0.218211126940161,-0.12889257,-0.059253927,0.103847094,51.1143,-103.43151,-10.677949
190897733000.0,-0.7509701367713044,8.69179361113624,-0.1408693311503528,-0.11026118,-0.057726767,0.08399397,51.18706,-103.435005,-10.708096
190902763000.0,-0.668171563413244,8.70050919870635,-0.0624285806998371,-0.087964594,-0.064446285,0.070554934,51.260155,-103.44681,-10.743571
190907698000.0,-0.5944931074228479,8.7146506023281,0.0088457132550081,-0.06169739,-0.07452556,0.051923547,51.326725,-103.44376,-10.7689495
190912665000.0,-0.5301076281447392,8.73611241680202,0.0732312032900198,-0.029321533,-0.07391469,0.033292156,51.390503,-103.44895,-10.797824
190917692000.0,-0.4599040083233423,8.762669613990592,0.1443816480189984,-0.009468411,-0.0729984,0.020158553,51.46417,-103.43237,-10.810974
190922673000.0,-0.371917144618648,8.806662781702482,0.236767851463617,0.0125227375,-0.08827003,-0.006414085,51.539886,-103.42951,-10.833876
190927765000.0,-0.282954649007431,8.849992444444444,0.3263790078379334,0.036957346,-0.09560041,-0.026572637,51.6126,-103.41093,-10.843469
190932702000.0,-0.211849572019639,8.86672338888889,0.3389269628573956,0.06627888,-0.11301007,-0.04428773,51.69062,-103.40293,-10.860962
190937668000.0,-0.1403268229166666,8.88355261111111,0.3515486247222222,0.08857546,-0.112399206,-0.06169739,51.766888,-103.375145,-10.864905
190943596000.0,-0.0655214805981964,8.933615693386773,0.3754050712024048,0.11056661,-0.12156218,-0.08124508,51.849186,-103.35738,-10.875644
190947638000.0,-0.0161561726665148,8.97240239843323,0.3930355329294953,0.129198,-0.12797627,-0.087659165,51.929333,-103.34412,-10.887461
190952725000.0,-0.0048659481943319,9.041726453441296,0.4166686400202429,0.122783914,-0.14172074,-0.09987647,52.014713,-103.31893,-10.88814
190957750000.0,-0.0292199229767206,9.124530112348175,0.4410226229402834,0.12705997,-0.15607607,-0.11056661,52.100887,-103.30006,-10.890587
190962707000.0,-0.0578226748649286,9.23348890441107,0.4445340834277888,0.124005646,-0.1600467,-0.12003502,52.18064,-103.267105,-10.882049
190967739000.0,-0.0896856643705487,9.36094104684991,0.4354303650788703,0.11209377,-0.1704314,-0.10903945,52.265717,-103.23161,-10.87173
190972734000.0,-0.1148970659640102,9.49044341645244,0.4357323979691517,0.09896017,-0.1740966,-0.1142318,52.354336,-103.19774,-10.869577
190977702000.0,-0.133713584548151,9.622159272493573,0.4451406670852283,0.07086037,-0.18051068,-0.12034045,52.44596,-103.15794,-10.8653145
190982679000.0,-0.1790701712980769,9.750064516826924,0.4855279991225961,0.024129177,-0.18112154,-0.108123146,52.541668,-103.11397,-10.861226
190987740000.0,-0.2552498818121301,9.875536701553257,0.5617077049574704,-0.046731193,-0.20891592,-0.09682214,52.645554,-103.06435,-10.860536
190992673000.0,-0.3354342839357707,10.022178445948615,0.6447897468498024,-0.112704635,-0.23182335,-0.06872234,52.751877,-103.001076,-10.852665
190997737000.0,-0.4312780549160079,10.228242713932806,0.7502178834189723,-0.19272798,-0.23793201,-0.048258353,52.86012,-102.92555,-10.844474
191002671000.0,-0.5185845642878942,10.445808156968464,0.8524322300366225,-0.28313604,-0.24984388,-0.02565634,52.993156,-102.835434,-10.844429
191007744000.0,-0.592719543906409,10.712693887487283,0.9562212376276704,-0.3454443,-0.2687807,0.00580322,53.129326,-102.733734,-10.836673
191013377000.0,-0.6668702483153042,11.1391311173967,1.069345820925696,-0.42394048,-0.28252518,0.03481932,53.281586,-102.61636,-10.840672
191017669000.0,-0.7142498867263699,11.609282840751906,1.153171343819826,-0.4813618,-0.2932153,0.05589417,53.43702,-102.493256,-10.838768
191022770000.0,-0.7576335859077444,12.144501113415153,1.250658839906898,-0.5305365,-0.2846632,0.09437868,53.61084,-102.34969,-10.832021
191027717000.0,-0.6523748558717731,12.395117536077022,1.3208312917054592,-0.5888741,-0.28160888,0.13744467,53.787292,-102.199,-10.818749
191032710000.0,-0.5368181938031567,12.630436381019402,1.389319521896049,-0.6542367,-0.27458394,0.183565,53.97212,-102.02626,-10.7932825
191037678000.0,-0.3789756239991957,12.783495431587411,1.4467168281793503,-0.7101309,-0.28130344,0.23518312,54.157703,-101.84624,-10.754896
191042669000.0,-0.2157429472184457,12.922994985302225,1.5098170544552636,-0.7690793,-0.28893927,0.28588495,54.339462,-101.63048,-10.680185
191047661000.0,-0.0312939675234245,12.997653037111888,1.5976499325004594,-0.8359691,-0.3051272,0.3378085,54.52295,-101.40722,-10.592584
191052980000.0,0.1724557204648727,13.066475211077377,1.6835627290859596,-0.8921687,-0.3213151,0.40317106,54.702972,-101.14365,-10.457856
191057705000.0,0.4519839649157156,12.981195664433043,1.6551360981049106,-0.93218035,-0.3390302,0.464563,54.884888,-100.8778,-10.313034
191062748000.0,0.7424615923360854,12.884833330451675,1.6220068269159786,-0.97005403,-0.35277468,0.5213735,55.06277,-100.56693,-10.117764
191067663000.0,0.9619235274502186,12.7476697403594,1.5671413431374452,-0.98807454,-0.35705075,0.5534439,55.23922,-100.26262,-9.91686
191072846000.0,1.1858977947576488,12.603000840924716,1.5091601526211755,-0.9923506,-0.35643986,0.61636305,55.39969,-99.90515,-9.646946
191077746000.0,1.2988178652286009,12.465883798985908,1.4527001173856997,-1.0027353,-0.35338554,0.6743952,55.557007,-99.55732,-9.375516
191083729000.0,1.4366955757648676,12.29846109247164,1.383761262117566,-1.0027353,-0.34147367,0.7593055,55.69107,-99.16688,-9.0453615
191087675000.0,1.4636773581508769,12.167502957663173,1.2524876635571236,-0.990518,-0.33261612,0.79290307,55.821762,-98.79358,-8.720763
191092673000.0,1.4885111998235965,11.998631807408945,1.0736835263775033,-0.98624194,-0.3155119,0.8359691,55.94389,-98.412926,-8.376858
191097725000.0,1.468802109677726,11.839129851887062,0.8904108655480559,-0.96486163,-0.28680122,0.8695667,56.046494,-98.02377,-8.0108
191102758000.0,1.4367268423044015,11.683335320134994,0.7071232543112465,-0.93462384,-0.24373524,0.89980453,56.13733,-97.643074,-7.6416755
191107695000.0,1.3561977957326283,11.525086698640484,0.5497170547092145,-0.9138544,-0.20891592,0.9059132,56.204567,-82.72646,-7.272506
191112932000.0,1.2472914339312688,11.35462511744713,0.3934601141484139,-0.8891144,-0.15057829,0.9095783,56.25082,-83.085915,-6.903996
191117722000.0,1.1082477323337023,11.217233188789372,0.2695682729757472,-0.8753699,-0.08307768,0.9016371,56.266853,-83.42265,-6.551665
191122734000.0,0.9343559459595452,11.0868137563651,0.1536404355680789,-0.8579602,-0.020158553,0.87689704,56.266705,-83.74052,-6.211513
191127779000.0,0.7112816605889059,10.994823346599544,0.0461684343009118,-0.87598073,0.042455133,0.8533788,56.24452,-84.02284,-5.9031544
191132821000.0,0.4544398626481762,10.93061303599924,-0.0547337094984802,-0.91751957,0.08368854,0.8374963,56.210476,-84.2862,-5.6071887
191137715000.0,0.1811079339180001,10.88893041637904,-0.1693054479008471,-0.96761054,0.11056661,0.8155051,56.16126,-84.49705,-5.361449
191142733000.0,-0.1254961225384374,10.868825351427676,-0.3050154393285221,-1.0253373,0.14538592,0.79412484,56.098587,-84.68833,-5.126483
191147724000.0,-0.3640441001528384,10.82359004257642,-0.440993131790393,-1.0897835,0.15149458,0.7828238,56.03916,-84.81391,-4.955388
191152669000.0,-0.5494514171118807,10.759410592004215,-0.5764830937539527,-1.1591167,0.15943582,0.77549344,55.970303,-84.919464,-4.793943
191158618000.0,-0.77634197720231,10.676150434136952,-0.7446267790998259,-1.2082914,0.15790866,0.7849618,55.901337,-84.960175,-4.704688
191162711000.0,-0.9667798985883216,10.564762416307635,-0.906319338995325,-1.25319,0.16035213,0.7837401,55.830578,-84.98392,-4.622694
191167633000.0,-1.1957892924466038,10.43081376647722,-1.100761259299661,-1.2605205,0.14813483,0.7849618,55.769512,-84.95692,-4.615796
191172675000.0,-1.4663683863052914,9.989535869332348,-1.417900670699049,-1.2687671,0.1441642,0.7996226,55.70694,-84.92839,-4.603831
191177715000.0,-1.7516296868870629,9.42347019383138,-1.783391752793425,-1.2840388,0.12797627,0.8173377,55.65281,-84.89937,-4.5889416
191182664000.0,-1.9198334460340352,8.963200884338045,-2.001969755754254,-1.2770138,0.12492194,0.82527894,55.5957,-84.82084,-4.6672926
191187675000.0,-1.9982700735410053,8.575632000480722,-2.108089930025959,-1.2788464,0.12461651,0.8472701,55.543457,-84.753235,-4.7284923
191192680000.0,-2.0420756382341345,8.215021092234922,-2.184300944107213,-1.29198,0.13988814,0.86467975,55.471615,-84.68701,-4.805942
191197661000.0,-2.046776272920773,7.885976173334647,-2.226606656286953,-1.294118,0.15302174,0.8750645,55.40188,-84.63082,-4.8718386
191202667000.0,-2.034849869207044,7.593478138284748,-2.244298143945876,-1.2910637,0.16371189,0.88606006,55.321133,-84.60039,-4.899225
191207686000.0,-2.0013744225450205,7.349585348641926,-2.2299515239478658,-1.2925909,0.17012598,0.89369583,55.239967,-84.57397,-4.921334
191212659000.0,-1.9602430455425972,7.165009594287409,-2.187578169915003,-1.3011429,0.18417588,0.90224797,55.145504,-84.5867,-4.8798466
191217665000.0,-1.9081224120774856,7.05603004297292,-2.107028077525203,-1.3023647,0.18997909,0.8897252,55.05406,-84.59607,-4.8433247
191222784000.0,-1.8638225870111864,6.992959176666359,-1.989075363298512,-1.2886202,0.19792034,0.89919364,54.955856,-84.631195,-4.7641883
191227726000.0,-1.8331948880928168,6.997334470851438,-1.8271860062124436,-1.3005321,0.20341812,0.883922,54.859367,-84.65081,-4.6983156
191232667000.0,-1.7996441802304608,7.034067528617235,-1.6689447261422845,-1.3063353,0.19272798,0.8686504,54.770924,-84.67496,-4.617764
191237662000.0,-1.7565053482164328,7.173070470701403,-1.5203554381162323,-1.3051136,0.17470746,0.84971356,54.68535,-84.69077,-4.5453176
191242702000.0,-1.7215147004225897,7.332669964195159,-1.3777539934306569,-1.310306,0.15454891,0.8384125,54.616302,-84.686,-4.47336
191247672000.0,-1.7123720388782175,7.547522605954668,-1.258899345620438,-1.344209,0.13041973,0.82711154,54.55546,-84.668755,-4.4089723
191252730000.0,-1.6979124089842168,7.782556528126264,-1.1545691111290977,-1.3771957,0.1020145,0.8206975,54.51266,-84.63509,-4.34565
191257691000.0,-1.659457883033185,8.09019273573452,-1.1305350637798464,-1.402852,0.101098195,0.8176431,54.470146,-84.5913,-4.2867785
191262714000.0,-1.607637288333832,8.404514742746036,-1.109981426742447,-1.4257594,0.08399397,0.8164214,54.44524,-84.52637,-4.2274046
191268661000.0,-1.4827024941170603,8.790676596769368,-1.1043025724598663,-1.4410311,0.0870483,0.8219192,54.415733,-84.45471,-4.169308
191272689000.0,-1.3980063527484143,9.038313334038056,-1.0974605737843552,-1.4575244,0.07941248,0.8414669,54.38976,-84.38512,-4.093412
191277734000.0,-1.291604405162086,9.289422076109936,-1.0761802020436928,-1.4785993,0.06780604,0.8576548,54.364983,-84.30733,-4.0191164
191282681000.0,-1.1872693338618745,9.53565298731501,-1.05531320521494,-1.4963144,0.05375614,0.87995136,54.3297,-84.245316,-3.9149084
191287664000.0,-1.0640678242222688,9.753525779197654,-1.0488936257253587,-1.5097535,0.033292156,0.9068295,54.300343,-84.17799,-3.8074422
191292975000.0,-0.9360463166556572,9.977449463716145,-1.041942538973294,-1.5195273,0.024129177,0.93951076,54.272114,-84.10724,-3.6951084
191297662000.0,-0.8979243586722657,10.100286724167216,-1.012292100179296,-1.5332718,0.02321288,0.9645562,54.235676,-84.043434,-3.5439327
191302787000.0,-0.8562399049353591,10.234603122676228,-0.979870828828914,-1.5357152,0.022602014,0.9932669,54.193115,-83.99129,-3.3519588
191307767000.0,-0.8149047200926463,10.259659838448176,-0.9768343,-1.5442673,0.025350908,1.0195341,54.150276,-83.927216,-3.1600893
191312639000.0,-0.7743793375796179,10.2731680955414,-0.9768343,-1.5451837,0.01863139,1.0503827,54.110394,-83.859245,-2.964944
191317729000.0,-0.7350504463264408,10.258638525736911,-0.9111912509018918,-1.5326608,0.01863139,1.0754282,54.062294,-83.7809,-2.745976
191322749000.0,-0.6969791903651562,10.237487827980642,-0.8308185420061592,-1.5354098,0.0036651916,1.0934488,54.020737,-83.69059,-2.5271971
191327792000.0,-0.6770707820998279,10.150201197289157,-0.7458721235585197,-1.5250251,-0.0018325958,1.1129965,53.973324,-83.5942,-2.279429
191332759000.0,-0.6719537462134252,10.012041548945785,-0.6588824386854562,-1.53205,-0.01863139,1.1224649,53.93394,-83.48217,-2.0371764
191338663000.0,-0.6784558568824154,9.807868862351691,-0.607831146698177,-1.5372424,-0.0290161,1.1313224,53.878498,-83.33949,-1.7757645
191342727000.0,-0.6859643193498601,9.657699613002798,-0.5853057475354491,-1.5500705,-0.034208454,1.1392636,53.82721,-83.18383,-1.5207134
191347720000.0,-0.7096610969411765,9.451218314411763,-0.5889876925382354,-1.5546521,-0.04337143,1.1233811,53.784298,-82.99175,-1.2613935
191352805000.0,-0.7430813122352941,9.22682474235294,-0.6128592898470588,-1.5668694,-0.03481932,1.1142182,53.738037,-82.78848,-1.0077045
191357750000.0,-0.776475311412441,9.01398361527407,-0.6736834265325395,-1.5717562,-0.032986723,1.103528,53.68748,-82.552956,-0.7475632
191362737000.0,-0.810792372633956,8.803179204064874,-0.7619272909320468,-1.5851953,-0.015882496,1.0913107,53.631386,-82.30806,-0.5000616
191367723000.0,-0.8476465761785714,8.622963872142856,-0.8509711122607143,-1.577254,-0.01282817,1.0858129,53.573452,-82.043594,-0.24224533
191372722000.0,-0.8861171394553572,8.460532971964286,-0.9407357137848216,-1.5824465,0.00030543262,1.0760391,53.509327,-81.770706,0.0018304904
191377768000.0,-0.9681708129618534,8.324775164969044,-1.043063831076493,-1.6056592,-0.0015271631,1.0726794,53.440605,-81.48264,0.2595241
191382692000.0,-1.1141506652646296,8.23530332154983,-1.1607895215897743,-1.6187929,0.01863139,1.0714576,53.363213,-81.19671,0.50626355
191387719000.0,-1.2066777,8.178593,-1.2354081,-1.6410894,0.035430185,1.0726794,53.27481,-80.897964,0.7579442
191392728000.0,-1.2066777,8.178593,-1.2354081,-1.6652187,0.055588737,1.0687088,53.181095,-80.59714,0.99999046
191397734000.0,-1.2941648704336015,8.210185469492675,-1.2475590634688136,-1.6826283,0.05955936,1.0748174,53.084892,-80.29292,1.2381246
191402714000.0,-1.4607115480938986,8.270327097196624,-1.2706904847511884,-1.7162259,0.05497787,1.07665,52.986774,-79.98089,1.4672353
191407688000.0,-1.5775229934557864,8.316131407708522,-1.2811186667971497,-1.7400496,0.058948494,1.0852021,52.881622,-79.66417,1.6984164
191412759000.0,-1.6360162124360131,8.345378602529358,-1.2762442870219814,-1.7599027,0.03848451,1.0955868,52.78543,-79.34331,1.9259927
191417711000.0,-1.6809920459152017,8.352194170630817,-1.2778946492244054,-1.781894,0.027794369,1.1038336,52.685917,-79.01361,2.1352422
191422735000.0,-1.712654817598947,8.334100780389207,-1.2869412026511236,-1.8035797,0.0061086523,1.1218541,52.594883,-78.68285,2.3459902
191427695000.0,-1.7301266047980317,8.30750558478573,-1.3059705808078736,-1.8335121,-0.022296581,1.1450669,52.508488,-78.34021,2.5552387
191432705000.0,-1.720288637194997,8.263234319663727,-1.3453224512200124,-1.8655825,-0.04062254,1.1588113,52.425343,-77.99651,2.7617977
191437685000.0,-1.719700132270281,8.201525400239186,-1.385838596810843,-1.9025398,-0.06566802,1.1933253,52.350002,-77.63994,2.9794602
191442675000.0,-1.7339880230416582,8.111035524815627,-1.428702269124975,-1.9382755,-0.093767814,1.221425,52.28042,-77.28076,3.1947188
191447648000.0,-1.7494858226021683,8.013425282846816,-1.4817026394495414,-1.9636264,-0.1151481,1.2617421,52.212017,-76.91354,3.4287653
191452719000.0,-1.7674875201556852,7.900915154814197,-1.5537092886850152,-1.994475,-0.14080444,1.2907583,52.15176,-76.54027,3.6635733
191457682000.0,-1.7965992326610762,7.7818605230867215,-1.6439049542405266,-2.0100522,-0.14935656,1.3148874,52.08648,-76.16572,3.906601
191462690000.0,-1.867870764600361,7.629135713066554,-1.806811350928776,-2.014939,-0.18387043,1.3573426,52.032642,-75.78846,4.1601167
191467635000.0,-1.951140924312268,7.475847542973978,-1.966883901858736,-2.0363193,-0.2144137,1.389413,51.976917,-75.408936,4.4174185
191472730000.0,-2.064509504144981,7.312596971737918,-2.130134615148699,-2.0494528,-0.23823744,1.432479,51.925537,-75.03222,4.6853547
191477859000.0,-2.1792982293333334,7.148894921333333,-2.3020089706666664,-2.055867,-0.25320363,1.4737124,51.875446,-74.66959,4.956213
191482738000.0,-2.2908809107860697,6.995468673651741,-2.4926293645870645,-2.058616,-0.26145032,1.5216653,51.827053,-74.30604,5.2358994
191487769000.0,-2.3881345854042157,6.844109124095628,-2.6843618052846807,-2.0751092,-0.2764165,1.5781704,51.77878,-73.95884,5.5133443
191492739000.0,-2.4068498637936457,6.7243311860648,-2.8527995062126457,-2.0888536,-0.28405234,1.6368134,51.727882,-73.61277,5.7985034
191497698000.0,-2.425523720037748,6.604818350110097,-3.0208644074001256,-2.1007655,-0.2779437,1.6972891,51.6723,-73.28655,6.084724
191502723000.0,-2.3657992785204174,6.476725449734481,-3.1865760644570598,-2.1090124,-0.24404067,1.7687603,51.60715,-72.95609,6.382245
191507698000.0,-2.261104999542209,6.345857760437649,-3.347979604101813,-2.1386392,-0.19853121,1.8341229,51.534252,-72.61664,6.6868477
191512668000.0,-2.1129958430924063,6.213028695181458,-3.482908489600488,-2.1450534,-0.14905111,1.9058995,51.44327,-72.3018,7.009751
191517663000.0,-1.90875487831656,6.076867899664532,-3.585028997377249,-2.1514673,-0.09560041,1.9782871,51.3355,-71.976616,7.3402348
191522657000.0,-1.7174996703598486,5.898324318986743,-3.677466637594697,-2.1688771,-0.042455133,2.048842,51.209724,-71.65456,7.7100368
191527717000.0,-1.538533124526515,5.668880008570076,-3.76006663342803,-2.2021692,0.035430185,2.116648,51.0599,-71.322014,8.085844
191532703000.0,-1.369534394649069,5.40023328004911,-3.827715720073665,-2.233018,0.13805555,2.160325,50.887524,-70.97723,8.506073
191537666000.0,-1.2139225102926132,5.059832413136894,-3.8714815197053407,-2.2748623,0.26389378,2.2021692,50.6857,-70.61532,8.929042
191542651000.0,-1.0850134662525404,4.7082283291150935,-3.917270461241456,-2.3295345,0.39950588,2.2409592,50.452236,-70.22423,9.392015
191547663000.0,-0.9963399780020322,4.340233363292074,-3.966040748993165,-2.4049764,0.5369505,2.2623394,50.18569,-69.816574,9.844
191552720000.0,-0.9045686593023256,3.942315314075887,-3.959218171113831,-2.490803,0.600786,2.2837198,49.902042,-69.36288,10.335904
191557689000.0,-0.8074916367248062,3.4714918698796406,-3.784479667319461,-2.5335636,0.71959925,2.2977695,49.567978,-68.90237,10.80838
191562631000.0,-0.7183271671406157,3.0069145643949797,-3.55399826422828,-2.6316075,0.79473567,2.3160956,49.22744,-68.37943,11.312969
191567662000.0,-0.6474590053579132,2.5439090888017257,-3.1665855122965287,-2.7354546,0.83291477,2.3441954,48.865746,-67.84508,11.810516
191572651000.0,-0.6206891971640645,1.9853649884762392,-2.673011668407133,-2.839607,0.8268061,2.3576343,48.489944,-67.2218,12.329759
191577724000.0,-0.7367482186536986,1.0900524176520776,-1.810858845832267,-2.9236012,0.80939645,2.3716843,48.105865,-66.57922,12.847982
191582694000.0,-0.8504508279191196,0.2129178864090095,-0.9662108016380856,-3.0112603,0.74036866,2.3732114,47.72125,-65.81398,13.38215
191587674000.0,-0.8619126,0.12449849,-0.8810662,-3.061351,0.6401868,2.3603833,47.349155,-65.043915,13.914459
191592867000.0,-0.9071993949738018,0.0262093748350475,-0.7935117378905492,-3.10289,0.50732356,2.3124304,47.007576,-64.26713,14.4415245
191597662000.0,-1.5087234445565691,-1.2793205620512325,0.3694346494081117,-3.1215215,0.39767328,2.255009,46.630913,-63.268486,14.92983
191603075000.0,-2.1576738040108268,-2.719104703912402,1.6587646282398294,-3.114191,0.30848694,2.1768184,46.283367,-62.2771,15.406586
191607733000.0,-2.208897706225394,-3.385016349630906,2.372241437901903,-3.079677,0.24312437,2.0732768,45.961296,-61.30408,15.864004
191612679000.0,-2.2632887367864174,-4.092100720546259,3.1298318845718507,-2.987742,0.19333886,1.9498819,45.592793,-60.048336,16.190607
191617661000.0,-2.1935549606261406,-4.959640835042735,4.238597286430424,-2.8722885,0.11453723,1.8054122,45.25542,-58.825493,16.480305
191622661000.0,-2.0142140886392013,-5.966709211111111,5.654930907865168,-2.7394252,-0.028405234,1.6355917,44.959507,-57.651234,16.731726
191627679000.0,-1.7394411530878189,-7.21934964611898,7.049289260056657,-2.5732698,-0.22937989,1.4376713,44.68216,-56.231907,16.976892
191632754000.0,-1.3447482914258737,-8.784352986770537,8.426124779414542,-2.3631322,-0.45631635,1.1988231,44.476196,-54.900204,17.165888
191637640000.0,-1.021026420578114,-10.57013508888015,9.896019014452856,-2.0772474,-0.7122689,0.95539325,44.32174,-53.201344,17.410006
191642663000.0,-0.8034669120440467,-12.977478089765018,11.70270880110117,-1.679574,-1.0161743,0.70829827,44.278973,-51.686436,17.574518
191647631000.0,-0.5965859352528252,-15.000573625646428,13.29082005142693,-1.1936307,-1.1768318,0.49113566,44.15253,-49.90938,17.696032
191652731000.0,-0.4048113170762306,-16.18864065303582,14.427435785960544,-0.6597345,-1.5100589,0.28252518,44.18258,-48.329166,17.813353
191657665000.0,0.1444643731557002,-17.22385713719109,15.311463067019222,-0.3594942,-1.6789632,0.15393804,44.12587,-46.298763,17.887564
191662791000.0,2.121472528003661,-17.857897410149494,15.396334258924032,0.3109304,-1.6016886,-0.21502456,44.175976,-44.66107,17.864328
191667674000.0,4.065655896700076,-18.18702213341528,15.455860450075642,1.0009027,-1.4367551,-0.58032197,44.217743,-42.901295,17.834978
191672667000.0,6.240388725056731,-17.680640061459908,15.451339556732224,1.593442,-1.4266758,-0.86376345,44.339497,-41.45149,17.759954
191677779000.0,8.400030571942445,-17.00124418705036,15.34059820143885,2.0222695,-1.5546521,-1.1291844,44.481922,-40.10486,18.063574
191682721000.0,10.111577432661871,-15.43951411558753,14.636911443453238,2.3374758,-1.7534887,-1.3329079,44.679974,-39.021557,18.316217
191687777000.0,11.805768738545645,-13.80747154022041,13.883530736810137,2.490803,-1.9401081,-1.4520267,44.91327,-38.088978,19.056349
191692661000.0,12.637813912096494,-11.745622749002084,12.682138360898994,2.5100453,-2.0002782,-1.4764613,45.17174,-37.30288,19.746391
191699439000.0,13.754305791072593,-8.87310486772901,11.026629194669647,2.48164,-1.8228219,-1.3029755,45.43296,-36.76013,20.821676
191702715000.0,14.040822839996272,-7.411283086124313,10.304489319914268,2.4443772,-1.7287487,-1.2318097,45.734062,-36.28041,21.84805
191707691000.0,14.47602089721368,-5.190884677923773,9.20761263591464,2.4443772,-1.5326608,-1.0894781,46.00826,-36.09454,23.081703
191712704000.0,14.789291541599026,-2.8935327815239447,8.39318770698052,2.414445,-1.3344351,-0.91324353,46.224182,-35.88377,24.25691
191717670000.0,15.016081949472404,-0.5773757596367695,7.780371214448053,2.3851233,-1.1734722,-0.7519751,46.364563,-35.660583,25.369566
191722729000.0,15.0098063182216,2.971653242152984,7.278678068195344,2.368019,-1.1478158,-0.6032294,46.553646,-35.681694,26.598747
191727727000.0,14.863187236828288,7.1817185771468575,6.855576940521617,2.4208589,-1.2437216,-0.5021312,46.70219,-35.68179,27.787233
191732708000.0,14.337912966801955,10.735435292330108,6.707609650431887,2.5100453,-1.2757921,-0.5296202,46.92522,-35.907803,28.935635
191737671000.0,13.09637376251431,13.06023020720158,7.0785878316161925,2.4556782,-1.1710287,-0.6921103,47.148376,-36.09917,30.007906
191742662000.0,12.3475069783715,14.91139653653217,8.438869297164667,2.230269,-0.958753,-0.9505063,47.560116,-36.78305,30.74285
191747667000.0,12.308304328880409,16.074412261723012,11.209198199836422,1.861001,-0.9166033,-1.1685852,48.014122,-37.416092,31.393587
191752682000.0,12.633751693316336,17.11428456419596,13.690136882535056,1.5525141,-0.62949663,-1.1383474,48.415062,-38.23621,31.548418
191757695000.0,14.290574668821709,17.695702182298305,15.093408964305226,0.46670106,0.58093286,-0.81336707,48.540115,-38.76193,31.50796
191762923000.0,15.956635781621271,18.28044636296775,16.50452538042512,-1.3530666,2.68628,-0.2284636,48.211384,-38.968525,30.992016
191768300000.0,16.747386362563645,18.559290290794472,17.174582236644305,-4.4022,4.245208,0.22510384,47.676014,-38.612408,30.407557
191772638000.0,17.38533987197931,18.78425308769094,17.71516372116706,-8.094575,3.1407638,0.20586158,47.275593,-37.620106,30.086933
191777703000.0,17.95413997430524,18.974055076355352,18.19594995207289,-7.732638,-0.46181414,0.96974856,46.831886,-36.631683,30.236883
191782697000.0,18.368128695763097,19.10043035088838,18.54457256018223,-5.7931404,-2.1618521,1.5964963,46.252018,-35.23731,30.18585
191787639000.0,18.712912447255704,18.20318979290766,17.451448598764816,-4.856684,-3.1154127,1.7296649,46.275337,-33.677784,30.803875
191792671000.0,18.93852739774878,15.313392743002291,13.558382326028488,-5.1355443,-2.4382687,2.439185,45.9995,-32.111202,31.60959
191797637000.0,19.12410155102041,11.295355571428573,10.730127979591837,-5.2732944,-0.66431594,3.477045,45.572067,-30.726261,32.429398
191802709000.0,19.238482317111465,4.8280940054945045,9.896103965463109,-4.6199737,1.2266175,4.3142357,44.827595,-29.395073,33.09913
191807691000.0,19.01131369467935,-0.9200584488195912,9.605881559196616,-3.4794884,2.5008824,4.546059,43.733646,-27.960842,33.78934
191812668000.0,18.016219276867517,-5.295115245199083,10.512803020613108,-2.238821,3.4190128,4.2537603,42.26152,-26.675276,34.120415
191817906000.0,17.02923018644386,-9.739864989579422,11.48663163950432,-0.9807441,4.065919,3.5643988,40.488964,-25.22011,34.377884
191822665000.0,16.815297678182503,-11.969034291400677,12.590519486293656,0.31948254,4.247346,2.7186558,38.788548,-24.15232,34.420452
191827703000.0,16.588823213668796,-14.328890341532103,13.759123598948555,1.2883148,3.926947,1.9850066,37.073154,-23.02877,34.295452
191832728000.0,14.321896467956702,-16.17832770533576,14.08052164824217,1.3884968,3.0008755,1.4712689,35.63974,-22.1245,34.169907
191838029000.0,11.710373722099815,-18.07496446690296,14.32854385515854,0.698219,1.2696834,1.1029172,34.57444,-21.369127,34.246258
191842721000.0,9.039327762354151,-18.50178028937886,12.023899986530544,0.03848451,-0.26908615,0.7330383,33.67809,-20.506443,34.40634
191847634000.0,6.189473323610158,-18.764160875257375,9.238631518702814,-0.05589417,-0.69913524,0.46944994,32.947517,-19.677309,34.675655
191852701000.0,3.601785495083832,-18.3572524503992,6.72977243736527,0.099571034,-1.0054842,-0.12736541,32.570953,-18.773964,35.018284
191857697000.0,1.4243751353952092,-17.23512143283433,4.643087433293413,0.6630942,-0.98440933,-0.6478226,32.248413,-17.994314,35.354195
191862770000.0,-0.1635794178096947,-15.058969157989228,3.700516067504488,1.3197744,-0.80939645,-0.97158116,32.1297,-17.487993,35.568886
191867740000.0,-1.084129850598988,-11.870058737718296,3.9762928259507095,1.9147571,-0.61819565,-1.0574077,32.08025,-17.143223,35.74035
191872860000.0,-2.0146373046000687,-8.548822579973738,4.28328210058359,2.3261747,-0.5540548,-0.9068295,32.20086,-17.177973,35.756405
191877697000.0,-2.642772897614144,-4.903250487840113,4.8955156202197045,2.3512204,-0.4822781,-0.58062744,32.257328,-17.237755,35.72613
191882774000.0,-3.3020750282183315,-1.0767941074881566,5.538126655818743,1.9480493,-0.3118467,-0.21105394,32.462254,-17.651335,35.44274
191887734000.0,-3.814212620108805,2.2061447061984687,6.500378913318557,1.1737776,-0.04184427,0.048563786,32.570904,-17.939627,35.134007
191892735000.0,-4.277418984545638,5.332787846013802,7.60531897864195,0.070554934,0.28985557,0.12858713,32.587124,-18.020113,34.78162
191897725000.0,-4.606082363442753,6.755864462967526,7.393355532632228,-1.2739595,0.63132924,-0.01740966,32.62272,-18.04097,34.270542
191902744000.0,-4.885265265387663,7.534192546545807,6.674248027140719,-2.5030203,1.0277808,-0.50671273,32.695553,-17.873753,33.62182
191907650000.0,-5.138093553804601,8.632197602849958,5.928022010272888,-3.1548135,1.6786577,-1.0210613,32.85827,-17.766064,32.65048
191912663000.0,-5.3706019750954646,10.188216415004192,5.109770894933408,-3.3649511,2.1649065,-1.2235631,33.055893,-17.49707,31.598711
191917660000.0,-5.299704109842972,11.861743354653388,4.508643901838376,-3.2879822,2.1190915,-1.0638218,33.333496,-17.254555,30.52098
191922663000.0,-4.483113721715818,13.838993240616622,4.43524255308311,-2.8441887,1.564426,-0.66523224,33.601643,-17.037655,29.455711
191927748000.0,-3.290945359485531,15.709021963915683,4.462220576241515,-1.8625281,0.70341134,-0.09193522,33.88116,-17.113846,28.541477
191932719000.0,-0.824737954340836,17.035671130850304,4.853412124767774,-0.6441574,-0.4120286,0.64721173,34.070694,-17.282528,27.902246
191938051000.0,1.7186131933609607,18.26747726302436,5.260667846160351,0.49235737,-1.4633276,1.3869696,34.25632,-17.820175,27.630613
191942664000.0,1.5953158260487146,14.975812280108254,5.331657094046008,1.2018774,-1.8185458,1.8756617,34.343033,-18.486916,27.519804
191947651000.0,1.4620220972851827,11.417274827300403,5.408401810977672,1.3100005,-2.0638082,1.9975294,34.51648,-19.36298,27.98277
191953577000.0,1.4077905,6.324574215109981,5.85190997029035,1.1743884,-1.9477439,2.0583105,34.580284,-20.265926,28.47591
191957706000.0,1.4077905,2.4627017773858637,6.28873843149868,0.64873886,-1.7101172,1.8854356,34.711143,-21.085873,28.975317
191962728000.0,1.6684437062654067,-1.1339643347411663,6.543988536811832,-0.00061086525,-1.6410894,1.5512923,34.67212,-21.403275,29.481028
191967662000.0,2.1246561644823334,-3.8227059166967945,6.5828151031224325,-0.5186246,-1.7296649,1.1523973,34.704697,-21.660309,29.928108
191972659000.0,2.657198813461888,-5.336528694924504,6.393632546116064,-0.743423,-1.8267925,0.8002335,34.545326,-21.388174,30.314325
191977736000.0,3.245397248380935,-6.066248389394215,6.048674224859014,-0.743423,-1.8668042,0.5671884,34.472794,-21.093206,30.665901
191982671000.0,3.788230907615481,-6.679880356720766,5.671243112359551,-0.63438356,-1.858863,0.42058071,34.291508,-20.455215,31.121874
191987829000.0,4.312420545942572,-7.178374547648772,5.2138618089887645,-0.48899764,-1.8063285,0.34147367,34.148502,-19.852089,31.549734
191992659000.0,4.777499189285411,-7.647026341917437,4.856391576519454,-0.36957347,-1.6615535,0.28588495,33.974785,-19.193424,32.061695
191997666000.0,5.232743591591082,-8.134788698720014,4.55966980435704,-0.24281894,-1.4266758,0.22968534,33.793964,-18.583078,32.52076
192002739000.0,5.689768747691728,-8.64895256792915,4.346123611946486,-0.082161374,-1.1517864,0.16615535,33.575333,-17.969128,33.029255
192007692000.0,6.109854451479178,-9.274611570755606,4.67682927152817,0.08552113,-0.90316427,0.08674286,33.34074,-17.397356,33.469173
192012983000.0,6.554627484752104,-9.927580641487372,5.050607726637044,0.267559,-0.72204274,0.0030543262,33.056873,-16.810596,33.957047
192017664000.0,6.893606033426879,-10.29451623277206,5.662166911646398,0.441961,-0.6038403,-0.09193522,32.768982,-16.275885,34.380966
192023755000.0,7.3346909169940755,-10.771979314702214,6.457938540762395,0.5839872,-0.5204572,-0.19486602,32.418026,-15.686936,34.791367
192027721000.0,7.875456626356298,-10.390581977285526,7.232093695222452,0.7199047,-0.45631635,-0.30268374,32.081287,-15.156975,35.159004
192032753000.0,8.811765504449033,-9.223588724798198,8.46693520699268,0.7761043,-0.3866777,-0.38912117,31.755589,-14.658189,35.489105
192037688000.0,9.481024414348743,-8.089697693266833,9.323189153846156,0.795652,-0.25900686,-0.39614612,31.353912,-14.090013,35.76509
192042732000.0,9.606119581431038,-6.954571279301746,9.401953153846154,0.79168135,-0.16615535,-0.34666604,30.958296,-13.543183,36.02076
192047640000.0,9.733815763483776,-5.890540751100195,9.437764061508544,0.7877107,0.020463986,-0.32406402,30.631464,-13.12186,36.201004
192052715000.0,9.88801401084843,-4.940480598608126,9.32335867567291,0.7733554,0.12797627,-0.28496864,30.285013,-12.696084,36.375698
192057693000.0,9.971533894922564,-4.009118667829838,9.206081948245442,0.77946407,0.17348573,-0.26908615,30.034481,-12.432086,36.509735
192062677000.0,9.873283827092727,-3.0780826504214858,9.075082183493434,0.8393288,0.18600847,-0.28344148,29.776886,-12.1810665,36.62001
192067686000.0,9.787356789810048,-2.219867545739393,8.917114021480561,0.91965765,0.20219639,-0.31429017,29.600895,-12.063504,36.737907
192072669000.0,9.744998193680098,-1.6268467133854074,8.67143434084857,1.0057896,0.25870144,-0.28252518,29.404228,-11.954459,36.84143
192078106000.0,9.700559125,-0.9788417196923076,8.410803740865385,1.0821478,0.398895,-0.24709499,29.300344,-12.00083,36.900948
192082693000.0,9.6890395,-0.4182117793846153,8.299445294230768,1.1438452,0.6093381,-0.2321288,29.179594,-12.059986,36.924416
192087657000.0,9.676573090909091,0.1884956598321678,8.178934431118881,1.2012665,0.8191703,-0.23365596,29.10375,-12.232442,36.922455
192093374000.0,9.636437941787944,0.9645496656133056,8.0712967016632,1.2406673,0.9682214,-0.23671028,29.006664,-12.409063,36.880474
192097664000.0,9.598855401247402,1.5692861674511436,7.9995483513929315,1.2791518,1.0409144,-0.2666427,28.904375,-12.60016,36.801083
192102724000.0,9.476724149202848,2.4123421594304624,7.940565095467763,1.2996159,1.0586295,-0.32925636,28.873991,-12.906552,36.694817
192107688000.0,9.166882050335907,3.5563735328186104,7.945331889331194,1.2690725,1.0549643,-0.39553526,28.845545,-13.210614,36.574505
192112640000.0,8.76375126958317,4.679555234398348,7.950060990601652,1.1823297,1.0213667,-0.4456262,28.920698,-13.649101,36.43685
192117668000.0,8.11048762813606,5.7730623406114825,7.954794784388517,1.0528263,0.95539325,-0.48747048,29.010971,-14.072165,36.30715
192122637000.0,7.468709198882024,6.748991784348338,7.930872231215064,0.874759,0.8781188,-0.516792,29.261925,-14.684143,36.094833
192127728000.0,6.82322556760812,7.41838214651368,7.816119633362754,0.677755,0.8219192,-0.5366451,29.512117,-15.251053,35.89643
192132672000.0,6.303910178077035,7.918857094700261,7.726530495858674,0.45906523,0.8008443,-0.5204572,29.984058,-16.086597,35.513508
192137662000.0,6.179353342475142,7.868111699391833,7.717304174206005,0.21471913,0.77763146,-0.45814893,30.413368,-16.823494,35.165253
192142706000.0,6.044571297004347,7.760079534303535,7.694775225590626,-0.052534413,0.70188415,-0.43188173,30.79722,-17.438902,34.83104
192147658000.0,5.860825657011907,7.325363941787942,7.596179791835191,-0.18784106,0.6047566,-0.38637227,31.14117,-17.994688,34.524723
192152848000.0,5.664604411857708,6.8223557577865614,7.471713509301712,-0.44318274,0.5390886,-0.34391713,31.467995,-18.441305,34.2205
192157686000.0,5.42449683030303,5.609609772121212,7.0240556852525255,-0.6872234,0.51343226,-0.2959642,31.771343,-18.835056,33.943447
192162651000.0,5.178086300658761,4.365028577654808,6.564646611998244,-0.84940815,0.5027421,-0.25137106,32.05982,-19.15679,33.660603
192167706000.0,5.156356622991386,3.5615371808927168,6.360507189819891,-0.956615,0.50732356,-0.20463985,32.32199,-19.414204,33.39297
192172635000.0,5.211803974565387,2.9331352268598274,6.249612795458105,-0.97310835,0.4908302,-0.15454891,32.56309,-19.636723,33.14546
192177696000.0,5.274082689148478,2.248232758745773,6.187821481893637,-0.9049969,0.47891834,-0.106901415,32.715427,-19.710924,32.925396
192182701000.0,5.357579156819346,1.408355909683369,6.340079695183933,-0.77763146,0.44318274,-0.07086037,32.85759,-19.785856,32.724186
192187641000.0,5.432137034728295,0.6112527485321674,6.508424160649594,-0.61727935,0.3652974,-0.05497787,32.89292,-19.712914,32.61467
192192661000.0,5.482184438434312,-0.0944161663127212,6.738642478992296,-0.44104472,0.27855456,-0.049785517,32.927635,-19.671358,32.521027
192197634000.0,5.492570012718274,-0.7110624609767485,6.955173691026239,-0.2687807,0.1863139,-0.03268129,32.888607,-19.520985,32.47966
192202789000.0,5.414200149238958,-1.1628419627976467,7.153403441983378,-0.10567969,0.116675265,-0.017104227,32.858265,-19.41078,32.45608
192207697000.0,5.332047102185904,-1.5585846409805924,7.354335162696628,0.052839845,0.06841691,0.0076358155,32.77655,-19.229507,32.455315
192212730000.0,5.213885423043922,-1.809677977814096,7.615275288988764,0.20311269,0.015271631,0.022602014,32.703457,-19.08442,32.474846
192217695000.0,5.101983612069131,-2.0159578206048967,7.869208389572732,0.3203988,-0.035124753,0.04428773,32.591816,-18.891651,32.486065
192222679000.0,5.005743026682669,-2.080118338473356,8.112101512030726,0.41813725,-0.08032878,0.06291912,32.483013,-18.727987,32.511005
192227764000.0,4.906032861557104,-2.105726458527719,8.364107129960619,0.46853364,-0.10354166,0.059864793,32.359966,-18.539532,32.504166
192232731000.0,4.800358243774614,-1.9135906803998788,8.633097038776128,0.4841107,-0.1142318,0.04520403,32.239567,-18.365164,32.50634
192237687000.0,4.711034172139946,-1.68990419400656,8.898552381025743,0.44440445,-0.1160644,0.023823744,32.12008,-18.176687,32.469395
192242663000.0,4.706297698707882,-1.296772546814432,9.149588638256636,0.39278635,-0.116675265,0.01740966,32.003067,-17.989864,32.434814
192247680000.0,4.70401478701973,-0.8981985848714954,9.381739035349602,0.269697,-0.1151481,-0.0036651916,31.915293,-17.806236,32.34769
192252731000.0,4.716572527622015,-0.4837928420934579,9.49057265610938,0.112399206,-0.0852157,-0.026572637,31.829176,-17.605053,32.25273
192257696000.0,4.728916455970924,-0.0764429088341122,9.597553239572516,-0.06627888,-0.069027774,-0.047647487,31.78407,-17.42958,32.12276
192262670000.0,4.771957951982288,0.3800683724926371,9.615114,-0.21624629,-0.0290161,-0.059864793,31.740192,-17.22798,31.978382
192267632000.0,4.820892234342498,0.844944395729585,9.615114,-0.36682457,0.016493361,-0.076358154,31.705412,-16.990448,31.827007
192272700000.0,4.85812817576923,1.2222496283992674,9.560133427655678,-0.46120325,0.070554934,-0.112399206,31.71791,-16.81315,31.638153
192278647000.0,4.899852099038461,1.649920694203297,9.487116575549452,-0.52198434,0.1301143,-0.14874569,31.73353,-16.613289,31.436554
192282726000.0,4.89299707671013,1.9471598497091276,9.336447426880644,-0.5421429,0.18112154,-0.18784106,31.798967,-16.490314,31.214838
192287662000.0,4.878773128786359,2.3075014150451354,9.137311264794384,-0.5299256,0.23579398,-0.22815818,31.871538,-16.367815,30.976284
192292666000.0,4.868442666579305,2.610219538002711,8.897329025847267,-0.49174652,0.28527406,-0.2678644,31.988323,-16.328735,30.724949
192297664000.0,4.859791045015816,2.887070118120199,8.642107612562134,-0.40194935,0.3313944,-0.29168814,32.1073,-16.308218,30.462202
192302687000.0,4.863063997357294,3.178730449154334,8.348617313742073,-0.31398472,0.3652974,-0.30634892,32.264027,-16.381266,30.19239
192307663000.0,4.878176361839324,3.480976949788584,8.021183258435517,-0.20616703,0.38056904,-0.30604348,32.417706,-16.478647,29.919846
192312758000.0,4.922498568307359,3.730601742414678,7.726187592148353,-0.082161374,0.3744604,-0.2910773,32.598785,-16.678404,29.656582
192317721000.0,4.983446097948313,3.9368856211087,7.463644402604064,0.04795292,0.33933565,-0.26267207,32.77144,-16.89725,29.404219
192322777000.0,5.049446366354109,4.128730308927587,7.277965614088725,0.14508049,0.28588495,-0.21899518,32.962387,-17.212618,29.176508
192327776000.0,5.117348116988417,4.306029134087148,7.149706817429674,0.2180789,0.20708331,-0.16982053,33.141323,-17.538603,28.974518
192332905000.0,5.177963618744387,4.468936407404685,7.035897373850927,0.25900686,0.106595986,-0.11484267,33.324833,-17.930267,28.819635
192337978000.0,5.142266786831578,4.429273490921708,7.111257122246714,0.2657264,0.009773844,-0.05375614,33.490833,-18.310589,28.696114
192342731000.0,5.108821677018532,4.392112473369255,7.1818632496122135,0.2519819,-0.040317107,-0.024129177,33.67029,-18.751612,28.600243
192349313000.0,5.013873419460501,4.253190831021195,7.311606047398844,0.2443461,-0.1777618,0.04520403,33.831207,-19.165836,28.569063
192352787000.0,4.952683585881941,4.159949011788404,7.387364896216501,0.20158553,-0.226631,0.058337633,33.986744,-19.557549,28.529158
192357669000.0,4.858476298665555,4.01186717706422,7.477201593661385,0.1777618,-0.29779682,0.09590584,34.12095,-19.908478,28.533943
192362668000.0,4.74368154953086,3.8222061489678896,7.53210335089658,0.121256754,-0.3399465,0.10323623,34.25633,-20.23174,28.54455
192367668000.0,4.637678157055158,3.65678088515668,7.558857272952172,0.0870483,-0.3622431,0.11178834,34.36938,-20.496216,28.559109
192372691000.0,4.545118865695437,3.5289611371083014,7.541227067619571,0.047647487,-0.36651915,0.10598512,34.4834,-20.738808,28.58011
192377728000.0,4.452920007139685,3.4071958304147056,7.532000643459728,-0.008857546,-0.344528,0.098043874,34.577595,-20.922352,28.58843
192382900000.0,4.360552110469762,3.3060308949738038,7.5539930107450495,-0.05222898,-0.31520647,0.08674286,34.67121,-21.09577,28.595222
192388081000.0,4.270628186979356,3.2049342611553784,7.574469229626947,-0.082161374,-0.25961772,0.056199603,34.758297,-21.234365,28.578413
192392693000.0,4.254631094983702,3.120949006175299,7.554472760231801,-0.12736541,-0.20341812,0.03023783,34.84117,-21.356268,28.553354
192397672000.0,4.237361034045636,3.030280622709163,7.53288507135096,-0.14844026,-0.14202617,-0.0021380284,34.91953,-21.459513,28.494474
192402759000.0,4.361010013594164,2.8755949942970824,7.482375551724139,-0.17654006,-0.10262536,-0.030848695,34.9981,-21.550674,28.425116
192407747000.0,4.528446012495263,2.703633458033346,7.423546637438424,-0.1731803,-0.054061573,-0.05467244,35.073433,-21.645899,28.335567
192412728000.0,4.645130370073856,2.591447168774003,7.381562159054653,-0.16462818,-0.009162978,-0.07086037,35.14003,-21.715628,28.241333
192417637000.0,4.73309099708518,2.5127457230526837,7.3491557013097,-0.13347405,0.019242255,-0.07666359,35.204876,-21.791855,28.138783
192422730000.0,4.883244751861042,2.4394717851116625,7.33875700496278,-0.10842858,0.027488936,-0.079107046,35.24395,-21.829435,28.076118
192427698000.0,5.067415785111662,2.3733590711067,7.343479440297767,-0.09040806,0.022296581,-0.09254608,35.28531,-21.874628,28.008562
192432675000.0,5.266692555133839,2.340683766739912,7.367946780063924,-0.059864793,0.0290161,-0.073303826,35.306667,-21.908056,27.96295
192437836000.0,5.4839059106672,2.3308103386735914,7.407439873751498,-0.056505036,0.013439035,-0.06872234,35.3395,-21.942673,27.921768
192442710000.0,5.651448593421885,2.316890568500949,7.447708511701455,-0.040011674,-0.0290161,-0.06291912,35.35811,-21.967588,27.923477
192447729000.0,5.799116761543327,2.299517808159393,7.491140299177736,-0.024740042,-0.0711658,-0.048258353,35.374516,-21.990799,27.930872
192452724000.0,5.93165504161039,2.2945729302337665,7.55209050077922,-0.026572637,-0.12156218,-0.04062254,35.38966,-22.004436,27.984802
192457808000.0,6.042942982888311,2.309748551387013,7.643144544623377,-0.024740042,-0.17470746,-0.034513887,35.40672,-22.020678,28.051071
192462694000.0,6.125757251545889,2.321809065668585,7.702841742709451,-0.025961773,-0.23487769,-0.029932396,35.423542,-22.025179,28.15615
192467736000.0,6.1822712705257,2.331228158987613,7.73109867843558,-0.028710667,-0.27855456,-0.027794369,35.443867,-22.029192,28.26931
192472684000.0,6.23047237307236,2.3518654520363778,7.749527517022539,-0.038789943,-0.30940324,-0.028099801,35.471962,-22.027401,28.402107
192477696000.0,6.268430989916963,2.38982426706208,7.754272269810202,-0.04184427,-0.31520647,-0.03940081,35.504593,-22.027998,28.536018
192482671000.0,6.30611087652002,2.423967025071676,7.7572136,-0.035430185,-0.30390546,-0.043066,35.533806,-22.02567,28.678751
192488288000.0,6.3486559725654965,2.455875749925853,7.7572136,-0.03268129,-0.28588495,-0.04062254,35.56369,-22.022606,28.817688
192492671000.0,6.373294934185872,2.4818257414465057,7.76035917899569,-0.03176499,-0.26206118,-0.048563786,35.59593,-22.027113,28.953375
192497734000.0,6.386922676503653,2.513623696177628,7.769444214052839,-0.03940081,-0.2302962,-0.052534413,35.62192,-22.0293,29.08034
192502701000.0,6.395222051698076,2.550363346270122,7.776367,-0.03970624,-0.19303341,-0.04520403,35.64498,-22.038063,29.202639
192507692000.0,6.385838844326659,2.606662394542599,7.776367,-0.038789943,-0.15515977,-0.050396383,35.667664,-22.047705,29.312037
192512652000.0,6.372235423182831,2.658693367989472,7.779748661550921,-0.050701816,-0.1301143,-0.043982297,35.687,-22.055307,29.416595
192517659000.0,6.338255137375987,2.6926736031079166,7.799166069103057,-0.06169739,-0.11026118,-0.03268129,35.701214,-22.06328,29.510618
192522661000.0,6.302406282984083,2.7188452959802536,7.808868115252872,-0.076052725,-0.07269296,-0.028099801,35.716236,-22.076876,29.588844
192527721000.0,6.258468446393311,2.713963359449929,7.779576190207535,-0.098043874,-0.057726767,-0.021991149,35.727367,-22.083876,29.667637
192532689000.0,6.215029102415647,2.704463951523416,7.753090493945297,-0.109650314,-0.043676864,-0.011911872,35.7348,-22.095726,29.72673
192537675000.0,6.170378468066703,2.678417861474324,7.734486143910232,-0.119729586,-0.031154128,-0.0021380284,35.738243,-22.101665,29.781864
192542640000.0,6.1259158929478685,2.652481472165511,7.715960151546794,-0.13194689,-0.021685716,0.004276057,35.740242,-22.103216,29.83091
192547664000.0,6.061905924756619,2.600760460222,7.661232877044855,-0.13439035,-0.017104227,0.011911872,35.73772,-22.10311,29.878359
192552700000.0,5.9873095733782185,2.5349400181148214,7.586636296569921,-0.14385876,-0.015882496,0.020158553,35.73214,-22.09746,29.924162
192557685000.0,5.933498047324887,2.4470340070149725,7.525975242508638,-0.13927728,-0.02443461,0.025045475,35.726334,-22.090403,29.965303
192562669000.0,5.903513163647785,2.3320923008061984,7.480998073542038,-0.14446963,-0.03848451,0.025961773,35.71988,-22.078358,30.00733
192567665000.0,5.857358144353676,2.2070521917924077,7.430445104622778,-0.119729586,-0.037873644,0.037873644,35.709232,-22.06512,30.047022
192572660000.0,5.797591925228256,2.0737270247573285,7.375276205728015,-0.11209377,-0.042455133,0.030848695,35.706715,-22.049694,30.088675
192577707000.0,5.737282133843553,1.953628502269289,7.331433108623298,-0.10140363,-0.05467244,0.034208454,35.689922,-22.02097,30.13796
192582679000.0,5.6779579483848,1.8519304169440245,7.301771104387292,-0.090713486,-0.059864793,0.036957346,35.67525,-21.995941,30.184786
192587684000.0,5.630155550917031,1.728430964599709,7.2783732,-0.08399397,-0.07574729,0.041233405,35.6575,-21.953001,30.237555
192592664000.0,5.62552755790393,1.5294230123435226,7.2783732,-0.06536258,-0.07788532,0.035124753,35.641094,-21.917637,30.2862
192597716000.0,5.6276186321602175,1.350102615457904,7.283652280108885,-0.060170226,-0.07238753,0.028099801,35.622158,-21.862741,30.333885
192602721000.0,5.664898048162551,1.289523673935446,7.31627178127552,-0.062002823,-0.07849618,0.029626964,35.60476,-21.811327,30.384428
192607721000.0,5.702939138405571,1.233301821151647,7.35172982554828,-0.06811147,-0.07147124,0.031154128,35.57173,-21.726591,30.434664
192612665000.0,5.747230821349132,1.2136166744101444,7.41078516299761,-0.06352998,-0.067500606,0.018020526,35.54443,-21.647532,30.484585
192617671000.0,5.792114690335811,1.1956966627275056,7.468055690335811,-0.06627888,-0.056199603,0.01160644,35.505524,-21.551126,30.53641
192622655000.0,5.836978185713065,1.1875396480816884,7.5129191857130655,-0.07269296,-0.051923547,0.00580322,35.47138,-21.458544,30.586412
192632775000.0,5.910841035289248,1.194831328231398,7.591003306799131,-0.0711658,-0.039095376,-0.003970624,35.43425,-21.363201,30.630924
192637750000.0,5.935494134740764,1.214553807792611,7.620587335051226,-0.06841691,-0.035430185,-0.008857546,35.398743,-21.26852,30.675571
192642657000.0,5.967964164621449,1.2422637451632468,7.657817484079652,-0.06566802,-0.029626964,-0.014966198,35.361523,-21.171501,30.7182
192647654000.0,6.00182521656727,1.2712874606792683,7.696515872455271,-0.06047566,-0.03848451,-0.021991149,35.328297,-21.078419,30.762026
192652760000.0,6.032342008386188,1.3132643532769557,7.707662719802678,-0.059864793,-0.039095376,-0.023518313,35.29686,-20.987589,30.80214
192657733000.0,6.061709343199436,1.3552177325317123,7.71605329927766,-0.043676864,-0.043676864,-0.025961773,35.270195,-20.904598,30.84373
192662688000.0,6.089770832459522,1.4237101546646107,7.712881274942174,-0.045814894,-0.03634648,-0.03176499,35.245358,-20.8236,30.880674
192667668000.0,6.117349310292984,1.5064458281418658,7.703688528989977,-0.043676864,-0.03176499,-0.02687807,35.219498,-20.747612,30.919645
192673737000.0,6.132592586201239,1.5968479345242437,7.679134702788917,-0.04062254,-0.031154128,-0.024740042,35.20022,-20.680363,30.959814
192677747000.0,6.136092893711265,1.6528493461173897,7.658134100346336,-0.025045475,-0.027183503,-0.020463986,35.177998,-20.616562,30.998055
192682684000.0,6.134793787349397,1.710852839242685,7.638352490189329,-0.02076942,-0.009162978,-0.025350908,35.15905,-20.567436,31.034359
192687669000.0,6.12452236001506,1.7519374760757316,7.628081330981067,-0.007941248,0.004276057,-0.022907447,35.136833,-20.522964,31.071499
192692728000.0,6.110691605451374,1.7917064837331007,7.6231384,-0.0061086523,0.020158553,-0.01863139,35.1184,-20.49342,31.103466
192697728000.0,6.093985412690798,1.8292953629306583,7.6231384,-0.00061086525,0.03023783,-0.021685716,35.100506,-20.468897,31.132397
192702673000.0,6.07561378129049,1.85601442381446,7.62219536190723,0.0012217305,0.040011674,-0.02687807,35.08128,-20.449402,31.156446
192708055000.0,6.048901032961908,1.847110158875356,7.617743229437678,0.0021380284,0.046120327,-0.025961773,35.06034,-20.430668,31.178894
192712686000.0,6.025915760291959,1.8394483879847976,7.613912343992398,0.008246681,0.05222898,-0.038789943,35.048584,-20.42627,31.190712
192717670000.0,5.973074942585551,1.8202972979721168,7.581274603802282,0.00030543262,0.04917465,-0.03573562,35.032116,-20.415985,31.20524
192722988000.0,5.912952723732252,1.7979890879700422,7.53978442571384,0.0036651916,0.04184427,-0.03634648,35.020397,-20.41229,31.217373
192727718000.0,5.8493414194726165,1.7697173930878454,7.4620373662661885,0.005497787,0.03940081,-0.043066,35.00911,-20.406187,31.224272
192732719000.0,5.782085577484787,1.739825903424871,7.3798358769854895,0.0061086523,0.0290161,-0.04520403,34.996437,-20.40141,31.229242
192737666000.0,5.731223170117187,1.72594818203125,7.335834,-0.009773844,0.019547688,-0.038179077,34.98334,-20.392803,31.234915
192743524000.0,5.6928730637500005,1.731426785,7.335834,0.008246681,0.004276057,-0.05375614,34.980106,-20.396404,31.2419
192747663000.0,5.673272564088836,1.74302534629189,7.3300600042831645,0.004886922,-0.0015271631,-0.048563786,34.974884,-20.386795,31.250437
192752712000.0,5.658890172714655,1.7669958817767202,7.315677713027959,0.003970624,-0.004886922,-0.038789943,34.974735,-20.3839,31.26085
192757695000.0,5.653842581000373,1.7883391147069805,7.312393361030235,0.0076358155,0.007330383,-0.040011674,34.978855,-20.38316,31.262447
192762672000.0,5.662738573721538,1.8061307285927584,7.325737071444569,0.0076358155,0.0027488936,-0.03726278,34.981518,-20.379284,31.270744
192767647000.0,5.66947,1.82778891224562,7.34402961224562,0.01282817,0.016187929,-0.032986723,34.98244,-20.384045,31.268627
192772665000.0,5.66947,1.861805109308087,7.378045809308087,0.017104227,0.022907447,-0.035430185,34.98605,-20.389187,31.268942
192778031000.0,5.668766008369821,1.8973810136662173,7.414325702846075,0.019547688,0.04917465,-0.03390302,34.98373,-20.397053,31.260569
192782686000.0,5.657504561502189,1.916150000319973,7.444356097170765,0.02321288,0.05100725,-0.024129177,34.981983,-20.40516,31.257587
192787641000.0,5.6455173500673625,1.9361285886914783,7.4763218552542945,0.017104227,0.080634214,-0.024740042,34.981297,-20.41847,31.233824
192792682000.0,5.645571932718895,1.956173131797235,7.520474513133641,0.012217305,0.081855945,-0.028099801,34.982037,-20.43154,31.218166
192797658000.0,5.653414947333772,1.9757806683344303,7.571454190026333,0.016493361,0.102319926,-0.027183503,34.97503,-20.444487,31.19064
192802723000.0,5.654122731335437,1.9938992161934803,7.624140389064142,0.013744468,0.10567969,-0.022602014,34.969864,-20.455618,31.160978
192807692000.0,5.624099207781283,2.00390702254469,7.679183323995794,0.008857546,0.089491755,-0.025350908,34.96664,-20.46794,31.13106
192813244000.0,5.585177024285933,2.0096914903619982,7.733285496380021,0.009773844,0.08368854,-0.015577064,34.95902,-20.479618,31.093882
192817657000.0,5.546445484191233,2.0064638732549263,7.765561667450741,0.016798794,0.07941248,-0.018325957,34.9581,-20.493605,31.059555
192822666000.0,5.502483035894303,2.002800348648236,7.802196913517642,0.013439035,0.0729984,-0.017715093,34.95729,-20.502567,31.01838
192827726000.0,5.490251189452125,2.0070348644137224,7.800968738965694,0.01985312,0.055588737,-0.013744468,34.958393,-20.515017,30.982197
192832686000.0,5.494304946065881,2.0151422083290664,7.780700379177333,0.018325957,0.047036625,-0.01985312,34.96203,-20.525856,30.945131
192837681000.0,5.497087,2.0207062,7.762008011801631,0.023518313,0.036651913,-0.016493361,34.968437,-20.534674,30.900568
192842662000.0,5.497087,2.0207062,7.747035619836786,0.030543262,0.032375857,-0.01160644,34.976456,-20.543877,30.857084
192847650000.0,5.491724991908269,2.026068208091731,7.730910693204064,0.024740042,0.025961773,-0.009162978,34.98171,-20.552822,30.821331
192852713000.0,5.478164628787172,2.0396285712128277,7.712830303439918,0.028710667,0.020158553,-0.01282817,34.987766,-20.565563,30.787188
192857691000.0,5.463126025689977,2.054667201618593,7.698445329113924,0.029626964,0.019547688,-0.014049901,34.99587,-20.57671,30.755816
192862664000.0,5.443360337206889,2.0744329932973646,7.693503803797468,0.025350908,0.027794369,-0.009468411,35.00272,-20.5868,30.724554
192867636000.0,5.42720582442371,2.100540223710208,7.685910592096597,0.010079277,0.024129177,-0.007941248,35.01606,-20.597849,30.696423
192872655000.0,5.418412290340285,2.1401115402854005,7.6727201532382,0.010995574,0.009773844,-0.018936822,35.031937,-20.61255,30.668667
192877732000.0,5.408361283016648,2.177737255624685,7.659544558954095,0.01740966,0.017104227,-0.011301007,35.042347,-20.628958,30.633554
192882747000.0,5.3922093063057,2.201965094198756,7.647430555338826,0.0067195175,0.00580322,-0.01863139,35.06478,-20.644953,30.604692
192887641000.0,5.376447038305028,2.2256083727593747,7.635608833764923,-0.0021380284,0.00580322,-0.01985312,35.081993,-20.669508,30.571394
192892659000.0,5.375685474291036,2.231396,7.617230563870312,-0.0027488936,0.00030543262,-0.010995574,35.10021,-20.692303,30.543505
192897634000.0,5.379718707170067,2.231396,7.597064315245915,-0.003970624,-0.0012217305,-0.018020526,35.122627,-20.714806,30.513252
192902712000.0,5.388365382820029,2.2210627672323486,7.5848308,-0.013744468,-0.0106901415,-0.0076358155,35.141914,-20.737291,30.48717
192907681000.0,5.403320584098052,2.196137605279698,7.5848308,-0.015577064,-0.011911872,-0.007330383,35.164948,-20.763271,30.457993
192912663000.0,5.432760856951735,2.1592176581249354,7.572683679798291,-0.013133603,-0.0021380284,0.0033597588,35.186024,-20.785362,30.435087
192917666000.0,5.4771380899454565,2.1099095070495006,7.548029707234743,-0.014049901,0.006414085,0.005192355,35.209476,-20.80689,30.412271
192922658000.0,5.503806601568895,2.0698250157060025,7.527987484464529,-0.01740966,0.004886922,0.005497787,35.223263,-20.821049,30.39467
192927753000.0,5.516287961391542,2.0365413026261936,7.511345584481583,-0.01282817,-0.0030543262,0.0061086523,35.235867,-20.836153,30.377192
192932674000.0,5.530429114525923,2.0138964287155536,7.504173657431107,0.0021380284,0.0027488936,0.0143553335,35.237663,-20.843063,30.369593
192937666000.0,5.552758580009342,2.027294108005605,7.53096901601121,-0.007330383,0.0067195175,0.0106901415,35.244102,-20.846811,30.363306
192942734000.0,5.573995619006686,2.0398598,7.557865763196434,-0.0030543262,0.008552114,0.0106901415,35.243927,-20.85033,30.362772
192947671000.0,5.5777587258357215,2.0398598,7.580445032887615,-0.011301007,0.008857546,0.02107485,35.241383,-20.847511,30.362413
192952690000.0,5.581584335148042,2.0398598,7.603399327921044,-0.01038471,0.0143553335,0.010995574,35.246593,-20.852713,30.357946
192957697000.0,5.58587380973236,2.047647066569343,7.631731834452554,-0.013439035,0.01160644,0.005192355,35.248436,-20.85266,30.357323
192962789000.0,5.590619900632603,2.0618850419270074,7.664953677839416,-0.013744468,0.005497787,0.018325957,35.247257,-20.852026,30.357288
192967729000.0,5.599507639533613,2.0708077465112043,7.68946923235562,-0.013744468,0.010995574,0.01985312,35.2474,-20.852709,30.349878
192972678000.0,5.612459611623247,2.075125070541082,7.706738618637274,-0.022296581,0.011911872,0.017104227,35.24634,-20.849842,30.346407
192977690000.0,5.62297430299572,2.069833407988588,7.7189064,-0.012217305,0.018325957,0.01282817,35.244,-20.853062,30.33629
192982683000.0,5.627521708017119,2.042548408045649,7.7189064,-0.021685716,0.025961773,0.01282817,35.240913,-20.849195,30.32602
192987663000.0,5.631162,2.017860946806367,7.7189064,-0.019242255,0.02076942,0.009162978,35.23821,-20.849201,30.3183
192992725000.0,5.631162,2.0032091953657063,7.7189064,-0.032986723,0.025961773,0.004581489,35.233353,-20.843054,30.306076
192998509000.0,5.638869693254388,1.981698982970325,7.71762179787129,-0.028099801,0.020158553,0.003970624,35.229942,-20.836792,30.300032
193002770000.0,5.656127959653204,1.9586882013815463,7.714745450172693,-0.022602014,0.032070424,0.010079277,35.222775,-20.82703,30.288544
193007852000.0,5.6767115104250365,1.931243753591316,7.711314894198915,-0.03145956,0.021380283,-0.0033597588,35.2254,-20.816013,30.282467
193012737000.0,5.701939134586697,1.8982411499540208,7.6941115778890365,-0.013133603,0.02321288,-0.004276057,35.219147,-20.81004,30.272484
193017726000.0,5.736112076897926,1.854304458863799,7.655056684724635,-0.016493361,0.007330383,-0.0076358155,35.221554,-20.79917,30.26829
193022723000.0,5.751918302379867,1.8198133559496672,7.628972341460746,-0.008552114,0.010995574,-0.004581489,35.21727,-20.787249,30.266342
193027777000.0,5.743091613732105,1.7977466343302635,7.6201457449803955,-0.0018325958,0.009468411,-0.003970624,35.217545,-20.775146,30.26928
193032684000.0,5.7365074,1.7862405187824189,7.611579791100191,-0.01160644,0.0027488936,-0.005192355,35.206215,-20.754435,30.283907
193037732000.0,5.7365074,1.808236918090818,7.602781047629447,0.004886922,-0.005497787,0.0030543262,35.192432,-20.740425,30.300287
193042867000.0,5.734272306892296,1.8300082599153888,7.593848826723074,0.009468411,-0.005192355,0.0018325958,35.18187,-20.722448,30.312904
193047668000.0,5.701853328009872,1.8421653769962985,7.585744082002468,0.005192355,-0.014049901,-0.0021380284,35.172207,-20.705778,30.330435
193052744000.0,5.667577398660321,1.85501885050238,7.57717509966508,0.0012217305,-0.013744468,0.0015271631,35.162277,-20.691927,30.348003
193057762000.0,5.642564938817385,1.8648316665734004,7.5821851665734,0.011911872,-0.01740966,0.0033597588,35.155914,-20.681692,30.367908
193062731000.0,5.620373408916247,1.8737082043835105,7.5910617043835105,0.0018325958,-0.022602014,0.0018325958,35.1497,-20.66569,30.387827
193068506000.0,5.591750986953379,1.8905592576255876,7.607912792880376,0.004886922,-0.019547688,0.00061086525,35.14449,-20.65957,30.399937
193072688000.0,5.570039726635345,1.90503351933502,7.622387092374413,0.0033597588,-0.005497787,-0.005497787,35.140476,-20.651073,30.409521
193077713000.0,5.544862049157581,1.9231101606739347,7.62884066011893,0.008857546,0.0009162979,0.00580322,35.137318,-20.643908,30.416803
193082694000.0,5.521223773240832,1.942020781407334,7.619385448483647,0.0033597588,0.0018325958,-0.0067195175,35.142036,-20.638433,30.4183
193087663000.0,5.501164365461686,1.9573349975027687,7.624560792508307,0.0033597588,0.013439035,-0.005192355,35.136745,-20.633904,30.410849
193092666000.0,5.486690577142282,1.9669841225455644,7.653508167636693,-0.0036651916,0.02107485,-0.007941248,35.136974,-20.628956,30.402378
193097679000.0,5.4743846872096285,1.976370949846068,7.6710224,-0.0018325958,0.025045475,-0.007330383,35.135498,-20.62964,30.388859
193102713000.0,5.465389611586902,1.985366119395466,7.6710224,-0.0027488936,0.026572637,-0.016493361,35.13715,-20.629837,30.372835
193107654000.0,5.461189452324521,1.9919758,7.668612947675479,-0.015271631,0.023823744,-0.016493361,35.137974,-20.626554,30.352402
193112666000.0,5.470912620642156,1.9919758,7.658889779357844,-0.022907447,0.021685716,-0.019547688,35.142178,-20.625956,30.330462
193117634000.0,5.48159426515538,1.995636639671295,7.655529788703126,-0.015271631,0.02321288,-0.02565634,35.14498,-20.62735,30.306835
193122663000.0,5.495241775063757,2.009284054576367,7.669177013601587,-0.009162978,0.019547688,-0.013744468,35.144238,-20.624144,30.28734
193127741000.0,5.512028399806623,2.020035646523245,7.680599,-0.0018325958,0.0076358155,-0.009162978,35.145443,-20.624828,30.271482
193132690000.0,5.542578934493594,2.016216809749416,7.680599,0.0067195175,0.002443461,-0.004581489,35.14265,-20.62534,30.256605
193138342000.0,5.577469138989606,2.011855511417292,7.680599,0.005192355,-0.01740966,-0.0015271631,35.14198,-20.625471,30.25032
193142663000.0,5.60077052742502,2.0111294,7.677683670089165,0.018325957,-0.02076942,-0.0033597588,35.13987,-20.631083,30.24132
193147673000.0,5.626698800324236,2.0111294,7.673362426641448,0.011911872,-0.027183503,0.0067195175,35.136295,-20.62916,30.24021
193152705000.0,5.642764765745555,2.013154808043776,7.66697162621067,0.014966198,-0.028099801,0.0067195175,35.134163,-20.632393,30.244537
193157705000.0,5.6471316604103965,2.0175217939078887,7.658237745681714,0.014049901,-0.03145956,0.01038471,35.129005,-20.630835,30.252777
193162647000.0,5.651564922519622,2.024452889313745,7.654366766794123,0.020463986,-0.020463986,0.0143553335,35.1195,-20.632856,30.262102
193167664000.0,5.656399678909238,2.0389568555846247,7.664035976675387,0.016187929,-0.023518313,0.012217305,35.112984,-20.632174,30.275635
193172635000.0,5.6624674703015785,2.048149364849211,7.6710224,0.013133603,-0.02565634,0.0067195175,35.10636,-20.634716,30.287697
193177709000.0,5.672172420011983,2.0432968899940085,7.6710224,0.01160644,-0.018020526,0.010995574,35.0964,-20.635065,30.298874
193182641000.0,5.676506707353816,2.037319907353816,7.667212561030723,0.009468411,-0.006414085,0.009468411,35.0887,-20.638176,30.307343
193187685000.0,5.6669318056293365,2.027745005629336,7.652850208444004,0.0061086523,0.0027488936,0.008246681,35.078808,-20.639553,30.315016
193192659000.0,5.656589626464445,2.0207062,7.645595304549996,-0.0030543262,0.006414085,0.00061086525,35.07149,-20.63844,30.322517
193197669000.0,5.643517034510944,2.0207062,7.658667623503769,-0.0018325958,0.0061086523,-0.004276057,35.06296,-20.638483,30.328926
193202699000.0,5.631162,2.019948785522788,7.6710224,-0.005497787,0.0076358155,0.00030543262,35.055214,-20.631826,30.335863
193207996000.0,5.631162,2.006348702520107,7.6710224,-0.005497787,0.008246681,-0.010079277,35.053535,-20.629177,30.34087
193212669000.0,5.631162,1.994350743699732,7.6710224,-0.013133603,0.01038471,-0.0030543262,35.0424,-20.618658,30.344059
193217666000.0,5.634916975235894,1.9769568400154052,7.656003361602157,-0.009162978,0.01038471,0.00030543262,35.03566,-20.612902,30.346165
193222638000.0,5.639501881147699,1.9586183652994416,7.637664791141922,-0.0070249503,0.012217305,0.002443461,35.026608,-20.60385,30.348076
193227741000.0,5.637506243066152,1.950435645615295,7.629482113131676,-0.0021380284,0.0076358155,0.0021380284,35.01518,-20.593828,30.352001
193232767000.0,5.633185624414326,1.94611529763935,7.625161855381025,-0.0067195175,0.012217305,0.004886922,35.000755,-20.581156,30.353811
193237740000.0,5.626418028503878,1.9559518525818045,7.6231384,-0.016187929,0.015271631,0.003970624,34.987938,-20.56719,30.360023
193242727000.0,5.617384738755438,1.9785353127671648,7.6231384,-0.008552114,0.008552114,0.007941248,34.97361,-20.555088,30.368526
193247681000.0,5.603037972323366,1.9919758,7.644667906423923,-0.0036651916,0.014660766,0.0067195175,34.954777,-20.539469,30.372408
193252701000.0,5.580362971851712,1.9919758,7.699087907555891,-0.008857546,0.0061086523,0.0009162979,34.939262,-20.523521,30.381777
193257690000.0,5.5641246,1.9919758,7.73806,-0.0061086523,0.003970624,0.011301007,34.920467,-20.513865,30.386667
193262739000.0,5.5641246,1.9919758,7.73806,-0.007941248,0.0009162979,0.0106901415,34.908123,-20.50438,30.392168
193267640000.0,5.561319989213329,1.9919758,7.736657665321196,-0.005497787,0.0030543262,0.017715093,34.89271,-20.490873,30.388693
193272733000.0,5.552942345379595,1.9919758,7.732468755925798,-0.00061086525,0.0030543262,0.009162978,34.88301,-20.479994,30.384935
193277871000.0,5.546375067949791,1.99150777897908,7.726844931313807,0.00061086525,-0.0030543262,-0.0018325958,34.875,-20.467598,30.383526
193282698000.0,5.569585465188285,1.983771006828452,7.699766309573222,-0.003970624,0.005192355,-0.004276057,34.865112,-20.454912,30.378595
193287642000.0,5.593358451297071,1.975846705707113,7.672031338393306,-0.004581489,0.004581489,-0.0076358155,34.86062,-20.446737,30.37446
193292667000.0,5.602432,1.975276426084116,7.644265914904043,-0.0036651916,0.018020526,-0.008857546,34.853203,-20.437729,30.364756
193297661000.0,5.602432,1.979182227570437,7.616925141363822,-0.01160644,0.023518313,-0.008246681,34.84736,-20.426523,30.35743
193302767000.0,5.604788785625774,1.9847558184386616,7.599121286096654,-0.005497787,0.024129177,-0.004276057,34.836926,-20.417978,30.357521
193307692000.0,5.616477777777778,1.9964449733333332,7.62249984,-0.0036651916,0.029932396,-0.0036651916,34.82593,-20.406832,30.354708
193312681000.0,5.628318667492771,2.0082860279058243,7.646182196431226,-0.0030543262,0.027794369,-0.005497787,34.81689,-20.39801,30.35865
193323520000.0,5.6234699229692575,2.0188216376739145,7.613407811630426,-0.008552114,0.024129177,0.0027488936,34.804203,-20.386623,30.362722
193327726000.0,5.615972638309143,2.018835279436381,7.615210484309778,-0.015271631,0.015577064,0.005497787,34.79484,-20.37631,30.367794
193332752000.0,5.600674514524844,2.0137359048416146,7.645806625384045,-0.005192355,0.016187929,0.004276057,34.785027,-20.369589,30.370588
193342662000.0,5.558836182231685,2.017933163553663,7.647838072892674,0.0018325958,0.00580322,0.01160644,34.776394,-20.360628,30.38186
193347675000.0,5.544971,2.0221128947307214,7.646512084192166,0.00030543262,0.009773844,0.011911872,34.768215,-20.353144,30.388311
193352784000.0,5.544971,2.025668957758558,7.657180273275674,-0.004276057,0.010079277,0.007941248,34.756027,-20.342,30.393923
193357854000.0,5.544971,2.029197875267098,7.667767025801294,-0.01038471,0.004886922,0.014966198,34.743988,-20.329773,30.398392
193362728000.0,5.557602821844226,2.023967056102656,7.677338343897344,-0.010079277,0.021991149,0.0143553335,34.732525,-20.319746,30.395712
193367707000.0,5.57657532288869,2.01448075605292,7.68682464394708,-0.016493361,0.020463986,0.011911872,34.72278,-20.305872,30.399925
193372722000.0,5.574331473603673,1.9992005320581483,7.702104805661821,-0.01985312,0.023518313,0.016187929,34.70515,-20.29543,30.394941
193377778000.0,5.560439078806427,1.98067708110176,7.720628159908187,-0.01038471,0.032070424,0.018325957,34.68853,-20.287142,30.38869
193382729000.0,5.554548,1.9646687036093415,7.731200888888889,-0.02107485,0.030848695,0.01863139,34.671078,-20.272938,30.385593
193387732000.0,5.554548,1.9501364832878372,7.736045063492063,-0.027488936,0.032986723,0.012217305,34.653633,-20.262648,30.37918
193393574000.0,5.560087521485697,1.933012641341126,7.729750631005844,-0.01282817,0.023823744,0.011911872,34.637947,-20.249289,30.373446
193397678000.0,5.566132242617656,1.9209230728391264,7.720683454629345,-0.01740966,0.01863139,0.01038471,34.62397,-20.23098,30.365597
193403082000.0,5.573961607013227,1.905003959940531,7.70802853776274,-0.009468411,0.024740042,0.014660766,34.607605,-20.217392,30.356812
193407698000.0,5.578494118609658,1.8914060938480468,7.685365506490311,-0.002443461,0.016187929,0.0106901415,34.596992,-20.204012,30.352419
193412889000.0,5.583575098414859,1.8764599155791115,7.662336876631334,0.005192355,0.014966198,0.007330383,34.576286,-20.187124,30.349989
193417733000.0,5.588086523874356,1.8674372530876204,7.67587087036857,0.007941248,0.018325957,0.0106901415,34.555515,-20.170397,30.34912
193423048000.0,5.592855,1.8582247145833333,7.689851785416667,0.011301007,0.007941248,0.0076358155,34.54334,-20.157862,30.354265
193427786000.0,5.592855,1.8661022976388888,7.681974202361111,0.01282817,0.004276057,0.01160644,34.526802,-20.143934,30.358109
193432719000.0,5.592855,1.8743040952777776,7.673772404722222,0.01740966,0.00030543262,0.0076358155,34.514446,-20.13064,30.363176
193437697000.0,5.606045973583342,1.8737563393867191,7.66442694764322,0.0125227375,-0.004276057,0.00580322,34.500896,-20.114521,30.370121
193442756000.0,5.626122127421527,1.868737274722884,7.654388923132704,0.021991149,-0.00061086525,0.0033597588,34.48827,-20.103672,30.375486
193447728000.0,5.62054420425277,1.899331167684936,7.644790223120695,0.016187929,-0.010995574,0.0015271631,34.482082,-20.092703,30.385187
193452695000.0,5.606298231406609,1.9420697308375765,7.635292577318559,0.028099801,-0.0015271631,-0.0015271631,34.473866,-20.0887,30.388365
193457727000.0,5.612796406580494,1.960578300587544,7.622350593419506,0.02443461,-0.0036651916,0.005497787,34.463432,-20.078518,30.402027
193463549000.0,5.629175770074422,1.9714980282804544,7.6059712299255775,0.026267206,0.00580322,-0.002443461,34.45565,-20.07512,30.408117
193472731000.0,5.645884889634534,2.0096286554275866,7.611346137353768,0.014660766,-0.0012217305,0.0012217305,34.4518,-20.072392,30.419365
193477708000.0,5.647860876719856,2.023161374553524,7.618471897833667,0.016493361,-0.0009162979,0.008552114,34.446865,-20.073624,30.425833
193482791000.0,5.642716857085491,2.028305501616823,7.628760044531333,0.015577064,0.0125227375,0.007941248,34.442673,-20.0738,30.434305
193487676000.0,5.645936992963614,2.0250854070363853,7.630116257790945,0.02107485,0.007330383,0.011301007,34.43767,-20.078943,30.448486
193492661000.0,5.654776979631516,2.0162454203684845,7.625696356763263,0.017104227,0.015577064,0.0061086523,34.431786,-20.082582,30.454628
193497660000.0,5.64840949139724,2.007301577122329,7.6231384,0.021991149,0.0018325958,0.004276057,34.42917,-20.088516,30.466917
193502733000.0,5.620852330024579,1.9981158886367931,7.6231384,0.028710667,0.009162978,0.0070249503,34.42271,-20.093609,30.471554
193507774000.0,5.594276694467382,1.9870826166804292,7.629662644426094,0.025045475,0.006414085,0.0070249503,34.41855,-20.097176,30.483578
193512668000.0,5.5700875639966965,1.9725691383980184,7.649013948802643,0.022907447,0.0033597588,0.005192355,34.41303,-20.102148,30.493916
193517646000.0,5.556179081389302,1.9648765154531944,7.667970095876672,0.0290161,-0.0018325958,0.0021380284,34.41145,-20.10653,30.501049
193522660000.0,5.560638319167905,1.969335846359584,7.685807512630015,0.029932396,-0.007330383,0.0027488936,34.40959,-20.10849,30.509365
193527738000.0,5.558250694067797,1.9716474188135595,7.703277294491525,0.03023783,-0.00061086525,0.0027488936,34.408405,-20.107801,30.510227
193533019000.0,5.531463045338983,1.9662898890677964,7.7193496599576275,0.029321533,-0.0033597588,0.0018325958,34.409096,-20.106773,30.5151
193537632000.0,5.505653296071324,1.9632454,7.733020447555599,0.016493361,-0.005497787,-0.0021380284,34.41,-20.101889,30.517153
193542656000.0,5.472656636680709,1.9632454,7.747161971450965,0.017715093,-0.0070249503,0.005192355,34.40785,-20.098291,30.521093
193547628000.0,5.451679850064611,1.9620069749676945,7.758452025032306,0.015882496,0.0012217305,-0.00580322,34.41033,-20.090162,30.516512
193552716000.0,5.460675005759645,1.957509397120177,7.762949602879822,0.005497787,-0.0009162979,-0.003970624,34.408165,-20.077051,30.517525
193557690000.0,5.468990018212408,1.95683569106204,7.764256713922187,0.0070249503,-0.003970624,-0.00580322,34.408806,-20.068907,30.506937
193562664000.0,5.473998956508938,1.98188038254469,7.744220856130389,0.0012217305,0.004886922,0.00030543262,34.405113,-20.054893,30.495262
193567681000.0,5.476892647307618,2.002593352692383,7.722238505580576,0.00030543262,0.010079277,-0.011301007,34.409058,-20.041603,30.486652
193572664000.0,5.472220511572352,2.0072654884276484,7.694205788740944,-0.003970624,0.02443461,-0.008552114,34.40437,-20.022999,30.475922
193577699000.0,5.470136952649242,2.0146901424794064,7.669242047350758,-0.0143553335,0.013744468,-0.015882496,34.4097,-20.012117,30.469917
193582699000.0,5.479876299745754,2.034169040069155,7.659502700254245,-0.008552114,0.0106901415,-0.010079277,34.40722,-20.001541,30.460327
193587676000.0,5.485489429933194,2.04741600883438,7.652879274483996,-0.008857546,0.007941248,-0.0076358155,34.412514,-19.991585,30.454748
193592662000.0,5.475967159278094,2.037893638747632,7.657640360095723,-0.009162978,0.0061086523,-0.005192355,34.416138,-19.981983,30.450642
193602758000.0,5.474027513255814,2.024612086744186,7.650103773488373,-0.0070249503,0.005192355,-0.0018325958,34.422066,-19.975168,30.450756
193607715000.0,5.477207840757623,2.017803963030487,7.643017574394815,-0.003970624,0.005497787,-0.00061086525,34.42774,-19.96828,30.451202
193612658000.0,5.472413135764206,1.9986251430568216,7.647812379519903,0.0012217305,0.004886922,0.0033597588,34.432877,-19.96061,30.450447
193617667000.0,5.469091499656677,1.9809292006866477,7.651869,-0.0027488936,-0.008246681,0.007941248,34.43576,-19.94773,30.45692
193622652000.0,5.473521336160341,1.972069527679317,7.651869,0.010995574,-0.002443461,0.008857546,34.435997,-19.940252,30.45869
193627921000.0,5.478229653831281,1.9626528799633665,7.652757767680879,0.0033597588,-0.0036651916,0.009468411,34.433594,-19.923138,30.46446
193632750000.0,5.482935606960416,1.9532407771446016,7.666875725348529,0.006414085,-0.009162978,0.0125227375,34.429913,-19.91137,30.470274
193637771000.0,5.489104670333028,1.9447296681332111,7.680599,0.018325957,-0.006414085,0.011301007,34.426167,-19.897327,30.476007
193642722000.0,5.51324905204196,1.954387420816784,7.680599,0.009773844,0.0012217305,0.015271631,34.419956,-19.877916,30.482788
193648936000.0,5.541933586285714,1.9645533172571428,7.684522779085714,0.013133603,-0.0036651916,0.014049901,34.417423,-19.862719,30.491116
193652772000.0,5.556928118857143,1.9675522237714285,7.693519561257143,0.010995574,0.003970624,0.014660766,34.410503,-19.843376,30.4948
193657733000.0,5.576320161632653,1.9714306323265305,7.705154867918368,0.005192355,-0.004276057,0.018020526,34.40479,-19.82393,30.508852
193662733000.0,5.573616318537859,1.9728222,7.715770743394255,0.013439035,0.0018325958,0.016798794,34.39744,-19.808113,30.516596
193667747000.0,5.558571700261096,1.9728222,7.725800523822454,0.005497787,-0.01038471,-0.0012217305,34.39772,-19.789263,30.52969
193672725000.0,5.54771560513927,1.9591576956453511,7.714818566987054,-0.0018325958,-0.0033597588,0.005497787,34.390427,-19.767757,30.542446
193677773000.0,5.538232534131032,1.940191949705767,7.695852920066692,-0.00061086525,-0.0061086523,0.003970624,34.39388,-19.7506,30.557816
193682701000.0,5.54188955557761,1.934515,7.686928222211195,-0.004581489,-0.004276057,0.0027488936,34.39686,-19.730078,30.566957
193687728000.0,5.55144564509726,1.934515,7.682150177451369,-0.0067195175,-0.006414085,-0.0070249503,34.403652,-19.712013,30.576597
193692691000.0,5.551599119707894,1.9492590935477907,7.674701424163431,-0.0067195175,-0.004276057,0.0036651916,34.40389,-19.689795,30.586843
193697665000.0,5.547195718154927,1.971275641523387,7.665894896931041,0.008857546,-0.008552114,0.005192355,34.41084,-19.673897,30.597101
193702773000.0,5.539985184772796,1.9898777228408069,7.671417282515799,-0.00061086525,-0.004581489,0.00061086525,34.416245,-19.651217,30.60773
193707745000.0,5.530432401223794,2.004206898164309,7.690522949363026,0.0009162979,-0.005497787,0.005192355,34.419373,-19.63341,30.621782
193712713000.0,5.5258174,2.0111294,7.6949092861929635,0.0018325958,-0.00061086525,0.004886922,34.42496,-19.620857,30.630611
193718606000.0,5.5258174,2.0111294,7.683785355770178,-0.0030543262,-0.0070249503,0.0067195175,34.42986,-19.606245,30.643297
193722664000.0,5.532230238764362,2.0132669980410625,7.680599,-0.006414085,-0.003970624,0.0018325958,34.44166,-19.592627,30.64968
193727797000.0,5.546119311075532,2.0178966565831606,7.680599,-0.006414085,-0.0036651916,0.005497787,34.45116,-19.577084,30.659506
193732739000.0,5.558203794170497,2.017050367655662,7.687910702862515,0.005497787,-0.00061086525,0.01038471,34.46272,-19.567526,30.66671
193737733000.0,5.56819669843293,2.007057359047221,7.707896824425407,0.0009162979,0.0012217305,0.01863139,34.471874,-19.552876,30.67486
193742681000.0,5.571730233651865,1.9976102673037288,7.707079401911186,0.009162978,-0.0067195175,0.016798794,34.488773,-19.544153,30.68851
193747682000.0,5.567243295596778,1.9886363911935545,7.680157773580664,0.01282817,-0.006414085,0.019242255,34.50014,-19.531298,30.70071
193752797000.0,5.561063087380535,1.976275974761069,7.662976356309733,0.023823744,0.004276057,0.018020526,34.50711,-19.519741,30.710827
193757754000.0,5.551803832923738,1.957757465847474,7.667605983538132,0.010995574,-0.008246681,0.02076942,34.514824,-19.502378,30.727509
193762642000.0,5.544971,1.9452943996937213,7.666211976110261,0.017715093,-0.015882496,0.017104227,34.518906,-19.494478,30.740389
193767730000.0,5.544971,1.950269055987749,7.646313247044411,0.017104227,-0.028099801,0.01038471,34.525124,-19.481815,30.757555
193772662000.0,5.544971,1.9510841162756192,7.630130543262543,0.015577064,-0.008246681,0.015882496,34.52274,-19.461878,30.769672
193777773000.0,5.544971,1.94200556210702,7.6210520838913105,0.0106901415,-0.01282817,0.0125227375,34.529644,-19.443565,30.7894
193782732000.0,5.54634294431895,1.9379448607973744,7.615619516478424,0.012217305,-0.010079277,0.014049901,34.528988,-19.428423,30.803577
193788493000.0,5.55699492709721,1.9645748177430251,7.631597490645816,0.015577064,-0.0070249503,0.01282817,34.53059,-19.413603,30.817976
193792781000.0,5.565733309711287,1.983203350656168,7.643498525984252,0.02076942,-0.0076358155,0.008246681,34.532,-19.397951,30.834074
193797683000.0,5.583987696296297,1.9923304962962964,7.657189244444445,0.023823744,-0.0036651916,0.0106901415,34.53051,-19.381811,30.84858
193802926000.0,5.602432,2.002565094349253,7.672794265111192,0.025961773,0.004581489,0.011301007,34.52945,-19.372154,30.85955
193807690000.0,5.602432,2.019197932555596,7.701901731972293,0.02076942,-0.0067195175,0.0125227375,34.529316,-19.360947,30.874857
193812639000.0,5.602432,2.036476672329566,7.73213952657674,0.032375857,-0.014966198,0.01160644,34.526005,-19.355717,30.887707
193817663000.0,5.602432,2.047190413308164,7.734394616800377,0.027488936,-0.01740966,0.01985312,34.520107,-19.343616,30.903013
193822633000.0,5.602432,2.056175160075507,7.729902149598868,0.025961773,-0.01160644,0.017104227,34.517742,-19.336864,30.91683
193827710000.0,5.587890158295809,2.0590134,7.722666324056114,0.028099801,-0.016493361,0.01740966,34.514458,-19.328756,30.931532
193832758000.0,5.566958531001039,2.0590134,7.7142937605646,0.029626964,-0.010995574,0.022296581,34.508495,-19.319895,30.941996
193837690000.0,5.548756479738018,2.0590134,7.7093296,0.02107485,-0.01863139,0.028099801,34.50575,-19.313602,30.955679
193842661000.0,5.533908801954465,2.0590134,7.7093296,0.017715093,-0.025961773,0.030848695,34.50162,-19.308525,30.967953
193847659000.0,5.5217257404013065,2.0528758465142323,7.711375451161922,0.024129177,-0.015271631,0.021991149,34.495968,-19.304802,30.973494
193852707000.0,5.512702281399907,2.0393405166775547,7.715887227774148,0.00061086525,-0.015882496,0.015271631,34.491177,-19.292252,30.984425
193858255000.0,5.504741690315419,2.0225939218388675,7.720828629395985,-0.0061086523,-0.0106901415,0.016493361,34.48203,-19.285856,30.98755
193862661000.0,5.500838604384423,2.0069819041531773,7.724731552307834,-0.0009162979,-0.0061086523,0.014049901,34.47623,-19.27824,30.989931
193867686000.0,5.497718432982807,1.988818701018194,7.725957334001001,0.0015271631,-0.007330383,0.020158553,34.467026,-19.263042,30.992638
193872668000.0,5.501700457185779,1.9689089957936905,7.710029652979469,0.01160644,-0.0027488936,0.02076942,34.45898,-19.252203,30.991858
193877694000.0,5.505717649808045,1.948823452144884,7.693961301952929,0.0027488936,0.0030543262,0.017715093,34.44987,-19.23409,30.990318
193882687000.0,5.517433862218286,1.933321787835843,7.672225979726405,-0.005192355,-0.0018325958,0.0076358155,34.44364,-19.219677,30.989851
193887639000.0,5.53143553134534,1.9193199237673455,7.648889539612243,-0.0030543262,-0.0009162979,0.0061086523,34.434364,-19.20479,30.987106
193892732000.0,5.551767667777778,1.8989876980277776,7.642292,-0.0021380284,0.005192355,0.012217305,34.420418,-19.187504,30.985165
193897635000.0,5.573506117037037,1.8772492033703705,7.642292,-0.0106901415,0.0012217305,0.008552114,34.41125,-19.170305,30.984573
193902706000.0,5.596834179322602,1.8756110075935617,7.634158292406438,-0.00580322,0.0033597588,0.005192355,34.394318,-19.150318,30.989365
193907698000.0,5.62043810230078,1.889773361380468,7.619995938619532,0.0030543262,0.002443461,0.0033597588,34.37917,-19.129858,30.995764
193912669000.0,5.644329047182096,1.8883075706815868,7.624095160752797,0.007330383,-0.009162978,0.0033597588,34.36386,-19.107428,31.00774
193917667000.0,5.668675662726348,1.87369978439471,7.643572310824008,0.007330383,-0.005497787,0.009773844,34.34551,-19.085615,31.01637
193922661000.0,5.689810693860338,1.875550328246371,7.649177934386033,0.0021380284,-0.009468411,0.009162978,34.329414,-19.066193,31.03528
193927783000.0,5.70905456428011,1.8899831557081208,7.644366891428011,0.011301007,-0.005497787,0.0015271631,34.312244,-19.050535,31.050838
193932659000.0,5.719820517836794,1.9134737111926603,7.647225138696283,0.0033597588,-0.0036651916,0.009162978,34.291847,-19.02575,31.070744
193937780000.0,5.724556565021729,1.946626783302752,7.656697430883631,0.0106901415,-0.00061086525,0.002443461,34.277725,-19.01045,31.086653
193942743000.0,5.720331183108043,1.96984477095197,7.66804497095197,0.00061086525,-0.002443461,0.0018325958,34.26127,-18.988918,31.108929
