timestamp,acc_x,acc_y,acc_z,gyro_x,gyro_y,gyro_z,ori_azimuth,ori_pitch,ori_roll
219477808000.0,3.8099192970163154,8.975072652167915,-0.6632757568797214,-1.1691961,0.73975784,0.040011674,358.0257,-23.117151,8.382317
219482814000.0,3.808265629988617,8.975308870580527,-0.6904431659643141,-1.1691961,0.7507534,0.027183503,358.02313,-23.12369,8.379609
219487805000.0,3.806616918015936,8.975544381187266,-0.7175291705071033,-1.1866057,0.763887,0.032986723,357.82602,-23.207851,8.4790325
219492897000.0,3.80493484200614,8.97578465768687,-0.7451632989647035,-1.1881329,0.75625116,0.040317107,357.64252,-23.307941,8.580049
219497939000.0,3.8032692828464008,8.97602257483357,-0.7725260789496249,-1.1972959,0.75228053,0.03359759,357.4683,-23.411982,8.676133
219502841000.0,3.801649970866821,8.976253885792143,-0.7991290832110459,-1.1908818,0.7501425,0.032070424,357.30017,-23.529709,8.775698
219507844000.0,3.799997294850126,8.97648996264358,-0.8262802113872779,-1.187522,0.7357872,0.034208454,357.14313,-23.654135,8.879704
219512821000.0,3.798353207595461,8.976724812631508,-0.853290238357717,-1.1646146,0.72601336,0.03481932,356.99463,-23.795742,8.98336
219517818000.0,3.796702513600773,8.976960606360596,-0.8804088047172276,-1.1484267,0.7110472,0.03145956,356.85675,-23.945856,9.092543
219522841000.0,3.795043230844055,8.977197626953194,-0.9076684722825312,-1.1340714,0.7706065,0.064446285,356.70874,-24.109037,9.18994
219527814000.0,3.7934004649373945,8.977432288192889,-0.934656791375156,-1.4941764,0.7733554,0.0571159,356.5883,-24.182087,9.301459
219533046000.0,3.791672141747439,8.97767917088062,-0.9630506955562564,-1.2336423,0.7696902,0.058337633,356.45682,-24.440317,9.40516
219537824000.0,3.790093791556,8.977904630643994,-0.9889807556054344,-1.2394456,0.75869465,0.065973446,356.33347,-24.530643,9.510198
219544278000.0,3.7879617965506536,8.978209175916664,-1.0240064164588023,-1.2437216,0.75686204,0.06719518,356.217,-24.702925,9.614033
219547837000.0,3.7867861271636025,8.978377114656274,-1.0433210007440734,-1.2263119,0.7370089,0.07849618,356.10562,-24.886255,9.728278
219552988000.0,3.785084561270739,8.978620175192303,-1.0712753203994343,-1.2373075,0.732122,0.09590584,355.9967,-25.067207,9.840737
219557828000.0,3.78348573018523,8.978848560553276,-1.0975418525547338,-1.2400564,0.72356987,0.10415252,355.896,-25.262117,9.960181
219562815000.0,3.7818383395605535,8.979083882411784,-1.1246061492197086,-1.2348641,0.68203104,0.10415252,355.80344,-25.462233,10.091066
219567839000.0,3.7801787264668345,8.97932095019144,-1.1518712437544658,-1.1890492,0.6221663,0.108123146,355.7168,-25.678556,10.230861
219572831000.0,3.778529684157153,8.979556507985238,-1.1789626752667086,-1.0797043,0.5564982,0.10415252,355.644,-25.920527,10.3821
219577897000.0,3.7768561969093857,8.979795557621332,-1.2064557025185156,-0.9502009,0.48380527,0.09896017,355.58493,-26.186327,10.550895
219582831000.0,3.77522631414577,8.980028378565763,-1.233232369802451,-0.79901177,0.4184427,0.096516706,355.53955,-26.493841,10.734347
219587824000.0,3.773576941499086,8.98026398354662,-1.2603292282841474,-0.6789767,0.3643811,0.08857546,355.5109,-26.83384,10.93173
219592827000.0,3.771924265482391,8.980500060398056,-1.2874803564603794,-0.5439755,0.14905111,0.04428773,355.5288,-27.226389,11.180826
219597811000.0,3.770277865868718,8.980735240695388,-1.3145283722169936,-0.12186762,0.021685716,0.010995574,355.54758,-27.735556,11.420594
219602823000.0,3.768622216819013,8.980971742230349,-1.3417283431183078,0.11728613,0.024740042,0.016187929,355.58597,-28.233772,11.679406
219607885000.0,3.766950050919251,8.98121060311821,-1.3691996624923006,0.09101892,0.03940081,0.011301007,355.65823,-28.779419,11.959252
219612790000.0,3.765329747928668,8.981442055637958,-1.3958189476620824,0.051923547,0.047036625,0.012217305,355.73468,-29.387312,12.239271
219617845000.0,3.7636598943879136,8.981680586216413,-1.4232522782499004,0.06047566,0.039095376,0.010079277,355.81943,-30.001265,12.515891
219622870000.0,3.7619999509571938,8.981917701183127,-1.450522799754111,0.076052725,0.046120327,0.013439035,355.90512,-30.60514,12.78528
219627825000.0,3.7603631311165535,8.982151513055777,-1.4774134333965714,0.064446285,0.0421497,0.01740966,355.99976,-31.202894,13.056336
219632867000.0,3.758697571956814,8.982389430202478,-1.5047762133814928,0.06047566,0.06536258,0.021685716,356.0936,-31.80534,13.316811
219637893000.0,3.757037298189093,8.98262659235625,-1.532052161855157,0.051618114,0.08552113,0.027794369,356.19226,-32.401,13.576961
219642845000.0,3.7554014693594566,8.982860262667725,-1.5589265145892568,0.040317107,0.08979719,0.025045475,356.29584,-32.993214,13.831615
219647909000.0,3.753728642785693,8.983099217929704,-1.5864086879021568,0.04153884,0.06963864,0.02565634,356.4026,-33.58333,14.085696
219652942000.0,3.752066056658963,8.983336710392882,-1.6137226251619965,0.064446285,0.062002823,0.023823744,356.51227,-34.174076,14.331812
219657847000.0,3.75044575366838,8.98356816291263,-1.640341910331778,0.06841691,0.054061573,0.026572637,356.6284,-34.754734,14.579436
219662877000.0,3.7487841585526542,8.983805513814632,-1.6676395666832564,0.0693332,0.049480084,0.027794369,356.7503,-35.338295,14.824149
219667837000.0,3.747145687027008,8.984039561622573,-1.6945573351729848,0.06780604,0.0421497,0.027488936,356.8779,-35.919044,15.068031
219672871000.0,3.7454827705632794,8.98427710127281,-1.7218766994022776,0.057726767,0.037873644,0.02687807,357.00946,-36.494225,15.308813
219677849000.0,3.743838352971612,8.984511998447795,-1.7488921533421704,0.042760566,0.03359759,0.03176499,357.1449,-37.063496,15.548463
219683450000.0,3.741988135428236,8.984776293159946,-1.7792886092516398,0.04520403,0.036651913,0.033292156,357.28427,-37.63126,15.782935
219687886000.0,3.7405227604911873,8.984985614949467,-1.8033626457476952,0.0421497,0.039095376,0.032375857,357.4274,-38.18924,16.015055
219692835000.0,3.7388879226725535,8.98521914369977,-1.8302207175734344,0.03481932,0.027183503,0.035124753,357.57477,-38.741917,16.246655
219697886000.0,3.737219390479804,8.985457485529993,-1.8576323402834376,0.024740042,0.023823744,0.017715093,357.72784,-39.290737,16.46789
219702883000.0,3.735568696485116,8.985693279259081,-1.8847509066429484,0.022907447,0.025350908,0.019242255,357.88025,-39.83287,16.690643
219707898000.0,3.733912056424408,8.985929922355215,-1.9119671584526232,0.027794369,0.030848695,0.0143553335,358.04047,-40.37178,16.904625
219712884000.0,3.732264996136732,8.986165197026663,-1.9390260281481448,0.022602014,0.022907447,0.0067195175,358.20584,-40.90265,17.116697
219717840000.0,3.730627845959091,8.986399056086372,-1.9659220887600584,0.021991149,0.028099801,0.014049901,358.3674,-41.429638,17.322716
219722906000.0,3.728954358711325,8.986638105722466,-1.9934151160118656,0.011301007,0.01282817,0.004886922,358.54214,-41.949947,17.525621
219732887000.0,3.725657265102963,8.987109079748889,-2.04758169812799,0.008857546,0.014660766,0.002443461,358.71106,-42.46508,17.722538
219737887000.0,3.724005580097272,8.98734501503915,-2.074716545395862,-0.002443461,0.0070249503,-0.011301007,358.89124,-42.97185,17.916048
219742837000.0,3.722370411941637,8.98757859097651,-2.1015800441910546,-0.010995574,0.009162978,-0.002443461,359.06622,-43.470448,18.107113
219747872000.0,3.720707165140906,8.987816177813805,-2.128904835389801,-0.014660766,0.0009162979,-0.004886922,359.25168,-43.964493,18.29234
219752797000.0,3.7190802554103,8.988048574074712,-2.155632659948654,-0.026572637,0.0027488936,0.002443461,359.4318,-44.445877,18.47482
219757831000.0,3.7174173389465697,8.98828611372495,-2.182952024177947,-0.022907447,-0.004276057,-0.0061086523,359.6205,-44.92653,18.65248
219762871000.0,3.715752440460833,8.988523936497534,-2.210303950223961,-0.016187929,-0.0027488936,0.0018325958,359.80298,-45.395615,18.828995
219767837000.0,3.71411198691318,8.988758267427823,-2.237254280530411,-0.02565634,-0.0033597588,-0.0106901415,359.99408,-45.859016,18.996788
219772809000.0,3.7124695513435206,8.98899288148046,-2.264237172653582,-0.010995574,-0.00061086525,-0.010995574,0.18063581,-46.32113,19.163822
219777817000.0,3.71081522364182,8.989229194267187,-2.291415435677082,-0.013439035,0.0027488936,-0.003970624,0.36864674,-46.770702,19.325626
219782904000.0,3.7091347993170296,8.9894692348315,-2.3190224292874144,-0.01038471,0.007941248,-0.011911872,0.5587631,-47.220833,19.479147
219787886000.0,3.7074890603773594,8.989704320754717,-2.3460595911051216,-0.009468411,-0.008857546,-0.0015271631,0.7486143,-47.65956,19.637596
219792879000.0,3.705839687730675,8.989939925735573,-2.373156449586818,-0.004276057,-0.014966198,-0.0021380284,0.9382862,-48.096012,19.784992
219797804000.0,3.704212778000069,8.990172321996482,-2.3998842741456707,0.0018325958,-0.01863139,-0.008246681,1.1303697,-48.525383,19.931993
219802820000.0,3.70255580760236,8.990409012279674,-2.4271059529248,-0.004886922,-0.019547688,-0.0018325958,1.3208804,-48.944202,20.078318
219808066000.0,3.700822859694388,8.990656555586217,-2.45557583467825,0.0036651916,-0.026572637,0.0018325958,1.5150942,-49.36254,20.220346
219812890000.0,3.699229314000897,8.990884185954261,-2.4817555353222924,-0.004276057,-0.03604105,0.019547688,1.706098,-49.765087,20.36378
219817876000.0,3.6975822537132217,8.991119460625711,-2.5088144050178136,-0.008246681,-0.04184427,0.018020526,1.9002402,-50.165985,20.500248
219822859000.0,3.695936184436549,8.991354593735988,-2.535856993804974,-0.0076358155,-0.054061573,0.02321288,2.0935636,-50.555187,20.641117
219827873000.0,3.694279874712842,8.991591189645062,-2.5630678186451954,-0.006414085,-0.05222898,0.024740042,2.2851284,-50.937325,20.775564
219832892000.0,3.692621913304129,8.991828021489427,-2.5903057783326844,-0.016798794,-0.054061573,0.031154128,2.4783452,-51.308144,20.91111
219837877000.0,3.690975183353455,8.99206324897382,-2.617359221058752,-0.026267206,-0.06688975,0.02321288,2.6753328,-51.674515,21.041174
219842842000.0,3.689335060142803,8.99229753271705,-2.644304124395749,-0.04184427,-0.07544186,0.02321288,2.8684955,-52.02768,21.170511
219847936000.0,3.687652323459005,8.992537903590769,-2.671949106792256,-0.0290161,-0.07422013,0.03390302,3.0611217,-52.377773,21.297297
219852856000.0,3.687985466524873,8.989876406794012,-2.662903698072678,-0.03023783,-0.05497787,0.03390302,3.2520103,-52.71596,21.416447
219857859000.0,3.6894343671972174,8.985529714863162,-2.6334426925195302,-0.04062254,-0.052839845,0.023518313,3.4459293,-53.048134,21.534412
219862877000.0,3.690887611965123,8.981169990675873,-2.6038933569477347,-0.03604105,-0.057421334,0.03176499,3.6748319,-53.45557,21.665169
219868991000.0,3.6926582653152566,8.975858042951463,-2.5678900413467063,-0.027794369,-0.04062254,0.04153884,3.8978763,-53.854282,21.786257
219872823000.0,3.6937680369275743,8.972528735839928,-2.5453246659160325,-0.030543262,-0.040317107,0.03756821,4.1262856,-54.243862,21.904873
219877860000.0,3.6952267842165214,8.968152504127817,-2.515663445653949,-0.024129177,-0.046120327,0.044593163,4.347557,-54.624794,22.023165
219882866000.0,3.696676553707978,8.963803205745679,-2.486184774097072,-0.021380283,-0.029932396,0.046120327,4.562892,-54.997368,22.13219
219887883000.0,3.698129508869513,8.959444350375485,-2.4566413271931857,-0.013133603,-0.02107485,0.046731193,4.779541,-55.36271,22.240728
219892834000.0,3.699563350010585,8.955142836933621,-2.4274865323713524,-0.00061086525,-0.01038471,0.052534413,4.9888444,-55.719597,22.34494
219897878000.0,3.701024124544126,8.95076052350184,-2.3977840914339,-0.006414085,-0.00030543262,0.04428773,5.1961713,-56.06836,22.441107
219902930000.0,3.702487215928633,8.94637125953329,-2.368034541153168,0.0018325958,-0.0033597588,0.04795292,5.4001184,-56.410603,22.53866
219907882000.0,3.7039213466760743,8.94206887727433,-2.3388738576634243,0.00580322,0.00580322,0.04428773,5.5982056,-56.745274,22.626143
219912882000.0,3.705369378529308,8.937724791794768,-2.3094305181140067,0.012217305,0.020463986,0.03023783,5.794611,-57.075005,22.708384
219917824000.0,3.706800613213044,8.93343109770677,-2.280328721303362,0.009773844,0.01985312,0.027488936,5.989838,-57.39377,22.790234
219922914000.0,3.7082747096396353,8.929008818688574,-2.2503554016420546,0.017104227,0.03573562,0.0143553335,6.177274,-57.71239,22.859146
219927887000.0,3.709714922120861,8.9246881912706,-2.2210710561262035,0.008857546,0.03726278,0.006414085,6.3665133,-58.01868,22.927605
219932879000.0,3.711160637123129,8.920351056327807,-2.1916748259200647,0.003970624,0.03176499,0.002443461,6.5521374,-58.32077,22.98998
219938755000.0,3.712862364157049,8.915245887072224,-2.1570730132815887,0.002443461,0.030543262,-0.004581489,6.7351213,-58.616184,23.046272
219942844000.0,3.714046564606623,8.911693293967039,-2.1329942501980748,0.011301007,0.01985312,-0.0070249503,6.9200273,-58.9045,23.101854
219947879000.0,3.7155047326828288,8.907318799889119,-2.103344807271811,0.015882496,0.028710667,-0.004886922,7.0975356,-59.18432,23.15252
219952871000.0,3.7169504476850967,8.902981664946324,-2.0739485770656723,0.003970624,0.029626964,-0.013744468,7.279507,-59.45789,23.199207
219957824000.0,3.7183848680389096,8.898678413870268,-2.0447820049080185,0.0036651916,0.028405234,-0.01038471,7.4555135,-59.723473,23.24683
219962889000.0,3.719851724306235,8.894277855279473,-2.0149559019444583,-0.005192355,0.027488936,-0.01740966,7.63075,-59.98213,23.287043
219967839000.0,3.721285275840936,8.889977210654706,-1.9858069957905349,-0.009162978,0.011301007,-0.0021380284,7.8057227,-60.228302,23.333681
219972879000.0,3.7227448919489943,8.885598372491307,-1.9561281095247216,-0.004886922,0.02107485,-0.018325957,7.974739,-60.47582,23.36559
219977995000.0,3.724226518141223,8.881153504228617,-1.9260016844977568,-0.008246681,0.021380283,-0.016493361,8.145516,-60.70654,23.40691
219982881000.0,3.725641534868202,8.876908463897989,-1.897229653090066,-0.015577064,0.017104227,-0.009468411,8.313376,-60.93277,23.442917
219987882000.0,3.7270898563278063,8.872563509601331,-1.867780424872738,-0.025350908,0.009468411,-0.003970624,8.4796505,-61.15102,23.47748
219992875000.0,3.7285358609364447,8.86822550584144,-1.8383783059986896,-0.03726278,0.0036651916,-0.0030543262,8.6439705,-61.360424,23.511139
219997913000.0,3.7299948978317623,8.863848405312233,-1.808711197068696,-0.052534413,-0.01282817,-0.005192355,8.811121,-61.56062,23.545221
220002899000.0,3.731438875195807,8.859516483272014,-1.7793502988700167,-0.04520403,-0.018936822,-0.008857546,8.974549,-61.756237,23.57703
220008530000.0,3.733069648668918,8.854624174204929,-1.7461912098694623,-0.070554934,-0.01985312,-0.0018325958,9.138242,-61.93626,23.610428
220012889000.0,3.734332042838567,8.850837000483848,-1.7205225064502798,-0.07666359,-0.030848695,-0.00061086525,9.30521,-62.116566,23.64082
220017838000.0,3.735765304766897,8.846537224676176,-1.691379488964266,-0.08093964,-0.032986723,-0.00030543262,9.466925,-62.28606,23.670685
220022886000.0,3.737227237725921,8.84215143597601,-1.6616534933551736,-0.082161374,-0.025045475,0.0021380284,9.626303,-62.448654,23.699995
220027864000.0,3.738668898239,8.837826464472558,-1.6323397044997732,-0.079107046,-0.021991149,-0.0012217305,9.7859,-62.607105,23.726786
220032902000.0,3.7401279351343177,8.83344936394335,-1.6026725955697796,-0.06566802,-0.008857546,0.0067195175,9.936677,-62.757996,23.754696
220037823000.0,3.7415530880842702,8.829173915014366,-1.5736944607852426,-0.051923547,-0.005192355,0.01160644,10.087596,-62.905613,23.779911
220042835000.0,3.743004595213951,8.824819403729652,-1.544180457220906,-0.03573562,0.0125227375,0.008246681,10.227968,-63.05019,23.801926
220048306000.0,3.745103301408408,8.820477292004682,-1.512801791093917,-0.02076942,0.027183503,0.021991149,10.364338,-63.18556,23.828804
220052831000.0,3.758107592227746,8.825895740854849,-1.5052159604405275,0.010079277,0.043676864,0.02443461,10.493507,-63.323513,23.849207
220057831000.0,3.772476974348561,8.831882977153375,-1.4968338271218653,0.015882496,0.04428773,0.034208454,10.5634165,-63.39591,23.873684
220062877000.0,3.786978554784888,8.837925296025848,-1.488374578176671,0.01985312,0.04734206,0.041233405,10.626034,-63.469418,23.896303
220067837000.0,3.801232981848736,8.843864634433986,-1.4800595019245582,0.026267206,0.048258353,0.06078109,10.686192,-63.535633,23.924618
220072848000.0,3.815633976610217,8.84986504265237,-1.471658927912595,0.02321288,0.04550946,0.07696902,10.744852,-63.5978,23.953333
220078275000.0,3.8312305039641497,8.85636358893079,-1.4625609604085184,0.014966198,0.024740042,0.07452556,10.807274,-63.657597,23.982521
220082882000.0,3.8444704526502687,8.861880228456252,-1.4548376627687027,-0.00030543262,-0.0061086523,0.09743301,10.869695,-63.703194,24.02324
220087885000.0,3.858848456400356,8.867871057096558,-1.4464505001700492,-0.0012217305,-0.020158553,0.09407325,10.933663,-63.754955,24.05526
220092875000.0,3.87318909975693,8.873846318922489,-1.438085131118024,-0.0067195175,-0.05009095,0.09743301,11.0088415,-63.794815,24.097128
220097908000.0,3.887653319799742,8.879873070980585,-1.4296476757194585,-0.028710667,-0.06841691,0.09040806,11.084136,-63.834633,24.13425
220102810000.0,3.901741062030989,8.885742957447661,-1.421429832213842,-0.03573562,-0.0983493,0.08857546,11.170298,-63.87151,24.174877
220107977000.0,3.9165903815146392,8.891930167438558,-1.4127677356423365,-0.05375614,-0.13469578,0.08735373,11.263013,-63.90502,24.213896
220112885000.0,3.9306953670044313,8.897807238589191,-1.4045398335767372,-0.07269296,-0.17501289,0.098043874,11.364184,-63.93353,24.25637
220117876000.0,3.945038884237429,8.90378369786238,-1.3961727880980483,-0.07727446,-0.21471913,0.106595986,11.475107,-63.961163,24.298517
220122907000.0,3.9594973565273928,8.909808055025959,-1.3877386855528102,-0.07513642,-0.24862215,0.11575896,11.594581,-63.98327,24.344292
220127818000.0,3.9736109636464576,8.915688718518371,-1.37950575420722,-0.077579886,-0.26450464,0.12736541,11.718633,-64.00036,24.39289
220133019000.0,3.9885579949285295,8.921916641716098,-1.370786659129147,-0.05009095,-0.27183503,0.1432479,11.848235,-64.015755,24.445084
220137888000.0,4.002550899237779,8.927747012423604,-1.362624137703434,-0.0027488936,-0.23732115,0.16401732,11.96732,-64.02718,24.499361
220142877000.0,4.016888668717928,8.933721076802273,-1.3542604450780726,0.03573562,-0.20433442,0.17837265,12.087026,-64.03661,24.555273
220147876000.0,4.031255176962319,8.93970711565354,-1.345879988186074,0.05131268,-0.109650314,0.22296582,12.172726,-64.033226,24.62003
220152996000.0,4.045969424254034,8.945838045623232,-1.3372966836677636,0.07941248,-0.040317107,0.267559,12.253833,-64.029175,24.687178
220157804000.0,4.05978702210141,8.951595372047894,-1.329236424268538,0.11026118,-0.0061086523,0.30176744,12.313465,-64.016235,24.760105
220162874000.0,4.074357575571916,8.9576664296546,-1.3207369410834142,0.15760323,-0.008552114,0.32986724,12.359995,-63.995518,24.841072
220167878000.0,4.088738453198427,8.963658455742166,-1.3123481020580967,0.19639318,-0.038179077,0.35033122,12.402071,-63.968376,24.927664
220172827000.0,4.10296126762161,8.969584622230448,-1.3040514664992848,0.22052236,-0.058948494,0.37110063,12.439799,-63.935074,25.020327
220177927000.0,4.117618037384841,8.975691603254944,-1.2955016905142491,0.22510384,-0.086437434,0.3839288,12.487188,-63.8988,25.116089
220182875000.0,4.1318379779316,8.981616572295966,-1.2872067313821007,0.21899518,-0.12675454,0.3857614,12.543463,-63.859894,25.213873
220187888000.0,4.146244720445929,8.987619375408869,-1.2788028045168098,0.20066923,-0.18387043,0.3903429,12.611755,-63.815247,25.315592
220194191000.0,4.164358763547429,8.99516688548679,-1.268236287255304,0.16707164,-0.24220806,0.38973203,12.691912,-63.769283,25.41566
220197833000.0,4.174825421484231,8.999527988406639,-1.2621307413459903,0.12339478,-0.27580565,0.3744604,12.781184,-63.723633,25.511772
220202877000.0,4.189321254167709,9.005567912384592,-1.2536748452541238,0.076358154,-0.26908615,0.36346483,12.87446,-63.674168,25.607344
220207884000.0,4.2037107534234925,9.011563530813936,-1.2452809769488151,0.04550946,-0.20341812,0.35430184,12.958628,-63.626488,25.696257
220212885000.0,4.218083009420732,9.017551964559722,-1.236897167203489,0.039095376,-0.129198,0.33841935,13.037052,-63.5823,25.777775
220217813000.0,4.232245472439008,9.02345298465555,-1.2286357366046152,0.038789943,-0.040927973,0.32528573,13.0891285,-63.538486,25.85338
220222909000.0,4.2468907466965415,9.029555175891009,-1.2200926663262346,0.06291912,0.022907447,0.31306845,13.124778,-63.500008,25.921803
220227903000.0,4.261242885558812,9.035535227505976,-1.2117205915675546,0.106595986,0.063224554,0.2996294,13.139423,-63.466686,25.983013
220232883000.0,4.275554790151144,9.04149851485931,-1.2033719867821668,0.15149458,0.070554934,0.2779437,13.1441,-63.440456,26.036423
220237786000.0,4.289645406258815,9.047369598773644,-1.1951524668498863,0.18142697,0.05375614,0.2742785,13.142743,-63.414284,26.089724
220242820000.0,4.304112500178052,9.053397548279,-1.186713335024657,0.18173242,0.028710667,0.26083946,13.141817,-63.397366,26.13325
220247822000.0,4.318487630051715,9.059387179472049,-1.1783278488526672,0.17531833,-0.01863139,0.2443461,13.152635,-63.383053,26.175055
220252869000.0,4.317292003683168,9.04718502968553,-1.1899592832956345,0.1337795,-0.06841691,0.20799962,13.172173,-63.37589,26.207268
220257821000.0,4.315393398338571,9.034369448565766,-1.2023002254699042,0.07941248,-0.10629055,0.18203785,13.192013,-63.32279,26.279057
220263766000.0,4.313114075080569,9.018984022524371,-1.217115835572092,0.032375857,-0.112704635,0.15607607,13.217336,-63.278946,26.339476
220267843000.0,4.311550946245771,9.008432906969992,-1.2272761791190423,-0.022296581,-0.10934488,0.15821409,13.250282,-63.23224,26.399874
220272918000.0,4.309605182488941,8.995299006690754,-1.2399236511574954,-0.028099801,-0.09896017,0.12950343,13.283337,-63.20225,26.442917
220277904000.0,4.307693541485677,8.982395434909021,-1.252349325164141,-0.019242255,-0.059864793,0.100792766,13.305068,-63.170517,26.484772
220282886000.0,4.305783434089316,8.969502214969873,-1.2647650307199192,0.03970624,-0.03023783,0.052839845,13.326739,-63.1548,26.512024
220287886000.0,4.303866425461897,8.956562411739096,-1.277225594304602,0.077579886,0.016187929,0.007941248,13.330371,-63.146122,26.530066
220292839000.0,4.301967436715575,8.943744242658687,-1.2895690285915888,0.11453723,0.042760566,-0.025961773,13.3309965,-63.15035,26.537004
220297897000.0,4.300028190788078,8.93065433771043,-1.302174134713854,0.13103059,0.03359759,-0.051618114,13.328424,-63.16532,26.533201
220302908000.0,4.298106964741677,8.917686066912545,-1.3146621115384232,0.116675265,0.007941248,-0.070249505,13.32266,-63.18758,26.521675
220307880000.0,4.296200691362571,8.904818726579858,-1.3270528959670316,0.10781772,0.0012217305,-0.082161374,13.313589,-63.21537,26.50485
220312888000.0,4.294280615521348,8.891858219663911,-1.33953339645345,0.0852157,0.013744468,-0.0983493,13.306433,-63.247738,26.482008
220317838000.0,4.292382776980203,8.87904781446544,-1.351869354402286,0.058337633,0.03634648,-0.09865474,13.297499,-63.277657,26.460691
220322841000.0,4.290464618147607,8.866100247352723,-1.3643373943251196,0.04062254,0.05009095,-0.087659165,13.287013,-63.30762,26.43844
220327839000.0,4.288548376323639,8.853165620043237,-1.3767929736843685,0.03359759,0.04337143,-0.0842994,13.275667,-63.338444,26.414417
220333591000.0,4.286343049598655,8.83827967040655,-1.3911276060321878,0.03359759,0.04062254,-0.07513642,13.25805,-63.363426,26.395336
220337822000.0,4.284720876898132,8.827330008912664,-1.4016717349375465,0.02565634,0.048563786,-0.06505715,13.238819,-63.386024,26.377844
220342809000.0,4.282808852493144,8.814423849170286,-1.4140999010569089,0.035430185,0.07574729,-0.050701816,13.213781,-63.4049,26.36428
220347850000.0,4.28087612439498,8.801377939553015,-1.426662641262986,0.021685716,0.090713486,-0.032375857,13.189602,-63.418167,26.355135
220352846000.0,4.278960649374461,8.788448488164821,-1.439113236396801,0.004886922,0.106901415,-0.0290161,13.156217,-63.43146,26.345566
220357843000.0,4.2770447909522185,8.775516448815981,-1.4515663236433332,0.0143553335,0.12034045,-0.021991149,13.1184025,-63.438675,26.342234
220362818000.0,4.275137367367936,8.762641344601358,-1.4639645844100926,0.008552114,0.14172074,-0.004886922,13.072626,-63.44071,26.342464
220367815000.0,4.273221508945693,8.749709305252518,-1.4764176716566246,0.005497787,0.15118915,0.0018325958,13.026449,-63.443928,26.341827
220372809000.0,4.271306800728627,8.736785029785615,-1.488863282565006,0.0036651916,0.1518,0.009162978,12.976018,-63.441856,26.34607
220377801000.0,4.269392859315011,8.723865930240006,-1.5013039092479532,-0.0067195175,0.14110987,0.009468411,12.926305,-63.439426,26.350246
220382833000.0,4.267463581832375,8.710843312268551,-1.513844220439578,-0.00580322,0.11911872,0.0106901415,12.879962,-63.434967,26.356928
220387820000.0,4.265551557427387,8.697937152526173,-1.5262723865589407,-0.0036651916,0.1133155,0.019242255,12.831838,-63.42803,26.365643
220392813000.0,4.263637232612046,8.685015465019918,-1.5387155053546049,0.011911872,0.095294975,0.009773844,12.795005,-63.426376,26.37007
220397873000.0,4.261697219881097,8.67192038415037,-1.551325595702304,0.01740966,0.06566802,0.0012217305,12.76357,-63.421818,26.37738
220402785000.0,4.259813950605521,8.659208321456452,-1.5635668533678964,0.027488936,0.046120327,0.0061086523,12.734551,-63.416798,26.385883
220408001000.0,4.257814127205396,8.645709518726104,-1.5765657132994375,0.039095376,0.038789943,0.0018325958,12.711296,-63.41699,26.389576
220412889000.0,4.2559400595712304,8.633059567087695,-1.588747160259823,0.06169739,0.035124753,-0.004276057,12.692848,-63.416958,26.394327
220417838000.0,4.254042604431811,8.62025174984987,-1.6010806260959425,0.077579886,0.035124753,0.0033597588,12.6751585,-63.414307,26.401787
220422875000.0,4.252111409940548,8.607216192075185,-1.613633397851152,0.07422013,0.03390302,0.0012217305,12.659045,-63.416138,26.404762
220427917000.0,4.250178298440659,8.594167694497267,-1.626198630169946,0.08368854,0.030543262,0.0018325958,12.643127,-63.4158,26.41069
220432875000.0,4.24827739268571,8.581336585613627,-1.6385545250205176,0.064751714,0.030543262,0.0036651916,12.626262,-63.414604,26.416267
220437749000.0,4.2464086926757005,8.568722865424265,-1.6507010824028665,0.05467244,0.012217305,0.009162978,12.61595,-63.41264,26.423355
220442844000.0,4.24445526088436,8.555537205932103,-1.6633983966956585,0.063224554,0.010995574,0.010079277,12.599963,-63.411354,26.429325
220449225000.0,4.24393922164562,8.540134537118796,-1.6763267335420513,0.054367006,0.014660766,0.012217305,12.587869,-63.407276,26.437323
220452878000.0,4.247770052410792,8.53369175380645,-1.6773715065606818,0.04642576,0.016187929,0.010995574,12.576585,-63.404144,26.444563
220458143000.0,4.253291356538532,8.524405891737056,-1.6788773182067502,0.062002823,0.014049901,0.010079277,12.596632,-63.394043,26.465973
220462876000.0,4.258254762509394,8.516058316205347,-1.6802309756656,0.065973446,0.033292156,0.00030543262,12.60863,-63.386066,26.483795
220467841000.0,4.263461462413331,8.507301563085775,-1.6816509860782742,0.069027774,0.04062254,-0.0009162979,12.624099,-63.3761,26.503641
220473118000.0,4.268995350710022,8.497994536658387,-1.6831602297736787,0.09682214,0.031154128,-0.002443461,12.638111,-63.369484,26.520267
220477814000.0,4.273919955493283,8.489712217897157,-1.6845033050804097,0.10842858,0.027794369,0.0012217305,12.646973,-63.361115,26.53758
220482888000.0,4.279240961598535,8.480763221859151,-1.685954489941217,0.10476339,0.028099801,-0.007330383,12.657004,-63.356678,26.550772
220487824000.0,4.284417249760836,8.472057615938063,-1.6873662062346635,0.112704635,0.013744468,-0.015577064,12.671867,-63.35134,26.56502
220492818000.0,4.289654361406408,8.463249715620007,-1.688794510766566,0.124311075,0.01985312,-0.021685716,12.679305,-63.34749,26.576971
220497867000.0,4.294949150493009,8.454344811994485,-1.6902385455245907,0.11759156,0.01740966,-0.01863139,12.693171,-63.342796,26.589237
220502847000.0,4.300171580608136,8.445561603427423,-1.691662845998935,0.10903945,0.005192355,-0.031154128,12.707575,-63.344116,26.595167
220507848000.0,4.305416033018929,8.436741357233872,-1.693093152559617,0.09560041,-0.028099801,-0.028099801,12.728459,-63.339542,26.60647
220512815000.0,4.3106248302843575,8.427981076721302,-1.6945137349805135,0.08002335,-0.05222898,-0.032986723,12.749682,-63.34027,26.611807
220519248000.0,4.317370993523436,8.416635217140596,-1.696353599428597,0.074830994,-0.0852157,-0.034513887,12.783424,-63.338795,26.619167
220522890000.0,4.321190288800402,8.410211834489745,-1.697395226402003,0.06291912,-0.09896017,-0.030543262,12.8178,-63.336494,26.626587
220527862000.0,4.32640432946956,8.401442735494678,-1.6988172388434566,0.053450707,-0.08582657,-0.031154128,12.853177,-63.335625,26.632153
220532910000.0,4.331698069875416,8.392539595565655,-1.70026098759737,0.04795292,-0.07819075,-0.029626964,12.893663,-63.332676,26.639423
220537885000.0,4.3369152565868125,8.383765205481089,-1.7016838580511575,0.055283304,-0.061391957,-0.03176499,12.926096,-63.330784,26.645164
220542831000.0,4.342102031556575,8.375041962595006,-1.703098434385717,0.06169739,-0.046120327,-0.026267206,12.955638,-63.326004,26.653347
220547867000.0,4.347383187793478,8.366159987023977,-1.7045387510902947,0.069027774,-0.032986723,-0.021685716,12.97968,-63.322002,26.660439
220552853000.0,4.352611909993081,8.357366196277917,-1.7059647675893066,0.08277224,-0.02443461,-0.026572637,12.999542,-63.3191,26.666203
220557824000.0,4.357824901981494,8.34859886097935,-1.707386494026649,0.103847094,-0.005497787,-0.024740042,13.011071,-63.31294,26.67495
220562875000.0,4.363121788429587,8.339690429960829,-1.7088311007928965,0.14385876,0.027794369,-0.029932396,13.014603,-63.310246,26.680088
220567831000.0,4.36831905020681,8.330949550109752,-1.710248537168569,0.16798794,0.077579886,-0.023823744,13.006037,-63.303616,26.688776
220572868000.0,4.373601255124459,8.322065810842222,-1.711689139877258,0.19272798,0.09590584,-0.02107485,12.996295,-63.29941,26.694983
220577889000.0,4.378866681150172,8.313210290718684,-1.713125166520166,0.21013765,0.11148291,-0.028099801,12.970965,-63.29607,26.699959
220582884000.0,4.384104841476489,8.30440062670413,-1.7145537570561795,0.23426682,0.13500121,-0.022907447,12.936696,-63.288292,26.70914
220588828000.0,4.390338199830769,8.293917214711636,-1.7162537654938306,0.24770586,0.15454891,-0.02107485,12.898295,-63.283154,26.71536
220592847000.0,4.394552847748981,8.286828918480508,-1.717403216017202,0.2489276,0.1826487,-0.03023783,12.84921,-63.27939,26.719893
220597872000.0,4.399822468497678,8.27796634357097,-1.7188403866765551,0.25259277,0.20372356,-0.03726278,12.795744,-63.27419,26.725588
220602856000.0,4.405049093335789,8.26917608021791,-1.7202658311673444,0.25778514,0.21991149,-0.03604105,12.734592,-63.26889,26.731098
220607889000.0,4.410327103530454,8.260299395736379,-1.7217052898595884,0.2657264,0.23579398,-0.03756821,12.666611,-116.73399,26.733934
220612897000.0,4.415578896706469,8.251466803667332,-1.7231375984490491,0.27091873,0.23151793,-0.03970624,12.599791,-116.737404,26.737074
220617841000.0,4.42076357431474,8.242747088174248,-1.724551602775386,0.27550024,0.21899518,-0.045814894,12.530445,-116.739624,26.738777
220622831000.0,4.425996491237326,8.233946242642192,-1.7259787632908432,0.2782491,0.20738874,-0.040317107,12.462116,-116.74492,26.743336
220627823000.0,4.4312315055214055,8.225141869717136,-1.727406495814523,0.29718593,0.1994475,-0.051618114,12.396481,-116.74413,26.741497
220632822000.0,4.436473860570707,8.216325150916585,-1.7288362303669822,0.3036,0.19242255,-0.04550946,12.334177,-116.750244,26.746336
220637752000.0,4.441643856648533,8.207630127174493,-1.7302462306357609,0.31612277,0.21380283,-0.044898596,12.265101,-116.75209,26.74661
220642820000.0,4.446958570669308,8.198691713315482,-1.7316956994719004,0.3381139,0.25503623,-0.03848451,12.19174,-116.75787,26.750526
220647856000.0,4.452239726906211,8.189809737744453,-1.733136016176478,0.3555236,0.29016098,-0.021991149,12.113388,-116.767166,26.757736
220652895000.0,4.447056146922805,8.225321295158277,-1.7465144004877065,0.36926803,0.32559118,0.0018325958,12.021729,-116.7809,26.769196
220658671000.0,4.438398679078104,8.277545381026911,-1.764946433881961,0.38423425,0.37568212,0.05222898,11.914347,-116.8074,26.793285
220662809000.0,4.432196358797395,8.314959381602465,-1.7781513774736206,0.42149702,0.39614612,0.06841691,11.810256,-116.86441,26.846943
220667808000.0,4.424703512233049,8.360158170601304,-1.7941038939102338,0.43188173,0.42241332,0.098043874,11.688515,-116.93903,26.918383
220672842000.0,4.4171582052506695,8.405673414414096,-1.8101681002998944,0.43890667,0.4447099,0.13103059,11.561573,-117.01904,26.994738
220677841000.0,4.409665358686323,8.450872203412935,-1.8261206167365076,0.46853364,0.4868596,0.1591304,11.420003,-117.10582,27.077541
220682914000.0,4.402061595809562,8.496740068304135,-1.842309277645277,0.48716503,0.56199604,0.19272798,11.260968,-117.20267,27.170666
220687897000.0,4.3945927311506034,8.541794192245167,-1.8582107358176403,0.5177083,0.6462954,0.21655174,11.085688,-117.30432,27.268272
220692850000.0,4.387168832564245,8.586577069202807,-1.8740164597445348,0.5421429,0.75319684,0.2507602,10.8795595,-117.417534,27.37789
220697835000.0,4.379696970167113,8.631649276276065,-1.8899243001999293,0.56138515,0.850019,0.27152961,10.6500635,-117.5328,27.489708
220702865000.0,4.37215765866108,8.677128353824406,-1.9059757420235277,0.5821546,0.93492925,0.29810223,10.390981,-117.65842,27.612232
220707857000.0,4.3646753041803406,8.722263851860454,-1.921905920469531,0.61727935,0.9669997,0.31887165,10.1188135,-117.78726,27.737831
220712812000.0,4.357248407855809,8.767064811950322,-1.937718026679457,0.6462954,0.93584555,0.33475417,9.841018,-117.92084,27.868097
220717984000.0,4.349496256939466,8.813827791886707,-1.9542226105982732,0.70280045,0.9266826,0.35369098,9.547174,-118.06053,28.003908
220722875000.0,4.342165288236482,8.858050091745344,-1.9698304837511995,0.7330383,0.915687,0.3472769,9.264967,-118.19584,28.134958
220728365000.0,4.333936496950574,8.90768828970566,-1.9873498506719849,0.7370089,0.91324353,0.3381139,8.98405,-118.334564,28.268877
220732887000.0,4.327158610940577,8.948574251668603,-2.0017801926056444,0.75686204,0.91446525,0.3304781,8.7063465,-118.471146,28.399675
220737873000.0,4.319685249674357,8.993655500307973,-2.017691224202555,0.75961095,0.9016371,0.32620203,8.434839,-118.60425,28.527014
220742871000.0,4.312193901979098,9.0388452477407,-2.0336405494976524,0.7623598,0.8848383,0.3173445,8.164996,-118.732765,28.649288
220747866000.0,4.304707050891099,9.084007870475086,-2.0495803013682035,0.7696902,0.8332202,0.31337386,7.911588,-118.86018,28.769693
220752871000.0,4.297205211112233,9.129260908870602,-2.06555196465391,0.7687739,0.75869465,0.33536503,7.6722693,-118.99098,28.89305
220757881000.0,4.289695876987934,9.174559155096684,-2.081539583647196,0.7464773,0.66553766,0.37323865,7.45686,-119.12352,29.017506
220762879000.0,4.282204529292675,9.21974890252941,-2.097488908942293,0.7131852,0.5653558,0.4175264,7.269107,-119.26248,29.147516
220767881000.0,4.274707186121068,9.264974816226587,-2.1134509988034536,0.677755,0.47494772,0.47525316,7.109742,-119.413864,29.289331
220772811000.0,4.267317761523704,9.30954973716363,-2.1291833264754887,0.636827,0.40622538,0.5329799,6.9768534,-119.57502,29.44072
220777800000.0,4.259839903650225,9.354658110501338,-2.1451039314969456,0.55863625,0.36560285,0.58368176,6.8650126,-119.746475,29.603388
220782889000.0,4.252212158868077,9.400670640450349,-2.161343650669965,0.49418998,0.33292156,0.63285637,6.7737126,-119.93063,29.77861
220787892000.0,4.244713316827385,9.445905595713636,-2.1773089316726413,0.39095375,0.32742378,0.66737026,6.6869636,-120.11888,29.961012
220792837000.0,4.237301409193719,9.490616140142375,-2.193089126467411,0.28496864,0.32925636,0.68691796,6.608624,-120.31174,30.149647
220798074000.0,4.229451831786743,9.537966821876106,-2.209801134584743,0.16707164,0.35094208,0.7101309,6.5257053,-120.50879,30.346094
220802850000.0,4.222293233028728,9.581149341631749,-2.225042026463372,0.026572637,0.3817908,0.7309003,6.4389815,-120.703606,30.544163
220807892000.0,4.214735935093654,9.626736917973444,-2.241131761985157,-0.14263703,0.40225476,0.7367035,6.348307,-120.893265,30.741186
220812886000.0,4.2072505828747415,9.671890499141718,-2.257068322714192,-0.30482176,0.3921755,0.745561,6.257841,-121.08283,30.941324
220817839000.0,4.199826684288383,9.71667337609936,-2.2728740466410864,-0.4437936,0.36102137,0.7495316,6.1676664,-121.26589,31.137957
220822867000.0,4.1922903705205234,9.762134370515476,-2.288919106181653,-0.5558874,0.29779682,0.7516697,6.0919123,-121.44498,31.332172
220827893000.0,4.184757054490837,9.807577281799364,-2.304957783439188,-0.6075055,0.24312437,0.7305948,6.023724,-121.61437,31.516808
220832831000.0,4.177355638940779,9.85222453526531,-2.3207156402433484,-0.6200282,0.112399206,0.72601336,6.002906,-121.78526,31.701256
220837746000.0,4.169988697379715,9.896663832710658,-2.336400100792649,-0.61544675,-0.04184427,0.6963864,6.0081024,-121.940254,31.868217
220844358000.0,4.160078174978543,9.95644666784975,-2.357499928493967,-0.59437186,-0.19303341,0.63071835,6.055924,-122.08154,32.018875
220847826000.0,4.158893349591745,9.967166433101236,-2.377430535004759,-0.56046885,-0.34788775,0.5342017,6.156099,-122.20358,32.147575
220852884000.0,4.17223890653509,9.905291622406452,-2.4397906431017384,-0.5222898,-0.5045747,0.41783184,6.3237314,-122.167015,32.110817
220857965000.0,4.185645149087312,9.84313545136252,-2.502434318317387,-0.4801401,-0.65179324,0.28863382,6.5376086,-122.10104,32.04259
220862874000.0,4.198597568825327,9.783083366407856,-2.5629574046455943,-0.41996986,-0.7583892,0.17012598,6.7871723,-122.00757,31.944714
220867801000.0,4.21159748164855,9.722811086397336,-2.623702413066673,-0.36285394,-0.8347474,0.08735373,7.072145,-121.89041,31.821146
220872812000.0,4.224819028869408,9.6615112294595,-2.685483057921154,-0.29352075,-0.8356637,0.042760566,7.3631682,-121.75453,31.677023
220877818000.0,4.238027383566599,9.600272537814956,-2.747202057749837,-0.20189096,-0.80573124,-0.0076358155,7.66448,-121.59821,31.51006
220882894000.0,4.251420433595151,9.53817753206432,-2.8097840879396885,-0.11301007,-0.7415904,-0.073303826,7.949815,-121.42976,31.329563
220887884000.0,4.264586572216601,9.477134569358313,-2.8713058236858187,-0.025961773,-0.6612616,-0.1414153,8.21495,-121.25205,31.13791
220892888000.0,4.277789649904324,9.415920343831088,-2.933000165504182,0.03970624,-0.5708536,-0.1966986,8.450667,-121.06508,30.935862
220897949000.0,4.29114312236187,9.354008833960329,-2.995397260616641,0.09743301,-0.47678033,-0.25228736,8.653688,-120.865166,30.719517
220902900000.0,4.304206359298703,9.293442960542002,-3.056438165161549,0.13836098,-0.3830125,-0.30787608,8.822581,-120.65569,30.493105
220907877000.0,4.317338197358613,9.232559027598558,-3.117799623840605,0.1826487,-0.29565877,-0.3680463,8.958477,-120.43596,30.25554
220913948000.0,4.333356559597255,9.158292128482692,-3.192649014164204,0.19914207,-0.1863139,-0.43371433,9.052551,-120.20461,30.007433
220917836000.0,4.343615066002104,9.110729996418376,-3.240584186224515,0.18967366,-0.06811147,-0.4990769,9.111778,-119.962364,29.749159
220922893000.0,4.356957984440715,9.048867418782248,-3.302931965316336,0.15241088,-0.0030543262,-0.5714644,9.149655,-119.704834,29.476652
220927873000.0,4.370097738014827,8.987946786662826,-3.36433041101087,0.07666359,0.17806722,-0.61178154,9.10939,-119.442085,29.204903
220932820000.0,4.383150420932726,8.927429845479136,-3.42532199953514,0.034513887,0.36926803,-0.6600399,9.042912,-119.16247,28.91777
220937891000.0,4.39653027843761,8.86539600502179,-3.487842384699193,-0.03145956,0.6032294,-0.66523224,8.90474,-118.88617,28.64187
220942838000.0,4.409582961355508,8.8048790638381,-3.5488339732234637,-0.08032878,0.8686504,-0.65393126,8.695807,-118.606094,28.367296
220947894000.0,4.422923241289386,8.743028719260632,-3.611169423310124,-0.07788532,1.1294898,-0.636827,8.416079,-118.33168,28.102959
220952897000.0,4.436123680472374,8.681826726792066,-3.672851436123328,-0.058948494,1.2956452,-0.61941737,8.086111,-118.06521,27.850239
220957820000.0,4.449113039276663,8.62160337901618,-3.733547128523769,-0.033292156,1.3112222,-0.59864795,7.7265778,-117.81047,27.610096
220962884000.0,4.462474427248409,8.559655169969444,-3.795981210651705,0.014660766,1.1569787,-0.5635232,7.374835,-117.57149,27.383469
220967840000.0,4.475550856708912,8.499028131257827,-3.857083760222412,0.053450707,0.8732319,-0.52442783,7.065934,-117.34518,27.166416
220972840000.0,4.488743380377699,8.437862837965236,-3.918728786020137,0.056199603,0.5384777,-0.4801401,6.828444,-117.13553,26.96194
220977848000.0,4.501957012084357,8.376599680203377,-3.98047244385914,0.04734206,0.1695151,-0.4437936,6.6967664,-116.940094,26.765625
220983794000.0,4.517645561231278,8.303861913419826,-4.053780708537795,0.031154128,-0.16493362,-0.41233405,6.663699,-116.75986,26.579863
220987824000.0,4.52827873530832,8.254562687025999,-4.103466599330762,0.007941248,-0.43951756,-0.37751472,6.7304354,-116.59421,26.404205
220992812000.0,4.541439596920303,8.19354419043731,-4.164963677066573,-0.004276057,-0.64873886,-0.32345316,6.882965,-116.44632,26.24192
220997875000.0,4.554798346387317,8.131608214449232,-4.22738543018935,-0.004276057,-0.7837401,-0.29229903,7.097547,-116.304634,26.082512
221002850000.0,4.56792490743776,8.070748747623103,-4.288722230858087,0.010995574,-0.82558435,-0.27030787,7.3471513,-116.17861,25.936247
221007841000.0,4.581093684563943,8.009693551858438,-4.350256295609377,-0.015577064,-0.8008443,-0.24587326,7.6159983,-116.06306,25.800417
221012812000.0,4.594209691595451,7.948883017266944,-4.411543780257476,-0.013744468,-0.6872234,-0.23945917,7.866658,-115.95254,25.668482
221017817000.0,4.607415407787908,7.88765655868106,-4.473250451080999,-0.0290161,-0.605062,-0.2669481,8.116126,-115.83967,25.535513
221022838000.0,4.620663340056104,7.826234371156639,-4.535154385987076,-0.04734206,-0.4147775,-0.28985557,8.292969,-115.73181,25.412046
221027849000.0,4.633884887276962,7.764934514218805,-4.596935030841557,-0.051618114,-0.21013765,-0.35094208,8.4355755,-115.60738,25.27394
221032838000.0,4.647048387393679,7.703903784571457,-4.658444437582528,-0.06505715,-0.009773844,-0.43860126,8.516824,-115.46993,25.127928
221037788000.0,4.660108985825778,7.643350144211792,-4.719473013122276,-0.07574729,0.19058995,-0.5348125,8.531288,-115.31521,24.969015
221042810000.0,4.673359556598708,7.581915723628713,-4.781389277033512,-0.06566802,0.35979962,-0.61850107,8.490965,-115.14253,24.795307
221047908000.0,4.688974134660263,7.5248441525101475,-4.828478529701378,-0.058643065,0.48808134,-0.66156703,8.400374,-114.95697,24.612558
221053531000.0,4.712365477202215,7.476985986943736,-4.835469040538826,-0.03756821,0.5497787,-0.677755,8.278104,-114.760315,24.419523
221057853000.0,4.730344737822225,7.440200820381752,-4.840842148815449,0.024129177,0.50518554,-0.6783658,8.288516,-114.74103,24.354189
221062880000.0,4.75125675613245,7.397415296941888,-4.847091712745709,0.10476339,0.344528,-0.64965516,8.31349,-114.73116,24.292572
221067842000.0,4.771898378343577,7.35518299789502,-4.853260468707904,0.19150625,0.08827003,-0.59773165,8.37997,-114.735176,24.23503
221072885000.0,4.79287695569358,7.312261296143035,-4.859529923830303,0.24862215,-0.2415972,-0.5314528,8.517424,-114.75832,24.184288
221078011000.0,4.814200808062431,7.2686331693969155,-4.865902564511925,0.2660318,-0.5723807,-0.45875978,8.732711,-114.80488,24.142904
221082881000.0,4.834459715794835,7.22718389564475,-4.871956946119318,0.23487769,-0.829555,-0.41874814,9.023907,-114.86556,24.102568
221087882000.0,4.85526357566542,7.184619661962084,-4.878174186862352,0.16035213,-0.97524637,-0.3921755,9.379572,-114.944786,24.07049
221092835000.0,4.875867758416672,7.142463963215785,-4.884331754028968,0.05589417,-0.9624182,-0.37232238,9.760833,-115.032036,24.042543
221097894000.0,4.896912894806452,7.099406083151677,-4.890621100343506,-0.040011674,-0.8552113,-0.35124752,10.152753,-115.12444,24.018665
221102868000.0,4.917604436297413,7.057071650370718,-4.896804774699805,-0.11575896,-0.65484756,-0.33322698,10.506554,-115.21652,24.001848
221107882000.0,4.938462375387818,7.014396771809453,-4.903038177036453,-0.19639318,-0.40439278,-0.3304781,10.806643,-115.30272,23.991652
221112883000.0,4.959266235258404,6.971832538126788,-4.909255417779487,-0.24007004,-0.1572978,-0.3381139,11.041783,-115.38811,23.990824
221117835000.0,4.97986625806967,6.929685350524997,-4.915411741746594,-0.2593123,-0.05009095,-0.36193767,11.238886,-115.46497,23.99017
221122804000.0,5.000536999860699,6.887393473466576,-4.921589200105348,-0.22357668,0.09865474,-0.3680463,11.344806,-115.545715,24.00456
221127919000.0,5.021815092889703,6.84385896931004,-4.927948165592374,-0.20952678,0.17256944,-0.37293324,11.437779,-115.6165,24.01382
221132887000.0,5.042481674740747,6.801575603396127,-4.934124380751621,-0.16493362,0.17256944,-0.36865717,11.506276,-115.69448,24.027145
221137887000.0,5.063281374671346,6.759019880857968,-4.940340378295146,-0.112704635,0.10842858,-0.34513888,11.571265,-115.77847,24.044754
221142838000.0,5.083877237542627,6.716881204400685,-4.946495459062745,-0.08674286,-0.055283304,-0.32345316,11.665887,-115.86486,24.057932
221147865000.0,5.104789255852851,6.674095680960821,-4.952745022993005,-0.08032878,-0.26511553,-0.312763,11.7936945,-115.95771,24.068657
221152884000.0,5.125667994643187,6.631378246677018,-4.958984641327195,-0.09896017,-0.49571714,-0.2919936,11.978187,-116.05881,24.078318
221157823000.0,5.1462139382346335,6.589341703953826,-4.965124803700689,-0.160963,-0.7098254,-0.26847526,12.220481,-116.15909,24.080864
221162872000.0,5.167217475224553,6.546368935334795,-4.97140171802014,-0.24281894,-0.83016586,-0.26053402,12.502029,-116.25591,24.076555
221167838000.0,5.187875737195624,6.504102591709897,-4.97757544678037,-0.34330627,-0.8023715,-0.28038713,12.799955,-116.34187,24.066418
221172826000.0,5.20862551784639,6.46164900290583,-4.98377652592979,-0.43279803,-0.67256266,-0.30879238,13.0996475,-116.41873,24.054176
221177823000.0,5.229412737957031,6.419118813801195,-4.989988793874789,-0.5128214,-0.4831944,-0.35430184,13.366696,-116.47461,24.035828
221182822000.0,5.250208277947645,6.376571602407545,-4.996203548218806,-0.5476407,-0.27152961,-0.42546764,13.58068,-116.510506,24.010685
221187822000.0,5.271007977878244,6.334015879869387,-5.002419545762331,-0.5174029,-0.11026118,-0.48502702,13.747639,-116.5355,23.984062
221192824000.0,5.291815997688817,6.291443135042215,-5.008638029704874,-0.44348818,0.0027488936,-0.5531385,13.857841,-116.540886,23.944954
221197826000.0,5.312624017499388,6.248870390215042,-5.014856513647415,-0.36926803,0.03970624,-0.6239988,13.936761,-116.53407,23.89394
221202813000.0,5.3333696382101685,6.206425312555483,-5.021056349597328,-0.28924468,0.02443461,-0.6420194,13.995044,-116.53351,23.843058
221207829000.0,5.354235897180546,6.163733411705203,-5.027292238332992,-0.18478674,-0.030848695,-0.6450737,14.049516,-116.53138,23.777431
221212823000.0,5.375010637471228,6.121228756034091,-5.033500776679465,-0.08827003,-0.12858713,-0.6227771,14.120802,-116.54106,23.711508
221217828000.0,5.395831137101759,6.078630477773396,-5.039722990220533,-0.039095376,-0.17256944,-0.57635134,14.192271,-116.56422,23.652538
221222838000.0,5.416672436432219,6.0359896437901615,-5.045951419759145,-0.01985312,-0.21685717,-0.5412266,14.292274,-116.5994,23.591635
221227829000.0,5.437434696902944,5.993510521552572,-5.0521562285070925,0.0036651916,-0.22602014,-0.45081854,14.3996935,-116.668015,23.559374
221232826000.0,5.458221917013585,5.950980332447937,-5.058368496452091,-0.05131268,-0.17531833,-0.3567453,14.502871,-116.73894,23.539597
221238703000.0,5.482669884312012,5.9009603361765866,-5.06567477996475,-0.16523905,-0.0720821,-0.267559,14.596757,-116.82634,23.546759
221242811000.0,5.499758917774993,5.865996554539237,-5.07078184354651,-0.35277468,0.038179077,-0.20555615,14.676161,-116.912384,23.57618
221247845000.0,5.2748892144715285,5.857993133423259,-5.095490349725407,-0.56413406,0.17592919,-0.16920967,14.719317,-116.99449,23.631351
221252843000.0,4.149633407688602,5.977897267424607,-5.187724661971288,-0.7263188,0.2837469,-0.15790866,14.740329,-117.0659,23.701212
221257858000.0,3.1189516176942877,6.084055834668039,-5.271419726567164,-0.82253003,0.3359759,-0.1863139,14.786099,-117.27292,23.915098
221262829000.0,2.692626530808029,6.103657027493567,-5.300821336716417,-0.88056225,0.33536503,-0.23396139,14.81526,-117.459274,24.127554
221267820000.0,2.30615179442249,6.101545628103107,-5.377166282791449,-0.89980453,0.3023783,-0.28191432,14.78519,-117.43169,24.085112
221272828000.0,2.0950800673163283,6.006778966130771,-5.652851600125741,-0.90102625,0.21838433,-0.32559118,14.768676,-117.38901,24.027845
221278191000.0,1.8743921734204996,5.915045704672214,-5.941446527384109,-0.8900307,0.14477506,-0.36041048,14.728058,-117.263725,23.866135
221282824000.0,1.8094831953003567,6.065147703337296,-6.034753376702935,-0.87872964,0.16157386,-0.37873647,14.684301,-117.13414,23.699543
221287752000.0,1.7404412259120416,6.224807243467129,-6.134001413276035,-0.8597928,0.16798794,-0.3839288,14.6733,-116.999245,23.471455
221292818000.0,1.7379563975660772,6.432806281460353,-6.295666102490968,-0.8417723,0.16249016,-0.3827071,14.659955,-116.866806,23.243555
221297789000.0,1.7560610839323063,6.650062659640616,-6.47218670003803,-0.8228355,0.18387043,-0.37873647,14.6363735,-116.74054,23.020502
221302794000.0,1.8113082871262376,6.765947345072589,-6.574411005537929,-0.79168135,0.21166481,-0.3747658,14.592196,-116.59658,22.755926
221308226000.0,1.891333277800212,6.835969120517258,-6.644433042111335,-0.7516697,0.2751948,-0.36743546,14.5320015,-116.463715,22.502157
221312820000.0,2.022609588062992,6.912852059346457,-6.598427547464567,-0.73364913,0.30726522,-0.3735441,14.450002,-116.32431,22.212372
221317810000.0,2.203226685070866,7.006923342889764,-6.485541802897638,-0.7165449,0.37843102,-0.38331795,14.339384,-116.198166,21.937943
221323003000.0,2.4041654950513385,7.091740456892779,-6.368088053677832,-0.7156286,0.46822822,-0.39400807,14.190401,-116.08284,21.656134
221327853000.0,2.720799757380912,7.040922645076586,-6.258634141878472,-0.7519751,0.5561928,-0.39614612,14.02469,-115.97121,21.38826
221332802000.0,3.0438972757869047,6.989067521225382,-6.146946016209393,-0.8176431,0.59406644,-0.40591997,13.778087,-115.853386,21.11384
221337816000.0,3.434701756426646,6.939537038937235,-5.933167565945322,-0.8359691,0.5626069,-0.44806966,13.533961,-115.73788,20.845121
221342822000.0,3.855597485082788,6.891540274270312,-5.671030852922603,-0.84329945,0.5030475,-0.4810564,13.297138,-115.62125,20.589685
221347826000.0,4.241163897426828,6.8215446191175175,-5.426304717923777,-0.86284715,0.44959682,-0.52442783,13.062341,-115.54146,20.404108
221352832000.0,4.224206974339022,6.499362682058537,-5.37967317943231,-0.9016371,0.4098906,-0.552833,12.847348,-115.45764,20.219683
221357788000.0,4.207419417242904,6.180398702820762,-5.333507397417986,-0.9602802,0.41263947,-0.55680364,12.592843,-115.405136,20.131021
221362817000.0,4.017491220411677,5.969585458159192,-5.27878815955232,-1.0341948,0.45875978,-0.5571091,12.343139,-115.34063,20.043327
221367741000.0,3.792357862847304,5.788740777154262,-5.223427593253502,-1.1145236,0.50732356,-0.571159,12.097841,-115.26369,19.95786
221372801000.0,3.520063364677024,5.606509110538748,-5.16645037223585,-1.2119566,0.5537493,-0.5839872,11.856417,-115.197174,19.908665
221378486000.0,3.0798407645134915,5.413602707295357,-5.102148100090852,-1.3096951,0.59620446,-0.6065892,11.605489,-115.11382,19.8603
221382840000.0,2.74137475133378,5.26646924640023,-5.059807316282628,-1.409877,0.66431594,-0.634689,11.336618,-114.98025,19.780504
221387814000.0,2.3360284204799697,5.107063270532556,-5.109906372597763,-1.5149459,0.7348709,-0.6808093,11.057549,-114.82404,19.69667
221393190000.0,1.9123085335476284,4.936490629125833,-5.155311239435515,-1.5937474,0.79412484,-0.7315111,10.763729,-114.59755,19.546522
221397858000.0,1.845716100838887,4.82433492987064,-5.011611864131713,-1.6740762,0.8338311,-0.7837401,10.458451,-114.34812,19.391068
221402812000.0,1.7750436690395923,4.705307651783614,-4.859108285456684,-1.7330247,0.84635377,-0.82711154,10.156482,-114.03993,19.164892
221407818000.0,1.857977393124941,4.625736779176504,-4.710737272348664,-1.7889189,0.84574294,-0.88422745,9.84862,-113.71049,18.926498
221412824000.0,2.15679120145434,4.603099390943432,-4.570385228926244,-1.8301523,0.8436049,-0.9245446,9.5425205,-113.37471,18.685698
221417772000.0,2.466434019116768,4.558783212650551,-4.450988406192876,-1.8509218,0.8338311,-0.9462303,9.226744,-113.00486,18.430075
221422839000.0,2.818760183761852,4.459302901631503,-4.376378248671735,-1.8955148,0.8576548,-0.97249746,8.905796,-112.6217,18.168146
221428211000.0,3.1892041613308857,4.351786180468104,-4.3016037743552085,-1.9413297,0.90010995,-0.9896017,8.568705,-112.26996,17.966753
221432829000.0,3.432760024515833,4.209711916346948,-4.342196354639743,-1.9788979,0.977079,-0.9923506,8.221366,-111.917984,17.769417
221437744000.0,3.691979831262047,4.058500351133548,-4.385399588095456,-2.0409007,1.0662653,-0.9804387,7.8580737,-111.622734,17.668238
221442815000.0,3.880135224354852,3.847050369461621,-4.478747738379092,-2.115121,1.151481,-0.9718866,7.479964,-111.327156,17.57173
221448276000.0,4.056922683898096,3.6012725017066534,-4.595168793346525,-2.1954496,1.2333369,-0.9627236,7.084673,-111.03325,17.485462
221452771000.0,4.23192499693604,3.3297027440827267,-4.752113441976254,-2.2886066,1.3411547,-0.96669424,6.662159,-110.792755,17.47513
221457828000.0,4.482328811183455,2.8984522040980467,-5.039614011786672,-2.3658812,1.4648548,-0.9776898,6.217693,-110.553406,17.470427
221462766000.0,4.711604181908563,2.473556606923077,-5.329355503534107,-2.4495697,1.600467,-0.990518,5.75882,-110.373146,17.533264
221467809000.0,4.900862226255443,2.0284497892307694,-5.651794859492018,-2.500577,1.7666223,-1.010982,5.259934,-110.1934,17.596972
221472814000.0,5.088694173896952,1.586696939230769,-5.97180457128447,-2.554333,1.9489655,-1.01312,4.7453094,-110.11646,17.753304
221477834000.0,5.013045463568106,1.4374863031747327,-6.007150824532768,-2.5906794,2.0803015,-1.0128145,4.2026396,-110.04188,17.906939
221482824000.0,4.685434635199544,1.570090635664735,-5.769243116216437,-2.631302,2.1465805,-1.0100657,3.6326237,-109.97193,18.062601
221487802000.0,4.34510309388601,1.7109569060794472,-5.506675354507772,-2.6535985,2.1197023,-0.9795224,3.087725,-110.04076,18.319061
221492829000.0,3.767225480984456,2.001974450829016,-4.804076048341969,-2.6771169,1.9828686,-0.9294315,2.5652206,-110.11993,18.576422
221497786000.0,3.197394701761658,2.288939632711572,-4.111260301243523,-2.6407704,1.7693712,-0.893085,2.061978,-110.106316,18.735373
221502828000.0,2.524378118439323,2.5633370739794503,-3.006415242099417,-2.5961773,1.4584408,-0.8570439,1.6384026,-110.114624,18.897379
221508084000.0,1.788190005137462,2.842902123021383,-1.706437518356012,-2.5622742,1.0836749,-0.8142834,1.3066487,-110.14636,19.060198
221512821000.0,1.1001567166165849,3.036705517104883,-0.4654505286622363,-2.5240953,0.870483,-0.7861836,0.9680874,-109.990036,19.056763
221517836000.0,0.3554338983458538,3.2032273290571127,0.8944781738322258,-2.4984388,0.47952923,-0.70371675,0.80406815,-109.873566,19.063356
221522878000.0,-0.3122488918837573,3.3647500719373777,2.110671975381605,-2.4648414,0.18295415,-0.625526,0.4894513,-109.4733,18.822758
221527865000.0,-0.8963919597302348,3.5189639219960864,3.1714757272113503,-2.436436,0.046120327,-0.52839845,0.26297662,-109.126625,18.610823
221532879000.0,-1.3871980150529843,3.723961488488362,4.21907731859433,-2.43216,0.022296581,-0.42271876,0.051014453,-108.61789,18.27497
221537818000.0,-1.7641916032334026,3.9810026872384743,5.23010569370528,-2.4061983,0.10140363,-0.30390546,359.8653,-108.179596,17.971914
221542753000.0,-2.329114058830992,4.245147438876303,6.337140017852288,-2.3515258,0.22876903,-0.18448131,359.63202,-107.65185,17.567865
221547824000.0,-3.5129574592750337,4.540008052016312,7.785037580063434,-2.2953262,0.37598756,-0.05100725,359.38693,-107.21902,17.203812
221552869000.0,-4.664113692847577,4.814397876998819,9.15216414690823,-2.2492058,0.53786683,0.032375857,359.05197,-73.243,16.750189
221557826000.0,-5.3484318575265855,4.7657851109885785,9.264347753446238,-2.233018,0.6444628,0.08002335,358.71173,-73.59086,16.326471
221563746000.0,-6.1656930104214265,4.707728307522647,9.39832535092556,-2.2996023,0.63346726,0.09896017,358.29944,-74.09986,15.602343
221567825000.0,-6.566300601363241,4.718505730300686,9.414340385284731,-2.4129176,0.47647488,0.024740042,357.94595,-74.472015,14.884178
221572833000.0,-6.937261894759741,4.769512861539205,9.37724448351542,-2.5616634,0.19700404,-0.070554934,357.6738,-74.69252,14.186807
221577835000.0,-6.938455364457831,4.925305653222892,9.154942407730925,-2.7281241,-0.051923547,-0.18509217,357.46558,-74.96563,13.27581
221582816000.0,-6.473887096385542,5.212667494819277,8.699952562650603,-2.8863382,-0.22540927,-0.24007004,357.36804,-75.07061,12.391563
221587821000.0,-5.932546340438489,5.473057552862363,8.323948505237516,-2.9810224,-0.28099802,-0.20097467,357.34686,-75.0876,11.439608
221592819000.0,-5.299567077344702,5.69793163544458,8.04910216272838,-3.0692923,-0.2593123,-0.121256754,357.3979,-74.93378,10.519633
221598645000.0,-4.418408907075472,6.186068825042882,7.986911213593482,-3.1764994,-0.19547687,-0.0027488936,357.47455,-74.55343,9.735112
221602809000.0,-3.50924468254717,6.975531322469983,8.445768597984562,-3.306308,-0.16218472,0.08857546,357.57593,-74.040375,8.986677
221607836000.0,-2.411653770754717,7.928612008004574,8.99972538744997,-3.4348953,-0.18081611,0.25503623,357.65305,-73.290276,8.45609
221612792000.0,-1.5125558636230574,8.898331965463367,9.637949852068086,-3.5106425,-0.29229903,0.3436117,357.7584,-72.474434,7.94545
221617811000.0,-0.9513050598536305,9.93783162009703,10.460063372748952,-3.5347717,-0.50946164,0.5342017,357.88818,-71.57537,7.5302944
221623494000.0,-0.3346168248210024,11.092502332637231,11.344710408711215,-3.5760052,-0.915687,0.7611381,357.9975,-70.371925,7.473935
221627799000.0,-0.1659370319809069,11.61259840214797,11.28145531026253,-3.6080756,-1.0494665,0.8313876,358.08853,-69.1789,7.4248114
221632909000.0,0.0342845107398567,12.22994820823389,11.206372022673031,-3.591277,-1.151481,0.9569204,358.19983,-67.851746,7.5947304
221637818000.0,0.3262414659296394,12.646674535224276,10.83754126921724,-3.462995,-1.0445796,0.98746365,358.29025,-66.59085,7.7455144
221642817000.0,0.6967737738434477,12.941415707124012,10.243847806508356,-3.2220087,-0.7800749,0.9801333,358.35406,-65.397316,7.9070735
221647885000.0,1.1734157027711123,13.198298803080734,9.637609545630466,-2.9275718,-0.47433686,0.93187493,358.376,-64.33307,8.058872
221652817000.0,1.860757455786052,13.35551045475656,9.038013260778698,-2.6013696,-0.183565,0.8949176,358.33182,-63.37738,8.177742
221657792000.0,2.554091847766855,13.514092767629071,8.433189352194443,-2.3228152,0.11148291,0.89369583,358.20438,-62.608665,8.301082
221662821000.0,2.992689862337662,13.206044038961036,7.897631496103896,-2.0723603,0.38606682,0.8848383,358.0144,-61.94782,8.375906
221668583000.0,3.371817441072476,12.63272914260578,7.319693192191035,-1.9214766,0.6533204,0.91507614,357.7481,-61.351032,8.421839
221672873000.0,3.620567420412882,12.201644749132948,7.149887209248555,-1.9071213,0.9315695,0.91629785,357.37875,-60.900425,8.535958
221677864000.0,3.849491772898431,11.692484854913294,7.422228480924855,-2.087021,1.2217305,0.8518516,356.94687,-60.45056,8.60189
221682799000.0,4.075847549199009,11.18903783468208,7.691514030057803,-2.345417,1.3695599,0.754724,356.45178,-60.015495,8.707848
221687827000.0,4.112877764997307,10.750362378675284,8.694568981324718,-2.6090055,1.2852604,0.6398814,355.9618,-59.546867,8.785058
221692988000.0,4.063946093144056,10.322457392805292,9.769832304081303,-2.8295279,0.99021256,0.53786683,355.50897,-59.03864,8.850787
221697830000.0,3.297206879222456,10.075604437489918,10.36452269801581,-2.980717,0.7357872,0.44623706,355.04834,-58.35522,8.956523
221702826000.0,2.506081494515244,9.820900314244232,10.978127243265044,-3.0524936,0.67256266,0.32650748,354.6084,-57.46027,9.056739
221707848000.0,1.2308737355537356,9.603556147602148,11.615067224952226,-3.100141,0.6105598,0.15668693,354.26273,-56.569508,9.151019
221712829000.0,-0.3926203683592684,9.416897603330604,12.261860205569205,-3.1187725,0.6038403,0.050396383,353.9368,-55.69765,9.226243
221717813000.0,-1.8603571297650607,9.183096343450044,12.657228103574369,-3.150232,0.6423248,-0.20219639,353.70242,-54.74886,9.099802
221722822000.0,-3.066300094707012,8.867358774613768,12.622146329554804,-3.1151073,0.6569856,-0.47647488,353.50708,-53.84528,8.946638
221727837000.0,-3.9936990522050806,8.289968162342216,12.323616934237185,-3.00057,0.59528816,-0.7464773,353.444,-52.94585,8.512369
221732829000.0,-3.684519139348605,6.565265419004208,10.867118278790713,-2.7721064,0.4783075,-0.99296147,353.445,-52.11808,8.035956
221738293000.0,-3.346105869347047,4.677489820126227,9.27290580816581,-2.4281893,0.3475823,-1.1508701,353.5622,-51.38939,7.3805575
221742819000.0,-2.8478896084406164,3.3990606996373525,8.896995560199457,-1.9764545,0.13836098,-1.1407908,353.74933,-50.764427,6.7563343
221747812000.0,-2.1846076736355395,2.1375242496826834,8.975028952674524,-1.5131133,-0.14966199,-1.0073168,353.99966,-50.245464,6.1762395
221752788000.0,-1.7802358818181818,1.0255475850905411,9.281713751263904,-1.1817188,-0.5161811,-0.8344419,354.28232,-49.772305,5.7565923
221757835000.0,-1.7535785454545456,0.1147561949076201,9.934818005055613,-1.0146471,-0.86101454,-0.66339964,354.60452,-49.379925,5.417687
221762769000.0,-1.7455434748275127,-0.611791674087773,10.622647708016215,-0.98471475,-1.176221,-0.49480084,354.90176,-48.86409,5.2939477
221767821000.0,-1.800605172160182,-0.7804181558574579,11.500193295895867,-1.0830641,-1.5018122,-0.3820962,355.2537,-48.358524,5.261801
221772839000.0,-1.8552963038338437,-0.9479097800697064,12.371832995020982,-1.2565498,-1.7916678,-0.35705075,355.61136,-47.691174,5.316864
221777811000.0,-1.7929964279748634,-0.7731461627893776,13.129740531725115,-1.4825699,-1.9031507,-0.3680463,355.97858,-46.985687,5.416671
221782833000.0,-1.5687559327386986,-0.124798449641192,13.74883921285222,-1.7238617,-1.8115209,-0.40408736,356.35498,-46.235596,5.532613
221787822000.0,-1.5068610294390827,0.4573156192758145,14.149803287714969,-1.9422461,-1.5598444,-0.46028697,356.6956,-45.299152,5.6234484
221792811000.0,-1.6420738986503156,0.9634971989042884,14.288483441332268,-2.0723603,-1.3255776,-0.5161811,357.02002,-44.33707,5.692789
221797862000.0,-1.7789671041796675,1.475969269199623,14.428887020390391,-2.108096,-1.1679744,-0.5589417,357.30838,-43.335556,5.7404757
221802825000.0,-1.6392164257579946,1.380421068002949,14.66927514450281,-2.0583105,-1.1255192,-0.5635232,357.57385,-42.34226,5.762445
221808042000.0,-1.3675576056308174,1.0074657623076213,14.968560073449453,-1.9294178,-1.0564915,-0.5381723,357.805,-41.3816,5.745538
221812820000.0,-0.767133512032292,0.7909689356911197,15.499821767286768,-1.7779233,-1.0708468,-0.4990769,358.07043,-40.4999,5.7047124
221817818000.0,0.1669792500315901,0.6733647992586872,16.279369423306424,-1.7055358,-1.176221,-0.3839288,358.31787,-39.647495,5.6906705
221822825000.0,1.102774087897508,0.5555488906718147,17.060320826605825,-1.6310102,-1.3613132,-0.20463985,358.52817,-38.771843,5.7650576
221827810000.0,2.2025039657908896,1.2657907076183643,17.648876852672167,-1.6664404,-1.6053538,0.042455133,358.72482,-37.89884,5.909708
221832827000.0,3.3916114688845056,2.38596451374462,18.148646441355808,-1.8240436,-1.7922786,0.31031954,358.89417,-37.024166,6.117681
221837819000.0,4.26688420791176,5.01160694770277,18.578482454635925,-2.111761,-1.7962493,0.54275376,358.92374,-35.9828,6.5579605
221842820000.0,4.755432594684027,9.547558408409357,18.924041268950077,-2.4840834,-1.5589281,0.70921457,358.88898,-34.89185,7.009433
221847970000.0,5.218095998335094,13.927098135222936,19.198863835945748,-2.8411343,-1.1511755,0.8072584,358.74857,-33.809795,7.591932
221852811000.0,5.044895216949565,13.659766855071876,18.23872954820109,-3.0133982,-0.74067414,0.79351395,358.55322,-32.704876,8.106307
221857826000.0,4.865469082132705,13.382826890197352,17.244085166247054,-2.9251282,-0.4266894,0.7620544,358.48593,-32.2764,8.483709
221862819000.0,4.565212228715764,12.321753306575104,16.04214274323151,-2.5934284,-0.13622294,0.81061816,358.33405,-31.86534,8.765781
221867808000.0,4.172996218699187,10.66614918699187,14.680700601626016,-2.2632558,0.13103059,0.92271197,358.12308,-31.477943,8.973559
221872983000.0,3.760861082947857,8.950677272535854,13.274263688634669,-2.0815234,0.4184427,1.0833695,357.85388,-31.207293,9.11119
221877811000.0,3.304740595739037,7.375336613263698,12.04005470877891,-2.0690005,0.8555168,1.2895365,357.47897,-30.968643,9.169221
221882830000.0,2.830575573928542,5.737674067926717,10.757019317333995,-2.1493294,1.2980887,1.4831808,357.00668,-30.577961,9.186773
221887923000.0,2.624466621014311,3.973222930973303,9.665986116327726,-2.1997259,1.5314392,1.536937,356.4914,-30.20562,9.158939
221892820000.0,2.5812935969118755,2.218830407515273,8.735804880157335,-2.0894647,1.7620409,1.4544702,355.90692,-29.864042,9.03446
221897800000.0,2.5204679127150484,0.8352094818667194,8.00189601216136,-1.8774943,1.9978348,1.3017539,355.29666,-29.380947,8.8394165
221902797000.0,2.402178142159383,0.8020883737789203,7.982969763496143,-1.6395624,2.108096,1.2257011,354.6865,-28.951067,8.619673
221907804000.0,2.2583372171278677,0.7919411805421253,7.898968934019134,-1.5228871,2.3429737,1.0543534,354.05475,-28.359447,8.307962
221912825000.0,2.0159576747556835,0.8710855130027775,7.562605527517745,-1.344209,2.5546384,0.87689704,353.44705,-27.86582,7.964655
221917806000.0,1.774379847743468,0.9742456003562944,7.332176187743468,-1.14018,2.7088819,0.70616025,352.87994,-27.415985,7.544383
221922814000.0,1.5283109945368172,1.1474052298099762,7.391415046536817,-0.829555,2.7232373,0.56321776,352.35745,-27.061878,7.0908537
221927820000.0,1.3215994,1.3488025536703387,7.518383063934933,-0.37812558,2.4715607,0.4654793,351.91193,-26.836164,6.632233
221932841000.0,1.3215994,1.7002948853083495,8.003541518274478,0.16646078,2.021964,0.46578476,351.51492,-26.732641,6.222647
221937835000.0,1.3401778797959034,2.0943564499522798,8.581746976873944,0.66828656,1.4908166,0.548557,351.196,-26.760998,5.8725095
221942813000.0,1.4241775822700242,2.643854630027164,9.495243782394832,0.9596693,0.95294976,0.6658431,350.93436,-26.88365,5.6512537
221947860000.0,1.509341603641436,3.200969397973717,10.42140255649365,0.981355,0.4541783,0.7348709,350.75314,-27.082417,5.564111
221952798000.0,2.0697907295112232,4.019736949995141,11.847744465260908,0.67256266,0.02687807,0.73273283,350.62292,-27.263237,5.605876
221957943000.0,3.1614405910893013,5.164054343251385,13.88740624740064,0.028099801,-0.32528573,0.7351763,350.52966,-27.346447,5.7666435
221962827000.0,4.16344476303761,6.035863324815548,15.408135154399856,-0.86284715,-0.62949663,0.7480045,350.50095,-27.28583,6.0249777
221967808000.0,5.142036923555875,6.653921437106352,16.433940597804572,-1.9062049,-0.9077458,0.7272351,350.51923,-26.998322,6.3574452
221972819000.0,5.924102723102573,7.133830832565894,17.344449457367418,-2.8023443,-1.1475104,0.67103547,350.56506,-26.522415,6.8685417
221977805000.0,5.950638804112416,7.084549154731661,17.799354664576054,-3.2275066,-1.38025,0.5561928,350.65558,-25.900879,7.4231253
221982913000.0,5.977824183534455,7.034061627580184,18.26539072523023,-3.0708196,-1.518611,0.40286562,350.75763,-25.233814,8.10849
221987876000.0,5.976902290039976,6.042063896146976,17.230071139321254,-2.4281893,-1.4712689,0.2565634,350.8786,-24.613129,8.765969
221993608000.0,5.96289518734371,4.449911164531768,15.329760295738708,-1.5940529,-1.1844677,0.21777347,350.98468,-24.114061,9.366212
221997782000.0,5.980587065302282,3.322963415758645,13.984168185211322,-0.8524625,-0.9447031,0.26175576,351.0868,-23.734024,9.926838
222002837000.0,6.052711724441307,2.0171294527028936,12.424000088292953,-0.2565634,-0.35613444,0.29260445,351.11636,-23.558113,10.296153
222008005000.0,6.126448665772759,0.6821047403246299,10.82895583015761,-0.018325957,0.3115413,0.34422258,351.03604,-23.370178,10.62169
222012824000.0,6.090702833341252,-0.6450127078189594,9.416491864940207,0.3539964,0.8588765,0.34330627,350.9001,-23.38912,10.81604
222017744000.0,6.030998339162113,-2.0182116047540983,7.991051595992714,0.6133087,1.2382239,0.26633725,350.70944,-23.444368,10.874735
222022866000.0,5.906493499590699,-3.420697946965079,6.483488205059653,0.77121735,1.5671748,0.07086037,350.44974,-23.47176,10.856304
222027810000.0,5.62198664305495,-4.703041004354263,4.966117729469651,0.88117313,1.919644,-0.25900686,350.19965,-23.568998,10.713938
222033179000.0,5.3047266714156525,-6.070294801216705,3.321158595273759,0.9669997,2.2809708,-0.68539083,349.95618,-23.621864,10.505461
222037843000.0,4.8457263811821765,-6.698207081387701,1.9551739783122328,1.0338894,2.6392434,-1.1090258,349.76276,-23.716164,10.177395
222042749000.0,4.362910038153568,-7.3586997157185134,0.5183128010366653,1.0965031,3.010344,-1.4840971,349.67566,-23.896996,9.765317
222047842000.0,4.205100266400456,-7.647386094609241,0.0597567135296634,1.1753048,3.3127222,-1.7699821,349.64865,-24.114853,9.249206
222052810000.0,4.347588769537935,-7.586319583143183,0.504185027465773,1.2672399,3.5164459,-1.9856175,349.6774,-24.364038,8.636997
222057876000.0,4.492888036223617,-7.524048458528237,0.9573802445350827,1.3316863,3.5023959,-2.076331,349.64438,-24.473675,7.8904095
222063669000.0,4.595703492275912,-6.861102565618825,2.2932064973145323,1.3674219,3.261104,-2.0088303,349.64728,-24.594513,7.146449
222067824000.0,4.656459638315071,-6.264263945895456,3.4189800876234955,1.3298537,2.7974575,-1.7968601,349.68167,-24.701693,6.473634
222072814000.0,4.249716861643567,-5.293067281038042,4.956185126383565,1.1960741,2.1591032,-1.539075,349.77463,-24.792364,5.962497
222077827000.0,3.367224360021626,-4.066072332645238,6.683416321399784,0.9550878,1.520749,-1.2507466,349.87006,-24.828655,5.60667
222082819000.0,2.285992652196923,-2.667068971790769,8.030296918482051,0.63255095,0.9425651,-0.98532563,350.01776,-24.85644,5.44791
222087822000.0,0.9739200037476924,-1.0650627136430768,8.959067898194872,0.25442538,0.4813618,-0.7867944,350.16342,-24.79335,5.456302
222092818000.0,-0.0152775695509708,0.5525608096237864,9.5316255467233,-0.15027285,0.14844026,-0.6731735,350.2858,-24.572062,5.3840513
222098074000.0,-0.7439583380530512,2.271723788639043,9.789063387916087,-0.5403103,0.0125227375,-0.56779927,350.3889,-24.24062,5.4073315
222102806000.0,-1.2123967431015927,3.802888902593629,9.91323605746879,-0.77732605,-0.12858713,-0.50915617,350.59055,-23.96131,5.3125772
222107913000.0,-1.0071189214808438,5.392476014076625,9.639532295307792,-0.8188649,-0.11911872,-0.39278635,350.74628,-23.62572,5.235364
222112760000.0,-0.6833885087632355,6.624561969102586,9.398932796129143,-0.788627,0.071776666,-0.2996294,350.95987,-23.50703,5.045644
222117813000.0,-0.0995981091025863,7.380549447404964,9.1847363804895,-0.679893,0.36132678,-0.22968534,351.135,-23.401188,4.839348
222122856000.0,0.459790957726723,8.079420123337364,8.99756653688029,-0.48441613,0.68661255,-0.18448131,351.2681,-23.594381,4.6443167
222127811000.0,0.6281049660983474,7.853726364167674,9.250037467553408,-0.26908615,1.0204504,-0.17562376,351.3601,-23.810984,4.375006
222133284000.0,0.8140146669697702,7.604438383555018,9.528901928415962,-0.039095376,1.3750577,-0.22296582,351.3468,-24.084415,4.08741
222137819000.0,0.4311130505472154,7.134459332213075,9.934189190508476,0.204029,1.6187929,-0.28863382,351.3105,-24.414532,3.7455454
222142819000.0,-0.3433792981210655,6.44344514335109,10.495348512542373,0.43463063,1.6417004,-0.3662137,351.2745,-24.797655,3.3693104
222147811000.0,-1.0793721425689369,5.700184275367809,11.044970973306317,0.59986967,1.4660766,-0.4370741,351.24734,-25.205742,3.0244327
222152823000.0,-1.7813213979296978,4.900977095982733,11.586232974187295,0.6630942,1.1276573,-0.50335294,351.259,-25.634684,2.714808
222157845000.0,-2.4502462386719124,4.062367426763267,12.13130167997313,0.6197228,0.6759224,-0.5348125,351.37143,-26.008106,2.3678746
222162821000.0,-3.003567172478649,3.111204095643412,12.68004928730448,0.52442783,0.22693644,-0.54428095,351.54108,-26.365795,2.106693
222167785000.0,-3.507423788311809,2.2331798940537024,13.245885170398587,0.39400807,-0.1826487,-0.56413406,351.7794,-26.510134,1.7885543
222172841000.0,-3.727863885087801,1.7698059731766236,13.93419829053238,0.258396,-0.5317582,-0.59131753,352.07138,-26.621277,1.571942
222179026000.0,-3.9696057996441856,1.3498078426006792,14.6906990952612,0.13927728,-0.85918194,-0.6123924,352.4249,-26.550081,1.3475137
222182832000.0,-4.046242007245674,1.47065711431344,14.935345241953744,0.02076942,-1.0784826,-0.5867361,352.801,-26.442005,1.191407
222187818000.0,-4.146638258191816,1.6289741055798157,15.255840693191008,-0.05375614,-1.1945469,-0.52320606,353.2001,-26.22668,1.055371
222192822000.0,-4.387967067398632,1.9487450517962053,15.312419316767793,-0.07971791,-1.2034045,-0.5015204,353.61154,-25.997936,0.9506373
222197808000.0,-4.755875762226717,2.413229872657228,15.128465065395355,-0.047647487,-1.1267409,-0.50762904,354.0114,-25.771286,0.8619783
222202812000.0,-4.991969413341862,3.08511019169332,14.24447403180115,-0.01863139,-0.9297369,-0.5491679,354.3941,-25.54968,0.725045
222207824000.0,-5.062149596399525,4.014999563748515,12.485579432513935,0.07086037,-0.61178154,-0.6123924,354.75424,-25.36138,0.53852206
222212953000.0,-4.982303315763847,4.75679530126076,10.919914232240677,0.1731803,-0.24251351,-0.61391956,355.09244,-25.260338,0.23496203
222217814000.0,-4.5330060858186245,4.942990367315885,10.013224248326232,0.29016098,0.14905111,-0.59528816,355.3969,-25.191713,-0.15362565
222223214000.0,-4.033183588114268,5.144006807747092,9.024241791564451,0.41599923,0.49571714,-0.5830709,355.64984,-25.415384,-0.63955444
222227812000.0,-3.590646918651579,5.175367845699137,8.620035130015035,0.52687126,0.713796,-0.56077427,355.86502,-25.658102,-1.1820917
222232854000.0,-3.105377260663132,5.209757222244203,8.176796768220305,0.61850107,0.73456544,-0.4718934,355.98865,-26.03512,-1.6739942
222237831000.0,-2.637682635862913,5.148324361422708,7.787777978184175,0.6444628,0.59131753,-0.37934732,356.10617,-26.40716,-2.1684713
222242810000.0,-2.184507706976744,4.962934599863201,7.461629280437757,0.5983425,0.38331795,-0.28802297,356.21384,-26.767624,-2.6325593
222247818000.0,-1.7286932776009791,4.77646504254446,7.133580941752466,0.49205196,0.18784106,-0.19333886,356.26852,-27.136488,-2.9590936
222252893000.0,-1.233968695090944,4.5495957525560025,6.808641804575914,0.34391713,0.0580322,-0.11636983,356.32742,-27.4658,-3.2362452
222257857000.0,-0.733363712835535,4.308395249167146,6.494626131093241,0.17867808,-0.039095376,-0.015882496,356.38123,-27.74843,-3.4540896
222262829000.0,-0.2666803615465604,4.152198248331792,6.337806357779042,0.042760566,-0.048258353,0.024740042,356.39468,-27.989511,-3.5635905
222267817000.0,0.1750913096435939,4.060445590438928,6.300425738614214,-0.087964594,0.0021380284,0.03176499,356.39804,-28.177757,-3.6546855
222272839000.0,0.6198742552564559,3.9680675134666,6.262790319719713,-0.1695151,0.07360926,0.040011674,356.3476,-28.328754,-3.6644442
222277800000.0,0.7856434631957492,4.08165890999146,6.3216621839833005,-0.21930063,0.1572978,0.029626964,356.29303,-28.446602,-3.6914535
222283036000.0,0.8665288374589619,4.271977449359522,6.416821354303065,-0.24312437,0.25289822,0.019547688,356.22675,-28.54507,-3.7376401
222287827000.0,0.8407586443342037,4.376225704699738,6.497450921671018,-0.22449298,0.32895094,0.015577064,356.1069,-28.629045,-3.6969876
222292804000.0,0.7638934007525726,4.44943060212717,6.577976503762863,-0.20677789,0.36468655,0.028099801,355.97955,-28.703552,-3.667959
222297896000.0,0.6762023030811033,4.5129088145391165,6.659688933456373,-0.19425514,0.3622431,0.04428773,355.8443,-28.797316,-3.6304283
222302864000.0,0.4371680247667384,4.381196096237056,6.7279842887316725,-0.15118915,0.2996294,0.049480084,355.71423,-28.901455,-3.5848062
222307845000.0,0.2015801135718962,4.2278654465688845,6.805379727213201,-0.116675265,0.23273966,0.07238753,355.58386,-29.012724,-3.5474122
222312886000.0,0.0024293185738606,3.867497322158198,6.969758181508643,-0.08399397,0.1441642,0.0842994,355.46875,-29.131462,-3.488493
222318688000.0,-0.2267857007831325,3.4527272650602407,7.158951554216868,-0.05589417,-0.0027488936,0.09162979,355.38336,-29.238724,-3.4365966
222322936000.0,-0.3941799161760601,3.165419896060118,7.307163242640902,-0.029321533,-0.05375614,0.09101892,355.2976,-29.35098,-3.3855317
222327818000.0,-0.5798907978593666,3.090131699366613,7.6283928678905,-0.021991149,-0.15485434,0.07971791,355.2413,-29.46149,-3.2864056
222332796000.0,-0.7629308025112742,3.036194068255372,7.960404572526307,0.0036651916,-0.24831672,0.0729984,355.21945,-29.491474,-3.228866
222337827000.0,-0.916305390724202,3.0958397785215315,8.318278611689804,0.023518313,-0.3173445,0.059253927,355.21283,-29.521097,-3.155698
222342847000.0,-1.0693446339817845,3.155355076779556,8.67537017929083,0.04642576,-0.3744604,0.044593163,355.234,-29.523634,-3.093807
222347806000.0,-1.2359110641869435,3.3886148993139678,9.143220393236144,0.06566802,-0.44257188,0.02565634,355.27023,-29.53037,-3.0160265
222353078000.0,-1.3986294437545126,3.654970186389892,9.637133577436822,0.07513642,-0.47616947,-0.0009162979,355.3142,-29.540243,-2.9375687
222357812000.0,-1.4027211920577616,3.9045670037906137,9.948106961191336,0.07147124,-0.514654,-0.013439035,355.3854,-29.535654,-2.8694055
222362745000.0,-1.4069849424548737,4.164655956101083,10.27215252563177,0.06505715,-0.54092115,-0.02107485,355.47702,-29.53227,-2.8243432
222367809000.0,-1.344536163939548,4.348929383491972,10.448382883746277,0.06352998,-0.5589417,-0.023518313,355.5731,-29.529194,-2.77455
222372826000.0,-1.267733888040398,4.513007118724115,10.588023385381094,0.069027774,-0.5849035,-0.014049901,355.6712,-29.526493,-2.717492
222377872000.0,-1.1621134381160512,4.679493461190655,10.715754165033912,0.07880162,-0.59040123,0.0143553335,355.76093,-29.541924,-2.6575606
222382830000.0,-0.7605675214016578,4.858399920874152,10.707802600770329,0.0870483,-0.602924,0.043676864,355.8509,-29.558342,-2.589965
222388681000.0,-0.2866979855614168,5.069529750565184,10.698418856819895,0.09773844,-0.6224717,0.09040806,355.9165,-29.593746,-2.4946687
222392795000.0,-0.0599331593923327,5.048219085236542,10.614003742251224,0.10262536,-0.6386596,0.11026118,355.98114,-29.62883,-2.3992808
222397853000.0,0.1919442716374387,4.9790764108890695,10.490534496737355,0.09101892,-0.6554584,0.15851954,356.02832,-29.662159,-2.29088
222402820000.0,0.3930262076887213,4.926311039976192,10.364790463942068,0.059864793,-0.6545421,0.20311269,356.0228,-29.721542,-2.097765
222407847000.0,0.5792737701745858,4.878555287967464,10.23584973405416,0.019242255,-0.64568454,0.23548855,356.0084,-29.772564,-1.9022698
222412865000.0,0.6879340971397192,4.851873302368446,10.130289448954256,-0.025350908,-0.6469063,0.26939157,355.96085,-29.81036,-1.6598132
222417809000.0,0.7648046518680164,4.833786081358036,10.035331692101996,-0.09285152,-0.6404922,0.29840767,355.9033,-29.828022,-1.4230261
222422712000.0,0.8241095432274316,4.791629214569196,9.892941574234012,-0.14355333,-0.623388,0.3203988,355.8261,-29.838367,-1.1556866
222427724000.0,0.8734607325221058,4.732407791538145,9.715277356672836,-0.17623462,-0.591623,0.3304781,355.7409,-29.833307,-0.8970343
222432714000.0,0.9107682908202914,4.627933751915812,9.509189943874798,-0.17440203,-0.5314528,0.33444872,355.64056,-29.830845,-0.6381552
222437709000.0,0.9417468818672424,4.498856105018888,9.287176345925529,-0.14935656,-0.45540005,0.3286455,355.53296,-29.824848,-0.39658266
222442705000.0,0.9594244113167296,4.351616098491764,9.07558346844612,-0.099265605,-0.3747658,0.31520647,355.41312,-29.828348,-0.16858532
222447732000.0,0.9737554266124232,4.198752001845604,8.865395709664616,-0.063224554,-0.28802297,0.29138273,355.2859,-29.834,0.032469444
222452720000.0,0.9582605166352356,4.02846488540943,8.645645851414393,-0.009773844,-0.2098322,0.26816985,355.15344,-29.855204,0.21680653
222457715000.0,0.9345204839057072,3.852788876228288,8.422490074243177,0.03634648,-0.16829337,0.24617869,355.0204,-29.883305,0.3827543
222462706000.0,0.908812323400936,3.710879514435166,8.235876817224923,0.06383542,-0.14385876,0.21655174,354.888,-29.913048,0.53111356
222467711000.0,0.8824205133385336,3.5789203952280446,8.059930972818206,0.06536258,-0.14263703,0.19761491,354.75702,-29.946821,0.6716664
222472788000.0,0.8514152833214129,3.474079554156128,7.924325188547754,0.0870483,-0.16035213,0.16187929,354.64877,-29.986536,0.8028749
222477813000.0,0.8178359103820322,3.390131198508504,7.819389820689054,0.081855945,-0.20372356,0.14049901,354.54596,-30.017555,0.9381704
222482787000.0,0.79487497,3.318930364869366,7.736904779327574,0.087964594,-0.25961772,0.1020145,354.47333,-30.052828,1.0714065
222487785000.0,0.79487497,3.274089611564484,7.702028551160612,0.051618114,-0.29932398,0.07727446,354.4065,-30.073257,1.2087146
222492768000.0,0.8129116709535067,3.248341068400315,7.707654026004728,0.02107485,-0.37201694,0.063224554,354.3682,-30.095745,1.3582867
222497787000.0,0.8602580109564618,3.2530756979511426,7.778673469267139,0.017104227,-0.45265114,0.022602014,354.3488,-30.114958,1.5102936
222502803000.0,0.9289871828125316,3.277029198580553,7.878281355368549,-0.01038471,-0.5326745,-0.015882496,354.34628,-30.113487,1.678269
222507831000.0,1.036393449944236,3.335614498225692,8.029626551353543,-0.03023783,-0.6026186,-0.04795292,354.36087,-30.112944,1.8559545
222512742000.0,1.1422127626907173,3.3684810165050623,8.17223207008413,-0.0421497,-0.65057147,-0.07727446,354.39444,-30.102247,2.051697
222517824000.0,1.2532506944888064,3.3615411842649365,8.31102980186796,-0.043676864,-0.68325275,-0.099265605,354.43958,-30.089178,2.2535803
222522829000.0,1.362606233380864,3.3547065009981463,8.447724537715672,-0.037873644,-0.68569624,-0.112704635,354.4813,-30.071611,2.4725022
222527893000.0,1.494490546359294,3.3323050023491567,8.576921006823277,-0.024740042,-0.679893,-0.129198,354.52994,-30.056263,2.6892803
222532861000.0,1.6382575124183645,3.299841381411444,8.697499485427429,-0.00580322,-0.6603453,-0.12492194,354.57233,-30.044294,2.8997772
222538032000.0,1.7603774337671474,3.267890665986634,8.859769161097432,0.0076358155,-0.623388,-0.118507855,354.60498,-30.019814,3.1305983
222542841000.0,1.853523940925079,3.2395417547660923,9.037962444205064,0.026267206,-0.5867361,-0.1142318,354.6318,-30.002436,3.352138
222547817000.0,1.915194330641724,3.217807,9.186273569973952,0.042455133,-0.52198434,-0.09560041,354.63187,-29.97045,3.5871549
222552932000.0,1.876528782334833,3.217807,9.2326719372484,0.044898596,-0.46975538,-0.07269296,354.62408,-29.939999,3.8126013
222557755000.0,1.8400705341463413,3.217807,9.27642156097561,0.055588737,-0.41263947,-0.055283304,354.5974,-29.900229,4.0425816
222562879000.0,1.784125085245509,3.2375141810938124,9.312024816047904,0.07086037,-0.34391713,-0.03481932,354.55368,-29.862413,4.2558513
222567800000.0,1.7239223373892216,3.2638528660918165,9.34212660251497,0.07727446,-0.28496864,-0.015577064,354.49802,-29.825201,4.4555326
222572869000.0,1.6596665114008444,3.309256641395659,9.362862540188162,0.09162979,-0.2134974,-0.0015271631,354.43613,-29.790121,4.6259007
222578106000.0,1.585359149418475,3.420717723164679,9.348000966923475,0.08857546,-0.15668693,0.016187929,354.3617,-29.751799,4.7853312
222582836000.0,1.5182455687087932,3.5213881292688347,9.334578159678497,0.07513642,-0.105374254,0.021380283,354.29297,-29.721828,4.9124856
222587822000.0,1.3909554589798852,3.592031867816092,9.31190358117816,0.056199603,-0.079107046,0.032986723,354.2137,-29.689123,5.032998
222592811000.0,1.211709107519157,3.6301693639846735,9.281393345306512,0.04550946,-0.049480084,0.032070424,354.12875,-29.655651,5.137035
222598035000.0,1.0276396680392523,3.672524609682243,9.24709934635514,0.026267206,-0.03756821,0.03848451,354.05643,-29.639648,5.219874
222602876000.0,0.9149860102700936,3.75051565328972,9.177773964205606,0.017104227,-0.01863139,0.032986723,353.98254,-29.624056,5.290646
222607802000.0,0.8003543395056075,3.8298760913831775,9.107231342336448,0.018325957,0.0009162979,0.027183503,353.92957,-29.617798,5.313465
222612847000.0,0.753945782635105,3.8653814915587312,9.072884239392586,0.0067195175,0.014966198,0.017715093,353.8775,-29.605732,5.3315573
222617782000.0,0.7187652388320679,3.893525906029477,9.04473997186244,0.01282817,0.018020526,0.010995574,353.8256,-29.599318,5.3471394
222622800000.0,0.6858804685818182,3.9068775136,9.017702387636364,0.007941248,0.012217305,0.007330383,353.79517,-29.60588,5.336807
222627810000.0,0.6659408247376624,3.8520434930285714,8.997762847896105,0.018020526,0.008246681,0.004886922,353.7659,-29.618246,5.325042
222632823000.0,0.6449649454283443,3.795298512363347,8.979290153548003,0.029321533,-0.011301007,-0.010079277,353.75507,-29.638073,5.3085713
222637894000.0,0.6208325593957464,3.732554286503677,8.964810437686346,0.04734206,-0.038179077,-0.011911872,353.7435,-29.661695,5.297014
222643500000.0,0.6063398489868486,3.6525589472966393,8.960315989771066,0.06047566,-0.07788532,-0.014049901,353.74356,-29.683544,5.2900834
222647879000.0,0.6131488740404286,3.574255047199221,8.973933975888944,0.06291912,-0.12614368,-0.009773844,353.74753,-29.706528,5.2928457
222652836000.0,0.6208566468631271,3.4856155329761327,8.98934944909888,0.082161374,-0.17989981,-0.008552114,353.76202,-29.731127,5.3034153
222657792000.0,0.6587666654982051,3.2890602623459784,8.967229280974095,0.08460484,-0.22815818,-0.008857546,353.78162,-29.750935,5.324677
222662749000.0,0.7048249097002037,3.0633748864364025,8.934988822159697,0.098043874,-0.27947086,-0.003970624,353.80725,-29.77841,5.360301
222667822000.0,0.7282956657164869,2.9774701685670264,8.935619026001541,0.09040806,-0.312763,-0.002443461,353.83377,-29.780552,5.4058704
222672894000.0,0.7423288503081664,2.949403799383667,8.949652015215717,0.09285152,-0.3399465,-0.0033597588,353.86536,-29.788986,5.4617043
222678002000.0,0.7809388940406703,2.9431658783468277,8.92962470212766,0.09162979,-0.37812558,0.0018325958,353.89636,-29.764996,5.5450664
222682818000.0,0.8287021249199774,2.947507986123141,8.894888021276596,0.07941248,-0.38759398,0.007330383,353.9264,-29.738916,5.626141
222687853000.0,0.8785302433519553,2.9671194470391065,8.864602744134078,0.08735373,-0.38362336,0.0125227375,353.96115,-29.713736,5.717233
222692843000.0,0.9278176763558228,2.999977707116459,8.839958963300388,0.06811147,-0.376293,0.0290161,353.99155,-29.677301,5.810096
222697847000.0,0.9811103490853348,3.033197340040879,8.811333624322945,0.053450707,-0.3371976,0.036651913,354.0144,-29.648426,5.9032826
222702805000.0,1.0490454883188554,3.067164985661728,8.767661168727644,0.05375614,-0.30573806,0.049480084,354.0309,-29.618122,5.997408
222707820000.0,1.119116883419377,3.10615274247978,8.737011970917226,0.059253927,-0.28038713,0.071776666,354.0388,-29.591637,6.0967402
222712762000.0,1.1924187518585443,3.159092907563242,8.749228771812081,0.055283304,-0.24984388,0.08307768,354.04025,-29.562983,6.185199
222717821000.0,1.2674560145930134,3.2132864112373087,8.761734800894855,0.061086524,-0.22937989,0.09682214,354.02844,-29.54695,6.2853785
222722813000.0,1.2940791876791364,3.274825894007072,8.791287553322167,0.06536258,-0.21930063,0.1133155,354.00977,-29.529104,6.380661
222727852000.0,1.3165329360413176,3.337696398799553,8.822722922948072,0.06078109,-0.19853121,0.118507855,353.98572,-29.510538,6.466804
222732899000.0,1.2840526968013637,3.400693123984759,8.82606125518901,0.058948494,-0.18325958,0.116980694,353.95264,-29.501183,6.567959
222737749000.0,1.237479420455229,3.461238271382733,8.82140383515492,0.05222898,-0.17684549,0.13255776,353.91208,-29.48832,6.6675053
222742841000.0,1.1997857032151442,3.561959139483173,8.842563841646635,0.048563786,-0.16798794,0.13041973,353.8748,-29.483576,6.7615623
222747782000.0,1.1666092933894232,3.670967279567308,8.871000820913462,0.043066,-0.15210545,0.13225232,353.83066,-29.475573,6.853311
222752990000.0,1.14856057748811,3.740990568786331,8.867466763783689,0.04886922,-0.13805555,0.14110987,353.79465,-29.48369,6.9322224
222757791000.0,1.1364120262814867,3.793634375251013,8.855317958869122,0.04550946,-0.11911872,0.13133603,353.75986,-29.487963,7.0022044
222762881000.0,1.1243744265132336,3.9121664945914847,8.852761594859993,0.06383542,-0.13713925,0.12705997,353.73038,-29.513489,7.068249
222767835000.0,1.1134553316455695,4.086872240506329,8.860041143459917,0.05589417,-0.13622294,0.112704635,353.70053,-29.530615,7.1211147
222772862000.0,1.102375337721519,4.264152374683545,8.867427960337553,0.062002823,-0.15363261,0.10140363,353.67804,-29.567144,7.177072
222777900000.0,1.1013328,4.367560125237192,8.841727582542696,0.055588737,-0.17531833,0.09407325,353.6586,-29.597055,7.2314973
222783267000.0,1.1013328,4.469523867000173,8.810694897878214,0.061086524,-0.20066923,0.08857546,353.64447,-29.63121,7.288832
222787878000.0,1.0993819826207087,4.526459646301029,8.803035858119777,0.051618114,-0.21746802,0.077579886,353.65256,-29.695557,7.3403563
222792837000.0,1.096101513517994,4.569105778890654,8.80631639573116,0.05131268,-0.2434298,0.07727446,353.66367,-29.761097,7.399921
222797878000.0,1.0927667999171098,4.612457090522898,8.809651178973544,0.037873644,-0.26847526,0.06047566,353.68716,-29.84001,7.4561076
222802880000.0,1.0979336628353913,4.607064511493825,8.795217842911523,0.035124753,-0.28405234,0.05589417,353.70914,-29.91788,7.51657
222807891000.0,1.1068445058026182,4.580331982592146,8.772940735493455,0.037873644,-0.2968805,0.043066,353.73947,-29.991396,7.5773025
222812855000.0,1.1319504541964067,4.47766105551727,8.756465838214785,0.048563786,-0.3005457,0.039095376,353.7756,-30.074354,7.6373315
222817824000.0,1.170991531306916,4.309784476938223,8.74475369037657,0.04886922,-0.30482176,0.03634648,353.81525,-30.152313,7.6972346
222822876000.0,1.211280104250864,4.143549558580253,8.727911446759501,0.05467244,-0.310625,0.034513887,353.8531,-30.228827,7.7592998
222827846000.0,1.2561309848916344,4.018963923568212,8.668110133807978,0.03634648,-0.32467487,0.039095376,353.89056,-30.295492,7.8232427
222832824000.0,1.2968899969447274,3.9048509923710766,8.620734432367373,0.03176499,-0.3277292,0.044593163,353.9165,-30.332739,7.8999405
222837887000.0,1.3193357604851403,3.8375136079992593,8.629712925284696,0.01740966,-0.32406402,0.04153884,353.9434,-30.361006,7.9758744
222843121000.0,1.343744590109294,3.769372732857918,8.639177464537633,0.003970624,-0.321926,0.032070424,353.969,-30.379005,8.06601
222847815000.0,1.378589562747074,3.724074268428804,8.64963081078986,-0.011301007,-0.312763,0.03145956,353.99054,-30.391531,8.152216
222853034000.0,1.417331768157507,3.6737094013952407,8.661253310596077,-0.02687807,-0.3436117,0.044898596,354.0085,-30.387894,8.252407
222857916000.0,1.4388148622836288,3.623531130448384,8.673891658706985,-0.038789943,-0.37598756,0.07422013,354.0207,-30.380184,8.350935
222862877000.0,1.44376908552659,3.569035140354536,8.68875448362878,-0.05131268,-0.37659842,0.07666359,354.03516,-30.368628,8.445075
222867817000.0,1.4705997494961207,3.55232820997057,8.695741,-0.05681047,-0.38515055,0.07666359,354.0424,-30.34488,8.56246
222872827000.0,1.5176681030143584,3.569444064246857,8.695741,-0.05009095,-0.40439278,0.08307768,354.04825,-30.321106,8.681397
222877816000.0,1.5638421357894736,3.598258381052632,8.708140407017543,-0.04734206,-0.4089743,0.0983493,354.04962,-30.28627,8.80042
222882818000.0,1.6083342289164086,3.6575811718885447,8.752632396904025,-0.03970624,-0.4120286,0.100792766,354.0543,-30.25569,8.920237
222887751000.0,1.6449536201921284,3.7244623092146982,8.7892517049058,-0.03604105,-0.4196644,0.09040806,354.05875,-30.228363,9.051613
222892820000.0,1.6675916077783997,3.8104865769446,8.811889645215444,-0.018325957,-0.42088616,0.098043874,354.05667,-30.20653,9.182302
222897814000.0,1.690170158223456,3.888841548091603,8.835398609299098,-0.002443461,-0.43218717,0.10354166,354.05835,-30.189173,9.319288
222902813000.0,1.713900912263309,3.94104920697928,8.863875613264597,0.0125227375,-0.4465425,0.11301007,354.05682,-30.176052,9.456069
222907801000.0,1.7298524226597871,3.985726370137938,8.889939145940822,0.025045475,-0.45142943,0.11484267,354.05933,-30.17669,9.592494
222912861000.0,1.7094423529535645,3.995931298431084,8.905246485100559,0.023518313,-0.47311515,0.12614368,354.06064,-30.175964,9.736202
222917797000.0,1.678988104667046,4.000957464541832,8.91815460273193,0.027488936,-0.49113566,0.14019357,354.06903,-30.186174,9.883135
222922810000.0,1.620436354337751,3.993150651451337,8.925961660378894,0.023518313,-0.5149594,0.14996742,354.0785,-30.192608,10.034477
222927766000.0,1.5625503629888609,3.9854326052361984,8.933679948369788,0.019547688,-0.53969944,0.15790866,354.0948,-30.198656,10.186067
222932854000.0,1.4753134904429612,3.9478904152912624,8.911120126516991,0.021685716,-0.55741453,0.16157386,354.1109,-30.204365,10.339072
222937752000.0,1.3851803339502426,3.905195785679612,8.882656941039645,0.02107485,-0.58551437,0.16982053,354.12772,-30.206877,10.498946
222942829000.0,1.3087683239143486,3.8937127310786472,8.833175557334402,0.02076942,-0.6038403,0.18478674,354.15506,-30.208136,10.646081
222948005000.0,1.2343693575745447,3.8887528034420655,8.778616249749849,0.039095376,-0.6270532,0.19333886,354.18533,-30.213865,10.798052
222952809000.0,1.2439193789591747,3.8881836,8.768737308658592,0.05222898,-0.6560693,0.19364429,354.2318,-30.217905,10.939496
222957762000.0,1.2651997245850155,3.8881836,8.764481150650516,0.06627888,-0.6719518,0.19914207,354.27472,-30.22593,11.082001
222962883000.0,1.2980280216528195,3.8970245896919344,8.780460117858981,0.0693332,-0.70829827,0.2180789,354.32968,-30.241247,11.222648
222968549000.0,1.341913297500184,3.9129828718182487,8.812376932063819,0.080634214,-0.7357872,0.22357668,354.38596,-30.262491,11.360505
222972875000.0,1.375419775317991,3.9251670455701775,8.836745470406587,0.08246681,-0.7684685,0.23609942,354.44666,-30.279858,11.51649
222977858000.0,1.4638450574030828,3.9264908,8.87572928986455,0.08552113,-0.77549344,0.22968534,354.509,-30.300695,11.667107
222982800000.0,1.5566895642690333,3.9264908,8.915519660906119,0.090713486,-0.8051204,0.23182335,354.57236,-30.32034,11.830438
222987885000.0,1.638482351005504,3.9342653613886536,8.941133041596105,0.093462385,-0.82833326,0.23793201,354.63693,-30.340858,12.000569
222992748000.0,1.71242182627011,3.944123951227773,8.960850118331923,0.089186326,-0.8393288,0.24617869,354.7008,-30.359419,12.171321
222997866000.0,1.7705425555700327,3.930071961693811,8.92106671335505,0.089491755,-0.8533788,0.24037547,354.77042,-30.37529,12.365906
223002905000.0,1.824436501247092,3.9121073287668686,8.871663879013495,0.093462385,-0.8396343,0.24587326,354.83017,-30.388727,12.554437
223007845000.0,1.8830776536809253,3.8883383197356345,8.85221323829631,0.08155051,-0.84971356,0.23182335,354.90137,-30.395676,12.760049
223012820000.0,1.944306276546723,3.862097500936295,8.843466572700569,0.07544186,-0.83199847,0.23182335,354.95892,-30.403141,12.953421
223017821000.0,2.0076894910833785,3.8103601432447096,8.818472581660336,0.077579886,-0.788627,0.23609942,355.01587,-30.403894,13.153652
223022820000.0,2.072630470265871,3.736760378893109,8.77950791277808,0.07513642,-0.75411314,0.23701571,355.06973,-30.401375,13.346185
223027841000.0,2.15069803128528,3.666536410508033,8.72924489198871,0.06566802,-0.711658,0.24648413,355.11023,-30.386898,13.541476
223032824000.0,2.2543045651215805,3.60437245775076,8.656720118161093,0.057726767,-0.6747007,0.24404067,355.14685,-30.372744,13.723359
223038717000.0,2.4276300527547168,3.538655447245283,8.604771841509434,0.061086524,-0.65393126,0.24587326,355.1672,-30.347095,13.917523
223042838000.0,2.576558451879245,3.496955468120755,8.586900697358491,0.0711658,-0.6209445,0.24281894,355.18024,-30.321949,14.094242
223047800000.0,2.755879664316981,3.446745495683019,8.565382469433963,0.062308256,-0.60231316,0.23304509,355.18567,-30.287695,14.290492
223052808000.0,2.8778975115564465,3.4456608309953243,8.576840382765532,0.05131268,-0.591623,0.22296582,355.1868,-30.256172,14.475882
223057917000.0,2.989956812987881,3.4549991020517226,8.595516827369025,0.06566802,-0.58246,0.21044308,355.18716,-30.230532,14.651247
223062889000.0,3.073738448407576,3.43440946828907,8.607578672309808,0.06505715,-0.5723807,0.20250183,355.1604,-30.181934,14.872516
223067747000.0,3.147578557750503,3.4048734862342607,8.617423691249602,0.07513642,-0.54061574,0.18845193,355.1326,-30.142279,15.078823
223072887000.0,3.202037217911077,3.4275603694592083,8.619126,0.07666359,-0.52839845,0.1740966,355.1025,-30.09736,15.305721
223077865000.0,3.250301727064878,3.459736736893613,8.619126,0.07666359,-0.52748215,0.15210545,355.07388,-30.057129,15.519693
223082867000.0,3.296840118294318,3.4979530932659584,8.604744704754047,0.07941248,-0.50915617,0.14935656,355.03592,-30.011187,15.740128
223087883000.0,3.34142468713004,3.5425376103743424,8.57502217613695,0.086437434,-0.4908302,0.13133603,355.00635,-29.970173,15.950072
223092816000.0,3.3777371448744677,3.57187383951781,8.529110067434061,0.07666359,-0.462425,0.12339478,354.97318,-29.9301,16.161215
223097814000.0,3.408105442255053,3.5892271781926945,8.468373019668268,0.07086037,-0.44868052,0.106901415,354.94525,-29.895685,16.362955
223102819000.0,3.4339816113918555,3.6008794,8.408393045584788,0.06261369,-0.43310347,0.09101892,354.9194,-29.864597,16.561836
223108358000.0,3.452405122792394,3.6008794,8.34391037092993,0.05100725,-0.42302418,0.08460484,354.8931,-29.831911,16.753323
223113095000.0,3.4657934824827588,3.5991951971034486,8.290819300689655,0.051923547,-0.41080686,0.081855945,354.8741,-29.809853,16.945719
223117820000.0,3.454090798,3.5796906415,8.259612305000001,0.037873644,-0.40683624,0.077579886,354.85568,-29.78139,17.132278
223122858000.0,3.4416128880689656,3.558894038086206,8.22633805224138,0.03604105,-0.3998113,0.07544186,354.84018,-29.760944,17.31997
223127943000.0,3.4123454948470653,3.498322905189676,8.242628004408928,0.04550946,-0.3866777,0.0888809,354.819,-29.738722,17.502777
223132840000.0,3.377884189887021,3.425092536566547,8.277089174428218,0.028405234,-0.39095375,0.0870483,354.80276,-29.710682,17.681581
223137821000.0,3.356079463497453,3.4027425518392755,8.325793318619128,0.032070424,-0.39522982,0.08277224,354.79077,-29.687511,17.858442
223142819000.0,3.345921389134125,3.426444725353707,8.386742330503678,0.04520403,-0.40194935,0.08979719,354.7762,-29.661625,18.034512
223147857000.0,3.335682017657046,3.45033659213356,8.448179129598188,0.04917465,-0.3866777,0.089491755,354.76376,-29.62519,18.196938
223152833000.0,3.361481030035035,3.498758169396837,8.507428769245337,0.046731193,-0.36468655,0.094989546,354.74704,-29.589737,18.357664
223157817000.0,3.402156765514629,3.5575121720859766,8.566182488779472,0.049785517,-0.34238997,0.099571034,354.72736,-29.557392,18.510965
223162818000.0,3.444228462771608,3.624555506228875,8.592342845485273,0.051618114,-0.3381139,0.09712757,354.71295,-29.523685,18.652105
223167811000.0,3.487107714423674,3.697120393640064,8.595641318341727,0.064446285,-0.312763,0.087964594,354.6917,-29.49446,18.779337
223172883000.0,3.5306654080706354,3.770833413657998,8.598991980133821,0.061391957,-0.29535335,0.080634214,354.6745,-29.465424,18.907986
223178083000.0,3.582993343177605,3.8418840617538006,8.550504407119021,0.056199603,-0.25350907,0.07422013,354.6511,-29.440481,19.020449
223182822000.0,3.633476695995551,3.904988230812013,8.487400325917687,0.047036625,-0.24709499,0.07238753,354.63074,-29.414335,19.134325
223187821000.0,3.688890647613012,3.946850097676384,8.456321,0.038789943,-0.21899518,0.06505715,354.61115,-29.402685,19.236961
223192820000.0,3.7461970970004224,3.9670758784959865,8.456321,0.018020526,-0.18234327,0.049480084,354.59128,-29.386456,19.33203
223197847000.0,3.8038245267004647,3.987414946345585,8.456321,-0.010079277,-0.1441642,0.05467244,354.5635,-29.378983,19.430887
223202799000.0,3.8549078012430846,3.9890268265009214,8.485581133734035,-0.03145956,-0.101098195,0.05375614,354.53436,-29.36989,19.514301
223207882000.0,3.904780290553924,3.982377161259477,8.528803818933133,-0.06291912,-0.049785517,0.05222898,354.49655,-29.350245,19.585264
223212842000.0,3.953445950003415,3.9758884066662112,8.57098058827949,-0.09040806,-0.008246681,0.05100725,354.4579,-29.330818,19.663687
223217814000.0,4.029188158615717,3.9129115223423856,8.62179441656653,-0.096516706,0.034208454,0.044593163,354.41287,-29.309843,19.726772
223222798000.0,4.113308879596251,3.832614543090604,8.675325602980053,-0.09896017,0.076052725,0.04642576,354.36,-29.282404,19.779634
223227772000.0,4.172986617128974,3.750749824296416,8.699886094553552,-0.098043874,0.09896017,0.051923547,354.30038,-29.251076,19.837372
223232828000.0,4.163182747519741,3.662516840453533,8.641064412431666,-0.09621128,0.1160644,0.058337633,354.23523,-29.21986,19.885763
223237743000.0,4.1413399836981135,3.583886160649057,8.574982972830188,-0.11056661,0.115453534,0.063224554,354.15607,-29.162088,19.956045
223242819000.0,4.086307715622642,3.521516180211321,8.483262526037736,-0.099571034,0.10415252,0.057726767,354.07822,-29.11341,20.022902
223247803000.0,4.032272880301886,3.460276624950944,8.393204467169811,-0.09407325,0.09560041,0.043676864,353.99884,-29.04947,20.093672
223252838000.0,3.954392360328085,3.391441827397002,8.284776103233712,-0.06658431,0.07941248,0.04153884,353.92203,-28.995213,20.168661
223257901000.0,3.862967191288772,3.318301596700292,8.165922810691052,-0.048258353,0.059253927,0.034513887,353.8532,-28.943687,20.24256
223262818000.0,3.762459714550329,3.2423477381428225,8.06703447604192,-0.032375857,0.05955936,0.026267206,353.78903,-28.90041,20.31082
223267820000.0,3.649599737687871,3.160621746981883,7.981416767145991,-0.020463986,0.058948494,0.021685716,353.72968,-28.862232,20.382492
223272821000.0,3.539395189339844,3.0834446218085647,7.896555017149833,-0.01740966,0.052839845,0.023823744,353.6803,-28.827719,20.447456
223277811000.0,3.4713415581731257,3.078583546638185,7.823640412328349,-0.032375857,0.034513887,0.014049901,353.6377,-28.79416,20.512192
223282852000.0,3.4047015786246893,3.0755831926263464,7.749715593371997,-0.029626964,0.008552114,-0.0076358155,353.60815,-28.766705,20.562382
223287832000.0,3.3580040544852,3.089951676018679,7.674281102447842,-0.012217305,0.007941248,-0.017104227,353.57712,-28.739624,20.610481
223293570000.0,3.3041987545831137,3.10650716953378,7.587364815515553,-0.017104227,0.03726278,-0.004581489,353.55283,-28.714561,20.648464
223297811000.0,3.3031436713672715,3.1246616313731224,7.582532373103179,-0.041233405,0.04795292,-0.005192355,353.5374,-28.691956,20.6872
223302870000.0,3.345667788063195,3.153010927384435,7.6439560533645405,-0.03390302,0.048563786,-0.021991149,353.52005,-28.677149,20.720177
223307818000.0,3.393387979038597,3.169923,7.699225649198831,-0.018325957,0.069027774,-0.020158553,353.50156,-28.668407,20.74076
223312888000.0,3.452105354026,3.169923,7.748156795021666,0.008246681,0.10354166,-0.020158553,353.48566,-28.666815,20.754728
223317774000.0,3.505544562134405,3.17412021451961,7.790357666368981,0.009162978,0.13347405,-0.015577064,353.47116,-28.66132,20.771296
223322867000.0,3.5563629004688546,3.1850098801071667,7.826656425318151,0.019242255,0.16126843,-0.003970624,353.4498,-28.664259,20.780867
223327905000.0,3.606632444652824,3.195781946714296,7.86256318903029,0.008857546,0.18753563,-0.0012217305,353.41827,-28.657978,20.790997
223332881000.0,3.649854303162767,3.222510511391103,7.9079205949344304,0.00580322,0.20586158,0.010079277,353.37875,-28.653883,20.799345
223337857000.0,3.690699556269821,3.2551866712265363,7.956934941313105,0.016493361,0.24770586,0.021380283,353.33124,-28.65041,20.79613
223342816000.0,3.7340980164458655,3.2902381098675195,7.997036871841023,0.00030543262,0.26511553,0.024129177,353.28064,-28.63433,20.805351
223347863000.0,3.7826751032434895,3.329983061946094,8.023533414335313,-0.0033597588,0.25534168,0.030543262,353.2247,-28.62277,20.813557
223352839000.0,3.828432803523316,3.3646978708894646,8.038849994602764,-0.020158553,0.22479841,0.03634648,353.16983,-28.60516,20.828192
223357824000.0,3.8655367009326422,3.381188448911917,8.009991450777202,-0.021685716,0.18906279,0.02687807,353.12054,-28.591913,20.845453
223363625000.0,3.90570003702957,3.3987245705729165,7.975247505040323,-0.006414085,0.15821409,0.03359759,353.07455,-28.576939,20.88078
223367820000.0,3.868576260483871,3.375100384375,7.924624173387096,-0.009468411,0.14172074,0.029932396,353.03757,-28.559418,20.91798
223372860000.0,3.823974631451613,3.346717571875,7.86380377016129,-0.0106901415,0.10995574,0.022296581,353.00143,-28.552078,20.975092
223377841000.0,3.787075862252718,3.302895869007308,7.850875420851898,-0.002443461,0.065973446,0.023518313,352.96863,-28.545753,21.039137
223382888000.0,3.756926176225272,3.2425965869007305,7.88533210208519,0.0036651916,0.04886922,0.024129177,352.93872,-28.539434,21.102106
223387755000.0,3.722523579039301,3.187110399836244,7.914882041071428,0.01038471,0.023823744,0.01038471,352.92264,-28.537275,21.17003
223392815000.0,3.669621168558952,3.137986693504367,7.933775719642857,0.022296581,0.014660766,0.0061086523,352.90378,-28.536684,21.23847
223397855000.0,3.616927858515284,3.0890571520196506,7.952594719642858,0.03176499,0.022602014,0.014660766,352.87888,-28.522835,21.299816
223402809000.0,3.5469976064264683,3.0628114473670536,8.023551646206478,0.03268129,0.047036625,0.014966198,352.8559,-28.511427,21.356354
223407810000.0,3.4681842546682837,3.0462191377100294,8.118957307621686,0.041233405,0.08460484,0.014049901,352.8275,-28.50364,21.407679
223412821000.0,3.3919360066330344,3.06114519598281,8.210636591180867,0.04520403,0.124311075,0.020158553,352.79416,-28.482517,21.440413
223417815000.0,3.320446318105381,3.128166784809417,8.295530858744394,0.051618114,0.16798794,0.025961773,352.75488,-28.464779,21.462322
223422836000.0,3.239904395674198,3.225547419401785,8.395549054353943,0.050396383,0.21105394,0.03481932,352.71408,-28.439083,21.451237
223427810000.0,3.1326614442389644,3.417052738385463,8.541092845621934,0.059864793,0.26358834,0.032070424,352.6673,-28.419085,21.426687
223433627000.0,3.007242817681113,3.641014628318727,8.711303588244753,0.05497787,0.301462,0.030543262,352.62888,-28.402834,21.373306
223437834000.0,2.9753188759043585,3.7154816706370215,8.75304163587436,0.05131268,0.32162055,0.023518313,352.58835,-28.39072,21.311583
223442740000.0,2.9463012320892887,3.790098666896065,8.790350004146815,0.03848451,0.33933565,0.014660766,352.54453,-28.375744,21.242285
223447811000.0,2.9324023537724155,3.849716536054872,8.818259454755806,0.027488936,0.35979962,0.01160644,352.53778,-28.388783,21.121868
223452787000.0,2.936340347260557,3.889096882141972,8.834011510949509,0.016798794,0.3659083,-0.008246681,352.53833,-28.40133,20.999668
223457960000.0,2.9415844457781675,3.927243172889084,8.84708806777729,0.00580322,0.3643811,-0.032375857,352.55212,-28.423203,20.863672
223462879000.0,2.958106420070145,3.935504160035072,8.826435599912319,-0.009773844,0.35888332,-0.03634648,352.5663,-28.44058,20.730347
223467799000.0,2.974631753169662,3.943766826584832,8.805778933537923,-0.026572637,0.36651915,-0.05131268,352.5891,-28.46365,20.589115
223472830000.0,3.0401293981004067,3.952908214382632,8.753870358208955,-0.021380283,0.3662137,-0.053450707,352.61224,-28.486897,20.455585
223477916000.0,3.120380444698585,3.962349502384183,8.69250218336887,-0.036651913,0.3680463,-0.061391957,352.6399,-28.502342,20.319683
223482898000.0,3.1777722465067777,3.948170917622524,8.643332835245047,-0.03634648,0.36682457,-0.07513642,352.6671,-28.52688,20.190727
223487882000.0,3.2275435978007394,3.9255475546497296,8.598086109299459,-0.046120327,0.36651915,-0.09010262,352.69675,-28.545322,20.062605
223492819000.0,3.26960767592023,3.908262669114,8.523143460759997,-0.033292156,0.35735616,-0.09621128,352.7181,-28.568716,19.95718
223497795000.0,3.3074322864569896,3.8940784771901975,8.428582181267984,-0.020463986,0.33841935,-0.09987647,352.74466,-28.590525,19.85478
223502781000.0,3.315078435785824,3.869345414637905,8.351606404468413,-0.015882496,0.32528573,-0.118507855,352.7642,-28.61364,19.76486
223507796000.0,3.301202861922188,3.836969301001541,8.28685379083205,-0.0030543262,0.3115413,-0.121256754,352.7838,-28.640358,19.683401
223512844000.0,3.2559512536736275,3.81687153929707,8.248795398212598,-0.002443461,0.2883284,-0.11178834,352.8058,-28.662243,19.622286
223517823000.0,3.1821958210363497,3.808676491226261,8.23650299725015,0.012217305,0.2874121,-0.11789699,352.8311,-28.692408,19.55769
223522882000.0,3.109668627730141,3.808177578061802,8.23498155524996,0.011301007,0.28802297,-0.11911872,352.84772,-28.71712,19.502056
223527807000.0,3.048622451949522,3.83870062611228,8.276950427600712,0.005497787,0.28771752,-0.122478485,352.8667,-28.744469,19.446814
223532762000.0,2.9872044212910533,3.869409601359004,8.31917494790487,-0.009773844,0.3109304,-0.122478485,352.88654,-28.770527,19.370419
223537827000.0,2.9351274094368964,3.90106187991488,8.393572880094942,-0.013744468,0.33841935,-0.10873401,352.903,-28.796144,19.296001
223542782000.0,2.88852108823048,3.93213278775577,8.479018444426256,-0.025350908,0.3747658,-0.10903945,352.91827,-28.816599,19.213179
223547832000.0,2.838211112684484,3.9630598891104905,8.542512,-0.025350908,0.40653083,-0.1001819,352.92584,-28.840267,19.107512
223552846000.0,2.78075027935115,3.9917902891104906,8.542512,-0.021685716,0.44593164,-0.10048734,352.9297,-28.86232,18.99202
223557805000.0,2.723919750332403,4.020205537136019,8.542512,-0.0125227375,0.47311515,-0.10567969,352.9379,-28.88188,18.855421
223562790000.0,2.6737176895765478,4.032511487079261,8.534723654723127,-0.0076358155,0.48991394,-0.101098195,352.9401,-28.899887,18.716204
223567881000.0,2.6428374026872965,3.997219783279044,8.503843229641694,0.008552114,0.49021935,-0.1151481,352.94788,-28.925388,18.574137
223572862000.0,2.6138588490475194,3.958703484111367,8.472426745237597,0.0061086523,0.47861293,-0.116980694,352.95755,-28.953657,18.416458
223577819000.0,2.6039211899309187,3.859326789177308,8.422738449654595,0.024129177,0.45662177,-0.12705997,352.97552,-28.993053,18.26167
223582860000.0,2.589806990168188,3.7581156375012017,8.37282130879385,0.03023783,0.4175264,-0.1441642,353.00198,-29.027966,18.112772
223587831000.0,2.5532042821816434,3.6574584533012975,8.327067565497357,0.04062254,0.3747658,-0.16249016,353.03595,-29.06901,17.971844
223592921000.0,2.515819216008935,3.5546497652643336,8.286097708116158,0.02443461,0.3472769,-0.16401732,353.0591,-29.091888,17.840357
223597798000.0,2.4810418119880864,3.459011858814222,8.312181305845122,0.019242255,0.32345316,-0.1685988,353.0942,-29.121916,17.71804
223602842000.0,2.4450735475055843,3.360099084540209,8.339158067572598,0.017104227,0.29657507,-0.16279559,353.1219,-29.139273,17.603277
223607833000.0,2.3953022159397763,3.2413031620689656,8.383929480427392,0.01282817,0.2761111,-0.16829337,353.15668,-29.155914,17.492785
223612752000.0,2.3449680168819813,3.122331210344828,8.429687886644002,0.008246681,0.26389378,-0.16523905,353.19086,-29.170198,17.391071
223622769000.0,2.15792155021649,2.9728349447719946,8.518448490925842,0.0015271631,0.22357668,-0.15424347,353.22467,-29.168106,17.296202
223627819000.0,2.066914094582352,2.9585270565501,8.589115129733647,0.02107485,0.19883664,-0.14508049,353.25787,-29.171835,17.202642
223632840000.0,1.979787508226128,2.971596030857039,8.67188520936764,0.025045475,0.20341812,-0.12064589,353.2768,-29.151846,17.105995
223637824000.0,1.9263451194324712,3.08622918358477,8.785154928520114,0.021380283,0.22693644,-0.099571034,353.30228,-29.126139,16.992123
223642824000.0,1.909145370869253,3.3132655700790226,8.933072672772989,0.0076358155,0.2574797,-0.07422013,353.3189,-29.096474,16.88152
223647858000.0,1.8918286640158049,3.5418458040014364,9.081996257686782,0.003970624,0.29871312,-0.057421334,353.33673,-29.064339,16.740822
223652997000.0,1.92939153220676,3.768341518754142,9.172746805926346,-0.015271631,0.35521814,-0.030848695,353.33932,-29.02173,16.596493
223657841000.0,1.9864842836978132,3.979145400795229,9.234231166429993,-0.03176499,0.41233405,-0.008552114,353.33334,-28.978558,16.446373
223662846000.0,2.0440886956231763,4.141877630387661,9.245261640822564,-0.046731193,0.4361578,0.014049901,353.33835,-28.95632,16.272045
223667820000.0,2.100347973739058,4.264324282325969,9.218786511602056,-0.043982297,0.5015204,0.01740966,353.32916,-28.934948,16.077923
223672875000.0,2.1575234162150894,4.388764938849521,9.191880243365292,-0.04428773,0.5476407,0.022296581,353.32162,-28.930965,15.893111
223677892000.0,2.222134548456906,4.485537284098608,9.142384336469703,-0.04886922,0.56016344,0.0290161,353.3097,-28.926432,15.705929
223682868000.0,2.289391967952578,4.570730121584494,9.08409471960858,-0.029932396,0.5513059,0.016493361,353.2996,-28.929804,15.515465
223688609000.0,2.340576734499906,4.58673861859636,8.993974623944455,-0.03023783,0.5109888,0.013133603,353.2909,-28.951822,15.350636
223692840000.0,2.367189359279415,4.563927820041283,8.9179388934134,-0.021991149,0.46639562,-0.0030543262,353.29214,-28.982721,15.189892
223697775000.0,2.3865981966469807,4.49767992838636,8.82076632168032,-0.007941248,0.40378192,-0.019547688,353.29117,-29.027473,15.059003
223702804000.0,2.3911859016574586,4.378399693922652,8.710661497237568,0.014966198,0.34483343,-0.04550946,353.30396,-29.077547,14.93797
223707755000.0,2.373815540643042,4.249804893927932,8.617893855265777,0.01740966,0.29840767,-0.06505715,353.31805,-29.12978,14.841744
223712825000.0,2.310983726089986,4.095142136611587,8.555062393987658,0.014660766,0.25350907,-0.0842994,353.34747,-29.187021,14.758099
223717747000.0,2.2158631834763587,3.917896120376914,8.495835262998487,0.007330383,0.22632557,-0.09682214,353.36633,-29.23083,14.687103
223722868000.0,2.042567009675248,3.674456205889282,8.43806955577991,0.0027488936,0.2098322,-0.10262536,353.3935,-29.27424,14.62408
223728228000.0,1.8663974529747984,3.4260285750064954,8.377854827227852,-0.014660766,0.20219639,-0.09621128,353.41635,-29.299637,14.559625
223732824000.0,1.8397147813198236,3.3650395316186024,8.332112945180567,-0.024129177,0.20341812,-0.0983493,353.44394,-29.326368,14.496184
223737745000.0,1.8111452801853296,3.299737729505499,8.283136487052914,-0.027794369,0.1957823,-0.103847094,353.47342,-29.319843,14.406107
223742818000.0,1.803301925768234,3.2638188969270643,8.247610585616439,-0.020158553,0.18112154,-0.0983493,353.5017,-29.313433,14.320455
223747889000.0,1.807796923250648,3.2458389069974083,8.220640506849316,-0.022296581,0.1704314,-0.106901415,353.5357,-29.305264,14.234512
223752854000.0,1.8305563351212168,3.238827855965774,8.211057589922358,-0.022907447,0.15760323,-0.115453534,353.56165,-29.298176,14.150492
223758519000.0,1.8778371827285687,3.2431261107589924,8.219654279036602,-0.009773844,0.12583824,-0.12095132,353.5936,-29.29501,14.074522
223763210000.0,1.9167648138276556,3.2474730092184365,8.228192270541081,-0.016493361,0.109650314,-0.118202426,353.62137,-29.28776,14.001437
223767839000.0,1.950079698997996,3.2696829326653307,8.268910154308617,-0.01740966,0.095294975,-0.11148291,353.654,-29.285967,13.936724
223772784000.0,1.985668834268537,3.293409022845692,8.312407655978623,-0.0290161,0.052839845,-0.10873401,353.68494,-29.280342,13.893274
223777864000.0,2.0143225556298154,3.3448621113524557,8.354807400167084,-0.03390302,0.009468411,-0.11759156,353.7193,-29.276857,13.853747
223782885000.0,2.0366399754757265,3.4162779480738887,8.394979594820384,-0.03940081,-0.02443461,-0.12064589,353.7562,-29.269596,13.824194
223787808000.0,2.0450984942454014,3.486147935229372,8.454164805791534,-0.048563786,-0.03023783,-0.10751228,353.789,-29.257797,13.8052025
223792820000.0,2.0344612212307007,3.557063162709611,8.542808562458447,-0.055588737,-0.033292156,-0.10415252,353.82916,-29.246428,13.7921
223797862000.0,2.0237602773878995,3.628402862820418,8.631982908251459,-0.048563786,-0.031154128,-0.10262536,353.86053,-29.244104,13.779903
223802918000.0,2.014270661569902,3.684158861365536,8.689611192150487,-0.053450707,-0.004276057,-0.10170906,353.88757,-29.236616,13.762728
223807852000.0,2.0054918541012543,3.732442302443103,8.73350522949373,-0.043066,0.030848695,-0.10293079,353.91278,-29.235523,13.7429
223812821000.0,1.999699524848996,3.767079764756286,8.764319892857143,-0.0421497,0.074830994,-0.099265605,353.93585,-29.237478,13.704381
223817820000.0,1.996337084674814,3.790616916196095,8.78449442857143,-0.015577064,0.12461651,-0.09896017,353.95383,-29.249634,13.655689
223822787000.0,1.9929961684225312,3.814003399733109,8.804539821428571,-0.01985312,0.18417588,-0.09621128,353.96002,-29.25708,13.588306
223828307000.0,1.9812853564974904,3.853217330507529,8.860550661926009,-0.02687807,0.22357668,-0.084910266,353.95984,-29.26996,13.516278
223832885000.0,1.96905931344116,3.88989545967652,8.91760544441346,-0.035124753,0.24129178,-0.082161374,353.9561,-29.281378,13.435823
223837874000.0,1.942537265865082,3.969461622062216,9.001213675847605,-0.03634648,0.25961772,-0.06414085,353.93765,-29.296604,13.347037
223842841000.0,1.9059592778678784,4.079195620775953,9.100971730234184,-0.047036625,0.2648101,-0.03970624,353.91702,-29.305735,13.260603
223847862000.0,1.8689836229989516,4.190122620482349,9.201814329605034,-0.058643065,0.2489276,-0.018020526,353.89606,-29.314621,13.172102
223852802000.0,1.8108107745453013,4.298161489095655,9.259741110727518,-0.070554934,0.23457226,0.00580322,353.86838,-29.318241,13.088131
223857828000.0,1.7419103494695185,4.407591466444931,9.30027117084877,-0.084910266,0.22815818,0.020463986,353.83972,-29.316954,13.010087
223862748000.0,1.6786567542376505,4.514821634435812,9.30315284553425,-0.06841691,0.23335053,0.027794369,353.82156,-29.339272,12.917257
223867841000.0,1.6230295335946967,4.6260762209352055,9.219711724142847,-0.070249505,0.2144137,0.029321533,353.80658,-29.351517,12.83562
223872888000.0,1.567904738270725,4.736325955485067,9.137024243353054,-0.052534413,0.23945917,0.04153884,353.78857,-29.388697,12.723299
223877807000.0,1.6035335603284042,4.73334308382473,9.07594187952463,-0.04062254,0.29077184,0.049480084,353.77112,-29.422892,12.61153
223882920000.0,1.7279147184976866,4.622288287807312,9.031520053887329,-0.045814894,0.31031954,0.025045475,353.76074,-29.457518,12.501345
223887752000.0,1.8398294273347575,4.513399884706044,9.001236273554346,-0.03359759,0.29840767,0.0070249503,353.76276,-29.536137,12.37814
223892837000.0,1.943877976063133,4.389213102777586,8.997879802053898,-0.053145275,0.2660318,-0.032070424,353.77747,-29.604877,12.252021
223897902000.0,2.0475172876283687,4.265514764435867,8.994536532014612,-0.073303826,0.20830505,-0.064446285,353.77658,-29.654953,12.166022
223902840000.0,2.101064974633563,4.124650369667963,8.999911743643434,-0.10048734,0.1423316,-0.092240654,353.79123,-29.698256,12.08734
223908036000.0,2.086179748010769,3.946028349626084,9.018518179778642,-0.12003502,0.061391957,-0.11148291,353.82303,-29.73815,12.024968
223912749000.0,2.072678194301526,3.784010339530362,9.035395033801974,-0.14446963,-0.022602014,-0.12858713,353.8443,-29.737219,12.009318
223917811000.0,2.005908049175512,3.715160247460197,9.057000293783169,-0.17989981,-0.109650314,-0.1301143,353.87875,-29.728086,12.014041
223922807000.0,1.9197567354150875,3.687954584382108,9.079671679681576,-0.19028452,-0.16676621,-0.11484267,353.92062,-29.719368,12.031671
223927885000.0,1.7815475685799405,3.623450913386296,9.10340089553128,-0.21991149,-0.20525073,-0.10842858,353.9582,-29.660604,12.061945
223932874000.0,1.6154846162661372,3.53804706121152,9.127124160278052,-0.21502456,-0.23273966,-0.096516706,353.99655,-29.608662,12.1055975
223937877000.0,1.5353339834266593,3.527260698429391,9.087946955408356,-0.21166481,-0.2312125,-0.076052725,354.04398,-29.54462,12.135525
