timestamp,acc_x,acc_y,acc_z,gyro_x,gyro_y,gyro_z,ori_azimuth,ori_pitch,ori_roll
883717897000.0,-0.2367434875270874,9.836372070626195,-0.5169239485277247,-0.93370754,-3.7519343,4.111734,7.0185647,-9.147383,-43.361458
883722549000.0,-0.2010282615678776,9.82816422036329,-0.5337833124282982,-0.93370754,2.8903089,-9.015454,11.693995,-6.464962,-45.96259
883727530000.0,-0.1627871737555768,9.81937589229804,-0.5518350088145316,-6.0344324,0.7486154,0.029321533,6.382093,-8.422108,-43.460148
883732528000.0,-0.1244155702852135,9.810557569939052,-0.569948315086042,-1.1753048,0.7657196,0.026267206,9.036773,-7.9594216,-44.702408
883737557000.0,-0.0858059676736775,9.801684552103252,-0.5881739687954111,-1.1917981,0.729984,0.036651913,8.341821,-7.2933054,-44.7955
883742527000.0,-0.0476493311695347,9.792915632110422,-0.6061857999617591,-1.2095132,0.72204274,0.027794369,7.6358933,-7.617813,-44.897575
883747503000.0,-0.0094466303154875,9.784136125896271,-0.6242193757934991,-1.1441506,0.73639804,0.027183503,6.91121,-7.9714127,-44.990425
883752513000.0,0.0290171018546844,9.775296631094648,-0.6423761713957935,-1.1527027,0.8060367,0.06719518,6.158023,-8.324733,-45.08997
883757519000.0,0.0674501244582536,9.7664641937739,-0.6605184705544933,-1.5711454,0.7672467,0.058643065,5.4208274,-8.610382,-45.1609
883762577000.0,0.1062823714276609,9.75754000920172,-0.6788492234799235,-1.2348641,0.7703011,0.0580322,4.6425424,-9.066272,-45.254223
883767528000.0,0.1442931374904397,9.74880461224307,-0.696792196539197,-1.2235631,0.75655663,0.0571159,3.862403,-9.382574,-45.327847
883772553000.0,0.1828720305353728,9.739938651888146,-0.7150033538049714,-1.2186762,0.74372846,0.062308256,3.068847,-9.776148,-45.396122
883777548000.0,0.2212206018307839,9.73112562263982,-0.7331057877437859,-1.2180653,0.7351763,0.07238753,2.264615,-10.181888,-45.455154
883782547000.0,0.2595998826927979,9.722305535910612,-0.751222718126195,-1.1976013,0.7281514,0.074830994,1.4531147,-10.601554,-45.50468
883788068000.0,0.3019867619964945,9.712564447926626,-0.7712314343977056,-1.1905763,0.6976081,0.09132435,0.6269867,-11.032828,-45.53671
883792561000.0,0.3364812826832377,9.70463713252868,-0.7875145646653919,-1.1609493,0.63346726,0.08552113,359.8055,-11.477194,-45.5521
883797550000.0,0.3747837896287444,9.695834689501671,-0.8055952539388146,-1.0485502,0.5467244,0.07941248,358.97736,-11.95081,-45.544495
883802556000.0,0.4132168122323135,9.687002252180928,-0.8237375530975144,-0.92149025,0.4361578,0.056199603,358.16373,-12.436004,-45.50776
883807523000.0,0.4513504165615041,9.678238625298755,-0.8417385119311663,-0.7611381,0.32284227,0.048258353,357.35446,-12.958751,-45.438786
883812658000.0,0.4907738226880178,9.669178584219647,-0.8603483213957935,-0.625526,0.20677789,0.03756821,356.55954,-13.514187,-45.260967
883817654000.0,0.5291300713750797,9.6603637906011,-0.8784543794455066,-0.47647488,0.0070249503,0.030848695,355.7969,-14.108623,-45.023857
883822757000.0,0.5683078009687699,9.651360209369026,-0.8969482173613766,-0.21655174,-0.2724459,0.007941248,355.07877,-14.751111,-44.73085
883827678000.0,0.6060882452820268,9.64267774351697,-0.9147824670936904,0.20769419,-0.3182608,0.031154128,354.34958,-15.468241,-44.437183
883832669000.0,0.6444061070108349,9.633871771749522,-0.93287040458891,0.20799962,-0.33536503,0.07544186,353.6696,-16.156845,-44.071438
883837718000.0,0.6831692574553856,9.62496346650932,-0.9511685405162524,0.14355333,-0.33964106,0.11789699,353.00055,-16.924248,-43.688602
883842699000.0,0.7214103452676864,9.616175138444072,-0.9692202369024856,0.12950343,-0.36041048,0.13255776,352.34528,-17.708357,-43.289333
883847690000.0,0.7597282069964946,9.607369166676625,-0.9873081743977056,0.13683382,-0.37384954,0.16462818,351.68295,-18.49918,-42.878204
883852674000.0,0.7979923269837477,9.598575545500715,-1.0053707431166348,0.1282817,-0.38362336,0.19150625,351.0355,-19.288443,-42.45607
883857764000.0,0.8370702504859784,9.5895949010815,-1.0238174675908225,0.112399206,-0.39003745,0.21502456,350.39554,-20.085606,-42.0225
883862712000.0,0.875057984373805,9.58086479723351,-1.0417495683173996,0.12003502,-0.38423425,0.22999077,349.76495,-20.891142,-41.582157
883867648000.0,0.9129535895618228,9.572155865828154,-1.059638179713193,0.11636983,-0.3839288,0.23365596,349.1486,-21.694927,-41.132473
883872618000.0,0.9511102260659656,9.563386945835326,-1.077650010879541,0.12644911,-0.376293,0.2415972,348.53976,-22.507778,-40.67887
883877610000.0,0.9894357651864244,9.55457920969766,-1.0957415724856596,0.1386664,-0.38606682,0.25167647,347.9487,-23.321966,-40.21593
883882620000.0,1.0278994973565965,9.545739714896031,-1.1138983680879542,0.1563815,-0.37659842,0.25137106,347.36954,-24.138947,-39.755936
883887669000.0,1.0666626478011474,9.536831409655832,-1.1321965040152964,0.15363261,-0.37018433,0.25717425,346.80414,-24.957207,-39.286613
883892630000.0,1.1047501877804335,9.52807836899498,-1.1501757181835564,0.16584991,-0.36957347,0.25992316,346.25537,-25.780838,-38.815163
883897630000.0,1.1431371460340982,9.519256517895554,-1.1682962726768642,0.16798794,-0.37018433,0.25717425,345.7216,-26.600916,-38.341717
883902609000.0,1.1813628790630974,9.510471718570743,-1.1863407208413002,0.17104226,-0.37904188,0.26175576,345.20248,-27.424341,-37.861904
883907614000.0,1.219788224275016,9.50164104562022,-1.2044793958891014,0.15454891,-0.38973203,0.26236662,344.70184,-28.241138,-37.38006
883912649000.0,1.2584438912364564,9.492757441563098,-1.2227267942638624,0.14966199,-0.40744713,0.26297748,344.21915,-29.059843,-36.891586
883917651000.0,1.2968462042734226,9.483932061723232,-1.2408545969789675,0.15302174,-0.41447207,0.25350907,343.75476,-29.872635,-36.403015
883922634000.0,1.335102646869025,9.475140204917542,-1.258913541586998,0.14905111,-0.41386122,0.26328292,343.3025,-30.684116,-35.907234
883927817000.0,1.3748945677947737,9.465995474067878,-1.277697308374761,0.1441642,-0.40408736,0.26328292,342.87027,-31.489376,-35.414295
883932599000.0,1.4116078546685789,9.457558255676386,-1.2950278066921606,0.122783914,-0.3894266,0.26358834,342.449,-32.28904,-34.91996
883937650000.0,1.4503863598964308,9.448646421695743,-1.3133331908413002,0.12156218,-0.35430184,0.26267207,342.03583,-33.088135,-34.43186
883942668000.0,1.4889115111998088,9.439792811932362,-1.331518979330784,0.09773844,-0.3231477,0.2648101,341.63358,-33.874794,-33.94506
883947624000.0,1.526960664220841,9.43104859312261,-1.3494800729445506,0.073303826,-0.28221974,0.25717425,341.2375,-34.65495,-33.469604
883952628000.0,1.565378332041109,9.422219684542304,-1.3676151238814531,0.053450707,-0.23976462,0.25289822,340.8458,-35.42781,-32.999817
883957612000.0,1.603642452028362,9.413426063366396,-1.3856776926003824,0.033292156,-0.1994475,0.25045475,340.45935,-36.189857,-32.53914
883962680000.0,1.6425514729142767,9.404484235092015,-1.404044686634799,0.010079277,-0.15271631,0.23609942,340.07773,-36.93931,-32.091713
883967657000.0,1.6807618511599745,9.395702964507649,-1.4220818865774378,-0.020158553,-0.12461651,0.22021692,339.70386,-37.6774,-31.649595
883972611000.0,1.7187956493977057,9.386962274438336,-1.4400357319694073,-0.029321533,-0.09010262,0.2134974,339.33,-38.409126,-31.219284
883977613000.0,1.757197962434672,9.37813689459847,-1.4581635346845123,-0.04153884,-0.0729984,0.19608775,338.9708,-39.123665,-30.796856
883982593000.0,1.795431372855322,9.369350330903442,-1.476211606959847,-0.048258353,-0.05375614,0.17898351,338.61484,-39.831047,-30.383299
883987663000.0,1.834355748524538,9.360404973888624,-1.4945858492160613,-0.058337633,-0.05222898,0.1459968,338.2768,-40.52353,-29.977253
883992681000.0,1.872880899827916,9.35155136412524,-1.512771637705545,-0.043676864,-0.06078109,0.1255328,337.9475,-41.21368,-29.574663
883997672000.0,1.911198761556724,9.342745392357791,-1.5308595752007648,-0.03604105,-0.06261369,0.10293079,337.63336,-41.8881,-29.182102
884002618000.0,1.96034935402732,9.340831652472916,-1.5280876418841265,-0.038179077,-0.06261369,0.084910266,337.33356,-42.555042,-28.792833
884007608000.0,2.0278786503061705,9.349835746679227,-1.4920719231841737,-0.025045475,-0.06811147,0.067500606,337.0492,-43.217167,-28.408323
884012630000.0,2.096619473397879,9.36115408824343,-1.4491055068510836,-0.021380283,-0.046731193,0.04795292,336.7828,-43.961838,-27.884184
884017652000.0,2.1675753090825265,9.378892931396956,-1.3870192316643617,-0.034513887,-0.023823744,0.027794369,336.53094,-44.697376,-27.365726
884022692000.0,2.2341387166286397,9.398962072556357,-1.320205304846217,-0.027488936,-0.004581489,0.013744468,336.29355,-45.444824,-26.826063
884027613000.0,2.259945425098111,9.4376721128046,-1.21697820149676,-0.04550946,0.025045475,-0.00580322,336.06192,-46.17377,-26.301207
884032579000.0,2.2859881225700467,9.476736136351192,-1.1128071396732682,-0.08277224,0.03604105,-0.01282817,335.8519,-46.90717,-25.743584
884037733000.0,2.264243872258527,9.505652011316544,-1.0450747690269366,-0.09315695,0.057726767,-0.02565634,335.64496,-47.63192,-25.202894
884043873000.0,2.2314410152295188,9.538455113006057,-0.9700966248605356,-0.116675265,0.09040806,-0.046120327,335.4433,-48.3368,-24.67362
884047725000.0,2.208919451663748,9.573876361974603,-0.9115545450875656,-0.17287487,0.111177474,-0.04795292,335.262,-49.032646,-24.117472
884052610000.0,2.1781952826619966,9.63532437915937,-0.8245026901401051,-0.1853976,0.14080444,-0.061391957,335.0831,-49.72027,-23.581287
884057607000.0,2.1239185516323835,9.700910308360069,-0.7701332281817325,-0.22724187,0.15607607,-0.06414085,334.91486,-50.388783,-23.03825
884062649000.0,2.0510198331949425,9.769252767692016,-0.7427962111464428,-0.2648101,0.1695151,-0.06811147,334.7487,-51.045193,-22.509474
884067608000.0,1.9771116832177795,9.840667779466235,-0.7298383409345617,-0.29077184,0.17898351,-0.079107046,334.59506,-51.696507,-21.974327
884072630000.0,1.8994585133630923,9.918321092411434,-0.7344061716497293,-0.32803464,0.19120082,-0.08368854,334.44293,-52.328487,-21.44859
884077576000.0,1.8154610637038449,10.002318511515035,-0.7433891347068899,-0.355829,0.1863139,-0.07971791,334.296,-52.96944,-20.925419
884082608000.0,1.714567356661591,10.103211835458698,-0.7617334755519604,-0.37293324,0.17134771,-0.07360926,334.1548,-53.594215,-20.411346
884087636000.0,1.5894696167239517,10.210387838554452,-0.7958831890552882,-0.37690386,0.16218472,-0.08368854,334.01395,-54.24651,-19.897402
884092640000.0,1.3871068345968771,10.337453467543943,-0.8805931743052146,-0.38423425,0.15271631,-0.0870483,333.88116,-54.88476,-19.3873
884097655000.0,1.2258313,10.43872,-0.94810385,-0.37507126,0.1414153,-0.086132,333.75235,-55.5879,-18.858776
884102610000.0,1.2258313,10.43872,-0.94810385,-0.35521814,0.13744467,-0.09437868,333.63272,-56.275024,-18.344128
884107595000.0,1.21339485155521,10.439963669517883,-0.9767076840202176,-0.32650748,0.13408493,-0.09773844,333.50186,-57.091778,-17.799643
884112699000.0,1.165883150311042,10.444714933903578,-1.0859846068040435,-0.2910773,0.13347405,-0.105374254,333.38275,-57.89091,-17.271715
884117646000.0,1.1215608042007472,10.442983002625468,-1.1704960989498132,-0.25900686,0.14996742,-0.10140363,333.30145,-58.92176,-16.58226
884122631000.0,1.082994431990306,10.41887901999394,-1.1801376920024236,-0.21960606,0.15790866,-0.11178834,333.2363,-59.922234,-15.923333
884127622000.0,1.0562436231075696,10.403207784196548,-1.2620527648406374,-0.17989981,0.1685988,-0.09315695,333.1827,-61.30832,-15.046452
884132601000.0,1.068116851992032,10.415080847775563,-1.5786724083914343,-0.1572978,0.20616703,-0.089491755,333.1383,-62.62748,-14.227401
884137674000.0,1.0802142390438243,10.427178066401062,-1.901269606972112,-0.13683382,0.23732115,-0.07849618,333.08713,-64.01502,-13.391778
884142657000.0,1.1028851218132667,10.416719619879393,-1.7176208751195676,-0.11148291,0.26389378,-0.073303826,333.043,-65.34105,-12.6039295
884147682000.0,1.127902495487627,10.401709404657934,-1.4324225540029112,-0.10781772,0.28008172,-0.057421334,333.00476,-66.606514,-11.852563
884152616000.0,1.0875248079360378,10.3195893399467,-1.4120444236008292,-0.08368854,0.27214047,-0.04184427,332.99484,-68.34228,-10.867844
884157576000.0,1.0406380469055374,10.230503705754614,-1.4167331927252984,-0.05955936,0.2415972,-0.05589417,333.00934,-69.96722,-9.952575
884162633000.0,1.028282525594045,10.194401827941595,-1.558663061322645,-0.013744468,0.19792034,-0.047647487,333.00122,-71.28979,-9.201592
884167647000.0,1.0214090536215288,10.166908083595764,-1.7201897244488975,0.02687807,0.13897185,-0.0571159,333.0205,-72.54963,-8.493465
884172646000.0,1.0160230982753045,10.138752410639215,-1.8366213419532176,0.082161374,0.087659165,-0.055283304,333.05746,-73.76117,-7.82359
884177613000.0,1.0262781302037296,10.102859852430743,-1.477695010294276,0.12705997,0.05009095,-0.06078109,333.11728,-74.924446,-7.1876206
884183077000.0,1.0254104520977996,10.070358160586798,-1.1689661507188265,0.16707164,0.032070424,-0.065973446,333.21674,-76.2021,-6.5083294
884187661000.0,0.9996500308557458,10.057477905134474,-1.087391393789731,0.2003638,0.030543262,-0.06719518,333.33035,-77.427315,-5.865705
884192625000.0,0.9768343,10.044440528514963,-0.9898845431018256,0.22876903,0.029932396,-0.057421334,333.4343,-78.41601,-5.3360662
884197623000.0,0.9768343,10.03543157001694,-0.8502448632599284,0.22388211,0.025350908,-0.060170226,333.54358,-79.36521,-4.833684
884202764000.0,0.9771617455231224,10.02724393526566,-0.7104018023163332,0.20372356,0.032375857,-0.056199603,333.64484,-80.24078,-4.3711042
884207621000.0,0.9809756613643816,10.031057731633323,-0.618867762389308,0.16584991,0.027794369,-0.062002823,333.75314,-81.07795,-3.9305637
884212633000.0,0.9849112895703508,10.034993236552967,-0.5244126238028862,0.11942416,0.02076942,-0.065973446,333.8529,-81.823235,-3.5276065
884217636000.0,0.9278240963049535,10.031167078126405,-0.4671127756666367,0.079107046,0.005497787,-0.070249505,333.95703,-82.53495,-3.1412652
884222611000.0,0.8335886150948485,10.02260048862717,-0.432845312909287,0.0290161,-0.0030543262,-0.07238753,334.06143,-83.20829,-2.7700248
884227606000.0,0.7377680112443379,9.999188361310951,-0.4514062008100186,-0.007330383,-0.011301007,-0.07666359,334.16565,-83.81425,-2.4254885
884232607000.0,0.6399304353850253,9.952396430855316,-0.5534975449187317,-0.013133603,-0.01863139,-0.07971791,334.27118,-84.395065,-2.0932603
884237676000.0,0.5355460890856326,9.901077301455487,-0.6577014130011609,-0.046731193,-0.023518313,-0.08277224,334.38123,-84.910225,-1.7981741
884242690000.0,0.4026269459103491,9.828186035806768,-0.7648942768997232,-0.070249505,-0.039095376,-0.09254608,334.49582,-85.40832,-1.515658
884247615000.0,0.2720671572908295,9.756588611929637,-0.8701844353960175,-0.06414085,-0.050701816,-0.116980694,334.614,-85.906,-1.2603117
884252919000.0,0.1845582525059382,9.659591488123516,-0.9706639559382424,-0.043066,-0.043982297,-0.14110987,334.73132,-86.384056,-1.0171324
884257585000.0,0.1125339762541567,9.57240442025789,-1.0578512612996267,-0.0033597588,-0.03359759,-0.16371189,334.8509,-86.85069,-0.7893097
884262644000.0,0.0344864426236693,9.4844546228643,-1.122396815708024,0.028099801,-0.020158553,-0.18997909,334.97412,-87.33399,-0.5908526
884267645000.0,-0.0426300232961803,9.403054054029878,-1.1609550670095716,0.071776666,0.008246681,-0.21655174,335.09088,-87.8136,-0.40759495
884272695000.0,-0.111906858756829,9.329357840305637,-1.1787211120725885,0.10842858,0.040317107,-0.25228736,335.20816,-88.30965,-0.24891163
884277620000.0,-0.1614602030070678,9.27529902702961,-1.151691987669532,0.12492194,0.07788532,-0.2742785,335.31686,-88.79327,-0.101778395
884282644000.0,-0.2048872068231441,9.221661855895196,-1.1206275329421396,0.14080444,0.10445796,-0.2947425,335.42935,-89.27984,0.021285431
884287671000.0,-0.2224063567030567,9.173484609898107,-1.076829658242358,0.1469131,0.124311075,-0.30665436,335.53433,-89.7174,0.13366263
884292866000.0,-0.23942018,9.126697,-1.0326836934845716,0.13836098,0.14905111,-0.3109304,335.6176,-90.29527,0.22010678
884297672000.0,-0.23942018,9.126697,-1.0079411384904848,0.11881329,0.16462818,-0.30573806,335.6995,-90.69746,0.300925
884302664000.0,-0.228801560299541,9.13481708857396,-0.9857864757951526,0.11209377,0.18936823,-0.29168814,335.7752,-91.10405,0.3731376
884307634000.0,-0.1636478073226507,9.18464034809566,-0.9819539050567678,0.10415252,0.2012801,-0.28008172,335.85147,-91.49932,0.44205934
884312619000.0,-0.0982974132401964,9.234613979627987,-0.9781097672034784,0.084910266,0.20861048,-0.25473082,335.91153,-91.87469,0.5107956
884317702000.0,-0.0613106649622518,9.294045834560537,-0.9707127887314756,0.08124508,0.19914207,-0.23182335,335.97452,-92.24351,0.5785584
884322653000.0,-0.0392141180022369,9.3559164912853,-0.96187417622332,0.086437434,0.2003638,-0.20647246,336.0339,-92.60214,0.650902
884327663000.0,-0.0423375478134733,9.437431643988608,-0.9440735698184568,0.10629055,0.19700404,-0.1853976,336.08722,-92.955826,0.7360524
884332667000.0,-0.0679256979745483,9.535519529189283,-0.918485415204236,0.10781772,0.19792034,-0.16982053,336.14014,-93.297775,0.82318735
884337668000.0,-0.0934985075180208,9.633548608703393,-0.8929126012102875,0.111177474,0.18295415,-0.14905111,336.191,-93.639824,0.9175932
884342643000.0,-0.118938365042271,9.73106803893388,-0.8674727392586989,0.12034045,0.17531833,-0.129198,336.24057,-93.97537,1.0123713
884347792000.0,-0.1490641142562592,9.831534350515463,-0.8408488777319588,0.12186762,0.15485434,-0.10323623,336.2997,-94.296745,1.107776
884352613000.0,-0.2316315849189985,9.918958463917528,-0.8117074237628866,0.12370021,0.14446963,-0.096516706,336.35858,-94.61174,1.1994262
884357634000.0,-0.320457992996331,10.0064588314309,-0.7833890519364044,0.111177474,0.11575896,-0.07941248,336.42004,-94.89571,1.2804315
884362628000.0,-0.4276924468976762,10.069824659906237,-0.7687661445597228,0.10354166,0.09987647,-0.07788532,336.4811,-95.17288,1.3554358
884368579000.0,-0.5480473199359132,10.12689811782105,-0.7649949151096869,0.09712757,0.084910266,-0.07452556,336.55453,-95.42905,1.4157443
884372659000.0,-0.6186753883608578,10.136529244269164,-0.7842571210746857,0.0729984,0.08032878,-0.07788532,336.62964,-95.670876,1.4712715
884377627000.0,-0.7046754481488785,10.148256557061869,-0.8077116895144195,0.058337633,0.08246681,-0.07513642,336.7133,-95.89643,1.5056946
884382621000.0,-0.7905961132226416,10.134899537358493,-0.8602718864377359,0.051618114,0.076052725,-0.082161374,336.80045,-96.110695,1.5334095
884387711000.0,-0.8779709379773586,10.11190618264151,-0.924653322862264,0.056199603,0.08735373,-0.07849618,336.88235,-96.319405,1.5630609
884392631000.0,-0.92752763,10.073134963768116,-0.9734338317028984,0.04520403,0.09896017,-0.07849618,336.96942,-96.516205,1.5679462
884397635000.0,-0.9564662385714288,10.023525777432711,-1.014774741174948,0.03848451,0.105374254,-0.077579886,337.05515,-96.71084,1.5724019
884402594000.0,-0.9782137969526864,9.977573081996791,-1.056287472574178,0.038179077,0.09865474,-0.073303826,337.1474,-96.91111,1.5611792
884407614000.0,-0.9830329164394548,9.939020327385723,-1.099659547955092,0.030848695,0.093462385,-0.062308256,337.238,-97.103325,1.550742
884412674000.0,-0.977418671496344,9.888871683321726,-1.1519019654770195,0.036651913,0.092240654,-0.056505036,337.3273,-97.30956,1.5350115
884417680000.0,-0.9482064086220404,9.813754666260444,-1.2228460666956824,0.025350908,0.08735373,-0.04153884,337.42023,-97.50526,1.5229809
884422913000.0,-0.9201021286067924,9.737426943889515,-1.295783711890906,0.021991149,0.083383106,-0.03970624,337.51578,-97.71345,1.509404
884427620000.0,-0.9318483279292972,9.70218801884826,-1.342768468296708,0.020463986,0.08582657,-0.028099801,337.61203,-97.91522,1.5010339
884432584000.0,-0.9442358642447668,9.665025064970033,-1.3923185704421088,0.023518313,0.093462385,-0.013439035,337.7084,-98.1326,1.5005232
884438630000.0,-0.9396802379878704,9.632361969969676,-1.428849574009586,0.018936822,0.10293079,-0.022296581,337.80316,-98.34107,1.4946501
884442623000.0,-0.9321990363053898,9.613658965763474,-1.4475526172747726,0.021991149,0.0983493,-0.021991149,337.9006,-98.5482,1.4931339
884447607000.0,-0.9387935941387308,9.595693810035842,-1.488485724288425,0.026267206,0.094989546,-0.022602014,337.9958,-98.76697,1.4881991
884452539000.0,-0.953731247459414,9.580756390681003,-1.5382778673624289,0.035124753,0.090713486,-0.032986723,338.09204,-98.981384,1.4781622
884457544000.0,-0.98938354250646,9.552149115086465,-1.5725779038163388,0.049785517,0.09773844,-0.038179077,338.17792,-99.19784,1.4684165
884462573000.0,-1.0324620604651162,9.518643440071555,-1.6012968824686942,0.06169739,0.105068825,-0.05222898,338.26404,-99.4092,1.4511408
884467517000.0,-1.0968126576063666,9.495651574839302,-1.640667909305173,0.06841691,0.10140363,-0.0580322,338.3562,-99.62976,1.4321684
884472504000.0,-1.1699065278951128,9.476159991429446,-1.6845242518314456,0.07513642,0.09865474,-0.06994407,338.445,-99.84662,1.4060969
884477500000.0,-1.2397737469561882,9.47494538011696,-1.7020614147445114,0.08368854,0.1142318,-0.095294975,338.52963,-100.06712,1.3664379
884482499000.0,-1.3086182343399482,9.479535105263158,-1.7112406733390857,0.11911872,0.14049901,-0.11026118,338.61185,-100.29113,1.3253167
884487623000.0,-1.3733901307849432,9.47454441348118,-1.7174956254449956,0.121256754,0.1591304,-0.129198,338.69766,-100.51931,1.2663647
884492526000.0,-1.4327633099698474,9.46540988746231,-1.7220627930746035,0.11789699,0.15057829,-0.14996742,338.78305,-100.74911,1.2015233
884497526000.0,-1.4807686620929497,9.48384243534619,-1.6955943473917168,0.13041973,0.15485434,-0.18325958,338.86594,-100.97875,1.1156325
884502512000.0,-1.5210257385393613,9.519067587417007,-1.6503050838444515,0.1414153,0.1704314,-0.2098322,338.94742,-101.20121,1.025576
884507871000.0,-1.5222265061318254,9.565818880897686,-1.614154747640926,0.13927728,0.16737708,-0.22876903,339.03992,-101.41886,0.91615176
884512656000.0,-1.510079928644637,9.610356416239618,-1.5858127335041527,0.14569137,0.13958271,-0.23640485,339.13425,-101.63693,0.80217814
884517566000.0,-1.4987138050135065,9.660914423014589,-1.5657515050135062,0.14782938,0.13469578,-0.2556471,339.21655,-101.83732,0.67191124
884522571000.0,-1.4883557533657483,9.717883815235009,-1.5553934533657483,0.1386664,0.11789699,-0.25625798,339.3107,-102.03282,0.543295
884527530000.0,-1.4690828164888967,9.762596261933904,-1.5718723135688055,0.1386664,0.112704635,-0.26633725,339.39557,-102.21849,0.40974647
884532568000.0,-1.4437735835285888,9.800560089351285,-1.6056180162440985,0.11881329,0.10445796,-0.28008172,339.48566,-102.39282,0.27500322
884537585000.0,-1.413342982481363,9.842805624707134,-1.631457424941427,0.119729586,0.098043874,-0.27214047,339.56793,-102.5642,0.14422643
884542541000.0,-1.3729061920660277,9.893351546751862,-1.641566609350373,0.09560041,0.08368854,-0.2678644,339.65363,-102.72009,0.009127693
884547534000.0,-1.3243103031452446,9.937583901605482,-1.6452092018495916,0.09010262,0.07452556,-0.2678644,339.73648,-102.8825,-0.11854315
884552564000.0,-1.2655151238193598,9.973765332457049,-1.6406864993803398,0.076052725,0.0720821,-0.2660318,339.82153,-103.032875,-0.24357554
884557550000.0,-1.20139883057727,9.999713060232512,-1.6422150009721386,0.06658431,0.058643065,-0.24984388,339.90588,-103.17969,-0.3573126
884562614000.0,-1.1236326299759472,10.004573546101424,-1.6567962048206053,0.05100725,0.0580322,-0.24312437,339.98642,-103.31803,-0.47118586
884567575000.0,-1.0494836908528198,10.026257931911967,-1.677153119669876,0.043982297,0.06963864,-0.23304509,340.05588,-103.45135,-0.56646234
884572618000.0,-0.9783068592110434,10.08319928821969,-1.7103689397524071,0.032986723,0.07788532,-0.2180789,340.12683,-103.576225,-0.65771204
884577780000.0,-0.9180025106204944,10.13089525630793,-1.7347704665293513,0.01863139,0.076358154,-0.20616703,340.19,-103.699394,-0.7294531
884582619000.0,-0.8861850266220391,10.15475822914521,-1.7387476494335736,0.004886922,0.0693332,-0.19730948,340.2528,-103.81645,-0.79712677
884588090000.0,-0.8482466677216174,10.178701785264384,-1.7451436359175738,0.0009162979,0.057421334,-0.17715092,340.30258,-103.931206,-0.84531176
884592610000.0,-0.7910241355287714,10.158505715279938,-1.775437934206843,0.0012217305,0.058643065,-0.172264,340.34995,-104.040405,-0.8945803
884597623000.0,-0.7275602961741835,10.13610684385692,-1.8090364557387248,-0.02076942,0.04795292,-0.16249016,340.39816,-104.13843,-0.9308958
884602575000.0,-0.6670950326549492,10.105426769750231,-1.8274443269750231,-0.018020526,0.057726767,-0.15577064,340.44016,-104.24076,-0.9651419
884607574000.0,-0.6095216745143386,10.061139606753008,-1.8230156106753008,-0.020463986,0.04886922,-0.14660765,340.49072,-104.332565,-0.99803764
884612623000.0,-0.56082762672342,10.021661533404275,-1.8332562241232533,-0.031154128,0.038179077,-0.1255328,340.52866,-104.43175,-1.0079385
884617593000.0,-0.5432106392153234,9.999640299019156,-1.8905114795132785,-0.03970624,0.030848695,-0.10629055,340.5683,-104.5277,-1.016681
884622627000.0,-0.5259042030448717,9.976845309071258,-1.9454587925462132,-0.040011674,0.018936822,-0.09987647,340.6087,-104.62037,-1.0122124
884627581000.0,-0.5152951802884616,9.94855459402952,-1.9631404663685152,-0.044898596,0.01282817,-0.08246681,340.65112,-104.706055,-1.0003917
884632590000.0,-0.5045683746794872,9.919949791517592,-1.9810184446034589,-0.051618114,0.016187929,-0.070249505,340.69003,-104.804825,-0.9841677
884637597000.0,-0.5060959245676101,9.895936460953878,-2.0016981593291403,-0.04886922,0.010079277,-0.05131268,340.73434,-104.901375,-0.9636733
884642618000.0,-0.5270974807389937,9.879135321278826,-2.026900000419287,-0.056505036,0.009773844,-0.04428773,340.77545,-104.990135,-0.9437117
884647599000.0,-0.5533279160018639,9.860166938397017,-2.047245449580615,-0.04734206,0.009468411,-0.02321288,340.81387,-105.08511,-0.9153261
884652598000.0,-0.6291774681267475,9.820011410997203,-2.0249367714818267,-0.05375614,0.0076358155,-0.009773844,340.85217,-105.17077,-0.88857234
884658035000.0,-0.7109186916048018,9.77762199510346,-2.0012546013268047,-0.06566802,0.015577064,-0.0015271631,340.89325,-105.25679,-0.8642849
884662646000.0,-0.7632311093192229,9.770646865266151,-1.9942796171536885,-0.06841691,0.014049901,0.009773844,340.93793,-105.34066,-0.83766025
884667633000.0,-0.8198092978123519,9.763102954509556,-1.9867358639393464,-0.07666359,0.0030543262,0.009162978,340.98334,-105.417206,-0.8306715
884672615000.0,-0.8730888149334016,9.76084134375,-1.980323699590164,-0.087964594,-0.016493361,0.01160644,341.032,-105.4896,-0.821482
884677686000.0,-0.9228469892725408,9.7658172625,-1.9753478847540984,-0.087964594,-0.011911872,0.0143553335,341.07635,-105.56078,-0.8123006
884682605000.0,-0.9691690701247536,9.759916969139857,-1.966502643860801,-0.09437868,-0.03604105,0.015271631,341.13904,-105.621544,-0.8234135
884687645000.0,-1.0144435730794483,9.741807290873275,-1.9529203142481943,-0.10629055,-0.03604105,0.0067195175,341.1926,-105.67924,-0.83467
884693758000.0,-1.0466640441475696,9.73841201582571,-1.9385077117048608,-0.12095132,-0.03634648,0.009468411,341.25244,-105.73295,-0.85512275
884697682000.0,-1.050525863405611,9.749997312300891,-1.9307840731887784,-0.11728613,-0.048563786,0.00061086525,341.3133,-105.78748,-0.88223404
884702625000.0,-1.0519838421460692,9.757301011552178,-1.9234732421460687,-0.13439035,-0.055283304,0.00061086525,341.3771,-105.82943,-0.91570765
884707622000.0,-1.0482735560862149,9.753590648007442,-1.9197629560862148,-0.13958271,-0.054061573,-0.013744468,341.4395,-105.8752,-0.95580024
884712632000.0,-1.044553617491084,9.749870631725848,-1.916043017491084,-0.12217305,-0.049480084,-0.020158553,341.50183,-105.920296,-0.99448097
884717645000.0,-1.011690609344548,9.737121162273054,-1.9113387314186072,-0.14049901,-0.051618114,-0.020158553,341.56427,-105.95309,-1.0355011
884722597000.0,-0.9727743098266488,9.722527772181762,-1.9064742003282389,-0.13958271,-0.045814894,-0.022602014,341.62186,-105.99569,-1.0776597
884727692000.0,-0.9510689028282284,9.730172012929044,-1.8798828377635832,-0.13194689,-0.030543262,-0.030848695,341.67294,-106.03447,-1.1197826
884732651000.0,-0.9327945451285208,9.741136463444668,-1.8506438578112976,-0.13041973,-0.029932396,-0.04062254,341.72556,-106.07117,-1.1633371
884737642000.0,-0.895941667434479,9.759733391765666,-1.8057383113176748,-0.12858713,-0.016493361,-0.042455133,341.7682,-106.10864,-1.1963228
884742645000.0,-0.8090408459553823,9.798839093769836,-1.7188374671533508,-0.13255776,-0.012217305,-0.045814894,341.81177,-106.14435,-1.2327871
884747752000.0,-0.7252163449160596,9.836254624326893,-1.6350129449160595,-0.12095132,0.0033597588,-0.049480084,341.83984,-106.1719,-1.2650758
884752682000.0,-0.6953059084257207,9.846224457501847,-1.6051025084257209,-0.12461651,0.020158553,-0.05222898,341.86588,-106.19359,-1.2971946
884757633000.0,-0.6711439565147045,9.856836417626344,-1.5686612442657275,-0.11789699,0.03359759,-0.058643065,341.8726,-106.19732,-1.3118968
884762673000.0,-0.675737757980394,9.87061810983154,-1.4997541743123632,-0.1151481,0.039095376,-0.0580322,341.8772,-106.19883,-1.3244754
884767739000.0,-0.6777485730350804,9.88238309208603,-1.4329934420129462,-0.124311075,0.046120327,-0.058948494,341.87567,-106.191956,-1.3318231
884772703000.0,-0.6529316463823346,9.872456128628103,-1.393286417414909,-0.11759156,0.05009095,-0.064446285,341.8732,-106.19062,-1.3399029
884777647000.0,-0.6339464496923729,9.867239691864404,-1.3555264313898303,-0.12370021,0.048563786,-0.06047566,341.86713,-106.169624,-1.3465683
884782628000.0,-0.6460741167322034,9.887452421016947,-1.3272286105762712,-0.129198,0.051923547,-0.05100725,341.85883,-106.15116,-1.3522536
884787611000.0,-0.6582066533432204,9.907673266101694,-1.2989194274576272,-0.13530666,0.05009095,-0.05681047,341.8529,-106.12306,-1.3562597
884792629000.0,-0.6872362156424581,9.949761450917798,-1.2853156703810855,-0.15241088,0.038789943,-0.04886922,341.8506,-106.09039,-1.3542649
884797656000.0,-0.7208553312849162,9.997788758978452,-1.2757101586193138,-0.15607607,0.038179077,-0.0421497,341.84537,-106.06073,-1.3533732
884802676000.0,-0.7826594098173311,10.038600345091336,-1.2737153,-0.16523905,0.03481932,-0.04337143,341.84213,-106.01878,-1.356556
884807644000.0,-0.8511594705750023,10.0771315147125,-1.2737153,-0.17989981,0.023823744,-0.041233405,341.84198,-105.97501,-1.3574852
884812678000.0,-0.9005009610971195,10.08315692302849,-1.2801935687313082,-0.18234327,0.02076942,-0.04062254,341.84277,-105.927376,-1.3660502
884817699000.0,-0.9345609734770974,10.06423471588226,-1.29154693253581,-0.1826487,0.02107485,-0.036957346,341.84598,-105.87742,-1.3734999
884823011000.0,-0.9702291972389628,10.04144737210932,-1.3037665527960758,-0.17440203,0.00030543262,-0.033292156,341.86322,-105.82961,-1.3976729
884827675000.0,-0.9983999206587246,9.9976263629993,-1.3162868597897688,-0.16523905,0.0061086523,-0.03176499,341.87302,-105.783394,-1.4187871
884833377000.0,-1.0328402004484931,9.94405273651016,-1.331593633048353,-0.17562376,-0.006414085,-0.027488936,341.8964,-105.73748,-1.4508367
884837711000.0,-1.057586803405452,9.90509832765758,-1.342132334468484,-0.1554652,-0.015882496,-0.028710667,341.91684,-105.70426,-1.4826187
884842765000.0,-1.0802695248926033,9.86729379184566,-1.3496932416308678,-0.14905111,-0.0106901415,-0.029932396,341.93674,-105.665375,-1.5124196
884847627000.0,-1.1020905363430449,9.830925439428258,-1.3569669121143482,-0.15760323,-0.0070249503,-0.021380283,341.96274,-105.63496,-1.5503919
884852608000.0,-1.124680758958711,9.78868468208258,-1.362660831791742,-0.15271631,-0.0027488936,-0.020463986,341.9862,-105.61139,-1.5895956
884857622000.0,-1.1475748541241535,9.742896491751692,-1.3672396508248308,-0.1432479,-0.0009162979,-0.01985312,342.0097,-105.587425,-1.625722
884862704000.0,-1.1702980514148429,9.693615366791244,-1.3714007852108916,-0.13347405,0.01282817,-0.02443461,342.0293,-105.57119,-1.667598
884867735000.0,-1.1923471542979178,9.64216762634429,-1.3750755909236518,-0.12339478,0.026572637,-0.03023783,342.04816,-105.558464,-1.7087567
884873373000.0,-1.2171603452706194,9.58405467200768,-1.3762131534741195,-0.116980694,0.04184427,-0.040927973,342.06598,-105.54822,-1.7570562
884877603000.0,-1.2380987359521525,9.530212828250756,-1.3104066845972089,-0.11728613,0.04520403,-0.04550946,342.08328,-105.53938,-1.8043021
884882633000.0,-1.262997105958798,9.466188129882596,-1.2321545478475966,-0.10781772,0.046120327,-0.053450707,342.09912,-105.5385,-1.8609425
884887663000.0,-1.2825759418716836,9.411136752532562,-1.1561973697539798,-0.0983493,0.050701816,-0.05955936,342.11285,-105.53811,-1.9167949
884892739000.0,-1.2786676504100338,9.395503505065124,-1.0897556395079595,-0.094989546,0.056199603,-0.05681047,342.12622,-105.53903,-1.971221
884897588000.0,-1.2749341387280917,9.380569380366618,-1.0262852001929572,-0.1001819,0.04886922,-0.06658431,342.14288,-105.52567,-2.0383217
884903082000.0,-1.249177718942443,9.400231727468412,-0.9670056294113244,-0.08093964,0.050701816,-0.073303826,342.15607,-105.520805,-2.1015704
884907628000.0,-1.220656153233505,9.42875346335985,-0.9221860091361722,-0.087964594,0.0571159,-0.08399397,342.16907,-105.50836,-2.167652
884912683000.0,-1.181358855348536,9.471946028055536,-0.8476345566247032,-0.080634214,0.062002823,-0.08552113,342.1794,-105.49511,-2.230003
884917686000.0,-1.136551575620459,9.523646693906914,-0.7545732645176606,-0.07788532,0.06505715,-0.086132,342.18796,-105.47988,-2.2935042
884922605000.0,-1.0924966068052655,9.574479309402202,-0.663074464622689,-0.08002335,0.06872234,-0.09437868,342.1864,-105.450714,-2.3525317
884927618000.0,-1.0273795542098925,9.617208699055206,-0.631371090778066,-0.070249505,0.08277224,-0.093767814,342.182,-105.426414,-2.4071262
884932593000.0,-0.95676877000741,9.65692713412375,-0.6181316001333828,-0.06780604,0.086437434,-0.09682214,342.17896,-105.40103,-2.4643502
884937627000.0,-0.8992276375225225,9.69086572972973,-0.6106292868468468,-0.070554934,0.09865474,-0.10170906,342.1634,-105.3518,-2.5034766
884942675000.0,-0.8504183506694625,9.720902035414724,-0.6068747290338614,-0.06078109,0.115453534,-0.099571034,342.14627,-105.30789,-2.5400074
884947863000.0,-0.801123734480427,9.752886803558718,-0.6029690596441282,-0.064751714,0.13530666,-0.101098195,342.1165,-105.25242,-2.560797
884952632000.0,-0.7645537950729537,9.79352004128114,-0.5989057358718861,-0.06383542,0.14110987,-0.098043874,342.08694,-105.20196,-2.5789132
884957591000.0,-0.7265268859679715,9.835772133096086,-0.5946805266903915,-0.046120327,0.15974127,-0.09285152,342.0384,-105.15193,-2.5809164
884962652000.0,-0.6820321517085268,9.853007905656396,-0.5736351793710426,-0.049785517,0.18020524,-0.086132,341.98865,-105.09696,-2.5807478
884967654000.0,-0.6365352402965386,9.863118533347404,-0.5483591168889826,-0.052839845,0.17715092,-0.079107046,341.9414,-105.04778,-2.5791156
884972658000.0,-0.5850304234510735,9.872663686454931,-0.5202204541357475,-0.049785517,0.19517145,-0.06994407,341.878,-104.99438,-2.5626194
884977580000.0,-0.5337286273434253,9.881991477886611,-0.4922376398783021,-0.052534413,0.204029,-0.06536258,341.81885,-104.93941,-2.54628
884982608000.0,-0.498656725017301,9.879255252595156,-0.4443108119723183,-0.059253927,0.21166481,-0.054061573,341.7472,-104.87664,-2.5165927
884987642000.0,-0.4662203898788927,9.874621398500576,-0.3933394378604383,-0.06383542,0.22449298,-0.044593163,341.6727,-104.81471,-2.4852507
884992637000.0,-0.4258410557180903,9.847363450976523,-0.3492265974985204,-0.06688975,0.22632557,-0.029321533,341.5932,-104.74419,-2.4387348
884997602000.0,-0.3836296081396725,9.81453215584928,-0.3070151646123495,-0.06658431,0.22937989,-0.019547688,341.511,-104.67451,-2.390525
885002614000.0,-0.3211640438765709,9.754318693164402,-0.2183838817635639,-0.08032878,0.22174409,-0.007941248,341.42722,-104.58936,-2.332182
885007574000.0,-0.2532153988576683,9.686370190048024,-0.1164608959905997,-0.08155051,0.22235495,0.0125227375,341.3424,-104.50858,-2.2685165
885012659000.0,-0.1947907071624472,9.665708789381153,-0.0580046687874472,-0.103847094,0.23640485,0.022602014,341.25204,-104.41095,-2.196277
885018662000.0,-0.129094109456751,9.65560141754571,-0.002415247144251,-0.105068825,0.23762658,0.05131268,341.16846,-104.31903,-2.1150172
885022699000.0,-0.101338190422098,9.65613775294848,0.0014267124022346,-0.11575896,0.25961772,0.07666359,341.06287,-104.20436,-2.0168102
885027680000.0,-0.0766630038475067,9.66107289023381,-0.0133784010884543,-0.12461651,0.28069258,0.105068825,340.95996,-104.09098,-1.9110348
885032604000.0,-0.0974133226862006,9.681690856032084,-0.0308365663093796,-0.13072516,0.3005457,0.14049901,340.84726,-103.965614,-1.7828133
885037702000.0,-0.1493607159616958,9.7136587124734,-0.0508163351363562,-0.13439035,0.31673363,0.16584991,340.73138,-103.840775,-1.6500483
885042764000.0,-0.2286674357847968,9.754608264237822,-0.0806048567501413,-0.12889257,0.3371976,0.19822577,340.60806,-103.71964,-1.5013024
885047694000.0,-0.426996078817352,9.834702145811455,-0.15307108565393,-0.121256754,0.34330627,0.21319197,340.4852,-103.60115,-1.3523571
885052580000.0,-0.623554648768075,9.9140811935536,-0.2248905571395104,-0.103847094,0.34697145,0.22876903,340.36472,-103.49613,-1.2077438
885057606000.0,-0.737943913437058,9.9509174559956,-0.2846703105579129,-0.1001819,0.34208453,0.24251351,340.24628,-103.39197,-1.0618443
885062697000.0,-0.8107362123762376,9.966242262101211,-0.3383067478822882,-0.07971791,0.34055737,0.24556783,340.12668,-103.300285,-0.9163746
885067669000.0,-0.8805080010013024,9.977341507530122,-0.3909635354347118,-0.082161374,0.32742378,0.25961772,340.03973,-103.22369,-0.82010055
885072852000.0,-0.9451600189677628,9.965219219879518,-0.4475340479908824,-0.062308256,0.31795537,0.2648101,339.95236,-103.16119,-0.7267046
885077583000.0,-1.004173852075871,9.954154094879518,-0.4991711490719634,-0.057726767,0.30848694,0.26358834,339.8781,-103.10804,-0.65373415
885082603000.0,-1.0691474232524272,9.94246168527508,-0.566803601592233,-0.052839845,0.28985557,0.25625798,339.80948,-103.06186,-0.58333635
885088824000.0,-1.151090374854369,9.928001383495143,-0.6583868684660195,-0.027183503,0.28008172,0.25686884,339.742,-103.02399,-0.5121855
885092609000.0,-1.1923396732543796,9.92478236540834,-0.7039224732543794,-0.015882496,0.28130344,0.2510656,339.68823,-102.99504,-0.46428287
885097831000.0,-1.2170177140143104,9.941234306686406,-0.7286005140143104,0.006414085,0.2919936,0.2452624,339.63504,-102.977104,-0.4169653
885102598000.0,-1.239545523340735,9.9562527678263,-0.7511283233407352,0.022907447,0.3203988,0.23365596,339.58984,-102.98298,-0.38879445
885107611000.0,-1.2734475593073964,9.978854150235144,-0.7660552652107738,0.039095376,0.33200526,0.22113322,339.54648,-102.9949,-0.36330104
885112724000.0,-1.311129997691321,10.003975834117146,-0.7786160940359128,0.06383542,0.3555236,0.2003638,339.4913,-103.0137,-0.34109306
885117974000.0,-1.3686326114191487,10.00735154539833,-0.7678184930856436,0.07849618,0.38820487,0.1872302,339.4309,-103.038086,-0.3262193
885122760000.0,-1.439488890095847,9.988456389776358,-0.7347521951757189,0.07849618,0.3839288,0.16035213,339.37305,-103.06475,-0.32182655
885127662000.0,-1.4970348473404254,9.965366864007091,-0.6806800215319149,0.08368854,0.3631594,0.12614368,339.31622,-103.09632,-0.33171168
885132625000.0,-1.540856553404255,9.93839964673759,-0.606520214519149,0.07269296,0.33017266,0.09010262,339.2633,-103.12261,-0.35022524
885137635000.0,-1.5850932544680851,9.91117704780142,-0.531658108306383,0.05497787,0.28680122,0.044593163,339.22375,-103.143845,-0.39726406
885142702000.0,-1.6088832160296525,9.87693409030519,-0.4948287119745836,0.034208454,0.24587326,0.007330383,339.1919,-103.160965,-0.45290512
885147811000.0,-1.6230146893713295,9.839250358139983,-0.4759867376817175,0.011911872,0.21380283,-0.03573562,339.1672,-103.17306,-0.5237009
885152668000.0,-1.5743879011243174,9.786135400256986,-0.4902645112881464,-0.0018325958,0.19914207,-0.07666359,339.1499,-103.16452,-0.617327
885162689000.0,-1.3995684081407034,9.661547062814073,-0.5573894118693468,-0.006414085,0.18509217,-0.13164146,339.1383,-103.1543,-0.7268781
885167634000.0,-1.3321418007705192,9.649648415410386,-0.5732545125226131,-0.014966198,0.18142697,-0.1423316,339.13016,-103.13902,-0.8365323
885172689000.0,-1.2632153093132328,9.637485086264656,-0.5894725274472362,-0.019547688,0.1740966,-0.16371189,339.11398,-103.13256,-0.94168884
885177606000.0,-1.1551772390611903,9.62708324308466,-0.6045389465590947,-0.03390302,0.16157386,-0.18112154,339.1007,-103.122284,-1.0471313
885182586000.0,-1.030249263788768,9.617088804694047,-0.6195302858507963,-0.036957346,0.1328632,-0.19914207,339.09344,-103.11577,-1.15797
885187698000.0,-0.8914392441108545,9.611309741339491,-0.5996673427944572,-0.028405234,0.0983493,-0.22235495,339.08075,-103.11415,-1.2564883
885192603000.0,-0.7558323252309469,9.606789419457275,-0.5725459637384527,-0.020463986,0.071776666,-0.25320363,339.073,-103.113365,-1.3614069
885197834000.0,-0.6169809200881057,9.6088041492511,-0.5552303569339206,-0.011911872,0.035430185,-0.2574797,339.06335,-103.116844,-1.4406669
885202605000.0,-0.4921862724229074,9.612829864405288,-0.5431534636828194,0.016798794,0.0021380284,-0.2883284,339.05728,-103.1308,-1.535572
885207610000.0,-0.3623612013868403,9.657269897710949,-0.5194388255090508,0.043982297,-0.007330383,-0.30757064,339.03915,-103.13685,-1.5967795
885212659000.0,-0.2326904486897806,9.749891798295184,-0.4823900314251508,0.05375614,-0.03390302,-0.31306845,339.0346,-103.14702,-1.6645378
885217609000.0,-0.1045315034403131,9.846651430919763,-0.4335988321369863,0.083383106,-0.03145956,-0.30848694,339.00824,-103.16337,-1.6999093
885222613000.0,0.0267625819178081,9.954500116438355,-0.3632627109589041,0.106901415,-0.020158553,-0.29901853,338.9873,-103.18064,-1.7356184
885228136000.0,0.1480701437064695,10.09005646932866,-0.2481591947548578,0.122783914,0.011911872,-0.27763826,338.94763,-103.18644,-1.7344335
885232598000.0,0.2164513018471386,10.220306373695038,-0.1081406337544768,0.106901415,0.05955936,-0.2660318,338.901,-103.18956,-1.7313347
885237630000.0,0.2935678387731464,10.367195104930277,0.0497646551191038,0.0729984,0.11148291,-0.25259277,338.82483,-103.16838,-1.689852
885242690000.0,0.3227768443173359,10.470669166699311,0.1193658441825661,0.025045475,0.16554448,-0.23793201,338.7365,-103.138435,-1.6420758
885247665000.0,0.3321097786464251,10.554665780313416,0.1520311075126346,-0.036651913,0.20891592,-0.22968534,338.63834,-103.09513,-1.5902534
885252674000.0,0.348227460396173,10.560639981134615,0.1302076676480258,-0.08735373,0.23396139,-0.23487769,338.50696,-102.99818,-1.5113299
885257631000.0,0.3674184982536046,10.52865494030454,0.082230071000539,-0.13530666,0.26236662,-0.24190263,338.36456,-102.886696,-1.4289104
885262627000.0,0.3867605247082603,10.496418251987604,0.0338750028442258,-0.18234327,0.28863382,-0.25809056,338.21017,-102.757324,-1.3468153
885267784000.0,0.4210236483279009,10.350405845664929,-0.0432704333585397,-0.21685717,0.33078352,-0.2742785,338.0449,-102.621254,-1.265251
885272714000.0,0.4594963166052803,10.16573673101369,-0.1279102995514993,-0.25625798,0.38820487,-0.27183503,337.8701,-102.4737,-1.181696
885277584000.0,0.4937780266182553,9.96687477815716,-0.2108352802279503,-0.28619036,0.44898596,-0.26389378,337.6783,-102.33678,-1.0948443
885282633000.0,0.5170315197845533,9.706436072328556,-0.2945478313455805,-0.29138273,0.49205196,-0.26511553,337.47748,-102.199135,-1.0086454
885287654000.0,0.5422742134955291,9.485240302011922,-0.3669051670596125,-0.28405234,0.52503866,-0.25595254,337.2636,-102.08432,-0.9079647
885292698000.0,0.5782692912391952,9.452844817362145,-0.3849027078107302,-0.2883284,0.5421429,-0.23579398,337.04556,-101.967125,-0.80402416
885297871000.0,0.6151849409552906,9.419620820119224,-0.4033605345961252,-0.27672195,0.5335908,-0.22082779,336.82806,-101.881035,-0.69777656
885302669000.0,0.6201601345902119,9.45886644806428,-0.4373221800613586,-0.2565634,0.5122105,-0.19364429,336.61435,-101.79748,-0.58320487
885307630000.0,0.5958669510672023,9.569920734185535,-0.4893790220861943,-0.23671028,0.49266282,-0.17684549,336.40567,-101.71894,-0.46884474
885312711000.0,0.5709861477048941,9.68366127596786,-0.5426950499693207,-0.22357668,0.45204028,-0.1301143,336.2037,-101.65564,-0.33088347
885317731000.0,0.5322673834515839,9.801893659838113,-0.6209832330968322,-0.20861048,0.41538838,-0.09407325,336.00916,-101.60011,-0.19364817
885322648000.0,0.4899167912411312,9.919534125512142,-0.7056844175177376,-0.19608775,0.38789943,-0.05222898,335.8288,-101.54903,-0.04533794
885327669000.0,0.3985335619348913,9.990455441677724,-0.7935428680783754,-0.18417588,0.35308012,-0.02321288,335.66568,-101.509865,0.09618874
885332615000.0,0.2921888835493418,10.04362784396367,-0.8805521692070619,-0.17562376,0.32253686,0.004276057,335.51343,-101.474785,0.24526261
885337645000.0,0.2123124341637904,10.038013847191715,-0.9443026315469092,-0.17195857,0.28924468,0.021991149,335.37506,-101.46147,0.38787058
885342637000.0,0.141058823771572,10.015512646062128,-1.00055549339818,-0.160963,0.25503623,0.021380283,335.24792,-101.453415,0.528402
885347656000.0,0.059620426443061,9.993354968015456,-1.0583651716217666,-0.14660765,0.21960606,0.02443461,335.14294,-101.459816,0.6457688
885352684000.0,-0.0540801277052699,9.97268226263819,-1.1203836115487815,-0.1469131,0.16798794,0.01740966,335.0531,-101.464874,0.754815
885357585000.0,-0.1500616042931201,9.920782467270012,-1.1918752863720237,-0.13683382,0.14782938,-0.006414085,334.97195,-101.48897,0.836634
885362665000.0,-0.2227312297038924,9.809640673051575,-1.2859183567524823,-0.10995574,0.13591751,-0.019242255,334.90448,-101.516945,0.91517156
885367647000.0,-0.2979421116409537,9.698309921458623,-1.3723846516129032,-0.111177474,0.15118915,-0.04550946,334.84085,-101.54275,0.95590633
885372649000.0,-0.4116404749487539,9.563939116193763,-1.4033933280397022,-0.09621128,0.17684549,-0.07788532,334.77783,-101.57898,0.990227
885377635000.0,-0.4843776453088638,9.43854269780972,-1.4318072525410677,-0.08827003,0.20189096,-0.11362094,334.71524,-101.63304,0.9972417
885382605000.0,-0.42736582196013,9.340807868925394,-1.4521685618326488,-0.083383106,0.24007004,-0.14202617,334.6422,-101.68772,0.99919033
885387661000.0,-0.3693674761148186,9.241381853867216,-1.4728821996149897,-0.08002335,0.26908615,-0.1695151,334.57788,-101.74951,0.9701006
885392705000.0,-0.2564204851826532,9.143238322046573,-1.460806757925657,-0.070554934,0.31673363,-0.1881465,334.4987,-101.81199,0.9394995
885397816000.0,-0.1359995105787516,9.047020966328274,-1.4464040001708716,-0.0720821,0.3368922,-0.2098322,334.41962,-101.86972,0.90130436
885402674000.0,-0.0190929715585486,9.000258382752035,-1.4510802096994673,-0.0729984,0.3417791,-0.23182335,334.31937,-101.93658,0.8729951
885407828000.0,0.1019390445708916,8.952599840082684,-1.4553317715963543,-0.069027774,0.35430184,-0.26542094,334.19122,-102.00244,0.85917515
885413838000.0,0.199281808956873,8.925560204641549,-1.449923900977168,-0.0571159,0.36560285,-0.29626966,334.0647,-102.06726,0.84076583
885417654000.0,0.2610887954621817,8.908391610824015,-1.446490218068214,-0.033292156,0.3659083,-0.30818152,333.92157,-102.140144,0.8445996
885422685000.0,0.3521388593018584,8.888748366147665,-1.4372570369161226,-0.02107485,0.36071593,-0.3399465,333.77814,-102.20894,0.83505166
885427618000.0,0.4423051450768458,8.869766102862883,-1.427765855720743,0.0033597588,0.3549127,-0.364992,333.63864,-102.28473,0.8245842
885432599000.0,0.5170067271975097,8.864187814761348,-1.3915283313813949,0.025045475,0.34972036,-0.40011674,333.48032,-102.36093,0.81933475
885437687000.0,0.5917478128674547,8.859791191464405,-1.351959502147433,0.0580322,0.33750305,-0.41263947,333.33023,-102.44367,0.81318605
885442639000.0,0.6762209530823023,8.84648791527703,-1.3196512100860678,0.0888809,0.3359759,-0.42088616,333.1686,-102.52529,0.8172343
885447625000.0,0.7661213492738032,8.829364129908553,-1.289684384534696,0.11056661,0.32589662,-0.43004912,333.01675,-102.60955,0.81669974
885452672000.0,0.8516043651820129,8.812070351891506,-1.2639129222698071,0.12736541,0.33292156,-0.4260785,332.84235,-102.689835,0.83387697
885457630000.0,0.9295545083169166,8.795124679371877,-1.2435781152462528,0.13744467,0.33261612,-0.42119157,332.67743,-102.770195,0.84796476
885462649000.0,1.0084636991991436,8.77797051834404,-1.222993122012848,0.13500121,0.33322698,-0.4016439,332.49994,-102.84366,0.8889968
885467693000.0,1.1750866501253563,8.718854303276562,-1.2387811633094148,0.13133603,0.30970868,-0.38606682,332.33426,-102.915634,0.9285314
885472919000.0,1.391427914740209,8.636644764588917,-1.2733957891415233,0.13316862,0.29535335,-0.3594942,332.17245,-102.98529,0.97688735
885477594000.0,1.538909592024302,8.58287848901241,-1.3132735509307136,0.13897185,0.29046643,-0.32711834,331.99585,-103.04652,1.0499996
885483743000.0,1.6302557054291622,8.556235736814891,-1.3855891611168565,0.14172074,0.2855795,-0.30726522,331.82852,-103.10441,1.1251359
885487732000.0,1.6895140639219235,8.538951960832472,-1.432501987435367,0.15302174,0.27366763,-0.26816985,331.64044,-103.16621,1.255706
885492633000.0,1.7534497565463012,8.481474134056034,-1.5148082077715856,0.19364429,0.27091873,-0.23487769,331.45645,-103.23463,1.3882146
885497636000.0,1.79368492981907,8.320533288189939,-1.668433383563631,0.2144137,0.26939157,-0.20799962,331.28156,-103.298744,1.5266244
885502613000.0,1.833711005649286,8.160428832888007,-1.821260187464692,0.2406809,0.27550024,-0.19486602,331.09485,-103.383286,1.6846263
885507662000.0,1.80642841149612,8.032152684425194,-1.8938122329001983,0.25625798,0.28344148,-0.16340645,330.91513,-103.46906,1.8518528
885512663000.0,1.7416021931149612,7.924109242844252,-1.919742747329002,0.27305678,0.3051272,-0.14905111,330.73358,-103.55915,2.0158749
885517667000.0,1.6665570483864696,7.868576480482115,-1.966611471131415,0.28252518,0.32253686,-0.13041973,330.55978,-103.67706,2.1855764
885522659000.0,1.578265706551322,7.882517203343701,-2.0409620901049768,0.27580565,0.34116822,-0.129198,330.3835,-103.79066,2.3522756
885527605000.0,1.515787363144717,7.938031376464697,-2.106787301352028,0.27305678,0.36926803,-0.13622294,330.20587,-103.91117,2.5017438
885532637000.0,1.4964822223935903,8.06834087495243,-2.1598764384176263,0.2687807,0.3839288,-0.13927728,330.0313,-104.02513,2.6499095
885537675000.0,1.4775195583452212,8.210109951497861,-2.187924705278174,0.26847526,0.4083634,-0.13988814,329.85532,-104.13893,2.7695665
885542671000.0,1.45931867659534,8.369368557679506,-2.1742740083309555,0.2959642,0.41325033,-0.1337795,329.68527,-104.25512,2.8875968
885547615000.0,1.4272534130932022,8.532162182129115,-2.161666332449765,0.31673363,0.39706242,-0.11209377,329.51782,-104.37376,3.0030785
885552538000.0,1.3567048130611372,8.708533550662677,-2.151587968533561,0.32803464,0.3830125,-0.096516706,329.3528,-104.49278,3.1167223
885557532000.0,1.2838100566689568,8.846688224850329,-2.1152289750122684,0.32436943,0.36041048,-0.08124508,329.19745,-104.604095,3.2285817
885562618000.0,1.207323385356757,8.918394385611935,-2.0339618929826284,0.32406402,0.34666604,-0.06566802,329.04855,-104.716,3.3419688
885567529000.0,1.11667751738466,8.96545088664281,-1.963680734906664,0.32162055,0.34391713,-0.046731193,328.89682,-104.8195,3.440406
885572549000.0,0.9911295751465324,8.970100905019828,-1.907881631124867,0.3173445,0.32895094,-0.029932396,328.75702,-104.919174,3.5384784
885577537000.0,0.8677581427457661,8.972169505060627,-1.8467018012826937,0.31337386,0.33169982,-0.023823744,328.61148,-105.00496,3.6246789
885582556000.0,0.7473402869445837,8.967352693456258,-1.7696343747770318,0.30818152,0.32070425,-0.03268129,328.4774,-105.08581,3.707396
885587563000.0,0.6249080335316279,8.953256496728137,-1.703613827325005,0.31337386,0.31612277,-0.048563786,328.347,-105.16208,3.7665162
885592559000.0,0.4968260580487804,8.915306512195121,-1.6656635951219512,0.312763,0.3173445,-0.064446285,328.22043,-105.2316,3.8216887
885597533000.0,0.3627522951673151,8.860961245136187,-1.636437731595331,0.3173445,0.31703907,-0.0888809,328.09415,-105.29168,3.8464136
885602544000.0,0.2087007892509727,8.75826011770428,-1.631769507392996,0.32589662,0.31398472,-0.09987647,327.9712,-105.35003,3.8702564
885607546000.0,0.0512335296400797,8.668818661216351,-1.6212597680757723,0.31642818,0.30879238,-0.11575896,327.8541,-105.39937,3.862111
885612549000.0,-0.1207365047657028,8.630603323030908,-1.5878211725822533,0.3210097,0.30757064,-0.14660765,327.73788,-105.451035,3.8476665
885617519000.0,-0.2820894700688637,8.592737348253813,-1.5628283987702902,0.31398472,0.30634892,-0.18203785,327.63516,-105.49598,3.7957253
885622512000.0,-0.4043956059478603,8.555104422036399,-1.5722365566453518,0.30451632,0.29352075,-0.22388211,327.53622,-105.5376,3.734398
885627525000.0,-0.5174414012382461,8.52943229624864,-1.5710617190537466,0.3023783,0.2947425,-0.2657264,327.43967,-105.57848,3.6342068
885632520000.0,-0.5789944010947243,8.567311334653073,-1.5142435569731765,0.2932153,0.28680122,-0.29260445,327.3501,-105.612816,3.5280046
885637529000.0,-0.6367407055151877,8.606646529481834,-1.4652514,0.29535335,0.2779437,-0.32162055,327.26605,-105.65225,3.3871024
885642527000.0,-0.6700000140976772,8.654159777843955,-1.4652514,0.28496864,0.2669481,-0.3472769,327.18573,-105.684944,3.2427926
885647519000.0,-0.6991069,8.695220455936676,-1.468895132348285,0.2864958,0.26328292,-0.35155296,327.10257,-105.71613,3.0891864
885652516000.0,-0.6991069,8.69101146130167,-1.498357479507476,0.26633725,0.27000242,-0.35827246,327.01996,-105.73798,2.93207
885657509000.0,-0.6991069,8.686805835883904,-1.5277962426385223,0.26053402,0.2764165,-0.36560285,326.93637,-105.7656,2.7693744
885662540000.0,-0.6991069,8.65560838522982,-1.5857613358183855,0.24953845,0.29535335,-0.3662137,326.84995,-105.78747,2.612582
885667493000.0,-0.6991069,8.620157000840807,-1.6478012700672646,0.24678956,0.29168814,-0.3753767,326.76923,-105.81064,2.4545586
885672495000.0,-0.7278118536987759,8.57008035258116,-1.7309504989888238,0.24098633,0.31306845,-0.37934732,326.67636,-105.83924,2.304329
885677474000.0,-0.7684146845130388,8.514251692070252,-1.822306802075572,0.2452624,0.3109304,-0.38331795,326.5928,-105.87061,2.1538117
885682489000.0,-0.7948350768330265,8.4774456704138,-1.8693288483961623,0.25442538,0.3051272,-0.3827071,326.49304,-105.91362,1.9987409
885687517000.0,-0.8181668484077914,8.444780968020158,-1.9066597628258557,0.26511553,0.30268374,-0.3848451,326.39542,-105.95886,1.8465043
885692490000.0,-0.8644557912273005,8.396316138339115,-1.9042203440420324,0.28038713,0.2959642,-0.38728857,326.30093,-106.026634,1.6839867
885697482000.0,-0.9181062391848602,8.342665125076515,-1.8895883652621916,0.27672195,0.2828306,-0.38453966,326.21252,-106.09248,1.5263963
885702491000.0,-0.947908599005246,8.365946705236068,-1.863880904949025,0.28344148,0.24862215,-0.3930918,326.1282,-106.18213,1.3635061
885707498000.0,-0.9716397123725626,8.408663556765317,-1.8354035986439672,0.29046643,0.22174409,-0.39767328,326.04926,-106.27066,1.206509
885712551000.0,-0.9768343,8.450723100124677,-1.8182670413254047,0.2968805,0.19242255,-0.4007276,325.981,-106.36035,1.0343261
885717527000.0,-0.9768343,8.491855392826317,-1.8045562452766857,0.3036,0.16371189,-0.38728857,325.92368,-106.452286,0.86789584
885722507000.0,-0.986921335391278,8.52101672565213,-1.827338461043408,0.31490102,0.12858713,-0.38820487,325.86612,-106.544685,0.6921147
885727528000.0,-1.00145002291268,8.545231204854467,-1.8660816277671468,0.3408628,0.09101892,-0.39706242,325.81982,-106.6432,0.5197265
885732507000.0,-0.9991962801832118,8.609404645354273,-1.8770541,0.35888332,0.05375614,-0.40225476,325.77853,-106.74057,0.34967715
885738050000.0,-0.9892721443821276,8.698721660310339,-1.8770541,0.3585779,0.00580322,-0.40653083,325.75174,-106.839645,0.17771499
885742552000.0,-1.0132990079600386,8.745383917821462,-1.8680914744118595,0.3659083,-0.034208454,-0.39675698,325.73007,-106.956955,0.0072809807
885747534000.0,-1.0594269547427222,8.781261382210763,-1.852715509990332,0.3491095,-0.077579886,-0.40042216,325.7227,-107.06643,-0.16807923
885752504000.0,-1.1053246281764764,8.853681100279356,-1.841779261198343,0.3472769,-0.11789699,-0.42241332,325.71606,-107.180595,-0.34257352
885757572000.0,-1.1520785758501109,8.94251341046142,-1.832428481427608,0.3378085,-0.15027285,-0.42241332,325.72183,-107.28687,-0.5110483
885762628000.0,-1.217267016100873,9.114045455868087,-1.884178676624636,0.33169982,-0.19150625,-0.4297437,325.7338,-107.393486,-0.6977022
885767603000.0,-1.291206276770126,9.326620788069835,-1.967360338845781,0.312763,-0.21746802,-0.43676865,325.75128,-107.49332,-0.8814536
885772578000.0,-1.3625373258024176,9.504649325343896,-2.068807824885369,0.31490102,-0.23304509,-0.43035457,325.7744,-107.596535,-1.0703973
885777581000.0,-1.432439183409754,9.659432114318466,-2.183646695227178,0.31673363,-0.24831672,-0.43249258,325.80368,-107.69442,-1.261298
885782539000.0,-1.525027533301481,9.949094284758718,-2.333386955422838,0.30543262,-0.2660318,-0.44104472,325.8397,-107.79968,-1.4630778
885787648000.0,-1.6325614137983755,10.318449842522694,-2.506376230826565,0.2910773,-0.27885997,-0.44348818,325.879,-107.90409,-1.6599511
885792593000.0,-1.6651533615857828,10.56184333971292,-2.643584885919344,0.2864958,-0.28008172,-0.4297437,325.92215,-108.02442,-1.8646247
885797575000.0,-1.6465177821892394,10.724904233766232,-2.76005690445269,0.2602286,-0.30176744,-0.43585235,325.97244,-108.13459,-2.0731125
885802656000.0,-1.5963118417312072,10.853798659225513,-2.8844511656036445,0.25045475,-0.31612277,-0.4297437,326.0255,-108.26457,-2.2893095
885807624000.0,-1.5204478411845102,10.947725545785875,-3.0108912922551254,0.24617869,-0.32284227,-0.4288274,326.08115,-108.38812,-2.5038571
885812664000.0,-1.4434843623690203,11.043013691571751,-3.1391638845102507,0.22174409,-0.3136793,-0.42180246,326.13028,-108.51151,-2.7068384
885817706000.0,-1.3024102684741372,11.323920422041269,-3.2157928013972428,0.21166481,-0.30207285,-0.42088616,326.17984,-108.63647,-2.9059668
885822656000.0,-1.1576548997316554,11.617817683075785,-3.2859771323864164,0.19333886,-0.30818152,-0.3915646,326.23474,-108.749146,-3.090883
885827668000.0,-0.9645256432722792,11.705051553347024,-3.4334750857166325,0.18509217,-0.29718593,-0.3659083,326.27237,-108.87408,-3.2509904
885832610000.0,-0.7584956887819302,11.720600891663246,-3.604518862570842,0.15974127,-0.25228736,-0.34391713,326.30496,-108.98537,-3.3973913
885837619000.0,-0.5808867427237198,11.76798444653773,-3.751583271911013,0.12644911,-0.20799962,-0.3100141,326.31512,-109.07115,-3.4968235
885843615000.0,-0.4542913122236697,11.911842781040184,-3.855161392925143,0.08857546,-0.20647246,-0.30726522,326.32465,-109.146805,-3.5960362
885847601000.0,-0.3699701411762533,12.036863533191765,-3.940768077961408,0.06872234,-0.20250183,-0.2968805,326.3101,-109.22239,-3.6399229
885852610000.0,-0.2636747492235251,12.253883510663837,-4.082495353559228,0.025350908,-0.20158553,-0.2910773,326.29706,-109.278625,-3.6839933
885857642000.0,-0.1560876788845417,12.440272,-4.224586931341047,-0.01282817,-0.15943582,-0.29657507,326.26392,-109.32714,-3.7052517
885862666000.0,-0.0439434572899359,12.440272,-4.364767070323816,-0.047036625,-0.13958271,-0.29840767,326.23877,-109.36262,-3.7262766
885867639000.0,0.0670623575966036,12.440272,-4.503524202322484,-0.08093964,-0.14874569,-0.321926,326.20587,-109.38369,-3.7349849
885872612000.0,0.1199409576598533,12.509337352762836,-4.5394063,-0.1301143,-0.15454891,-0.35430184,326.16733,-109.39079,-3.7454724
885877607000.0,0.1526894262877261,12.60290432782396,-4.5394063,-0.17379116,-0.18203785,-0.38087448,326.13715,-109.39064,-3.7643118
885882616000.0,0.2092641940260168,12.631808,-4.533940601202041,-0.2275473,-0.19914207,-0.3933972,326.0975,-109.38596,-3.7730818
885887644000.0,0.2766598107031121,12.631808,-4.526011710966573,-0.2929099,-0.23151793,-0.4279111,326.06665,-109.368675,-3.7995493
885892645000.0,0.3230104501288504,12.627906573585664,-4.5280556614656735,-0.3481932,-0.24648413,-0.45204028,326.02536,-109.334335,-3.8216257
885897617000.0,0.313423999691967,12.613527113146768,-4.556814982746125,-0.41080686,-0.28313604,-0.46822822,325.99792,-109.28259,-3.8559225
885902580000.0,0.2936352081525561,12.576267153367596,-4.588204756424127,-0.45540005,-0.31673363,-0.5021312,325.96088,-109.21738,-3.8924642
885907607000.0,0.2458876009250744,12.476431504463076,-4.6272710868271565,-0.5225952,-0.3381139,-0.5494733,325.92932,-109.132774,-3.938962
885912708000.0,0.1938333442622145,12.375532352320157,-4.668454744168917,-0.59956425,-0.3491095,-0.5925393,325.90387,-109.03779,-4.001885
885917644000.0,0.1009855805368688,12.2826839260987,-4.726484556101154,-0.66553766,-0.35460728,-0.6377433,325.87946,-108.933914,-4.0781198
885922857000.0,0.0029273568131598,12.184625002700711,-4.787770903265407,-0.732122,-0.35796702,-0.68691796,325.85822,-108.82768,-4.1790023
885927675000.0,-0.0761530836826725,12.09368883442584,-4.836010603656611,-0.78893244,-0.34300083,-0.73273283,325.83087,-108.71317,-4.287164
885932641000.0,-0.151273003251461,11.99978919479545,-4.8810825640262205,-0.850019,-0.3378085,-0.7825184,325.80368,-108.58774,-4.4076204
885937754000.0,-0.2250771372998014,11.8943051535407,-4.924665328722701,-0.8979719,-0.32711834,-0.8249735,325.77884,-108.47748,-4.5546155
885942702000.0,-0.2681981263567174,11.721821221872933,-4.944265761548643,-0.93187493,-0.3277292,-0.86926126,325.75247,-108.36369,-4.7114716
885947667000.0,-0.3114672675587359,11.548744681709133,-4.963933536201191,-0.97341377,-0.30818152,-0.9108001,325.71887,-108.258965,-4.8929753
885952669000.0,-0.3003153426441274,11.447900040388248,-4.957714683238877,-1.0073168,-0.2968805,-0.9486737,325.68576,-108.1565,-5.0804725
885957625000.0,-0.263213401686535,11.382971952836948,-4.939163759572666,-1.0482447,-0.29871312,-0.98746365,325.64896,-108.0507,-5.2729425
885962616000.0,-0.2258494413718976,11.317585333593902,-4.920481826558531,-1.0729848,-0.28893927,-1.0213667,325.60757,-107.96195,-5.482381
885967727000.0,-0.1557028236016451,11.22449244261653,-4.878173409498629,-1.1139128,-0.29077184,-1.0571023,325.56836,-107.8682,-5.697277
885972689000.0,-0.0672889775910693,11.117464454367411,-4.822333077007442,-1.1395692,-0.30024028,-1.0888673,325.5281,-107.78164,-5.913305
885977669000.0,0.0560982197215901,10.9751303156204,-4.758273229995984,-1.16492,-0.29535335,-1.1362094,325.47623,-107.68839,-6.1364903
885982794000.0,0.2104827291580779,10.801037406371304,-4.686008054651318,-1.1765264,-0.28802297,-1.1667526,325.42728,-107.601074,-6.3572526
885987651000.0,0.3567940583937893,10.63604828242538,-4.617521819207603,-1.2043208,-0.27000242,-1.208597,325.3641,-107.50411,-6.581308
885992650000.0,0.4551604558544003,10.487860326553887,-4.550910811167078,-1.2284501,-0.2724459,-1.2470814,325.3049,-107.41592,-6.8066335
885997649000.0,0.5143096671735411,10.355911811822848,-4.48721166417031,-1.2382239,-0.26939157,-1.2745703,325.2394,-107.33534,-7.0311437
886002609000.0,0.565736293039807,10.24136047527141,-4.406879045114596,-1.2748758,-0.26542094,-1.3234396,325.16614,-107.22345,-7.257142
886007669000.0,0.6095770272376357,10.143936655408124,-4.304584135987133,-1.3014483,-0.25350907,-1.3677273,325.09042,-107.12322,-7.4814377
886012688000.0,0.662058273921861,10.038589690525898,-4.187510553056964,-1.350623,-0.24495697,-1.4242324,325.00708,-107.012245,-7.7193055
886017653000.0,0.7235092037906352,9.92514198250323,-4.05515458109156,-1.3842206,-0.23609942,-1.4764613,324.91998,-106.91327,-7.959728
886022631000.0,0.7715421269577846,9.791378178834236,-3.900522679802479,-1.4236214,-0.20677789,-1.5253305,324.8191,-106.80374,-8.207287
886027626000.0,0.8039640006700232,9.63390074419055,-3.7198865912083656,-1.4761559,-0.19822577,-1.5833627,324.72003,-106.70183,-8.46468
886032621000.0,0.8572814410854251,9.471147658101003,-3.5225242233058838,-1.5231925,-0.1966986,-1.6358972,324.61185,-106.588165,-8.728211
886037668000.0,0.9436009846294277,9.298508110328406,-3.2971343368786585,-1.5732834,-0.20647246,-1.6807957,324.50443,-106.4806,-8.9973345
886042612000.0,1.0194065683350355,9.113441552604698,-3.09009027752809,-1.629483,-0.19700404,-1.7275269,324.39438,-106.3599,-9.277828
886047692000.0,1.0826531579905283,8.89659645278113,-2.9003504613891726,-1.675298,-0.1826487,-1.7705929,324.2866,-106.2505,-9.561032
886052534000.0,1.1431457759991193,8.6751763681603,-2.705789996003523,-1.7406605,-0.16798794,-1.7993035,324.173,-106.11677,-9.843264
886057523000.0,1.2062685725751403,8.391123591324453,-2.4532988096994384,-1.7913623,-0.1414153,-1.8249599,324.0534,-105.998405,-10.125393
886062610000.0,1.2430145210312626,8.104588398781974,-2.221588699644742,-1.8493946,-0.112399206,-1.8680259,323.9223,-105.869415,-10.42106
886067530000.0,1.2382319534307753,7.831982045554202,-2.0350685132866424,-1.890628,-0.077579886,-1.8930714,323.786,-105.751945,-10.707215
886072486000.0,1.223809625361677,7.560836830380868,-1.866945766253321,-1.947133,-0.048258353,-1.9300288,323.64227,-105.629,-11.007355
886077504000.0,1.1954326649837614,7.291255558635961,-1.7250608162090346,-1.990199,-0.0036651916,-1.956296,323.4883,-105.52246,-11.298683
886082485000.0,1.1313220593725215,7.017547749088026,-1.5928019454203013,-2.0167716,0.019242255,-1.981036,323.3378,-105.429016,-11.608144
886087560000.0,1.0060583769032514,6.728477600396511,-1.4723561172085646,-2.0604484,0.05589417,-2.0033326,323.17462,-105.34987,-11.910751
886092492000.0,0.8679068898475464,6.458145745774178,-1.3652173123868507,-2.0738876,0.09773844,-2.019215,323.0041,-105.30134,-12.233537
886097831000.0,0.6876466576274416,6.185319437360648,-1.2677794177703667,-2.1206186,0.13744467,-2.032654,322.8283,-105.2654,-12.549507
886102511000.0,0.526614376059406,5.951084445940594,-1.1915216896633662,-2.1606305,0.19639318,-2.0518963,322.64017,-105.2771,-12.8986
886107520000.0,0.3461323445891089,5.713608003910891,-1.1345273534950495,-2.1954496,0.26083946,-2.0690005,322.44437,-105.306564,-13.237742
886112580000.0,0.1766813924133995,5.486545659687345,-1.0713509868684865,-2.2449298,0.3295618,-2.0928242,322.22815,-105.39294,-13.622277
886117542000.0,0.0469738825404466,5.300238615389578,-0.9935264863622828,-2.303573,0.40194935,-2.1154263,321.99835,-105.49861,-13.996753
886122510000.0,-0.0828904683359801,5.113706290506204,-0.915607881260546,-2.3661866,0.47739118,-2.1358902,321.76886,-105.65909,-14.40868
886127522000.0,-0.2139049865712158,4.925521907995037,-0.8369991757915632,-2.4367414,0.55741453,-2.1600194,321.52374,-105.838486,-14.812411
886132550000.0,-0.3341151850217951,4.756491857796711,-0.7874205797899743,-2.4981334,0.63163465,-2.1771238,321.26373,-106.05429,-15.237408
886137576000.0,-0.4151793418456509,4.656353662512384,-0.8398738158510006,-2.5662448,0.71868294,-2.1911736,320.98395,-106.28807,-15.653376
886142534000.0,-0.4966487626669894,4.57677621589545,-0.8970000493514036,-2.6309967,0.7996226,-2.1988094,320.7053,-106.57601,-16.097456
886147522000.0,-0.5845106443514037,4.572151910145208,-0.975613343678606,-2.68628,0.86834496,-2.1972823,320.41486,-106.87327,-16.524832
886152615000.0,-0.68168159262686,4.5681367,-1.0598814499236933,-2.7220156,0.9260717,-2.194228,320.11554,-107.23296,-16.996092
886157572000.0,-0.8175235109357115,4.5681367,-1.1640269135349104,-2.7305677,0.9728029,-2.176513,319.8097,-107.59662,-17.446175
886162663000.0,-0.975879999866548,4.569247748024911,-1.2771932889145907,-2.7009406,1.0204504,-2.182927,319.49393,-108.02814,-17.94382
886168329000.0,-1.458639708896797,4.588558171672598,-1.5040903256939502,-2.665205,1.0680978,-2.1820107,319.17426,-108.45901,-18.419615
886172576000.0,-1.8204964833852315,4.603032469101423,-1.674162989866548,-2.634662,1.1200215,-2.162463,318.8467,-108.94978,-18.937479
886177570000.0,-2.15264712988011,4.645628631816784,-1.6319608491238855,-2.591596,1.1823297,-2.1175644,318.51056,-109.43521,-19.434252
886182559000.0,-2.461086188625884,4.694587341592377,-1.52914777841992,-2.5350907,1.2095132,-2.0631974,318.178,-70.088715,-19.909466
886187622000.0,-2.9262140562148438,4.7692446867174745,-1.2859699533569224,-2.4889705,1.2522738,-2.0011945,317.84668,-69.53292,-20.455708
886192594000.0,-3.410062688949374,4.847006008873163,-1.0224453148339685,-2.4810293,1.2434162,-1.9801197,317.5312,-68.98825,-20.984009
886197587000.0,-4.019602922898756,4.990319421148984,-0.8601409850308486,-2.4544566,1.1957687,-1.9165897,317.254,-68.45619,-21.494907
886202612000.0,-4.701031396905027,5.170411314544351,-0.7530593633306362,-2.4425447,1.1600331,-1.8310685,316.98547,-67.949486,-21.976099
886207610000.0,-5.316654673355573,5.314387350543153,-0.9112137907792318,-2.4422393,1.1221595,-1.7217237,316.7496,-67.36618,-22.525223
886212704000.0,-5.913365641638867,5.443744145154392,-1.2033100948592934,-2.4263568,1.0821478,-1.5635096,316.532,-66.8368,-23.016794
886217658000.0,-6.4842700842880525,5.52413048821604,-1.5843188902414074,-2.3765712,1.0641272,-1.4019357,316.33768,-66.21813,-23.592365
886222627000.0,-7.039193934942717,5.519262738707037,-2.148978189085516,-2.283109,1.0647382,-1.2391402,316.15283,-65.663055,-24.103582
886227632000.0,-7.488565485572959,5.4404472545754325,-2.590498546166529,-2.1859813,1.0528263,-1.0848967,316.00638,-65.05182,-24.678019
886232633000.0,-7.761660420651277,5.24302927516488,-2.827400203915911,-2.0693061,1.0381655,-0.95325524,315.86133,-64.50491,-25.192736
886238268000.0,-8.069376869194834,5.0205837014839245,-3.094334985243199,-1.949271,0.9960158,-0.86315256,315.72726,-63.891666,-25.789816
886242811000.0,-8.278763142827763,4.678686178447301,-3.351852887917738,-1.8216002,0.9776898,-0.77488256,315.5892,-63.3417,-26.33025
886247683000.0,-8.470673852956299,4.174921528740359,-3.663707228277635,-1.6676621,1.069625,-0.7067711,315.42917,-62.836918,-26.834438
886252668000.0,-8.54813395578026,3.472114223339873,-3.654984909892847,-1.491122,1.2663237,-0.6398814,315.23743,-62.259773,-27.426582
886257617000.0,-8.523098409296711,2.613757116389979,-3.365289339148808,-1.3219124,1.5509869,-0.5522222,314.98587,-61.732807,-27.978262
886262775000.0,-8.49700559281618,1.719150941880471,-3.0633597061122853,-1.1856894,1.9483547,-0.4370741,314.61566,-61.141407,-28.609373
886267719000.0,-8.726975426993372,1.1815440288632255,-1.874109320508134,-1.0809261,2.3866506,-0.30543262,314.13806,-60.59962,-29.198042
886272589000.0,-8.979888249849367,0.6850850050733078,-0.6095438515485037,-1.0656544,2.7614164,-0.2125811,313.55408,-60.093548,-29.752241
886277671000.0,-9.632055434727503,0.2937099745975919,0.7294395677217997,-1.1386528,2.9168816,-0.14660765,312.95032,-59.521618,-30.362709
886282582000.0,-10.31383636913815,-0.0676710993686628,2.025940817343948,-1.2895365,2.9006937,-0.1142318,312.2912,-58.97648,-30.941723
886287724000.0,-11.4134126576176,-0.8237391288587254,3.429661621031282,-1.3756685,2.7116308,-0.21502456,311.62704,-58.330757,-31.604637
886292722000.0,-13.123539238942197,-2.186613130796474,4.870947345814805,-1.5546521,2.1755965,-0.43401974,311.09335,-57.66523,-32.2782
886297709000.0,-14.82990203627428,-3.546487610120914,6.309060973164833,-1.6814066,1.2507466,-1.2705997,310.8003,-56.665268,-33.267403
886302670000.0,-16.096422717045943,-2.585816034921998,7.39280827966223,-1.6111571,-0.08979719,-2.3671029,310.8491,-55.53601,-34.373943
886307843000.0,-17.312430875912412,-1.0223765874695865,8.438646801703163,-1.3536774,-1.5839735,-3.164893,311.29556,-54.26497,-35.60442
886312909000.0,-18.376275016814777,0.4252375895713539,9.330397881643144,-1.0442741,-2.791654,-3.0298917,312.31757,-52.5789,-37.20361
886317754000.0,-17.385866769297788,0.489917326502875,8.089355015072313,-0.91721416,-3.2736268,-2.0140228,313.64142,-50.954655,-38.703068
886322636000.0,-16.387895032584073,0.5550910056978567,6.838834628158216,-1.0103711,-3.0665436,-1.2098186,315.22595,-49.36351,-40.100666
886327637000.0,-15.048869301165016,0.5598751817770823,5.789562705399061,-1.1985176,-2.5558603,-1.0280862,316.8832,-47.925423,-41.302414
886332605000.0,-13.58869885985046,0.53919289069727,4.842313212441315,-1.3600914,-2.0289888,-1.2162327,318.44934,-46.64194,-42.320545
886337723000.0,-12.312111951367932,0.6947039575322812,4.2541562553802015,-1.4993688,-1.6120734,-1.5008959,319.75003,-45.500397,-43.22151
886342671000.0,-11.388443996289515,1.0862078909612625,4.21430249354376,-1.5968018,-1.4511104,-1.6496416,320.96445,-44.35989,-44.10912
886347772000.0,-10.43621476450799,1.4898177463414637,4.173216390243903,-1.6426166,-1.5735888,-1.6056592,322.0328,-43.34639,-44.883617
886352642000.0,-9.52710746029783,1.875150033285509,4.133990880918221,-1.5937474,-1.8643607,-1.455081,323.1231,-42.335007,-45.639526
886357668000.0,-8.847407711313766,2.099050174541655,4.143888834900732,-1.4361442,-2.2104158,-1.258077,324.28735,-41.367596,-46.32656
886363493000.0,-8.57184819293246,2.0142625878597893,4.25517250783699,-1.2156218,-2.5335636,-1.0797043,325.55215,-40.459137,-46.92457
886367678000.0,-8.427531870742161,1.934281652785924,4.31438056462892,-0.9456194,-2.7785206,-0.9068295,326.81302,-39.8484,-47.177784
886372627000.0,-8.391893414316867,1.7917277154447702,4.332199792841567,-0.6985244,-2.9843822,-0.7672467,328.15762,-39.298603,-47.341824
886377580000.0,-8.356226153319797,1.6490585597262952,4.350033423340101,-0.4578435,-3.1065552,-0.64476824,329.5343,-38.81992,-47.410282
886382606000.0,-8.312105505904404,1.3633935214151829,4.160383809634489,-0.23762658,-3.1108313,-0.55680364,330.90897,-38.394604,-47.421352
886387809000.0,-8.260735755388941,0.966449727085286,3.814809229428304,-0.14477506,-3.058297,-0.52106804,332.27432,-38.00291,-47.388775
886392627000.0,-8.303769753454155,0.7538131389018482,3.6607133492553374,-0.013744468,-2.89825,-0.44532076,333.56973,-37.647984,-47.337917
886397654000.0,-8.450625715323884,0.7063011334918357,3.6866289639691368,0.07147124,-2.6670377,-0.37232238,334.78772,-37.31085,-47.280792
886402614000.0,-8.624036567393716,0.681045167410721,3.754643560902033,0.12889257,-2.4123068,-0.30634892,335.90094,-36.96642,-47.279396
886407624000.0,-8.893645318595194,0.727162530419963,3.9639455437486135,0.16126843,-2.1755965,-0.24465153,336.90286,-36.650303,-47.281296
886412639000.0,-9.163523140406657,0.7733259187415896,4.173456410809612,0.15577064,-1.9734001,-0.18020524,337.80096,-36.332344,-47.313465
886417682000.0,-9.488372375949368,0.8720834302405063,4.57073116835443,0.1160644,-1.8228219,-0.12370021,338.6061,-36.03142,-47.35337
886423480000.0,-9.915111990958408,1.0377587272332731,5.213350349005425,0.06169739,-1.7669277,-0.07880162,339.34872,-35.7448,-47.39179
886427615000.0,-10.138721015553443,1.1174262594659985,5.641756935410005,-0.008552114,-1.7858646,-0.06811147,340.0782,-35.425667,-47.446392
886432631000.0,-10.250792836516029,1.1381802682796165,6.102496234468158,-0.076358154,-1.842675,-0.12675454,340.79526,-35.098,-47.504894
886437900000.0,-10.315309580537471,1.183108876180938,6.567452964530128,-0.122478485,-1.9000963,-0.2593123,341.584,-34.71584,-47.552944
886442823000.0,-9.512613239025203,1.6001963487898514,6.693366228926723,-0.13500121,-1.9019289,-0.38423425,342.37057,-34.323013,-47.60526
886447599000.0,-8.733885283091302,2.004829655549992,6.815519743198131,-0.116980694,-1.8445076,-0.45570546,343.22083,-33.885994,-47.63723
886452666000.0,-8.199596293281441,2.324541372026492,6.826408882083845,-0.08460484,-1.7098118,-0.49480084,344.0494,-33.434853,-47.693016
886457726000.0,-7.855495356780008,2.5726909097842414,6.760235718080022,-0.05955936,-1.5274686,-0.50488013,344.836,-32.98383,-47.76633
886462621000.0,-7.522615102990577,2.8127486147890206,6.69622037464154,-0.058643065,-1.3100005,-0.5140431,345.49066,-32.646637,-47.712395
886467675000.0,-7.247096056275605,3.078982630484171,6.742400211638733,-0.103847094,-1.0519099,-0.5366451,346.05988,-32.307022,-47.696953
886472671000.0,-7.006531027374302,3.3507320494413406,6.840408101955307,-0.18020524,-0.7901542,-0.56169057,346.54495,-31.966797,-47.718094
886477669000.0,-6.893492571759747,3.599351408893572,7.01592818967334,-0.28099802,-0.559858,-0.59650993,346.86768,-31.695288,-47.71147
886482607000.0,-6.890170392202318,3.825255005142255,7.255120261327713,-0.4156938,-0.45814893,-0.61636305,347.14035,-31.41197,-47.727287
886487712000.0,-6.886735858658237,4.058798516452407,7.502401655778012,-0.4972443,-0.29138273,-0.6768387,347.27948,-31.160208,-47.750275
886492641000.0,-6.911367229673384,4.1276035,7.509721301945796,-0.6637051,-0.17562376,-0.73273283,347.40036,-30.880354,-47.782143
886497648000.0,-6.948855010979847,4.1276035,7.413919194162613,-0.8167268,-0.111177474,-0.8032878,347.49942,-30.579773,-47.847282
886502610000.0,-6.960784215412064,4.132550604261305,7.279544221272216,-0.93676186,-0.07422013,-0.8622363,347.54672,-30.288935,-47.877106
886507628000.0,-6.931105532807246,4.145741129863446,7.078388602538942,-1.026559,-0.05100725,-0.9086621,347.58948,-29.975687,-47.92368
886512625000.0,-6.901551053537363,4.158876453983394,6.878074806841419,-1.0925325,-0.027488936,-0.92149025,347.64117,-29.646885,-47.990578
886517623000.0,-6.772529689070304,4.110381470514791,6.576449962639263,-1.102001,0.022907447,-0.9324858,347.68585,-29.313091,-48.070793
886522784000.0,-6.520938027266616,3.986959268373031,6.1444717346811375,-1.0974194,0.10476339,-0.93828905,347.71176,-28.980543,-48.15757
886527582000.0,-6.396271046280096,3.83926647540308,6.129667418914034,-1.0876455,0.18967366,-0.9691377,347.72464,-28.66064,-48.276226
886532631000.0,-6.445215134545586,3.629505987607548,6.751957125225942,-1.0708468,0.21868975,-1.0302242,347.73904,-28.343975,-48.401344
886537657000.0,-6.493936264991685,3.4207010338225725,7.371412079459185,-1.0668762,0.10170906,-1.1059716,347.77286,-28.041035,-48.538486
886542700000.0,-6.8854461546202925,3.351636099958839,8.185582409755094,-1.0668762,-0.13225232,-1.1768318,347.8514,-27.73604,-48.66215
886548011000.0,-7.513506662759827,3.3673375429820958,9.164309863243464,-1.0842859,-0.4456262,-1.2825116,348.02304,-27.411802,-48.76121
886552664000.0,-8.005896276835582,3.5919596227488158,9.646653299453153,-1.1334605,-0.8020661,-1.430341,348.49503,-26.959953,-48.76431
886557625000.0,-8.508194868188115,3.914123671090048,10.01385085694495,-1.1994339,-1.144456,-1.5995506,349.08334,-26.48378,-48.72223
886563525000.0,-9.092673677402992,4.322017167960098,10.384700206019104,-1.2614367,-1.4257594,-1.7470746,349.8912,-25.908335,-48.60635
886567774000.0,-9.422914621354298,4.789858181942684,10.18861975779863,-1.2803736,-1.647809,-1.8359555,350.78687,-25.317991,-48.440784
886572666000.0,-9.803130836418967,5.328497447747063,9.962866509341447,-1.221425,-1.8234328,-1.8716911,351.75116,-24.731674,-48.224213
886577662000.0,-10.14951012384283,5.541617839415759,9.230170165603784,-1.0543534,-1.8894062,-1.8698585,352.72263,-24.165823,-47.984436
886582614000.0,-10.461704809161352,5.50259351224028,8.130984237056847,-0.8362745,-1.926669,-1.8643607,353.70206,-23.628359,-47.71084
886587727000.0,-10.784049604402384,5.462300421600494,6.996061447747377,-0.7284568,-1.8228219,-1.8295414,354.51016,-23.215517,-47.48005
886592721000.0,-10.879525048206824,5.232107671824278,6.707785871522986,-0.5375614,-1.6209309,-1.7767016,355.2627,-22.871412,-47.26134
886597702000.0,-10.86561658965886,4.907572308786082,6.828327523850715,-0.47555858,-1.3768903,-1.7024814,355.932,-22.547306,-47.06958
886602669000.0,-10.638580446318388,4.529029182542164,7.210781438107775,-0.5705481,-1.1893547,-1.6621643,356.43555,-22.315685,-47.110664
886607620000.0,-10.271900954751132,4.1155395439819005,7.76470106959276,-0.7877107,-1.0439687,-1.6533068,356.87064,-22.084764,-47.191635
886612669000.0,-9.883636525174431,3.669325539694513,8.354568572317556,-1.0852021,-0.95111716,-1.6496416,357.38937,-21.745691,-47.296917
886617634000.0,-9.430832831981895,3.108925156420894,9.058431989251368,-1.3778065,-0.86009824,-1.6227635,357.85522,-21.384588,-47.426727
886622789000.0,-8.98526366965429,2.5104842740076827,9.775480029449424,-1.6087136,-0.7287622,-1.5668694,358.45166,-20.872608,-47.491474
886627675000.0,-8.882555338028169,1.7273320991549297,10.27618376056338,-1.7424932,-0.5531385,-1.505172,358.99234,-20.348131,-47.577553
886632954000.0,-8.771585775471008,0.8811879462593746,10.81716104188769,-1.7684549,-0.34574974,-1.4477507,359.6049,-19.715971,-47.59942
886637666000.0,-9.062100313519492,0.0297285724799557,11.31855428974288,-1.7318029,-0.15027285,-1.4040737,0.15160273,-19.097898,-47.647285
886642665000.0,-9.41064730752926,-0.8835524984757167,11.852404276564371,-1.6545285,-0.027488936,-1.391551,0.6496308,-18.50384,-47.717587
886647695000.0,-9.94233344402985,-1.7821794235074626,12.27332075,-1.582141,-0.0033597588,-1.3888022,1.2771767,-17.797651,-47.773148
886652659000.0,-10.547262764734022,-2.6600092985553005,12.637188314102564,-1.4941764,-0.04550946,-1.4037683,1.8858999,-17.12272,-47.834034
886657605000.0,-11.089387912967627,-3.3483627981197905,12.638233010564065,-1.4205672,-0.07666359,-1.4132367,2.66038,-16.318886,-47.9155
886662725000.0,-11.607378283194418,-3.928132086741616,12.381614223977516,-1.3084733,-0.122478485,-1.3878858,3.4257522,-15.560234,-47.96786
886667626000.0,-11.709665033286583,-4.378323863618514,11.475999335577372,-1.1664472,-0.14538592,-1.2910637,4.326597,-14.709351,-48.058735
886672676000.0,-11.465476875268818,-4.749128294193548,9.95660425376344,-0.9896017,-0.13255776,-1.1630874,5.190826,-13.919006,-48.126995
886677609000.0,-11.15227291525424,-4.9976323,8.848806745762712,-0.77488256,-0.09010262,-1.0937542,6.1348886,-13.103725,-48.272648
886682633000.0,-10.713947010169491,-5.068987753333333,8.32213649717514,-0.64873886,0.03268129,-0.93401295,6.9626813,-12.373207,-48.408264
886687630000.0,-10.277976757838983,-5.139959727916667,7.798296681850283,-0.40469822,0.20066923,-0.7687739,7.794343,-11.708164,-48.68924
886692649000.0,-9.750082100875524,-5.117886616673011,7.415116672630376,-0.15790866,0.32895094,-0.59437186,8.542102,-11.117202,-48.967102
886697618000.0,-9.156828045964978,-5.02278460033308,7.147925863094785,0.1020145,0.40103304,-0.3924809,9.193773,-10.62692,-49.250458
886702636000.0,-8.494243129165538,-4.81218517319832,7.133692150474126,0.33964106,0.40622538,-0.19272798,9.774085,-10.222354,-49.5485
886707599000.0,-7.763462893118396,-4.4677204669601736,7.423428890273639,0.57360244,0.33658674,0.010079277,10.271674,-9.914169,-49.825268
886712836000.0,-6.99233734482525,-4.104238366099973,7.729161573394744,0.7779369,0.24220806,0.21624629,10.66581,-9.704249,-50.04476
886717618000.0,-6.426046824636275,-3.730570288651794,8.014375515615907,0.945314,0.13713925,0.39553526,10.997849,-9.568812,-50.227947
886722614000.0,-5.96619438566264,-3.3002497999470943,8.318131346459747,1.0946705,0.027488936,0.5357288,11.272951,-9.502701,-50.3714
886727604000.0,-5.532368164840905,-2.854543255279405,8.608356679594745,1.1942415,-0.09101892,0.625526,11.386024,-9.549816,-50.307182
886732605000.0,-5.183610007020738,-2.354150969510844,8.854761815893621,1.2739595,-0.22602014,0.6713409,11.473812,-9.638141,-50.20207
886737666000.0,-4.830667588158936,-1.8477551770144052,9.104123222574009,1.320996,-0.37690386,0.66614854,11.4523,-9.809807,-49.95226
886742637000.0,-4.510982531381753,-1.2676457046317315,9.325079997524965,1.3179418,-0.51251596,0.6114761,11.446827,-9.982049,-49.671223
886748543000.0,-4.144113071946744,-0.5387343976435948,9.576095834684647,1.2614367,-0.61544675,0.5369505,11.4654665,-10.14369,-49.361702
886752604000.0,-3.925709851756035,0.13872146484771,9.58357050274498,1.1297953,-0.6973027,0.44104472,11.387997,-10.366141,-48.92612
886757604000.0,-3.709642994570204,1.2478650573873806,9.335093402647214,0.9465357,-0.72692966,0.35185838,11.342535,-10.550178,-48.485184
886762660000.0,-3.491156188583891,2.3694310581634954,9.083833359028352,0.6951646,-0.6942484,0.2724459,11.167047,-10.790745,-47.958553
886767650000.0,-3.399860808071328,2.948807092491788,8.311782842139841,0.3921755,-0.6056729,0.17287487,11.029915,-10.959995,-47.45265
886772621000.0,-3.359649080422337,3.3107132944908493,7.328827752670108,0.11453723,-0.5225952,0.063224554,10.921177,-11.064831,-46.966385
886777606000.0,-3.3313303634691405,3.4799743213231142,6.44391613280355,-0.121256754,-0.2947425,0.0018325958,10.386192,-11.416118,-46.53869
886782761000.0,-3.311415594086325,3.503871894860831,5.607500476732554,-0.22785273,-0.027183503,-0.118507855,9.914865,-11.692212,-46.160046
886787675000.0,-3.283405065163799,3.5185526285903377,4.857027168257777,-0.36041048,0.23151793,-0.19975294,9.423652,-11.940182,-45.939465
886792656000.0,-3.176856785903375,3.4633053940436795,4.501866086300463,-0.44837508,0.43371433,-0.226631,8.947373,-12.15403,-45.778942
886797583000.0,-3.0714636174801457,3.4086571056254136,4.150555375438452,-0.52656585,0.5439755,-0.20555615,8.5742,-12.302216,-45.761665
886802612000.0,-3.0731035785598646,3.3901896,4.116282192367589,-0.58032197,0.57696223,-0.15882497,8.193401,-12.435682,-45.77374
886807605000.0,-3.128400428039473,3.3901896,4.241621620337676,-0.6407976,0.5534439,-0.10842858,7.804046,-12.556083,-45.792946
886812668000.0,-3.251416311519542,3.370191454834093,4.4070577854395845,-0.72295904,0.47647488,-0.09437868,7.4854374,-12.624275,-45.830357
886817669000.0,-4.052427389491101,3.1474504214828727,4.95962691235131,-0.81000733,0.41813725,-0.10751228,7.1622057,-12.685527,-45.860184
886822589000.0,-4.840464682756462,2.9283170713353006,5.503246209373044,-0.8875872,0.40225476,-0.13836098,6.8399296,-12.738357,-45.867783
886827608000.0,-5.506964852543347,2.6026622021553787,5.951876529265255,-0.94714653,0.38912117,-0.1966986,6.545628,-12.769905,-45.860447
886832573000.0,-6.1400992839544015,2.2610429491139,6.375484393524284,-0.97524637,0.40378192,-0.23609942,6.258837,-12.791139,-45.85409
886837625000.0,-6.706719608016844,1.8773899821685969,6.727193643954976,-0.98654735,0.42210788,-0.2687807,6.0354376,-12.766865,-45.905304
886842695000.0,-7.249314875487894,1.480273169066321,7.053537255907361,-0.9584476,0.44104472,-0.29016098,5.8294864,-12.739014,-45.95896
886847797000.0,-7.809575157761165,1.0702604788766477,7.332940109974425,-0.88178396,0.43860126,-0.28160888,5.7326493,-12.6508875,-46.05525
886852701000.0,-8.377807513299233,0.654480458746803,7.499252183631714,-0.786489,0.43279803,-0.25411993,5.6391044,-12.57413,-46.15181
886857606000.0,-8.913043506388835,0.2705189037586004,7.619602822881855,-0.6585127,0.44959682,-0.20830505,5.678656,-12.406809,-46.30667
886862725000.0,-9.37080356565756,-0.0330481660654609,7.605147056693533,-0.5225952,0.46609017,-0.1160644,5.6895084,-12.280545,-46.449318
886867661000.0,-9.78310011004741,-0.3100167972328592,7.595396950309992,-0.40469822,0.4636467,-0.03023783,5.7962894,-12.097449,-46.661682
886872619000.0,-10.099126049690009,-0.5351311211697666,7.599726340280817,-0.30024028,0.43218717,0.06841691,5.862049,-11.96519,-46.856186
886877895000.0,-10.42885263271351,-0.7697722527480665,7.603985,-0.25992316,0.26847526,0.15302174,5.996876,-11.805486,-47.078743
886882607000.0,-10.651623152377818,-0.9257117328204708,7.603985,-0.13041973,0.18997909,0.18906279,6.104185,-11.697192,-47.30547
886888412000.0,-10.92606773358565,-1.1178230829521143,7.603985,-0.090713486,-0.057726767,0.24740042,6.2708154,-11.560654,-47.48402
886892645000.0,-11.103784281117123,-1.2890679670757634,7.623387494491689,0.0036651916,-0.14752395,0.2648101,6.427427,-11.461348,-47.67907
886897655000.0,-11.30315933233475,-1.5069893624178583,7.655843754058755,0.02687807,-0.3042109,0.2761111,6.599448,-11.370391,-47.779884
886902668000.0,-11.354584620530735,-1.8198808546420877,7.614001456864639,0.06688975,-0.4447099,0.26450464,6.829252,-11.266201,-47.903923
886907628000.0,-11.276905114100945,-2.2118088243142795,7.508074910815432,0.087659165,-0.5534439,0.21533,7.080516,-11.160471,-47.99257
886912686000.0,-11.197690810971531,-2.61148053209693,7.400055461235413,0.08827003,-0.634689,0.14966199,7.4005837,-11.020053,-48.081657
886917648000.0,-10.795705424315932,-2.76163014019018,7.216016044673005,0.086132,-0.6881397,0.06352998,7.751667,-10.872452,-48.151268
886922599000.0,-10.33563569493499,-2.867446163535804,7.018186075451193,0.0888809,-0.70188415,-0.028710667,8.12908,-10.715072,-48.212765
886927678000.0,-9.816417405489384,-2.8403390705334024,6.800140237571206,0.08552113,-0.7125743,-0.1001819,8.617703,-10.477466,-48.29097
886932580000.0,-9.301824180217505,-2.7755083646815124,6.5853886778094255,0.08032878,-0.70280045,-0.15668693,9.127389,-10.22977,-48.373726
886937692000.0,-8.733365483835616,-2.619951935342466,6.338953947945206,0.07880162,-0.68294734,-0.18997909,9.646742,-9.971045,-48.429455
886942647000.0,-8.146086151100615,-2.3689012078507323,6.074454081861124,0.099571034,-0.64751714,-0.19242255,10.164692,-9.715716,-48.492085
886947787000.0,-7.530756321843917,-2.0766668256886,5.803962621365724,0.1301143,-0.59040123,-0.19272798,10.642881,-9.479508,-48.52323
886952611000.0,-6.943112475784239,-1.7497071230107115,5.556533774387912,0.18081611,-0.4914411,-0.18081611,11.101815,-9.257092,-48.574722
886958137000.0,-6.203639656324598,-1.2880060650396747,5.342862201873708,0.22143865,-0.37751472,-0.15882497,11.472206,-9.088893,-48.595993
886962649000.0,-5.483319720977529,-0.7578506080282723,5.290999173267987,0.25686884,-0.25259277,-0.11759156,11.814114,-8.937941,-48.646557
886967637000.0,-4.687008586777355,-0.1717656302860573,5.233664779055811,0.27916542,-0.18325958,-0.08032878,12.048913,-8.859965,-48.65774
886972637000.0,-3.985089277837015,0.3815186977151561,5.236434746230008,0.29535335,-0.06383542,-0.057421334,12.253269,-8.793461,-48.71698
886977605000.0,-3.5729073621477534,0.8299364600152322,5.417613459025134,0.30482176,0.04153884,0.009162978,12.4170685,-8.747392,-48.787125
886982662000.0,-3.195989368251787,1.2735258002473886,5.613927702363936,0.29138273,0.12095132,0.09162979,12.297716,-8.873937,-48.715622
886987667000.0,-3.055452370954737,1.6424355270661537,5.873043073446949,0.28008172,0.18570304,0.18081611,12.138996,-9.016593,-48.66383
886992954000.0,-2.916449918462957,2.029538982559504,6.145824505807911,0.2574797,0.22876903,0.26083946,11.762752,-9.290277,-48.534134
886997615000.0,-3.06983045172645,2.2951493019778746,6.359060919812269,0.22174409,0.25411993,0.31490102,11.362132,-9.566166,-48.409164
887002578000.0,-3.2331489641887363,2.5779693009637947,6.586113552874623,0.1554652,0.2510656,0.34300083,10.834934,-9.908843,-48.20659
887007602000.0,-3.508619281615215,2.88254492053473,6.773027680622933,0.07391469,0.22113322,0.34574974,10.30985,-10.237386,-47.99612
887012700000.0,-3.871962463110989,3.2055166634417493,6.930027579061007,-0.009468411,0.17867808,0.34513888,9.790178,-10.548454,-47.7746
887017622000.0,-4.250945926121237,3.472850585111612,7.039480321001434,-0.09254608,0.14905111,0.33078352,9.2294855,-10.875406,-47.51852
887022818000.0,-4.694240649651853,3.686854809645709,7.090434054894532,-0.17715092,0.11911872,0.30909783,8.693237,-11.174199,-47.24857
887027680000.0,-5.064776274640876,3.800244000184896,7.117133413497369,-0.25411993,0.089491755,0.27885997,8.163092,-11.468909,-46.98175
887032608000.0,-5.390324959038543,3.817024923069265,7.120489584056322,-0.31795537,0.06383542,0.23060162,7.66896,-11.731352,-46.710934
887037656000.0,-5.723800965296544,3.834214472322572,7.123927479547717,-0.37934732,0.034208454,0.17592919,7.2104845,-11.969993,-46.476177
887042631000.0,-6.274142695343989,3.622828180576789,7.103927656601807,-0.41996986,0.021991149,0.10262536,6.7949533,-12.177234,-46.246304
887047663000.0,-6.9564785733148025,3.2795671446490617,7.070438586344684,-0.45540005,0.017715093,0.019242255,6.4211974,-12.352299,-46.018158
887052604000.0,-7.445739333320407,2.941708125836161,7.065370566030054,-0.47769663,0.0106901415,-0.05681047,6.120161,-12.487963,-45.858044
887057599000.0,-7.575590350867668,2.598530803247697,7.116383680232671,-0.50579643,0.020158553,-0.12644911,5.85738,-12.594103,-45.70998
887062634000.0,-7.674552898954955,2.2486412561801803,7.165643247927928,-0.5305365,0.028405234,-0.17654006,5.738599,-12.612047,-45.703415
887067638000.0,-7.687504964036036,1.890302967855856,7.208816497657658,-0.548557,0.046731193,-0.21197024,5.6427155,-12.613014,-45.70612
887072707000.0,-7.701411708061674,1.532959884524229,7.2515386621145375,-0.56016344,0.067500606,-0.22510384,5.6203866,-12.556693,-45.743053
887077611000.0,-7.725549109647577,1.2639992700044052,7.2791242022026434,-0.5665775,0.103847094,-0.24037547,5.6090527,-12.49175,-45.79087
887082623000.0,-7.750218085330396,0.98911537930837,7.307317254185022,-0.58184916,0.13836098,-0.23487769,5.664791,-12.370521,-45.85491
887087666000.0,-7.839017582290608,0.6588325839338075,7.329751882101902,-0.5665775,0.183565,-0.22266038,5.716167,-12.256251,-45.930492
887092629000.0,-8.052897955624909,0.2276225774800405,7.340100987037306,-0.5494733,0.20250183,-0.19242255,5.755847,-12.14828,-46.00403
887097645000.0,-8.269062362766729,-0.208192331319495,7.350560610320802,-0.5216789,0.1957823,-0.13958271,5.849334,-11.993843,-46.094894
887102608000.0,-8.462850791493876,-0.5054390897598611,7.320888345298486,-0.47616947,0.1704314,-0.09101892,5.930376,-11.856185,-46.181
887107607000.0,-8.642916516732567,-0.703973335812518,7.260866452955927,-0.4129449,0.106595986,-0.018325957,5.9847865,-11.747571,-46.245804
887112644000.0,-8.8083071300813,-0.8829543221138212,7.1880554449187,-0.31306845,0.03848451,0.043066,6.1446705,-11.5673065,-46.36613
887117639000.0,-8.956262596677272,-1.039364492739484,7.103509331583599,-0.2302962,-0.064446285,0.1133155,6.281652,-11.41735,-46.449665
887122687000.0,-9.075971715208512,-1.1868589940723853,7.001906683575568,-0.1255328,-0.16279559,0.16982053,6.4525194,-11.272428,-46.552753
887127601000.0,-9.102794490358129,-1.298620214876033,6.854381887052342,-0.0143553335,-0.258396,0.2171626,6.608372,-11.160701,-46.621037
887132658000.0,-9.116484701168364,-1.3986999994607547,6.713678795011983,0.084910266,-0.32436943,0.25350907,6.793689,-11.0494585,-46.709114
887137657000.0,-9.041187825269622,-1.4022855614140204,6.645553005579688,0.19211712,-0.36285394,0.25992316,6.977286,-10.966915,-46.77548
887143387000.0,-8.954880343993409,-1.4063954373876573,6.56746523333583,0.26267207,-0.38606682,0.25381452,7.177794,-10.88741,-46.85599
887147615000.0,-8.821284344066786,-1.314355264877758,6.519229886106142,0.30909783,-0.39584067,0.25045475,7.3750563,-10.826878,-46.927868
887152602000.0,-8.59345149950308,-1.1102547315643014,6.471764668853111,0.34972036,-0.408058,0.25045475,7.5739603,-10.7789135,-46.992176
887157604000.0,-8.360119725463163,-0.8810909769323567,6.432424665058165,0.37201694,-0.41355577,0.25473082,7.765096,-10.737755,-47.054733
887162653000.0,-8.118457052098233,-0.6185956988470487,6.403258499844895,0.3827071,-0.41996986,0.24831672,7.960009,-10.700043,-47.114227
887167680000.0,-7.862958694502618,-0.3104862806969895,6.381354440109621,0.3811799,-0.42302418,0.23182335,8.10365,-10.698055,-47.140762
887172632000.0,-7.517673364659686,0.2869736049836386,6.404632040436845,0.37995818,-0.42546764,0.22815818,8.244088,-10.698831,-47.165817
887177687000.0,-7.165206211518324,0.8968604632460733,6.428393807329843,0.3753767,-0.41874814,0.21960606,8.317591,-10.747172,-47.149483
887182605000.0,-6.931454620048127,1.2892061504436756,6.4234359515716655,0.35277468,-0.41508293,0.20769419,8.394214,-10.788664,-47.133633
887187696000.0,-6.7408028720484285,1.6008484345089486,6.405104063768988,0.3371976,-0.41263947,0.19425514,8.473888,-10.826877,-47.121418
887192819000.0,-6.544639461176784,1.9175148403786328,6.387476346404765,0.30298916,-0.38698313,0.18570304,8.36839,-10.994092,-47.028515
887197615000.0,-6.295616997431339,2.2604310996267,6.383394055657275,0.26083946,-0.35430184,0.18509217,8.267745,-11.149913,-46.94069
887202577000.0,-6.037975324140076,2.6152164370722604,6.379170467940628,0.21868975,-0.30787608,0.18692477,8.074257,-11.361257,-46.818268
887207627000.0,-5.81465873578709,2.918670913970231,6.399058520312248,0.17745635,-0.26236662,0.1908954,7.8833165,-11.557008,-46.70602
887213533000.0,-5.567589285503964,3.2526723175780616,6.431086077034461,0.13255776,-0.22449298,0.19914207,7.692005,-11.7379465,-46.605106
887217704000.0,-5.3708231969747615,3.472644892060839,6.455243185442086,0.098043874,-0.19058995,0.20891592,7.4203954,-11.968609,-46.455666
887222675000.0,-5.092330669689119,3.703395837305699,6.487070837564767,0.053450707,-0.15851954,0.21533,7.1513357,-12.181664,-46.316723
887227651000.0,-4.81355802519639,3.9343788796590338,6.518930503016881,0.017715093,-0.12767084,0.20616703,6.8187385,-12.429876,-46.129852
887232626000.0,-4.773114400599647,3.928465276049383,6.510338515361552,-0.002443461,-0.094989546,0.18661933,6.4943004,-12.663212,-45.953907
887237768000.0,-4.755744416261023,3.89806780345679,6.497311072451499,-0.04062254,-0.06566802,0.16890424,6.1795483,-12.876809,-45.787346
887242698000.0,-4.767969792514799,3.852436490548024,6.496053889497804,-0.059864793,-0.042455133,0.14446963,5.824871,-13.114127,-45.56372
887247727000.0,-4.795559047842276,3.797257787836548,6.500652058707275,-0.08460484,-0.02443461,0.12583824,5.482144,-13.333553,-45.349804
887252667000.0,-4.833516074919442,3.71662387660222,6.516811168528465,-0.1020145,-0.025045475,0.118202426,5.1654773,-13.534616,-45.139652
887257616000.0,-4.880182061761547,3.614807282742571,6.5422652948442535,-0.11178834,-0.030848695,0.10629055,4.8647814,-13.721799,-44.93716
887262678000.0,-4.930903618419305,3.505164887432662,6.555612089521068,-0.13164146,-0.036957346,0.081855945,4.5900106,-13.887247,-44.744736
887267854000.0,-4.989431493380562,3.3807929144122206,6.540980101682532,-0.14202617,-0.02076942,0.062002823,4.323566,-14.045919,-44.559578
887272667000.0,-5.043854727961036,3.2651433189432515,6.527374275278577,-0.1459968,-0.0015271631,0.050396383,4.0752177,-14.188835,-44.38932
887277610000.0,-5.13631598318269,3.1268260884689125,6.534802573075869,-0.15607607,0.025961773,0.01985312,3.8446302,-14.31616,-44.23133
887283148000.0,-5.267054850342372,2.957350041358532,6.559013436948781,-0.17989981,0.05009095,-0.022907447,3.6269598,-14.431022,-44.081768
887287652000.0,-5.460259445258008,2.743947954394824,6.596177068029036,-0.20708331,0.074830994,-0.03848451,3.4420807,-14.510522,-43.964474
887292785000.0,-5.797700289442954,2.398749856872337,6.662113883399085,-0.2144137,0.1020145,-0.08093964,3.2836013,-14.572864,-43.86238
887297621000.0,-6.115616502666877,2.0735252319709643,6.724235535284835,-0.2406809,0.129198,-0.11881329,3.1673753,-14.59559,-43.791584
887302604000.0,-6.343681528880708,1.8699896324831276,6.805355869725656,-0.2669481,0.14721853,-0.14630222,3.0628583,-14.609821,-43.72932
887307587000.0,-6.557002758699272,1.6859477314839162,6.889011219712508,-0.2950479,0.15821409,-0.17440203,2.971792,-14.610517,-43.67661
887312663000.0,-6.764605647058824,1.470884823529412,6.974731976470588,-0.31215215,0.17165314,-0.20066923,2.9681556,-14.540527,-43.70546
887317628000.0,-6.961049686405666,1.2416999644402913,7.058922230208538,-0.33933565,0.18081611,-0.22266038,2.9721851,-14.460632,-43.737232
887322621000.0,-7.12716656608588,1.045783104726269,7.121780417937732,-0.3555236,0.18081611,-0.23854288,3.0218544,-14.348456,-43.80512
887327668000.0,-7.26982679895268,0.8755114474845282,7.1677999471008285,-0.36041048,0.18142697,-0.2443461,3.0733387,-14.23464,-43.874683
887332609000.0,-7.403942241414351,0.7177620162525923,7.196684430309,-0.36132678,0.17562376,-0.24098633,3.1783006,-14.080233,-43.9701
887337653000.0,-7.53417231715056,0.5674963084881792,7.206702188790958,-0.34208453,0.17073683,-0.23060162,3.2803092,-13.93381,-44.063248
887342622000.0,-7.643236415319149,0.4467237678452611,7.230867159845261,-0.32467487,0.15699236,-0.21227567,3.4130266,-13.761594,-44.17402
887347618000.0,-7.73578146893617,0.3495516016673114,7.267885055667311,-0.3005457,0.15515977,-0.18478674,3.5349126,-13.603352,-44.281944
887352788000.0,-7.793842152081065,0.2909573708885353,7.282026355012143,-0.26725355,0.13500121,-0.16554448,3.6860192,-13.432154,-44.40146
887357609000.0,-7.809308029896994,0.2793578938916339,7.270426886089942,-0.22876903,0.11178834,-0.12736541,3.8177001,-13.280811,-44.512302
887362701000.0,-7.823193424088211,0.2720284345411365,7.257104426089906,-0.19639318,0.10415252,-0.099265605,3.9666164,-13.120123,-44.632515
887367640000.0,-7.811158015267176,0.3161589064274809,7.233033357099236,-0.15302174,0.09773844,-0.09315695,4.109798,-12.976563,-44.742527
887372590000.0,-7.799095801526717,0.360387664442748,7.208908677709924,-0.13530666,0.07819075,-0.059864793,4.236725,-12.84451,-44.84504
887377676000.0,-7.739794364385489,0.3909100254466888,7.194793143272033,-0.09407325,0.063224554,-0.04153884,4.3651204,-12.727088,-44.94543
887382625000.0,-7.663587920711486,0.4147245279047332,7.185267300512511,-0.056199603,0.06078109,-0.011911872,4.475294,-12.624654,-45.03777
887387629000.0,-7.535539733732988,0.4354258412524303,7.165749697537265,-0.03573562,0.052534413,0.0067195175,4.5756483,-12.538558,-45.120907
887392632000.0,-7.388044128062217,0.4548331445625405,7.142460943292288,-0.01282817,0.04642576,0.026267206,4.662786,-12.468749,-45.19957
887397648000.0,-7.252160839411908,0.4702716892535131,7.12211994907806,0.013744468,0.038789943,0.048258353,4.7300787,-12.413965,-45.2626
887402610000.0,-7.151801477345464,0.474131670608399,7.11053983976119,0.036651913,0.026572637,0.06780604,4.79105,-12.367877,-45.319996
887407574000.0,-7.051401664105272,0.4779932077800341,7.098955062927463,0.04886922,0.01282817,0.08674286,4.83158,-12.3371105,-45.34878
887412680000.0,-6.979498312002223,0.4966538551722541,7.089288205371365,0.058948494,-0.0036651916,0.0983493,4.8686256,-12.313606,-45.371944
887417655000.0,-6.917725472124467,0.5187156396462308,7.080463500796443,0.07880162,-0.0290161,0.10873401,4.901101,-12.298567,-45.38705
887422592000.0,-6.864290068111695,0.5473983473963631,7.054001875290873,0.09132435,-0.03176499,0.12217305,4.9175467,-12.291052,-45.3868
887427608000.0,-6.81460918840817,0.5805189223373266,7.0167413343962775,0.09285152,-0.043982297,0.12889257,4.936539,-12.286075,-45.37695
887432643000.0,-6.768859065765165,0.6177391606113704,6.970908548738215,0.102319926,-0.04428773,0.13103059,4.940541,-12.291823,-45.360382
887437686000.0,-6.732065816084182,0.6637308115569945,6.906520229730503,0.099265605,-0.03848451,0.11789699,4.948539,-12.293379,-45.343334
887442644000.0,-6.702717075550146,0.7106338347875468,6.839179345441639,0.11026118,-0.03634648,0.11178834,4.94618,-12.306445,-45.32055
887447627000.0,-6.697877587567183,0.7638671212067741,6.756909717300476,0.1142318,-0.014660766,0.096516706,4.949343,-12.31254,-45.307076
887452601000.0,-6.681206039340101,0.8113754615074603,6.675147794646977,0.10720685,-0.0018325958,0.08246681,4.945461,-12.321877,-45.294838
887457607000.0,-6.625897362690355,0.8408733761852023,6.594028417628057,0.1160644,-0.0015271631,0.0693332,4.946178,-12.331738,-45.286575
887462648000.0,-6.570201989340101,0.8705775287801877,6.512341885556069,0.10995574,0.004276057,0.056505036,4.9384117,-12.342059,-45.293682
887468359000.0,-6.52010514463979,0.8506356287521472,6.502517097100132,0.101098195,0.0106901415,0.036957346,4.9386325,-12.348972,-45.302715
887472637000.0,-6.486988401869253,0.8175188686915227,6.523215061331716,0.10445796,0.005497787,0.0125227375,4.946729,-12.353053,-45.311604
887477610000.0,-6.464908787060733,0.7804182896886936,6.534386244174943,0.08368854,-0.0021380284,-0.0125227375,4.949962,-12.356942,-45.325855
887482600000.0,-6.4512185467055,0.7439108264152025,6.538949768812071,0.076358154,-0.014049901,-0.030543262,4.9614134,-12.360117,-45.338863
887487666000.0,-6.459289850164204,0.7306570700328407,6.552238021243842,0.05955936,-0.019242255,-0.04642576,4.9824715,-12.3478155,-45.347256
887497692000.0,-6.519956900524597,0.7613091968484609,6.594200579778283,0.022907447,0.013439035,-0.076052725,5.0121827,-12.323835,-45.365467
887502681000.0,-6.562519198752845,0.7991424682470554,6.61784660279125,0.008857546,0.028710667,-0.10476339,5.0548244,-12.292526,-45.37816
887507608000.0,-6.601329407789964,0.8287374234389844,6.641859353199759,-0.016798794,0.039095376,-0.115453534,5.098614,-12.248853,-45.399826
887512713000.0,-6.639329980248726,0.8540710090854132,6.6671929212108125,-0.036957346,0.05467244,-0.124311075,5.149201,-12.199195,-45.42895
887517634000.0,-6.6753988511928535,0.8714894,6.688871793368366,-0.05222898,0.061391957,-0.14538592,5.2036104,-12.146924,-45.460766
887522621000.0,-6.710534585423017,0.8714894,6.703929965181293,-0.049785517,0.080634214,-0.14813483,5.2498226,-12.097647,-45.498753
887527620000.0,-6.7324953,0.8662672044427274,6.735971195904964,-0.06658431,0.081855945,-0.16126843,5.3093066,-12.036579,-45.536057
887532594000.0,-6.7324953,0.8524652912111261,6.795779438535831,-0.079107046,0.0870483,-0.1685988,5.3636565,-11.979119,-45.578575
887538534000.0,-6.730116200752797,0.8451380992472025,6.844977322583927,-0.08674286,0.08307768,-0.17470746,5.415832,-11.92175,-45.623447
887542635000.0,-6.726120833835198,0.8491334661648017,6.856963465055952,-0.0852157,0.07391469,-0.17104226,5.466033,-11.865927,-45.667065
887547596000.0,-6.732720739804341,0.8474346732742281,6.864936793365943,-0.08979719,0.06811147,-0.16126843,5.522166,-11.805475,-45.700092
887552607000.0,-6.762063047844696,0.8327634988280852,6.860046408692551,-0.09254608,0.06811147,-0.15577064,5.5775876,-11.747306,-45.73155
887557572000.0,-6.783822767107066,0.8287705408847132,6.853550232892935,-0.08124508,0.05681047,-0.15760323,5.623975,-11.697031,-45.755917
887562740000.0,-6.79351021294774,0.8433016540105696,6.84386278705226,-0.08246681,0.07086037,-0.14905111,5.660085,-11.648593,-45.785255
887567619000.0,-6.810503298564676,0.8468506378306833,6.828240990545767,-0.07666359,0.07544186,-0.13469578,5.6968875,-11.604428,-45.81433
887572628000.0,-6.843486627202407,0.8303589347657928,6.799380583369145,-0.071776666,0.0852157,-0.12461651,5.728928,-11.5620365,-45.84759
887577996000.0,-6.875778648768752,0.8107106966091141,6.774120361081234,-0.058948494,0.09285152,-0.09896017,5.7473106,-11.528667,-45.88072
887582603000.0,-6.8716159619492405,0.7732464891536938,6.811584542456836,-0.04886922,0.09621128,-0.08093964,5.7636814,-11.497283,-45.91431
887587661000.0,-6.86704577095009,0.7321147415284461,6.852716261449194,-0.0421497,0.07147124,-0.06383542,5.783475,-11.469463,-45.949627
887592645000.0,-6.8665705,0.6804576157324456,6.874222709624697,-0.02107485,0.05955936,-0.04520403,5.793634,-11.451154,-45.986816
887597651000.0,-6.8665705,0.6272537800564971,6.8935695966101695,-0.025045475,0.033292156,-0.025350908,5.801165,-11.433637,-46.011
887602611000.0,-6.859503065260059,0.5836213027772326,6.923570812757605,-0.013439035,0.014660766,-0.0012217305,5.801422,-11.423011,-46.02796
887608167000.0,-6.850800346418057,0.5357560583513248,6.958381778999018,-0.0030543262,0.004886922,0.014660766,5.7992973,-11.414038,-46.038773
887612642000.0,-6.859971720002517,0.4962229464556723,6.9593604508651605,0.010079277,0.007941248,0.03268129,5.8011026,-11.406249,-46.04412
887617674000.0,-6.887261288491789,0.450740201438369,6.932070819052413,0.007330383,-0.0033597588,0.046120327,5.8013487,-11.399814,-46.04183
887626476000.0,-6.934537222559127,0.3731237709763493,6.884608934869617,0.019242255,-0.007330383,0.0571159,5.804911,-11.394147,-46.036076
887627642000.0,-6.9387695409339,0.3714308436264402,6.879530161658581,0.025961773,-0.0067195175,0.057421334,5.808208,-11.38753,-46.02835
887632667000.0,-6.957009163432383,0.3641349946270467,6.857642652751667,0.022296581,0.0012217305,0.062002823,5.8271513,-11.369559,-46.035484
887637642000.0,-6.9750672971497885,0.3569117411400849,6.835972930003032,0.024740042,0.0018325958,0.0571159,5.8503194,-11.35232,-46.041412
887642698000.0,-6.989649616382961,0.329868993814914,6.8173864497623775,0.03268129,-0.004581489,0.056505036,5.869753,-11.337456,-46.04673
887647687000.0,-7.002034993173766,0.2927128375771192,6.800872570932342,0.03848451,-0.0030543262,0.05375614,5.89081,-11.321344,-46.05482
887652525000.0,-7.0196925759417805,0.2618371208047945,6.774172318493151,0.04886922,0.0012217305,0.04886922,5.916229,-11.303361,-46.070683
887657514000.0,-7.050372256314212,0.2413839080094178,6.72303933989726,0.05589417,0.005192355,0.040927973,5.9436216,-11.284809,-46.087086
887662512000.0,-7.0802696400260885,0.246625355402368,6.6878947785570935,0.053145275,0.0027488936,0.03268129,5.9852953,-11.259117,-46.10909
887667545000.0,-7.109288677704194,0.2853169645916115,6.673385486975717,0.047647487,-0.0015271631,0.027794369,6.0281696,-11.233554,-46.131683
887672508000.0,-7.131435871116169,0.3295261136057787,6.669651932812191,0.05222898,0.014049901,0.01985312,6.0822334,-11.200854,-46.171463
887677612000.0,-7.145946109786266,0.3827301671818721,6.679325391589155,0.051923547,0.01038471,0.011911872,6.140348,-11.165635,-46.204613
887682489000.0,-7.155779939468419,0.4327572448928265,6.680801381280366,0.05497787,0.01282817,0.00030543262,6.19753,-11.135086,-46.24785
887687579000.0,-7.160423685586358,0.4838390146746689,6.6715137920644,0.049785517,0.005497787,-0.018936822,6.261894,-11.100036,-46.28797
887692490000.0,-7.156266166207937,0.5372670586275803,6.668331913516825,0.048563786,0.0070249503,-0.02321288,6.314255,-11.076233,-46.32819
887697502000.0,-7.133644372636441,0.60060815621642,6.677380630945424,0.0571159,0.00580322,-0.040011674,6.3797655,-11.047013,-46.367577
887702510000.0,-7.10588756232994,0.6618709736067722,6.689451333457624,0.044593163,0.00061086525,-0.04428773,6.4241123,-11.025141,-46.406513
887707531000.0,-7.057428966874937,0.7151750389902247,6.713680454086466,0.04886922,-0.00030543262,-0.057726767,6.4780483,-11.002889,-46.44769
887712602000.0,-7.010533536373955,0.768149602094727,6.734811690093902,0.044898596,-0.019547688,-0.064751714,6.5211377,-10.988971,-46.472824
887717554000.0,-6.971384580848209,0.8170861030956558,6.744599031173253,0.047647487,-0.028099801,-0.07452556,6.569182,-10.973785,-46.501503
887722542000.0,-6.9357627582947,0.8634691302654304,6.754123059040087,0.046731193,-0.036651913,-0.07574729,6.5976863,-10.966911,-46.513332
887727538000.0,-6.909667389146441,0.902612070452686,6.762821439732751,0.04550946,-0.04337143,-0.08399397,6.6333666,-10.956881,-46.524536
887732548000.0,-6.882813484814513,0.9418533602017938,6.7708025,0.04062254,-0.04795292,-0.084910266,6.657468,-10.954621,-46.523792
887737603000.0,-6.84827673771912,0.9813240129484304,6.7708025,0.039095376,-0.047036625,-0.08277224,6.683342,-10.95157,-46.523315
887742564000.0,-6.819272151718113,1.0204123715783342,6.771388151718114,0.03848451,-0.044898596,-0.087964594,6.7052984,-10.950904,-46.514767
887747539000.0,-6.823896941079402,1.0620355241215298,6.7760129410794026,0.03573562,-0.034513887,-0.0852157,6.7218094,-10.951477,-46.508293
887752600000.0,-6.8282633,1.1013328,6.779396236529423,0.04062254,-0.03145956,-0.07941248,6.7189636,-10.963481,-46.496513
887757685000.0,-6.8282633,1.1013328,6.765663055903365,0.033292156,-0.026267206,-0.08002335,6.7164297,-10.9713335,-46.488705
887763148000.0,-6.827447030588967,1.101060709249274,6.751649,0.03940081,-0.016798794,-0.071776666,6.6992006,-10.990268,-46.480328
887767634000.0,-6.814082853297387,1.0966059679800912,6.751649,0.035430185,-0.015577064,-0.0729984,6.6870184,-11.003027,-46.472073
887772890000.0,-6.798833287105961,1.091406145379554,6.751998850967298,0.045814894,-0.00580322,-0.06047566,6.6682343,-11.024377,-46.468266
887777626000.0,-6.789925114347442,1.0869520822547385,6.756452867583227,0.043676864,0.00030543262,-0.057421334,6.6546574,-11.039568,-46.464733
887782935000.0,-6.780566889804119,1.081428832948267,6.7606629247112,0.03023783,0.0061086523,-0.04550946,6.629413,-11.053294,-46.46182
887787632000.0,-6.784332314205592,1.0663669780679723,6.74936653355098,0.02565634,0.0033597588,-0.04062254,6.60692,-11.0668745,-46.458492
887793215000.0,-6.788808014532061,1.0484639898208603,6.735939292365646,0.0290161,0.0015271631,-0.035124753,6.586192,-11.079915,-46.45249
887797623000.0,-6.789956,1.0494347123645944,6.738058041407241,0.034513887,0.008246681,-0.025961773,6.562073,-11.093839,-46.447426
887802615000.0,-6.789956,1.058765713750366,6.74738909150971,0.028710667,0.00580322,-0.019242255,6.538738,-11.106365,-46.439144
887807606000.0,-6.787463484606526,1.0655181414203456,6.754141515393473,0.034513887,0.005497787,-0.0067195175,6.518698,-11.120867,-46.434517
887817650000.0,-6.778717728045158,1.069279256090315,6.757902538740344,0.034513887,0.004886922,0.0076358155,6.496123,-11.134526,-46.428463
887822676000.0,-6.775142787700535,1.0621293754010694,6.750752620721925,0.03756821,0.004276057,0.011911872,6.4729843,-11.148814,-46.420315
887827688000.0,-6.771577805407012,1.0549994108140226,6.7436226189096855,0.028710667,0.006414085,0.011301007,6.4471445,-11.160493,-46.4104
887832642000.0,-6.762161210049039,1.039046670133105,6.759354579901923,0.030848695,0.002443461,0.024129177,6.4158435,-11.178078,-46.397316
887837640000.0,-6.7509838893516,1.020417828240056,6.781709221296801,0.03726278,0.009773844,0.021380283,6.390184,-11.190898,-46.389313
887842677000.0,-6.739249675263797,1.0008608090671398,6.803296093099263,0.03756821,0.0106901415,0.013439035,6.3657966,-11.20465,-46.378574
887847673000.0,-6.725846315585022,0.9785217985152675,6.821167208236063,0.027183503,0.013744468,0.008552114,6.340957,-11.217083,-46.370495
887852740000.0,-6.714488828175247,0.9562467923263018,6.838413565584895,0.022907447,0.009162978,0.008552114,6.320562,-11.227823,-46.355797
887857629000.0,-6.728302398738752,0.938979859772828,6.8453203688965925,0.026267206,0.0106901415,0.003970624,6.303333,-11.235733,-46.34453
887863470000.0,-6.744805787092491,0.9183506609499926,6.8535720846142505,0.02443461,0.004276057,0.006414085,6.2926984,-11.238486,-46.32467
887867631000.0,-6.745776609776093,0.9009880884608604,6.854057497223202,0.0106901415,0.00030543262,0.009773844,6.283147,-11.23874,-46.306484
887872677000.0,-6.728736885181593,0.8754285416026093,6.84553761268512,0.011301007,-0.005192355,-0.00061086525,6.279096,-11.238959,-46.28737
887877645000.0,-6.712402092323685,0.8529622051175435,6.840032421181832,0.015577064,0.004276057,-0.0106901415,6.2803526,-11.237746,-46.27237
887882631000.0,-6.700947608523909,0.8605985276507276,6.86675958991684,0.013744468,0.008552114,-0.018020526,6.2858157,-11.233784,-46.255436
887887638000.0,-6.689444880809212,0.8682670127938589,6.893599327954582,0.002443461,0.014660766,-0.023518313,6.301378,-11.22042,-46.24193
887892639000.0,-6.674094218110311,0.8767479436902956,6.8996191453279,0.010079277,0.005497787,-0.022907447,6.3182025,-11.210422,-46.225803
887897690000.0,-6.655757393593632,0.8859163607354056,6.890450709135709,0.004276057,0.009468411,-0.02687807,6.3362584,-11.193902,-46.216038
887902657000.0,-6.650448326810731,0.9030759733568354,6.881579716463693,0.012217305,0.01282817,-0.023823744,6.349261,-11.187306,-46.19522
887907608000.0,-6.6591315947074445,0.9291256365094772,6.872896539236334,0.0143553335,0.010995574,-0.025350908,6.36538,-11.176843,-46.175194
887912700000.0,-6.674125851970744,0.9567720095134092,6.860791732019504,0.0106901415,0.006414085,-0.028405234,6.375872,-11.170259,-46.154076
887917642000.0,-6.702972994758228,0.9856191774024788,6.841560303494514,0.005497787,0.015271631,-0.02443461,6.3824615,-11.165077,-46.136154
887922603000.0,-6.738880459882237,1.0070157872620216,6.8282633,0.007330383,0.021991149,-0.025350908,6.39063,-11.163807,-46.11806
887927617000.0,-6.790715477271835,1.0117280615701667,6.8282633,0.0070249503,0.024740042,-0.020158553,6.3940125,-11.163227,-46.100906
887933220000.0,-6.84460180324591,1.018409200649182,6.8184601980524535,0.0021380284,0.025961773,-0.025350908,6.39826,-11.166457,-46.091396
887937639000.0,-6.881232876733316,1.0257354153466631,6.79648155396001,-0.009162978,0.03145956,-0.01863139,6.3950133,-11.171667,-46.082684
887942987000.0,-6.924204604264893,1.034121793925462,6.7708025,-0.015271631,0.03756821,-0.021991149,6.39989,-11.174052,-46.083263
887947784000.0,-6.928698337014575,1.0296280142521763,6.7708025,-0.023518313,0.032986723,-0.020158553,6.400869,-11.176017,-46.08147
887952630000.0,-6.933237971974959,1.025088331888878,6.7708025,-0.022907447,0.037873644,-0.0143553335,6.40618,-11.175159,-46.09405
887957609000.0,-6.962343773181224,1.0124029686366187,6.779012678043763,-0.020463986,0.036651913,-0.0143553335,6.4144287,-11.172081,-46.103806
887962698000.0,-6.994245245633065,0.9987309090144006,6.788127336871143,-0.02321288,0.027794369,-0.0070249503,6.417991,-11.170701,-46.11151
887967637000.0,-7.022900583629894,0.9885695721233688,6.789956,-0.02321288,0.029321533,-0.008857546,6.424202,-11.168377,-46.123367
887972651000.0,-7.051381055278767,0.9790760815737446,6.789956,-0.0290161,0.022296581,-0.008552114,6.428884,-11.166183,-46.12949
887977610000.0,-7.0549104647100425,0.9544627396216409,6.783564162791726,-0.02443461,0.029932396,-0.0061086523,6.4301786,-11.161774,-46.146084
887982635000.0,-7.050656272701556,0.9246833777934936,6.775055823196606,-0.023518313,0.020158553,-0.00061086525,6.4331145,-11.156272,-46.15537
887987666000.0,-7.051024321737332,0.8798599757073423,6.768307778262669,-0.024740042,0.009162978,0.0076358155,6.4382405,-11.147092,-46.17057
887992692000.0,-7.056001880868666,0.8201292193536711,6.763330219131334,-0.029932396,0.002443461,0.01160644,6.443543,-11.137775,-46.183777
887997698000.0,-7.038972781077868,0.8003417317188428,6.766692464573014,-0.017104227,0.01282817,0.016187929,6.451356,-11.132529,-46.198994
888002896000.0,-7.004451243015653,0.8102050525847038,6.776555790588469,-0.014966198,0.008552114,0.026267206,6.457813,-11.126327,-46.20734
888007602000.0,-6.973551185793358,0.8240387350670033,6.777876758846378,-0.016798794,-0.009773844,0.01985312,6.483155,-11.109969,-46.218803
888012665000.0,-6.940592176752768,0.842872446090503,6.773168336006992,-0.01038471,-0.0143553335,0.0290161,6.4970193,-11.101241,-46.230553
888017637000.0,-6.91819436849636,0.8406618902652497,6.764965527863778,-0.009773844,-0.016798794,0.03726278,6.5111046,-11.09047,-46.231945
888022646000.0,-6.906152692260062,0.8165784413931888,6.752923767801858,-0.004276057,-0.022296581,0.041233405,6.5239763,-11.083006,-46.230854
888027628000.0,-6.892616924942609,0.7957696581046012,6.742072,0.00030543262,-0.02107485,0.04917465,6.528008,-11.078117,-46.225025
888032610000.0,-6.864044143028246,0.8052938806198223,6.742072,0.0015271631,-0.017715093,0.051618114,6.5329647,-11.073328,-46.218536
888037651000.0,-6.83784,0.8183068535745084,6.74159663956252,0.007330383,-0.021991149,0.061391957,6.533139,-11.069915,-46.211697
888042657000.0,-6.83784,0.8636821451719424,6.73655499899043,0.013133603,-0.01740966,0.06078109,6.535122,-11.065069,-46.20889
888047661000.0,-6.842486738115027,0.9040921274758976,6.7317208463430855,0.016187929,-0.0143553335,0.055588737,6.5370913,-11.064515,-46.19798
888052624000.0,-6.866188445478723,0.9238434774069147,6.727770575531915,0.02321288,-0.010995574,0.051923547,6.538165,-11.065922,-46.188545
888057578000.0,-6.889847171708777,0.94355900985871,6.723827468218085,0.022602014,0.00580322,0.052839845,6.528023,-11.075109,-46.18258
888062672000.0,-6.911186547114376,0.9759037233263378,6.730861273557188,0.022602014,0.012217305,0.04886922,6.5223756,-11.083549,-46.17555
888067681000.0,-6.931320834942288,1.0111389372665267,6.740928417471144,0.011911872,0.015271631,0.036957346,6.518364,-11.087889,-46.172855
888072619000.0,-6.929437701754211,1.0443339360909,6.742072,-0.004276057,0.015577064,0.03268129,6.5123215,-11.093077,-46.174347
888077582000.0,-6.9247004185786905,1.077495314053623,6.742072,-0.0030543262,0.014966198,0.032375857,6.50956,-11.097534,-46.176968
888082745000.0,-6.9240313,1.0821792,6.746213154569241,-0.0125227375,0.021991149,0.030543262,6.5053644,-11.096641,-46.18202
888087637000.0,-6.9240313,1.0821792,6.750753389475724,-0.020158553,0.016493361,0.032986723,6.5014415,-11.096937,-46.183033
888092650000.0,-6.916278697980202,1.0938081030296969,6.763277862553744,-0.022907447,0.017715093,0.023518313,6.491907,-11.096114,-46.187996
888097593000.0,-6.906812020167983,1.1080081197480252,6.777477829847015,-0.032375857,0.00580322,0.023518313,6.480366,-11.094803,-46.186684
888102611000.0,-6.9048777,1.081209346977464,6.743254032179127,-0.028099801,0.0036651916,0.029932396,6.4706464,-11.09421,-46.187443
888107611000.0,-6.9048777,1.044158133126995,6.696940075316762,-0.035430185,0.0021380284,0.028405234,6.46567,-11.087838,-46.18563
888118504000.0,-6.871346626547052,0.9923812581838154,6.701376924258513,-0.03268129,-0.0012217305,0.029321533,6.455871,-11.087695,-46.177544
888122635000.0,-6.860931367464115,0.9779523570334928,6.712223713524721,-0.03268129,-0.01038471,0.03145956,6.4473257,-11.085478,-46.1675
