timestamp,acc_x,acc_y,acc_z,gyro_x,gyro_y,gyro_z,ori_azimuth,ori_pitch,ori_roll
2352166446000.0,-1.537153187297177,9.792939973285094,-1.0355747938734614,-1.1713341,0.7458665,0.03359759,327.31506,-114.013664,23.66239
2352171421000.0,-1.5540574722261922,9.773416691314408,-1.065335861270382,-1.1713341,0.75502944,0.036651913,327.07968,-113.863365,23.500618
2352176502000.0,-1.5713219288541973,9.753477435898718,-1.0957310338218906,-1.1896601,0.74097955,0.033292156,327.29562,-113.616936,23.316132
2352181414000.0,-1.5880121494715485,9.734201383428363,-1.1251152274005187,-1.1722504,0.7443393,0.027488936,327.55765,-113.28315,23.026726
2352186395000.0,-1.604936821477865,9.71465455579098,-1.1549121875420387,-1.1768318,0.7431176,0.0290161,327.8275,-112.9605,22.744497
2352191396000.0,-1.621929450408519,9.695029242597933,-1.1848287901655563,-1.1774428,0.7648033,0.027488936,328.09064,-112.64714,22.46634
2352196400000.0,-1.638932272877824,9.675392156571537,-1.2147633391613737,-1.1969905,0.7672467,0.03481932,328.36154,-112.346085,22.196651
2352202283000.0,-1.6589218021717729,9.65230563037384,-1.249956175240989,-1.2024882,0.77366084,0.03940081,328.62555,-112.05394,21.931782
2352206410000.0,-1.6729447135088675,9.63611013596318,-1.2746444014012082,-1.2055426,0.7675522,0.03634648,328.8934,-111.77022,21.67205
2352211408000.0,-1.689927148900871,9.616496595603484,-1.3045430576524264,-1.1814134,0.73456544,0.03023783,329.16818,-111.49592,21.417665
2352216359000.0,-1.7067498855206809,9.59706749629959,-1.3341605540709498,-1.1591167,0.8588765,0.0580322,329.39716,-111.23829,21.17842
2352221402000.0,-1.7238852239924445,9.577277363439656,-1.3643284059066627,-1.2513574,0.86284715,0.03634648,329.6727,-110.97016,20.926249
2352226456000.0,-1.7410579387725935,9.557444063524107,-1.3945620611074745,-1.2275337,0.88178396,0.027488936,329.90616,-110.723595,20.691502
2352231827000.0,-1.759307770803496,9.536366767551334,-1.426692049647949,-1.2275337,0.91354895,0.03176499,330.1347,-110.4798,20.458868
2352236427000.0,-1.7749378634011783,9.518315089749292,-1.4542098205074132,-1.2296717,0.9440922,0.028099801,330.35797,-110.23852,20.225979
2352241405000.0,-1.791852341868844,9.498780034945256,-1.4839888342766336,-1.2321151,1.0045679,0.029932396,330.5627,-110.00676,20.00046
2352246400000.0,-1.808824583722197,9.479178267418908,-1.513869544155552,-1.2333369,1.0775663,0.022296581,330.75452,-109.77774,19.77552
2352252409000.0,-1.8292422416394736,9.455597282220545,-1.5498161278717526,-1.2455542,1.1569787,0.015271631,330.9264,-109.55584,19.55564
2352256420000.0,-1.8428710028154092,9.43985700403272,-1.5738104276363851,-1.2220359,1.2144,-0.00061086525,331.08334,-70.66425,19.33546
2352261413000.0,-1.8598364489763284,9.42026308506194,-1.603679173267104,-1.1337659,1.2458596,-0.012217305,331.22498,-70.87887,19.11906
2352266406000.0,-1.8768018951372476,9.40066916609116,-1.6335479188978228,-1.0803152,1.3084733,-0.01985312,331.3408,-71.09059,18.90378
2352271393000.0,-1.8937469542208647,9.381098792787077,-1.6633807717839422,-0.9669997,1.3680327,-0.02443461,331.449,-71.299866,18.69067
2352276440000.0,-1.9108958840774963,9.361292962816009,-1.6935725521160545,-0.8381071,1.4337007,-0.021380283,331.53757,-71.50431,18.482086
2352281452000.0,-1.927925889316536,9.34162448256735,-1.7235549581046707,-0.72021013,1.4514158,-0.016187929,331.62375,-71.70536,18.277542
2352286380000.0,-1.9446704754733577,9.322285641652469,-1.753034865668897,-0.56046885,1.2260065,-0.049480084,331.7647,-71.913704,18.068409
2352291408000.0,-1.961754846251868,9.302554372959278,-1.7831129856431116,-0.06688975,1.1304061,-0.03390302,331.8619,-72.10707,17.879162
2352296395000.0,-1.9786999053354852,9.282983999655194,-1.812945838529231,0.043676864,1.1038336,-0.006414085,332.0062,-72.300224,17.68793
2352302586000.0,-1.999735971264236,9.258688795900316,-1.84998116883161,-0.0027488936,1.0656544,0.03359759,332.1815,-72.484856,17.508188
2352306554000.0,-2.013218625052845,9.243117261657163,-1.8737182372599483,0.013133603,0.9831876,0.04184427,332.37665,-72.66778,17.329784
2352311432000.0,-2.029793318898822,9.223974634631434,-1.90289903861918,0.015882496,0.895223,0.0571159,332.58325,-72.833046,17.166628
2352316398000.0,-2.046667023211885,9.204486671160794,-1.932606266899202,0.031154128,0.81122905,0.07574729,332.81146,-107.00839,17.008162
2352321391000.0,-2.0636324693728043,9.184892752190011,-1.9624750125299208,0.040317107,0.7254025,0.086132,333.06424,-106.854836,16.852453
2352327478000.0,-2.0843151592949987,9.16100567332457,-1.998888201925912,0.050396383,0.6533204,0.09010262,333.33533,-106.707436,16.700436
2352331443000.0,-2.097787619544957,9.145445911914768,-2.0226073239819504,0.04795292,0.58001655,0.09773844,333.62943,-106.56624,16.552086
2352336418000.0,-2.1146919044739723,9.125922629944082,-2.052368391378871,0.0580322,0.52778757,0.090713486,333.93533,-106.424225,16.400059
2352341400000.0,-2.1316199743265054,9.106371878028911,-2.082171333644491,0.06719518,0.4908302,0.087964594,334.25494,-106.28731,16.25047
2352346392000.0,-2.148582022641208,9.086781883335917,-2.11203409715111,0.082161374,0.47403142,0.08032878,334.58023,-106.14893,16.096498
2352351456000.0,-2.165788715883526,9.066909340642535,-2.14232757359292,0.08857546,0.47739118,0.067500606,334.9065,-106.009895,15.939309
2352356413000.0,-2.182631839580637,9.047456695671944,-2.171980962756043,0.09773844,0.48075095,0.0571159,335.2337,-105.87147,15.779757
2352361388000.0,-2.199536124509652,9.02793341370126,-2.201742030152964,0.10476339,0.50976706,0.04795292,335.5483,-105.731636,15.616595
2352366400000.0,-2.216566129748692,9.0082649334526,-2.2317244361415804,0.10903945,0.5497787,0.035430185,335.8547,-105.58998,15.449316
2352371404000.0,-2.213561389078215,9.007703322250851,-2.2877671193749483,0.12156218,0.61575216,0.029321533,336.1411,-105.45017,15.281799
2352376446000.0,-2.2015209371789544,9.015730457817304,-2.355996430620896,0.11362094,0.68569624,0.014966198,336.4109,-105.30599,15.109155
2352381552000.0,-2.178471470399483,9.03921765898568,-2.415147617174545,0.11789699,0.7519751,0.008857546,336.67862,-105.108406,14.866504
2352386406000.0,-2.1334222526973186,9.09427791848821,-2.4501858453429524,0.11728613,0.8268061,-0.00061086525,336.91943,-104.9121,14.62279
2352391407000.0,-2.0864968790656064,9.173618687972168,-2.448375375139165,0.12736541,0.8943067,-0.01282817,337.11282,-104.70714,14.364786
2352396416000.0,-2.038812692803181,9.2832923860835,-2.395922929582505,0.12889257,0.9486737,-0.026572637,337.2856,-104.50674,14.108894
2352401439000.0,-1.9792967240732184,9.384414183969678,-2.3392562321161137,0.124311075,0.99112886,-0.034208454,337.42496,-104.317085,13.857438
2352406615000.0,-1.9013932107885736,9.47606531977443,-2.2751003413515765,0.13561209,1.0158689,-0.043982297,337.55203,-104.133156,13.607117
2352411339000.0,-1.834511882524077,9.55461374899679,-2.1899605475722312,0.14172074,1.0464121,-0.051618114,337.6453,-103.9575,13.362609
2352416457000.0,-1.775506138081862,9.623453621589086,-2.012943314245586,0.13988814,1.0748174,-0.06047566,337.73163,-103.78788,13.1208315
2352421360000.0,-1.6933843178603007,9.68434489566755,-1.8760379938992044,0.13561209,1.0839803,-0.079107046,337.7755,-103.621216,12.878834
2352426519000.0,-1.528355363296984,9.732882778760192,-1.8323538991158268,0.12003502,1.1102476,-0.09560041,337.80707,-103.46047,12.641885
2352431566000.0,-1.385564439951574,9.7789268381183,-1.8004397,0.11026118,1.1304061,-0.10415252,337.7971,-103.29887,12.406278
2352436505000.0,-1.2996688917675543,9.819829480110688,-1.8004397,0.0983493,1.1490375,-0.121256754,337.7818,-103.13755,12.170526
2352441332000.0,-1.2157211673123487,9.85980458699412,-1.8004397,0.084910266,1.1664472,-0.13500121,337.726,-102.997604,11.957422
2352446394000.0,-1.144068338377114,9.918894073947463,-1.7965266174523211,0.07422013,1.183246,-0.15027285,337.6677,-102.85977,11.745785
2352451604000.0,-1.0722509068369916,9.98173419179561,-1.7920380309103994,0.058948494,1.2073752,-0.14966199,337.60544,-102.7282,11.54168
2352456564000.0,-0.9866433513870028,10.04829003414161,-1.7674809825218236,0.04550946,1.2162327,-0.15424347,337.51172,-102.60406,11.342471
2352461431000.0,-0.89622563214355,10.116103252764306,-1.7358347666246363,0.03145956,1.2162327,-0.1591304,337.41736,-102.485565,11.150169
2352466393000.0,-0.8002999060927526,10.150239610026286,-1.7210246243334586,0.0290161,1.2278391,-0.1459968,337.28806,-102.3766,10.966692
2352472004000.0,-0.6893179396357492,10.165373296657904,-1.7159799918888472,0.01160644,1.2473868,-0.14294247,337.16022,-102.26734,10.785751
2352476429000.0,-0.6121933264549996,10.148613937315258,-1.7118090540413822,0.0012217305,1.244638,-0.1423316,337.0052,-102.1692,10.616391
2352481592000.0,-0.5315571967179696,10.1032562639894,-1.7067693008663745,0.007330383,1.2479976,-0.13744467,336.84756,-102.07954,10.4563
2352486434000.0,-0.4490662413754216,10.049040457630692,-1.72641726278457,-0.0021380284,1.2562444,-0.14019357,336.6566,-101.99548,10.304793
2352491399000.0,-0.358859752953204,9.983891577993257,-1.766509062162732,-0.009162978,1.2696834,-0.121256754,336.46893,-101.92522,10.167296
2352496397000.0,-0.3017556028796085,9.922770001223135,-1.8024912737899703,-0.028405234,1.2751812,-0.11301007,336.2552,-101.86222,10.037304
2352501425000.0,-0.2638934977529268,9.863873522103791,-1.836146454918749,-0.036957346,1.2977833,-0.09590584,336.03876,-101.8117,9.921936
2352506384000.0,-0.2298536341987335,9.813048516804676,-1.873844745776912,-0.04337143,1.3200798,-0.095294975,335.7954,-101.77333,9.816115
2352511421000.0,-0.2016577938236727,9.77545380126644,-1.920837821246956,-0.05467244,1.3377949,-0.080634214,335.55344,-101.74447,9.72496
2352516362000.0,-0.167667988249554,9.744901660300137,-1.9651016650435515,-0.06811147,1.3695599,-0.07971791,335.2799,-101.720116,9.634958
2352521406000.0,-0.1169749307325007,9.729693965893588,-2.005656081414629,-0.086437434,1.395827,-0.070554934,335.00955,-101.70209,9.5568695
2352526383000.0,-0.0793777636342347,9.715348952606636,-2.054130255422358,-0.09254608,1.4175128,-0.062002823,334.71225,-101.68241,9.475686
2352531447000.0,-0.0613508328107053,9.701828952606636,-2.117224561304712,-0.10170906,1.4422529,-0.049785517,334.41327,-101.66567,9.404212
2352536382000.0,-0.04518109679902,9.697134791751736,-2.1751701340302163,-0.115453534,1.4697418,-0.048258353,334.096,-101.65733,9.340105
2352541847000.0,-0.0323585786797876,9.722779454879545,-2.226460174373213,-0.11759156,1.4844025,-0.048258353,333.78214,-101.65467,9.284152
2352546344000.0,-0.0218072769447121,9.743881751327072,-2.268665354871376,-0.12980886,1.491122,-0.04886922,333.46252,-101.65045,9.229656
2352551431000.0,-0.0049481964926884,9.788253943757027,-2.346755720922385,-0.116675265,1.496009,-0.04886922,333.1457,-101.652954,9.180343
2352556675000.0,0.0138822406681664,9.840037706411698,-2.436200281214848,-0.10140363,1.4953982,-0.0571159,332.8346,-101.654076,9.132899
2352561431000.0,0.0221787401531367,9.845458753578631,-2.476364921289269,-0.095294975,1.4902058,-0.055588737,332.52164,-101.66281,9.088651
2352566409000.0,0.0267587517073686,9.83171891882025,-2.499264964713229,-0.09621128,1.4853189,-0.06994407,332.2142,-101.66963,9.041822
2352571399000.0,0.0362636218548535,9.810737554337814,-2.564366768032787,-0.07880162,1.4798211,-0.0693332,331.90884,-101.69235,9.000062
2352576459000.0,0.0496524526892613,9.783959818106466,-2.6625515057377047,-0.058643065,1.4590516,-0.084910266,331.61432,-101.710556,8.953136
2352581493000.0,0.0516663526975213,9.74902805577072,-2.652210695197521,-0.051618114,1.4422529,-0.09437868,331.3168,-101.72852,8.905818
2352586465000.0,0.0378352481041828,9.70292440588691,-2.4908479206041827,-0.02443461,1.4208726,-0.094989546,331.03244,-101.75425,8.859869
2352591413000.0,0.0086559790781103,9.664210655438524,-2.386297868912296,-0.015577064,1.4037683,-0.09712757,330.75137,-101.78436,8.810535
2352596417000.0,-0.0513156641297319,9.63922248816352,-2.391295502367296,0.008552114,1.3704761,-0.09132435,330.48734,-101.82548,8.765894
2352601398000.0,-0.0996857783415546,9.628064697397518,-2.4397457813488685,0.027794369,1.3377949,-0.086132,330.2154,-101.85245,8.720862
2352606723000.0,-0.1343831758156149,9.636739221126042,-2.5568494514033,0.035430185,1.29198,-0.07880162,329.96292,-101.88458,8.679891
2352611530000.0,-0.1687525942804814,9.647561793999651,-2.636421594758416,0.058948494,1.2461652,-0.061391957,329.71432,-101.918076,8.628299
2352616470000.0,-0.2347695806750392,9.688822383568812,-2.454874871402408,0.06169739,1.205848,-0.0580322,329.48264,-101.94875,8.576778
2352621393000.0,-0.3005593831083202,9.72994098325484,-2.2739529039769755,0.07513642,1.1670581,-0.05589417,329.2734,-101.99127,8.517105
2352626395000.0,-0.3719340118193034,9.774550097086458,-2.266333097086457,0.09040806,1.1242975,-0.056199603,329.0819,-102.03589,8.459231
2352631457000.0,-0.4455455418373351,9.820557273322578,-2.3123402733225773,0.090713486,1.0952814,-0.05100725,328.90268,-102.08239,8.405619
2352636606000.0,-0.4969388193777595,9.873434207926891,-2.4101898475613512,0.09896017,1.0662653,-0.061086524,328.7217,-102.10932,8.337693
2352641482000.0,-0.5352971933874114,9.926176516582812,-2.525264899496868,0.103847094,1.054048,-0.057726767,328.54962,-102.140144,8.277641
2352646417000.0,-0.574320551309863,9.940725,-2.50960309731593,0.129198,1.0323622,-0.06414085,328.3952,-102.16996,8.196956
2352651464000.0,-0.6143065001847596,9.940725,-2.4429599187792994,0.1386664,1.0302242,-0.064751714,328.24335,-102.20051,8.122588
2352656408000.0,-0.6478990903935563,9.91961865538336,-2.373780714579935,0.13530666,1.0143417,-0.067500606,328.10214,-102.23163,8.029281
2352661420000.0,-0.6772622511235726,9.880468026508971,-2.3003727488784667,0.15149458,1.0100657,-0.07147124,327.96228,-102.270195,7.9396763
2352666397000.0,-0.7069863156375132,9.846654723603791,-2.266793761106428,0.16615535,1.0079277,-0.07819075,327.82126,-102.29472,7.8411045
2352671393000.0,-0.7372364902212856,9.816404443730242,-2.261752117987355,0.18295415,1.0015136,-0.0870483,327.68646,-102.323906,7.7442575
2352676418000.0,-0.7500823518910741,9.79737577344932,-2.250852044326777,0.19272798,0.98807454,-0.08857546,327.54126,-102.3481,7.642373
2352681827000.0,-0.7549803200453857,9.782682073562784,-2.236158139863843,0.20005837,0.9935723,-0.10170906,327.39575,-102.37368,7.539298
2352686384000.0,-0.7455509421743589,9.77792,-2.22588762108718,0.20922135,0.9963212,-0.1020145,327.2479,-102.403336,7.4328732
2352691403000.0,-0.7258315742974358,9.77792,-2.216027937148718,0.20769419,0.9969321,-0.10903945,327.10248,-102.43066,7.3251247
2352696393000.0,-0.7182605,9.793760432274322,-2.2228026514265142,0.20158553,0.9950995,-0.11301007,326.9488,-102.459045,7.2166834
2352701422000.0,-0.7182605,9.819768115561155,-2.240141046602466,0.19608775,0.99173975,-0.11728613,326.7993,-102.48762,7.110178
2352706375000.0,-0.7182605,9.831788347880904,-2.2361792916302976,0.18020524,0.9935723,-0.11911872,326.6487,-102.5111,7.008201
2352711411000.0,-0.7182605,9.822433334400156,-2.1987600191639998,0.18173242,0.99296147,-0.11575896,326.50403,-102.53885,6.910068
2352716334000.0,-0.7120398070827345,9.82866832087867,-2.1754903732293163,0.16676621,0.98868537,-0.1142318,326.35938,-102.5658,6.8144784
2352721392000.0,-0.6921508912954218,9.8684459447752,-2.1804626021761444,0.160963,0.9798279,-0.11209377,326.22052,-102.59686,6.7234693
2352726412000.0,-0.6687778087626436,9.90122264103734,-2.18770280593201,0.14782938,0.9801333,-0.112704635,326.06702,-102.620544,6.631345
2352731398000.0,-0.6397261928557305,9.92301141174234,-2.198597153365275,0.13316862,0.97066486,-0.113926366,325.92267,-102.64354,6.5422115
2352736337000.0,-0.6109484289238726,9.944594792912008,-2.2093888063883185,0.129198,0.9837985,-0.108123146,325.77054,-102.6684,6.460437
2352741405000.0,-0.585442976848798,9.932406151798132,-2.2229799089211206,0.10445796,0.98654735,-0.10629055,325.62756,-102.68453,6.379616
2352746322000.0,-0.5620527697476654,9.909015964236042,-2.237014021458375,0.09132435,0.98532563,-0.10751228,325.4859,-102.70354,6.3034043
2352751529000.0,-0.5443374855753647,9.883889142625607,-2.237267028525122,0.08460484,0.9868528,-0.116980694,325.33563,-102.71973,6.230517
2352756398000.0,-0.5301672751215559,9.860272125202592,-2.2325436250405186,0.061391957,0.98654735,-0.113926366,325.19052,-102.730644,6.16381
2352761372000.0,-0.5046540660506585,9.880282840729482,-2.216682464518744,0.051618114,0.9972375,-0.12217305,325.034,-102.74205,6.093544
2352766366000.0,-0.4755801415602836,9.914202574468083,-2.197299875177305,0.021685716,0.9969321,-0.1133155,324.88553,-102.745865,6.031435
2352771402000.0,-0.4659649499285154,9.91497471519484,-2.1831930794525323,-0.0012217305,1.003957,-0.11301007,324.71988,-102.75244,5.9683404
2352776403000.0,-0.4617897667021183,9.90662416563508,-2.170667516694272,-0.03176499,1.0064005,-0.100792766,324.5605,-102.75273,5.9137993
2352781391000.0,-0.4621777850474083,9.875016313843236,-2.149412054108723,-0.05497787,1.0030408,-0.100792766,324.39066,-102.74717,5.8600316
2352786405000.0,-0.4672365740339232,9.819369471238938,-2.119059288495575,-0.08307768,1.0027353,-0.08735373,324.22424,-102.736565,5.8165374
2352791395000.0,-0.4748794313829055,9.754953730598997,-2.1153214538802008,-0.1142318,0.98899084,-0.09468412,324.04718,-102.7181,5.764217
2352797236000.0,-0.4858833020261631,9.67242483003836,-2.131827233992328,-0.12889257,0.99387777,-0.084910266,323.87024,-102.701416,5.7242227
2352801397000.0,-0.5138637381713531,9.597438718060012,-2.1585299078316664,-0.15485434,0.9935723,-0.083383106,323.689,-102.66988,5.6764693
2352806655000.0,-0.5613772895225515,9.492909301000187,-2.2012920638611058,-0.15882497,0.9944886,-0.07147124,323.51047,-102.64377,5.6372867
2352811405000.0,-0.618304903418694,9.40861211331626,-2.251389610115237,-0.17867808,0.98899084,-0.070554934,323.33356,-102.61382,5.5967236
2352816399000.0,-0.6948518931370039,9.332064622705934,-2.317730413401622,-0.183565,0.9801333,-0.06963864,323.16132,-102.58913,5.561763
2352821407000.0,-0.7508926749704974,9.286270467266087,-2.374496545265524,-0.18142697,0.98349303,-0.06811147,322.9857,-102.57123,5.519054
2352826403000.0,-0.7912234359483001,9.263864504542472,-2.423789616465299,-0.19486602,0.9786061,-0.076052725,322.8177,-102.54795,5.475448
2352831376000.0,-0.8450463320868516,9.253262892641736,-2.459933897828709,-0.18203785,0.95478237,-0.086132,322.66284,-102.54194,5.4207635
2352836578000.0,-0.9201647913027744,9.258270889626054,-2.4799654674306395,-0.17562376,0.93767816,-0.09773844,322.51028,-102.530594,5.366188
2352841412000.0,-0.9768001193253968,9.267145043650793,-2.5112135411507936,-0.17348573,0.9114109,-0.106595986,322.37027,-102.527565,5.300084
2352846391000.0,-1.0193741751488097,9.28133618154762,-2.558518140922619,-0.15577064,0.89949906,-0.11636983,322.23376,-102.529625,5.233278
2352851391000.0,-1.0457886167979005,9.302918597769027,-2.602987531167979,-0.1469131,0.8738427,-0.12461651,322.1059,-102.52538,5.1445823
2352856394000.0,-1.0502798738657668,9.334358053805774,-2.6434087978815146,-0.13836098,0.8378017,-0.14202617,321.98657,-102.524826,5.052764
2352861429000.0,-1.0520501504124211,9.364932780688989,-2.687314260067928,-0.12186762,0.8072584,-0.15974127,321.8804,-102.535034,4.9531994
2352866898000.0,-1.0469676157981562,9.39542756380398,-2.7432221938961665,-0.108123146,0.7825184,-0.1731803,321.7852,-102.54664,4.8518357
2352871351000.0,-1.0406059796352582,9.420533040729484,-2.775096649300912,-0.1001819,0.7519751,-0.18906279,321.69144,-102.56304,4.737113
2352877080000.0,-1.0239294817122593,9.45388603657548,-2.763978964670719,-0.092240654,0.7263188,-0.19272798,321.6064,-102.58436,4.624856
2352881392000.0,-1.022815669641434,9.476943541567064,-2.751542450119522,-0.08246681,0.69913524,-0.20708331,321.5249,-102.6151,4.5036483
2352886402000.0,-1.052550851314741,9.498182925365208,-2.726055189561753,-0.07727446,0.6762278,-0.21991149,321.4523,-102.647675,4.384527
2352891728000.0,-1.0830460431436313,9.520501784823848,-2.697770022854562,-0.08002335,0.66248333,-0.23548855,321.37674,-102.67457,4.2593307
2352896394000.0,-1.0951558937669377,9.53664816802168,-2.657403854110208,-0.08093964,0.6365216,-0.2443461,321.31348,-102.70404,4.134408
2352901392000.0,-1.1081273968563683,9.553943415176152,-2.6141655104787715,-0.086132,0.60048056,-0.25625798,321.2528,-102.72376,3.9972882
2352906592000.0,-1.1332047964658334,9.64683394106589,-2.467404577996052,-0.09621128,0.559858,-0.2611449,321.2032,-102.743416,3.8620658
2352911343000.0,-1.1588647960804588,9.749474118150202,-2.309168055117962,-0.1142318,0.52687126,-0.27855456,321.16245,-102.75908,3.7224655
2352916410000.0,-1.2176094608934491,9.784214336339138,-2.2374192195688223,-0.12583824,0.48288897,-0.28619036,321.13248,-102.772606,3.5846543
2352921409000.0,-1.2920411408167496,9.779252124170812,-2.217570785406302,-0.13805555,0.4382958,-0.29871312,321.1125,-102.78118,3.4426305
2352926400000.0,-1.3187943746729969,9.757604605270808,-2.2122424,-0.15027285,0.40042216,-0.29626966,321.08234,-102.75862,3.2945588
2352931622000.0,-1.3284853057068111,9.728531710977618,-2.2122424,-0.15851954,0.37048978,-0.3036,321.06238,-102.73507,3.142183
2352936636000.0,-1.3246425638591115,9.68779081929556,-2.205708763859112,-0.17134771,0.35460728,-0.2947425,321.05542,-102.70344,2.982617
2352941468000.0,-1.31578439050536,9.6434999525268,-2.19685059050536,-0.16615535,0.34208453,-0.28710666,321.05646,-102.6774,2.8233936
2352946396000.0,-1.2992250280643065,9.609333892296256,-2.1905292909580893,-0.1695151,0.33169982,-0.2864958,321.0595,-102.6474,2.662748
2352951393000.0,-1.2769894693151194,9.582651184648268,-2.186082188495493,-0.17684549,0.31887165,-0.27305678,321.06894,-102.62212,2.5109458
2352956694000.0,-1.2573848268192889,9.573983814223087,-2.1564972602630297,-0.17654006,0.30879238,-0.26847526,321.07834,-102.59944,2.360279
2352961484000.0,-1.2439782397759376,9.587390681246957,-2.1028708187627863,-0.16249016,0.29871312,-0.25289822,321.09372,-102.582756,2.2193725
2352966459000.0,-1.2392396211544494,9.609371204015478,-2.072421761162815,-0.18509217,0.27030787,-0.24740042,321.11124,-102.558304,2.0804837
2352971411000.0,-1.2491579132385235,9.644084915612256,-2.082340156812716,-0.17104226,0.2519819,-0.24709499,321.13022,-102.55116,1.947966
2352976411000.0,-1.2744081653244947,9.67743189229888,-2.076918627874621,-0.17989981,0.24098633,-0.24312437,321.14197,-102.52344,1.8170154
2352981492000.0,-1.3182135042965872,9.709290539896882,-2.053024746133071,-0.17837265,0.22815818,-0.24129178,321.15994,-102.50508,1.6876866
2352986617000.0,-1.3623159452498403,9.74041611508328,-2.0275524070396376,-0.17256944,0.20677789,-0.24556783,321.18964,-102.48395,1.5570699
2352991457000.0,-1.4026662255585862,9.75386620851953,-1.9818220612674828,-0.17592919,0.17806722,-0.23762658,321.22638,-102.46363,1.4323798
2352996404000.0,-1.4439085471882074,9.767613649062737,-1.935080734710696,-0.17867808,0.14813483,-0.2312125,321.26218,-102.43887,1.2919629
2353001440000.0,-1.485892847112762,9.781608415704254,-1.88749849890314,-0.17928895,0.121256754,-0.22724187,321.3059,-102.41677,1.1550409
2353007076000.0,-1.4871269453995513,9.79406945594692,-1.844472983559372,-0.1600467,0.09437868,-0.21563543,321.35916,-102.40266,1.0235854
2353011499000.0,-1.466462399395063,9.802335015416135,-1.815542619153088,-0.16646078,0.07238753,-0.20586158,321.41885,-102.38369,0.8945982
2353016383000.0,-1.41411231582397,9.827431069756551,-1.7842765841292136,-0.17959438,0.048563786,-0.2012801,321.48123,-102.360115,0.7558045
2353021442000.0,-1.3324565505243446,9.868258810299626,-1.752521553764045,-0.19303341,0.016187929,-0.19242255,321.553,-102.33756,0.6222151
2353026420000.0,-1.2609461333333334,9.902249859649125,-1.7239932140350878,-0.19150625,-0.0030543262,-0.17989981,321.62558,-102.312485,0.4985708
2353031409000.0,-1.203242443478261,9.926546340389017,-1.699696923569794,-0.19761491,-0.018325957,-0.16829337,321.70627,-102.28417,0.3782449
2353036474000.0,-1.1446597236714977,9.951212941901856,-1.6750305152301042,-0.20922135,-0.03390302,-0.14874569,321.77966,-102.24663,0.2757324
2353041342000.0,-1.0738364580881008,9.96749193602632,-1.6577696114787055,-0.22296582,-0.03848451,-0.1459968,321.85345,-102.209175,0.17390713
2353046425000.0,-0.9492696970023762,9.958594131054651,-1.6622184210564797,-0.23671028,-0.04520403,-0.1386664,321.93304,-102.17096,0.07995422
2353051437000.0,-0.8241512446014828,9.951034241658943,-1.6678288782205746,-0.23823744,-0.049480084,-0.11789699,322.00125,-102.124,0.0059490935
2353056321000.0,-0.6637614767238184,9.96403885352178,-1.6938380114179796,-0.25320363,-0.047036625,-0.10048734,322.06897,-102.07166,-0.065120734
2353061246000.0,-0.5020252754958295,9.977152635959222,-1.720065485004634,-0.26908615,-0.033292156,-0.087964594,322.12717,-102.01716,-0.10735867
2353066319000.0,-0.3979468964613661,9.970517450167971,-1.6642194955207168,-0.28008172,-0.007330383,-0.07452556,322.1814,-101.961876,-0.14266743
2353071255000.0,-0.3065133982551155,9.960892928535072,-1.596847442095083,-0.30268374,0.01160644,-0.06352998,322.2334,-101.90085,-0.17393613
2353076323000.0,-0.2246851917472699,9.98535995046802,-1.6067371411856473,-0.30115658,0.035124753,-0.060170226,322.26465,-101.84338,-0.17279892
2353081253000.0,-0.1464254218954758,10.01298112148986,-1.6251511911076442,-0.32742378,0.055588737,-0.025350908,322.2929,-101.77339,-0.15891308
2353086306000.0,-0.0969799943823618,10.021461568257324,-1.63630049474479,-0.35277468,0.07666359,-0.016187929,322.2972,-101.694405,-0.1354035
2353091234000.0,-0.0542184350645323,10.02621270004027,-1.6458030559851002,-0.35643986,0.106901415,-0.011911872,322.29407,-101.616295,-0.10241362
2353096315000.0,-0.0440218873568449,9.996019318657892,-1.6317621294930025,-0.34483343,0.13988814,-0.014966198,322.26578,-101.537056,-0.06157075
2353101369000.0,-0.0395357280770228,9.960130016312911,-1.6138175017425156,-0.33567044,0.15851954,-0.015577064,322.23297,-101.45829,-0.018689105
2353106332000.0,-0.0564808170431601,9.910320053552493,-1.5979993534888657,-0.32711834,0.18570304,-0.005497787,322.18027,-101.38806,0.03457783
2353111236000.0,-0.0813825453392364,9.85553618504772,-1.5830583268080596,-0.3136793,0.20830505,0.011911872,322.12396,-101.32356,0.08956942
2353116315000.0,-0.1423314734871843,9.796302338503736,-1.5652024259056088,-0.3051272,0.25442538,0.03359759,322.05023,-101.2568,0.1475015
2353121710000.0,-0.2156316796254611,9.732775741511396,-1.54565576890192,-0.30176744,0.28008172,0.059864793,321.97742,-101.19389,0.21067937
2353126305000.0,-0.2793989983774214,9.68506214184545,-1.5170881253697146,-0.29901853,0.30879238,0.06994407,321.88943,-101.135284,0.27194327
2353131441000.0,-0.3511143431805874,9.6338369337638,-1.4812303727348468,-0.31031954,0.32406402,0.07971791,321.8001,-101.074875,0.33998656
2353136318000.0,-0.3905695037305491,9.639919964963358,-1.4405628499347454,-0.312763,0.34208453,0.089186326,321.6987,-101.01378,0.39070347
2353141275000.0,-0.423930168471037,9.658983091055116,-1.3976705922899306,-0.33841935,0.34513888,0.08735373,321.5982,-100.94402,0.44047633
2353146321000.0,-0.4235480862916787,9.73337587938533,-1.3738205880545085,-0.34422258,0.34208453,0.09193522,321.4988,-100.87244,0.4793192
2353151325000.0,-0.4142850424644824,9.821374607132505,-1.3552945197448536,-0.3555236,0.32559118,0.08735373,321.40283,-100.79352,0.5144602
2353156377000.0,-0.3877639630186491,9.96515051318968,-1.353763900376848,-0.36865717,0.31856623,0.08368854,321.30984,-100.70487,0.5465992
2353161387000.0,-0.3553107234399459,10.127416614262248,-1.358400074693207,-0.36865717,0.3100141,0.0852157,321.22275,-100.61884,0.57799745
2353166404000.0,-0.3158840617490607,10.282833308384417,-1.3566976050227406,-0.3744604,0.31795537,0.0852157,321.1299,-100.52172,0.60883397
2353171434000.0,-0.2730185201137037,10.435244695570496,-1.3519347709313825,-0.38606682,0.32406402,0.09254608,321.04114,-100.425354,0.6416448
2353177703000.0,-0.1897869466748454,10.51669794817941,-1.2815429721856904,-0.38728857,0.33414328,0.11942416,320.95187,-100.32811,0.6886892
2353181384000.0,-0.134429645262538,10.540916536559036,-1.2261856671606637,-0.40530908,0.32559118,0.13225232,320.8664,-100.22519,0.7329453
2353186480000.0,-0.0199360063567399,10.50946402820463,-1.076350405866563,-0.41538838,0.29657507,0.1685988,320.7823,-100.12024,0.79664594
2353192192000.0,0.134350991192375,10.429660466251702,-0.858220480980354,-0.4166101,0.22785273,0.21746802,320.71347,-100.01631,0.86441886
2353196363000.0,0.3061417298661909,10.360156957181088,-0.6916743980374666,-0.453262,0.12858713,0.27183503,320.65176,-99.88982,0.9535094
2353201507000.0,0.5551672005689364,10.267382426504112,-0.48171176686292,-0.47219884,0.018936822,0.33078352,320.6147,-99.773415,1.0522225
2353206645000.0,0.8429504858641853,10.155168808552762,-0.2889632239845575,-0.50610185,-0.119729586,0.40133846,320.5939,-99.62221,1.1897781
2353211410000.0,1.1365731159869334,10.037719954612948,-0.1218241495888932,-0.56321776,-0.26297748,0.46914452,320.6062,-99.4675,1.3349496
2353216375000.0,1.42019232,9.923344210829818,0.0150606851695264,-0.6160576,-0.4092797,0.56321776,320.6288,-99.28724,1.5413651
2353221399000.0,1.6863638399999998,9.81507100464135,0.1188224462917018,-0.68203104,-0.54733527,0.657291,320.68835,-99.10189,1.7562981
2353226427000.0,1.9169026360663783,9.719533423802044,0.1838128131893165,-0.72326446,-0.6728681,0.7761043,320.74255,-98.90733,2.04329
2353231465000.0,2.092194711105656,9.643731905341712,0.1885504328279654,-0.7635816,-0.766025,0.8732319,320.82288,-98.71867,2.3396208
2353236378000.0,2.2125602666402457,9.61080296552066,0.1832905693005053,-0.79290307,-0.8038987,0.98715824,320.89206,-98.543755,2.7091482
2353241405000.0,2.24117965053007,9.6537319417418,0.1594410677836124,-0.8014552,-0.86498517,1.0424415,320.98706,-98.39511,3.0760083
2353246328000.0,2.2079819134732714,9.712107253849506,0.1325575279154561,-0.8023715,-0.8933904,1.1392636,321.0674,-98.295715,3.5054367
2353251398000.0,2.042231100501162,9.80732552157176,0.0972913959601975,-0.81245077,-0.90133166,1.208597,321.15115,-98.229485,3.930743
2353258937000.0,1.72518533552647,9.97743080855636,0.0503310851088103,-0.79351395,-0.8552113,1.2544118,321.2323,-98.2132,4.371831
2353261422000.0,1.241686611405548,10.186637079800745,0.064278165327603,-0.7620544,-0.8393288,1.2492194,321.3156,-98.23314,4.80518
2353266394000.0,0.274300029381715,10.605217997558118,0.0921835507794491,-0.75716746,-0.7870999,1.2238685,321.4019,-98.27596,5.2068915
2353271392000.0,-0.3949814049861906,10.92293262990728,0.0401851849970408,-0.754724,-0.70524395,1.1704178,321.46573,-98.34325,5.5897126
2353277556000.0,-0.8899184838459262,11.202426070822646,-0.1112073366758729,-0.7458665,-0.6017023,1.0913107,321.49936,-98.42348,5.949932
2353281519000.0,-1.1066114352516525,11.29576873817997,-0.243985089576004,-0.7293731,-0.5681047,1.0708468,321.63736,-98.42719,6.1654263
2353286578000.0,-1.318437500671073,11.35980996847992,-0.4361064348693441,-0.7147123,-0.49480084,1.0085385,321.72574,-98.41778,6.345744
2353291404000.0,-1.4154832099661825,11.361181722697436,-0.5812532760970758,-0.66431594,-0.41141775,0.945314,321.8606,-98.39412,6.458866
2353296395000.0,-1.4297455856872885,11.31364063576686,-0.7001060728506067,-0.5870415,-0.32436943,0.8604037,321.96707,-98.364555,6.5469956
2353301387000.0,-1.349476771983939,11.24753371856178,-0.7771834508030663,-0.49571714,-0.2434298,0.795652,322.09363,-98.33585,6.5907483
2353306484000.0,-1.1802038112064246,11.162896912575286,-0.8172744396787736,-0.4202753,-0.14966199,0.7309003,322.18634,-98.30046,6.6113806
2353311433000.0,-1.009337637452988,11.049251005014623,-0.8068519673004597,-0.34391713,-0.03726278,0.6771441,322.27097,-98.28132,6.617852
2353316399000.0,-0.8255033420706226,10.875353845800252,-0.7025135680108651,-0.30604348,0.07360926,0.6227771,322.32568,-98.25398,6.60737
2353321357000.0,-0.686724546268797,10.710836170018798,-0.547038140743421,-0.26206118,0.17287487,0.5757405,322.34375,-98.253555,6.613459
2353327538000.0,-0.5921472876503759,10.521681885150375,-0.2633063706973684,-0.26328292,0.24740042,0.52442783,322.33517,-98.238396,6.604698
2353331435000.0,-0.5554548,10.405057042082616,-0.0877514070542168,-0.26816985,0.2883284,0.4978552,322.29474,-98.241165,6.626702
2353336412000.0,-0.5554548,10.26149115111876,0.1296478805783132,-0.29016098,0.2773328,0.49235737,322.2477,-98.23408,6.640409
2353341753000.0,-0.5538563297396596,10.107731324809366,0.3578294318909343,-0.2883284,0.23793201,0.5027421,322.18372,-98.22766,6.6803446
2353346395000.0,-0.5161908528437187,9.981038298236156,0.4400086639605638,-0.28252518,0.2180789,0.49663344,322.11737,-98.21421,6.713487
2353351487000.0,-0.474874047941924,9.842063526303628,0.5301544308064392,-0.2733622,0.17440203,0.47525316,322.05798,-98.18617,6.7564154
2353356400000.0,-0.361455545833809,9.771846115061567,0.5870919389806736,-0.2507602,0.14080444,0.44318274,322.0014,-98.15919,6.7931285
2353361416000.0,-0.1225031594944141,9.807101277419882,0.5949264376840904,-0.19761491,0.1142318,0.41691554,321.95526,-98.136406,6.8235073
2353366375000.0,0.1137338588183968,9.841955812933216,0.6026719079931502,-0.16920967,0.07849618,0.39767328,321.9207,-98.113976,6.8648195
2353371402000.0,0.2814507529837251,9.920636358047018,0.5834232356600362,-0.12736541,0.035124753,0.3930918,321.89587,-98.10043,6.900999
2353376418000.0,0.4421540730198915,10.00315976238698,0.5617065679710669,-0.1160644,-0.024740042,0.3915646,321.8859,-98.08378,6.9304757
2353381650000.0,0.6235400519996079,10.076698698980591,0.5163402766163497,-0.09285152,-0.10476339,0.40622538,321.87885,-98.114265,7.0084324
2353386401000.0,0.7930144203734562,10.139136720986082,0.467281907926877,-0.0842994,-0.1994475,0.41599923,321.8926,-98.14331,7.081337
2353391400000.0,0.968648363062088,10.192427801239791,0.3589460374722031,-0.06811147,-0.29871312,0.43768495,321.93295,-98.2102,7.18954
2353396391000.0,1.1426639512643904,10.23945900147594,0.2225554536573846,-0.06261369,-0.4120286,0.45142943,322.00293,-98.2768,7.2933755
2353401690000.0,1.352749350613813,10.281623437822136,0.0138792348514666,-0.055588737,-0.5012149,0.4636467,322.10464,-98.379135,7.4315186
2353406412000.0,1.5519264612688597,10.315526167650642,-0.2022491256658232,-0.052534413,-0.56596667,0.47158796,322.22867,-98.48219,7.5664515
2353411404000.0,1.7871084585178876,10.341040819846675,-0.492351059318569,-0.048563786,-0.5992588,0.47891834,322.3864,-98.6223,7.730268
2353416397000.0,2.0467621083901197,10.356314338798978,-0.8436471413287905,-0.03726278,-0.58551437,0.46395215,322.54358,-98.755936,7.8838377
2353421398000.0,2.344217828503389,10.353926502106614,-1.1349542127679062,-0.025350908,-0.5360342,0.45540005,322.72293,-98.93169,8.068937
2353426416000.0,2.665532943377908,10.34072196464554,-1.3902456291994871,-0.031154128,-0.47067168,0.4260785,322.8865,-99.09117,8.23738
2353431531000.0,2.9831557748209536,10.25143399140577,-1.6552001801514222,-0.022907447,-0.41538838,0.40775254,323.05927,-99.2902,8.429046
2353436410000.0,3.27477017045222,10.079333181706568,-1.9133506958461224,-0.015271631,-0.2843578,0.38362336,323.18442,-99.47198,8.60631
2353441402000.0,3.5954799239867907,9.914394455819073,-2.08422478412889,-0.025350908,-0.11453723,0.34208453,323.28625,-99.68998,8.815299
2353447328000.0,4.004381573881717,9.732660824076854,-2.1694127093965774,-0.030848695,0.05497787,0.30695978,323.34525,-99.8972,9.014963
2353451415000.0,4.178564072769142,9.601435514680484,-2.1829992525043176,-0.020158553,0.2284636,0.28588495,323.34903,-100.13351,9.239617
2353456541000.0,4.305742176381693,9.431864734455958,-2.161802932642487,-0.022907447,0.3943135,0.26145032,323.3039,-100.35233,9.452007
2353461340000.0,4.424807279627231,9.27311128648532,-2.1419587775474955,-0.015882496,0.54733527,0.24312437,323.18967,-100.60849,9.709668
2353466389000.0,4.440136992449568,9.105953638808838,-2.0126437215754085,-0.013133603,0.68966687,0.22571471,323.03113,-100.853455,9.959763
2353471388000.0,4.407944729020173,8.940393577809798,-1.83788578870317,-0.008552114,0.78893244,0.20952678,322.84195,-101.09092,10.20342
2353476438000.0,4.073324632649713,8.772979452556742,-1.438256345299426,0.011301007,0.8512407,0.20799962,322.60873,-101.35533,10.479722
2353481684000.0,3.537541916488925,8.59896488433142,-0.8841563529778508,0.01038471,0.893085,0.2003638,322.35486,-101.60867,10.747673
2353486498000.0,3.1527351389428464,8.485659596563318,-0.518505210384759,0.035430185,0.9251554,0.18020524,322.07584,-101.85915,11.017832
2353491400000.0,2.8853018778109822,8.424281136346657,-0.3124500340829286,0.0580322,0.9502009,0.17440203,321.78964,-102.10796,11.287035
2353496332000.0,2.6160456817853923,8.354693564372308,-0.1114645933754132,0.0842994,1.0048733,0.17501289,321.49915,-102.2893,11.507397
2353501435000.0,2.3369539150586114,8.26166261757339,0.0794929643252179,0.09865474,1.0928379,0.1695151,321.19247,-102.46594,11.721922
2353506396000.0,2.0935964439814816,8.193445329861111,0.2536967084837963,0.12156218,1.2024882,0.16554448,320.87845,-102.61435,11.911219
2353511413000.0,1.9156451572839508,8.178616146296298,0.4019894306234568,0.12614368,1.3093897,0.16187929,320.54086,-102.759544,12.097937
2353516395000.0,1.7389353087037038,8.163890415277779,0.5492476211157407,0.1282817,1.3912456,0.15271631,320.187,-102.870834,12.253102
2353521410000.0,1.5558504053930369,8.17150103006102,0.7173985754935391,0.12492194,1.4517213,0.15302174,319.81097,-102.98388,12.410014
2353526417000.0,1.3708274227207466,8.188712367910984,0.8938158263388369,0.12889257,1.4813483,0.13958271,319.42273,-103.09187,12.559908
2353531446000.0,1.185313930314838,8.204913823254364,1.048530987468828,0.13958271,1.4844025,0.11453723,319.01953,-103.161995,12.674501
2353536407000.0,1.0026570394326684,8.219724140274314,1.1768844908977556,0.14110987,1.4724907,0.10323623,318.61584,-103.23342,12.788744
2353541382000.0,0.8831061866787642,8.243401565512748,1.2547506589521682,0.14355333,1.4401149,0.08552113,318.20108,-103.26027,12.858658
2353546454000.0,0.8153039162897823,8.27504233082077,1.2909119044388608,0.15943582,1.409877,0.06505715,317.79297,-103.28647,12.924203
2353551434000.0,0.7649050462135515,8.293514,1.3066144160478288,0.1591304,1.3860532,0.058337633,317.3884,-103.28298,12.959826
2353556666000.0,0.7368757430878959,8.293514,1.292599746192574,0.16737708,1.3545936,0.042455133,316.99835,-103.27518,12.9865465
2353561727000.0,0.7097625353052234,8.293514,1.279043124606671,0.1685988,1.3359623,0.031154128,316.61838,-103.255325,13.000257
2353566467000.0,0.7562561359219089,8.350663531453362,1.2846008885032538,0.1777618,1.3277156,0.03481932,316.2484,-103.23864,13.013755
2353571468000.0,0.8601468407003409,8.454554773473815,1.3043896300898667,0.16707164,1.3151928,0.018020526,315.88855,-103.21458,13.018283
2353577384000.0,0.9791330862356068,8.52469000354296,1.3195381401240036,0.16798794,1.2944235,0.024740042,315.5406,-103.19641,13.024434
2353581389000.0,1.0584025798582817,8.554887727192206,1.3270876104517273,0.1554652,1.2745703,0.02565634,315.19946,-103.1732,13.02461
2353587404000.0,1.199926690867909,8.609162696798105,1.3311762,0.160963,1.2559389,0.026267206,314.86087,-103.16873,13.041756
2353591401000.0,1.3023915327293318,8.64857221970555,1.3311762,0.16279559,1.2357804,0.025961773,314.53207,-103.165924,13.059081
2353596399000.0,1.4185737337826292,8.689758146179402,1.3283327039962032,0.15760323,1.2186762,0.029932396,314.20398,-103.18144,13.093521
2353601380000.0,1.5272447805125773,8.725982096345515,1.3238047456858093,0.16523905,1.1863003,0.033292156,313.8896,-103.19929,13.127589
2353606388000.0,1.6417635111188602,8.76826114386769,1.341308289369333,0.16523905,1.1624765,0.036651913,313.57166,-103.24077,13.183995
2353611414000.0,1.76165251432699,8.816216705091161,1.3796726882733883,0.1695151,1.131017,0.04062254,313.26846,-103.28524,13.241007
2353616402000.0,1.8602057034282755,8.88508181802175,1.40836682073537,0.1740966,1.1068878,0.04886922,312.96613,-103.351555,13.3183155
2353621391000.0,1.9393832261729675,8.974156266286897,1.4281612401760746,0.16737708,1.0818423,0.043066,312.6759,-103.415726,13.39177
2353626390000.0,1.9911609555702696,9.075960548750206,1.4571521000165537,0.18020524,1.0677924,0.03726278,312.38077,-103.50533,13.489119
2353631465000.0,2.023342554643271,9.188595977487171,1.4933563989736798,0.17684549,1.0574077,0.03940081,312.09427,-103.5954,13.585518
2353636398000.0,2.040383646533128,9.291241270608628,1.531765161344376,0.17440203,1.0381655,0.052839845,311.80316,-103.696815,13.6915245
2353641464000.0,1.9843173112480736,9.361324677580892,1.5878315454160246,0.16646078,1.0027353,0.055283304,311.52222,-103.79543,13.793281
2353646382000.0,1.930709163318016,9.429921055617177,1.642708351117097,0.1685988,0.96883225,0.032375857,311.2418,-103.88876,13.8883915
2353651450000.0,1.8845656697670732,9.506826811281888,1.7042330359530975,0.16615535,0.9324858,0.024129177,310.97488,-76.01345,13.986491
2353657119000.0,1.8329501478767232,9.592852606243069,1.7730537617493267,0.1572978,0.86834496,0.026572637,310.71887,-75.93438,14.064463
2353661473000.0,1.7792779881792553,9.66886771167493,1.801613642334986,0.14538592,0.8011498,0.018936822,310.47693,-75.86037,14.136054
2353666466000.0,1.7095535850199282,9.761833517838047,1.8202068035676096,0.121256754,0.729984,0.006414085,310.25732,-75.78688,14.205822
2353671457000.0,1.6781984700173311,9.84502368457539,1.8427137201039865,0.102319926,0.6533204,-0.007330383,310.04697,-75.730385,14.257303
2353676428000.0,1.6825409194198668,9.91884550579221,1.868768416519201,0.07788532,0.5479461,-0.007330383,309.86813,-75.67278,14.308664
2353681375000.0,1.699252547194036,9.975560211327396,1.8713702920066264,0.049785517,0.43127087,-0.02107485,309.71674,-75.64638,14.327487
2353686437000.0,1.7444275165872851,9.99563787067716,1.8211758815696832,0.04337143,0.269697,-0.026572637,309.61133,-75.616646,14.349237
2353691323000.0,1.823793587134503,9.983457005847953,1.756139963157895,0.04642576,0.076052725,-0.02687807,309.5457,-75.5944,14.362658
2353696462000.0,1.970136761264744,9.915163674001388,1.6585778131132918,0.056199603,-0.13194689,-0.023823744,309.53287,-75.572044,14.376538
2353701368000.0,2.123056593659942,9.707832521613833,1.4449662443804034,0.08307768,-0.3643811,0.00030543262,309.57825,-75.54028,14.402435
2353706438000.0,2.304960790778098,9.236747213256484,1.0065306645533143,0.1563815,-0.59864795,0.018020526,309.6851,-75.51149,14.42817
2353711392000.0,2.3299770774745747,8.811992639915417,0.6316516941143893,0.23823744,-0.81336707,0.03390302,309.85355,-75.451256,14.489239
2353716582000.0,1.9496048988420096,8.461649610009063,0.3814068631306012,0.37201694,-0.9981538,0.019547688,310.07996,-75.40061,14.545204
2353721355000.0,1.578699758923077,8.147209790769232,0.1473354833846153,0.52503866,-1.0757337,-0.028710667,310.3814,-75.30764,14.651769
2353726918000.0,1.088985327119497,7.801832590943395,-0.1361834010188678,0.68325275,-1.2202033,-0.1151481,310.7513,-75.2378,14.736483
2353731391000.0,0.7403636167253299,7.567151942928976,-0.3498965545851665,0.84116143,-1.2504412,-0.16126843,311.14624,-75.23444,14.754835
2353736411000.0,0.4986259900125707,7.446283216341923,-0.5425312256253928,0.92087936,-1.2809844,-0.25167647,311.57913,-75.26851,14.729744
2353741383000.0,0.2591997987743557,7.326570206662477,-0.7333239715241986,1.035722,-1.2831224,-0.33292156,312.06406,-104.61468,14.613109
2353746393000.0,0.0779364465886104,7.329559061503417,-0.9464511343899772,1.1114693,-1.2538009,-0.41447207,312.54422,-104.480286,14.465334
2353751493000.0,-0.077823008901139,7.391862706150341,-1.1734148567589977,1.1585059,-1.1896601,-0.5009095,313.00995,-104.33184,14.288471
2353756410000.0,-0.2565065456954059,7.613826339207048,-1.4480444541220894,1.1945469,-1.0629056,-0.61178154,313.4972,-104.11987,14.025821
2353761461000.0,-0.4696010464705265,8.009573301762114,-1.7879809924271028,1.2302825,-0.8735373,-0.75747293,313.94193,-103.891556,13.726867
2353766406000.0,-0.5779132878223496,8.648130771669054,-2.166990973370344,1.2541064,-0.6087272,-0.93370754,314.37238,-103.62057,13.355741
2353772486000.0,-0.6248368637535817,9.649167820379656,-2.6727232283846707,1.2647965,-0.27183503,-1.1087204,314.72076,-103.33503,12.948194
2353776404000.0,-0.6400169473262294,10.395479193176264,-3.044488378971552,1.2318097,0.106901415,-1.2202033,315.03546,-103.0016,12.455286
2353781461000.0,-0.6352823959634373,11.522307232769576,-3.598432969752664,1.1239921,0.5012149,-1.2550226,315.24313,-102.67176,11.950124
2353786440000.0,-0.6837505785348837,12.49220318255814,-4.063642570750528,0.9941832,0.9388999,-1.2061534,315.38913,-102.34105,11.401774
2353791459000.0,-0.8514226459534884,13.157810123255814,-4.353257917484144,0.8426886,1.3579534,-1.1129965,315.42294,-102.0428,10.883374
2353796341000.0,-1.035864043104084,13.480172739282752,-4.371060420291325,0.6939429,1.6884315,-1.0277808,315.41446,-101.765854,10.349412
2353801438000.0,-1.2608709365907624,13.322667591960911,-3.9885488258873423,0.59406644,1.8600847,-0.9786061,315.32678,-101.53396,9.863863
2353806420000.0,-1.5118254036529213,13.040240340530032,-3.5579811423923053,0.50488013,1.8677205,-0.9633345,315.22064,-101.31394,9.370299
2353811460000.0,-1.8624817662846616,12.353744173539344,-2.9455671994883863,0.41630468,1.777007,-0.98654735,315.0888,-101.12,8.908523
2353816370000.0,-2.208233406918529,11.718293127840385,-2.3728754047570666,0.3222314,1.629483,-1.0369438,314.9496,-100.9012,8.446543
2353821430000.0,-2.57527648709588,11.149824142065398,-1.84469146923148,0.21685717,1.5445728,-1.0916162,314.81732,-100.68919,7.997846
2353826482000.0,-2.9351646215303475,10.607544308012583,-1.340221313350296,0.081855945,1.3582588,-1.1398746,314.70795,-100.40777,7.5091906
2353831665000.0,-3.26123771126943,10.217174923575133,-0.9728150118782384,0.013744468,1.1609493,-1.1701124,314.62732,-100.139404,7.02479
2353836789000.0,-3.582578315400902,9.836934465801344,-0.6186416070505385,-0.18112154,0.9810496,-1.1908818,314.5385,-99.755066,6.4745107
2353842532000.0,-3.9116747898370616,9.583783839961336,-0.4971291004639602,-0.3200934,0.72418076,-1.1969905,314.5299,-99.39259,5.924625
2353846323000.0,-4.128913991402007,9.416677097394826,-0.4169177279287489,-0.410196,0.65668017,-1.2003502,314.49414,-98.96634,5.3323426
2353851451000.0,-4.472408270717355,9.017128337147394,-0.6846603086400149,-0.44165558,0.54519725,-1.210735,314.54553,-98.550156,4.7382417
2353856407000.0,-4.818203704044461,8.582667073370073,-1.0481889821240429,-0.46853364,0.42638394,-1.2315043,314.61932,-98.14346,4.150493
2353861457000.0,-4.981171446481464,8.312013749975801,-1.311772274484561,-0.44868052,0.30665436,-1.2709051,314.73315,-97.74566,3.5127196
2353866440000.0,-5.041221299244991,8.136482980737586,-1.5150181897105797,-0.36132678,0.16432275,-1.3322971,314.8867,-97.39728,2.8708723
2353871420000.0,-5.056104645498652,8.058658048921833,-1.6745214111051214,-0.23335053,0.002443461,-1.4001031,315.15265,-97.16446,2.1712134
2353876482000.0,-5.038682269362084,8.049946906334231,-1.8051893230907456,-0.07238753,-0.17592919,-1.4752395,315.46045,-97.02894,1.4611393
2353881417000.0,-4.997814741824583,8.123952373149011,-1.9360570412446927,0.09162979,-0.37323865,-1.5338826,315.8459,-97.04071,0.74328554
2353886417000.0,-4.913520758185772,8.347084039297918,-2.074894516651134,0.25595254,-0.5742133,-1.5903877,316.27853,-97.1733,0.012273849
2353891405000.0,-4.813244113962303,8.643221083691866,-2.2003425678139727,0.408058,-0.75808376,-1.63437,316.75842,-97.44527,-0.7232133
2353896393000.0,-4.690909607303831,9.03958415970088,-2.3079968110428197,0.52656585,-0.93187493,-1.6685784,317.28775,-97.81846,-1.4665078
2353901391000.0,-4.502155457288548,9.443680882297905,-2.447068660993638,0.6114761,-1.0928379,-1.6859881,317.84305,-98.29097,-2.204374
2353906517000.0,-4.231164489006362,9.866243037612277,-2.626198236947979,0.6774496,-1.2290609,-1.7076738,318.43472,-98.831764,-2.9477565
2353911758000.0,-3.872100046174636,10.338771577338877,-2.889338492827443,0.711658,-1.3341297,-1.7201965,319.04047,-99.40999,-3.6749337
2353916402000.0,-3.437524132785863,10.814955848024947,-3.236074642723493,0.73853606,-1.3808609,-1.7006488,319.66287,-100.020454,-4.391376
2353921342000.0,-2.9225690087866107,11.310368435146444,-3.6157454711297072,0.7693848,-1.3866642,-1.6759088,320.25406,-100.64477,-5.0525603
2353927451000.0,-2.188200216055269,11.90241773863968,-4.105324904057604,0.7837401,-1.3564262,-1.5741998,320.84634,-101.26004,-5.6766515
2353931430000.0,-1.697343646294447,12.277227602177389,-4.431421771234519,0.8622363,-1.3142766,-1.5183055,321.39603,-101.88361,-6.2041454
2353936415000.0,-1.0631575925089891,12.730217818417898,-4.85103329980024,0.89644474,-1.1988231,-1.389413,321.91812,-102.46453,-6.6710567
2353941331000.0,-0.4447947180309864,13.144216969013533,-5.249654416160031,0.96577793,-1.028697,-1.2229522,322.33432,-103.02179,-7.0128417
2353946394000.0,0.1780574186252206,13.50556662522063,-5.630022146087468,1.03786,-0.8045095,-1.0170907,322.70615,-103.549,-7.295961
2353951458000.0,0.7471921618169177,13.76775025577443,-5.965823719575126,1.1212431,-0.5155703,-0.7965683,322.93076,-104.028984,-7.440589
2353956637000.0,1.210799102507532,13.817559073232909,-6.211037347253766,1.2082914,-0.16676621,-0.55833083,323.0868,-104.483246,-7.5074897
2353961346000.0,1.6323331986095018,13.862847685206642,-6.433997565971418,1.2907583,0.19975294,-0.3109304,323.08835,-104.88803,-7.4311895
2353966394000.0,2.098808177865035,13.722614543785957,-6.575021341713086,1.3863586,0.61544675,-0.060170226,322.99777,-105.28121,-7.267167
2353971403000.0,2.567515507305269,13.5079731076614,-6.675771629467628,1.4773777,1.0170907,0.1695151,322.83008,-105.663925,-7.0230036
2353976470000.0,2.996736141729003,13.143321391534892,-6.601925742638008,1.5696182,1.395827,0.3640757,322.51273,-106.036224,-6.637957
2353981597000.0,3.3919189032951427,12.64585626645204,-6.374114553877474,1.6215417,1.6804903,0.5311473,322.13696,-106.409386,-6.1839175
2353986446000.0,3.71956393826726,12.11153275188904,-6.024763300382984,1.6511687,1.8753563,0.6411031,321.65845,-106.79242,-5.61843
2353991459000.0,3.997845318217576,11.475460314667218,-5.488077570644861,1.63437,1.9477439,0.7153232,321.1618,-107.18336,-5.015161
2353996451000.0,4.221469836952173,10.90411141171122,-4.916782309292599,1.5748106,1.926669,0.7528914,320.62375,-107.56007,-4.3452754
2354002740000.0,4.435046346981269,10.263381938807056,-4.150097741662121,1.4975362,1.7913623,0.74189585,320.11536,-107.94546,-3.6827018
2354006415000.0,4.552592762559933,9.9266422624557,-3.706603582905983,1.4107933,1.5763378,0.6930266,319.6229,-108.2865,-3.0039954
2354011551000.0,4.701269898269752,9.53700594475714,-3.096514823931624,1.3081679,1.31672,0.63132924,319.18954,-108.61865,-2.3574867
2354016365000.0,4.841280079840849,9.30336822974903,-2.545085710936544,1.1753048,1.1722504,0.56107974,318.7657,-108.87354,-1.7144574
2354021392000.0,4.988625183421751,9.288633406549684,-2.0048197840950825,1.0274754,0.88025683,0.52534413,318.45752,-109.10733,-1.1241642
2354026449000.0,5.195597902719968,9.380478438195722,-1.5037487070583682,0.9462303,0.60048056,0.46181414,318.16025,-109.28059,-0.5548335
2354031389000.0,5.479518843964766,9.618605947633336,-1.0732883488936211,0.75869465,0.27397305,0.42821655,317.9583,-109.39033,-0.026154498
2354036335000.0,5.783395283630486,9.973440455916927,-0.3095828525852273,0.5867361,-0.08246681,0.41722095,317.81946,-109.42093,0.4825483
2354041400000.0,6.13502938575627,10.576920717476488,1.1587279839204545,0.4184427,-0.49174652,0.41630468,317.78247,-109.40785,0.9418146
2354046328000.0,6.354544275816366,11.02434104917403,2.2237765158855165,0.30543262,-1.1389582,0.38637227,317.8695,-109.30087,1.3758074
2354051558000.0,6.267955778985786,11.134981769496736,2.4065746099116403,0.35369098,-2.022575,0.30940324,318.12698,-109.20246,1.728773
2354056377000.0,6.134043697433317,11.254402380271769,2.393374549038752,0.59528816,-2.8927524,0.20769419,318.4931,-108.912636,2.0672004
2354061418000.0,5.793895689682939,11.443913536386512,1.7082198924106695,0.90041536,-3.5555413,0.10751228,319.0318,-108.670006,2.3165944
2354066374000.0,5.431593806451613,11.63890929032258,1.0392380541935484,1.1753048,-3.9306123,0.050396383,319.71414,-108.468506,2.476445
2354071394000.0,4.968414276129033,11.866363439139786,0.3775527653505377,1.3720033,-4.02438,0.080634214,320.49237,-108.342445,2.5941195
2354077215000.0,4.427251382109361,12.12101689532826,-0.3800167027818085,1.5070046,-3.9245038,0.17531833,321.33496,-108.35883,2.62487
2354081486000.0,3.9821077486462575,12.20063654326668,-0.8215411946912051,1.5870279,-3.7110064,0.27030787,322.1658,-108.420235,2.6603189
2354086416000.0,3.468280047177491,12.29254121766059,-1.3311913340293753,1.6539177,-3.422678,0.33567044,322.97565,-108.59209,2.6130245
2354091454000.0,2.924008151163001,12.333874571363925,-1.5216591493709837,1.7033978,-3.0918944,0.36651915,323.71082,-108.78316,2.5988064
2354097501000.0,2.2583650742510635,12.349598194316227,-1.5373831006968957,1.7583756,-2.7956247,0.34788775,324.36896,-108.99357,2.6050026
2354101451000.0,1.4203323242848065,12.186934296884932,-0.0782035454545455,1.7962493,-2.69697,0.2855795,325.00632,-109.264145,2.4954898
2354106714000.0,-0.1123636325386736,11.791744225683408,3.382378439393939,1.7898352,-3.288593,0.07574729,325.7268,-109.526535,2.298338
2354111486000.0,-0.9949122870755752,11.683084317036744,5.067698481638952,1.5473217,-4.316068,-0.18753563,326.50928,-109.70711,1.8979027
2354116453000.0,-1.549074982365827,11.749394236881413,5.778163314547446,1.2018774,-4.7583346,-0.3378085,327.27515,-109.85488,1.4728801
2354121453000.0,-1.5746988683969827,11.762107489014616,5.567082038038661,0.9233228,-5.2302284,-0.35033122,328.4067,-109.64427,0.8643888
2354126418000.0,-1.1666889561621876,11.730722415464404,4.6031026854219705,0.8374963,-5.112942,-0.27855456,329.48972,-109.40326,0.26500794
2354131516000.0,-0.3927759138205715,11.489554574828238,3.629294101682764,0.7733554,-4.215581,-0.14080444,330.52893,-109.0331,-0.33061883
2354136478000.0,0.8137987148063328,10.98799780852335,2.7018877541770383,0.79626286,-2.6795604,0.011301007,331.37024,-108.682236,-0.8202099
2354141386000.0,1.8894831417435287,10.523594181791134,1.9501296963205397,0.61727935,-1.2660183,0.12736541,331.9874,-108.39477,-1.1496347
2354146465000.0,2.830167285599524,10.089432617970845,1.4146633646335416,0.14630222,-0.12095132,0.20830505,332.26587,-108.0369,-1.3271432
2354151430000.0,3.472750092972521,9.695403277757148,0.9471801705347196,-0.398895,0.73456544,0.24007004,332.10278,-107.74533,-1.2463459
2354156634000.0,3.7133331096453768,9.329901989974006,0.5446662298737467,-0.8744536,1.3735305,0.2519819,331.68835,-107.34309,-1.0666219
2354161372000.0,3.871977803828986,9.024676163327053,0.1808687536305922,-1.2278391,1.8597792,0.26389378,330.99872,-106.90648,-0.6973488
2354167523000.0,3.836917652970936,8.738351414938995,-0.2807569015871441,-1.4874569,2.25562,0.3155119,330.16385,-106.37092,-0.27280474
2354171387000.0,3.813865489241164,8.564956411988911,-0.5220894481159044,-1.6484199,2.5925121,0.39950588,329.28952,-105.80851,0.25802067
2354176779000.0,3.778080152858628,8.345771425155924,-0.6875963136044698,-1.733941,2.8487701,0.47678033,328.33112,-105.21277,0.81354296
2354181387000.0,3.7474980256237007,8.158456065488565,-0.8290383826273389,-1.7632625,3.0240884,0.5519168,327.3467,-104.65837,1.3984852
2354186435000.0,3.735486371405112,7.84632183454788,-0.707083476629375,-1.7369953,3.1102204,0.62888575,326.32214,-104.12296,2.002642
2354191760000.0,3.726727421476855,7.491700366133311,-0.5236637681697613,-1.7128662,3.0925052,0.70066243,325.28314,-103.61057,2.615594
2354196400000.0,3.76094733214683,6.830116644048943,0.2824039241379309,-1.6737708,2.9416215,0.7611381,324.28848,-103.17013,3.2273962
2354201408000.0,3.79788123573201,6.116062488833747,1.1524011230769229,-1.6267341,2.6789496,0.83077675,323.34357,-102.76336,3.8439023
2354206526000.0,3.864442076394085,5.678896339747016,1.8616352940851597,-1.5763378,2.300824,0.89675015,322.47675,-102.41185,4.4465237
2354211436000.0,3.944026939390701,5.419198190807055,2.4438617907001605,-1.5210545,2.0766363,0.9621128,321.64395,-102.12254,5.048885
2354216406000.0,4.003243112409995,5.154690987590004,3.074130524819992,-1.4966198,1.5803084,0.9972375,320.95834,-101.78978,5.6530094
2354221399000.0,4.028559166200762,4.886340658799238,3.7728540324015247,-1.486846,1.0005972,1.0708468,320.35913,-101.53814,6.261192
2354226676000.0,3.859943607560975,4.912884465060976,4.052881129817074,-1.4844025,0.3491095,1.1249083,319.888,-101.29166,6.8733263
2354231564000.0,3.5364500052845527,5.203077226117887,3.919678013313008,-1.5326608,-0.29443705,1.1438452,319.57132,-101.11508,7.4634748
2354237373000.0,3.189360208969338,5.966400113621168,3.5993627279109752,-1.5891659,-0.9923506,1.2067643,319.4182,-100.97964,8.072523
2354241397000.0,2.9648152049383896,6.673164688117298,3.308558599073455,-1.6609426,-1.1688906,1.244638,319.2854,-100.92139,8.670387
2354246408000.0,2.8060043,7.696608929040404,2.7049642952020205,-1.6676621,-1.4367551,1.3231341,319.35007,-100.93461,9.188353
2354251576000.0,2.8060043,8.946430479747475,1.755099728737374,-1.6502525,-1.5778649,1.4376713,319.41223,-101.03334,9.721852
2354256542000.0,2.8838771171069686,10.084854847173762,0.6465675769215433,-1.616044,-1.518611,1.5598444,319.45737,-101.17016,10.17052
2354261419000.0,3.0421871333765327,11.137150128401954,-0.6478488513209051,-1.5763378,-1.2116512,1.7275269,319.45547,-101.39849,10.659359
2354266438000.0,3.0693177890716337,12.098932262360051,-1.7872201572277815,-1.561677,-0.68875057,1.9004018,319.44888,-101.69612,11.131367
2354271392000.0,2.9329993961656595,12.902741218071933,-2.6803407064797384,-1.5790867,-0.036957346,2.058616,319.30484,-102.056274,11.642251
2354276446000.0,2.6784756637946563,13.640173080531373,-3.275396607662864,-1.6560557,0.6753115,2.1642957,319.12317,-102.47737,12.153618
2354281393000.0,2.280234589582708,14.255313075202642,-3.4496270590663465,-1.7968601,1.3365731,2.2308798,318.76282,-102.92719,12.691366
2354286336000.0,1.8823155214950464,14.869955685604925,-3.623716632805464,-1.9559906,1.8955148,2.2409592,318.3568,-103.36536,13.190773
2354291399000.0,1.1474858689825154,15.705905256793764,-3.521950832904993,-2.1468859,2.3512204,2.1755965,317.78583,-103.792336,13.679549
2354296321000.0,0.3282724401306089,16.5846984432273,-3.333283428902465,-2.3182335,2.669481,2.0118847,317.09036,-104.19226,14.132845
2354301417000.0,-0.5324215761506584,17.282717745832947,-3.082409677999816,-2.5250115,2.82403,1.7418822,316.33215,-104.430336,14.408396
2354306360000.0,-1.3694162929864628,17.92354112063726,-2.8295675579058845,-2.733011,2.7516425,1.3487904,315.55038,-104.60046,14.598502
2354311402000.0,-2.287989063892669,18.36714434182384,-2.5457100152051333,-2.8909197,2.6080892,0.8741482,314.7918,-75.413246,14.581599
2354316324000.0,-3.2136825620649425,18.706260380128327,-2.2570037074664597,-2.9303205,2.1111503,0.6047566,314.16525,-75.44464,14.521086
2354321402000.0,-4.125922733208044,18.911796811877466,-2.1337867922570948,-2.9507847,1.3891076,0.014049901,313.6864,-75.76477,14.14009
2354326624000.0,-5.03758932678068,19.033978461191506,-2.114989555046044,-2.8735101,0.54733527,-0.6062838,313.39908,-76.120575,13.702051
2354331386000.0,-5.774617550816368,19.10356184277364,-2.5048495095746826,-2.7311785,-0.2968805,-1.2082914,313.37793,-76.66926,13.043501
2354336404000.0,-6.462383255190486,19.13746596331385,-3.299170385567426,-2.5509732,-0.98715824,-1.7275269,313.56683,-77.31623,12.273076
2354341903000.0,-6.878245822674706,19.212473881783136,-4.787003370603934,-2.3554964,-1.3545936,-2.0760255,313.95197,-78.117516,11.335024
2354346393000.0,-7.005753479094593,19.297478986063066,-6.389350740179896,-2.1939225,-1.2742649,-2.204002,314.40942,-78.94729,10.354255
2354351435000.0,-6.754180867333689,19.37284248056213,-8.127955822042313,-1.9978348,-0.84635377,-2.1077905,314.94803,-79.86744,9.314693
2354356392000.0,-6.119670859161384,19.42722902023982,-9.77768199473001,-1.7669277,-0.17837265,-1.8115209,315.38663,-80.72787,8.331987
2354361474000.0,-5.469160497746888,19.48298701794852,-11.469009089666235,-1.4669929,0.54550266,-1.3652838,315.821,-81.605,7.432585
2354366399000.0,-4.292149488656628,19.50131124806816,-5.6200210250643945,-1.0574077,0.999681,-0.7489208,316.11603,-82.36354,6.6961555
2354371325000.0,-3.048971101198732,19.51533185238756,1.1333355284129194,-0.44440445,-0.47800204,0.25717425,316.7352,-82.94376,6.249879
2354376420000.0,-2.5195381173041365,18.67561397138686,2.8013646823941607,0.32070425,-2.5549438,1.4666874,317.48105,-83.385956,6.0897336
2354381391000.0,-2.134981025128954,17.707271879708028,3.500980464759124,0.8014552,-3.4596353,2.3322835,318.2807,-83.61216,6.1246495
2354386407000.0,-2.006790612685869,16.395197466985547,2.9522555865862534,1.1001683,-3.5796704,2.6963592,319.04694,-83.30995,6.501566
2354391332000.0,-1.9430332434439013,15.026864800873453,2.1136003458666943,1.318858,-3.08884,2.6719246,319.8813,-82.90091,6.9940333
2354396393000.0,-1.729961737531915,13.997127891234042,1.5780914706723406,1.4181237,-2.3188446,2.4236078,320.61096,-82.397644,7.547683
2354401391000.0,-1.4977661422978723,13.035756848851063,1.0974058644085107,1.3994923,-1.6022996,2.0399845,321.20343,-81.94695,8.031053
2354406417000.0,-1.03120174341209,12.051863982013623,0.748706299201788,1.3405437,-1.0714576,1.6603317,321.68164,-81.557434,8.439798
2354411389000.0,-0.3673361865368241,11.063667340464027,0.5206608837484036,1.2953397,-0.86345804,1.5103643,322.04056,-98.78835,8.787282
2354416405000.0,0.207576425794954,10.16165469373248,0.3402316834801762,1.2629639,-0.548557,1.2513574,322.26727,-99.03973,9.026234
2354421397000.0,0.7293033805726874,9.314446620044054,0.1870641486784141,1.185384,-0.3268129,1.0473285,322.4563,-99.26198,9.226517
2354426965000.0,1.0903259779351089,8.446332691538672,-0.0364245919894574,1.0638218,-0.1881465,0.8393288,322.59058,-99.48183,9.41946
2354431595000.0,1.307938772009452,7.753195644369717,-0.2419477630155412,0.95325524,-0.11911872,0.61391956,322.67682,-99.63341,9.541661
2354436493000.0,1.5204635144672531,7.115732657760399,-0.4675493475920495,0.870483,-0.119729586,0.39767328,322.7499,-99.79247,9.671944
2354441400000.0,1.7144190450635386,6.57980293021614,-0.7023376576572173,0.8042041,-0.18051068,0.20189096,322.8169,-99.88669,9.738967
2354446400000.0,1.7185620670233923,6.24344034799697,-0.9033262717312244,0.78954333,-0.2611449,0.05467244,322.90842,-99.97536,9.797147
2354451495000.0,1.598414401003883,6.035492306752533,-1.0835478576153044,0.7703011,-0.3368922,-0.06352998,323.01273,-100.01234,9.804675
2354457413000.0,1.3551815672238745,5.816620947595118,-1.2651697780227669,0.7742717,-0.376293,-0.19547687,323.1377,-100.047455,9.79857
2354461411000.0,1.1431462370423546,5.679190773869347,-1.3751139580043072,0.7858781,-0.37507126,-0.3313944,323.26935,-100.04929,9.756124
2354466396000.0,0.8664436293724351,5.512743050185167,-1.452348456871184,0.7706065,-0.36071593,-0.4560109,323.42346,-100.020515,9.669942
2354471395000.0,0.5789381502782505,5.349823333570213,-1.481098986267641,0.74372846,-0.32528573,-0.55924714,323.5681,-99.96435,9.551278
2354476410000.0,0.3086247151227447,5.114374722478557,-1.465160758887903,0.70707655,-0.26450464,-0.63499445,323.71902,-99.86338,9.375742
2354481423000.0,0.0530335864093463,4.8209182593019815,-1.413095937592428,0.659429,-0.15149458,-0.6988298,323.8425,-99.740715,9.176258
2354486419000.0,-0.2033511349573738,4.526917707623714,-1.3514605966585007,0.6017023,-0.03359759,-0.7611381,323.96695,-99.572,8.925807
2354491406000.0,-0.4607518731180794,4.232076689456149,-1.2812603984517392,0.5335908,0.11942416,-0.81000733,324.0484,-99.3911,8.6650505
2354496403000.0,-0.703404210775685,3.9514588735606537,-1.2015417849415335,0.45662177,0.27885997,-0.84207773,324.11218,-99.1714,8.370448
2354501455000.0,-0.9322935689404624,3.6837015658038026,-1.1108497943318754,0.38515055,0.4529566,-0.87781334,324.12933,-98.93795,8.06642
2354506409000.0,-1.1358609305327438,3.424300231406612,-1.0216753354600967,0.32253686,0.5403103,-0.9147707,324.14377,-98.66102,7.72679
2354511411000.0,-1.277079008149084,3.172125122899557,-0.930892247946936,0.2941316,0.72112644,-0.926988,324.08606,-98.38431,7.3925858
2354516325000.0,-1.3864381682228324,2.917719366810514,-0.8529932731169085,0.24678956,0.9138544,-0.9443977,324.02817,-98.0646,7.0287275
2354521398000.0,-1.4388522688897607,2.6413539097293057,-0.7958142044527265,0.17379116,1.1322387,-0.9440922,323.91837,-97.7473,6.674819
2354526430000.0,-1.4759352206577672,2.3642078102393915,-0.7122868459467522,0.1328632,1.3301591,-0.93737274,323.78287,-97.41726,6.316818
2354531391000.0,-1.479478400969498,2.084296380624953,-0.5705595446834215,0.09743301,1.5250251,-0.91782504,323.59525,-97.09015,5.9722595
2354536690000.0,-1.48326298320531,1.7853141864046536,-0.4191761604071892,0.048563786,1.6875153,-0.9126327,323.35754,-96.763374,5.630406
2354541439000.0,-1.511075195972495,1.0283402008349705,0.2043585055206287,-0.005497787,1.8112154,-0.9025534,323.08594,-96.445274,5.304026
2354546444000.0,-1.5534511740176815,-0.0310587733939096,1.1225042507367389,-0.07941248,1.8600847,-0.8915578,322.79987,-96.12666,4.9867973
2354551428000.0,-1.5566057788858718,-0.704520586539949,1.701507696815601,-0.183565,1.8261817,-0.8772025,322.52985,-95.813416,4.7098184
2354556464000.0,-1.5327949426808196,-1.1212097725944212,2.054701484028635,-0.310625,1.7397442,-0.84482664,322.2714,-95.49918,4.4471874
2354561566000.0,-1.5291282120630103,-1.505614203066296,2.352410285822593,-0.44929138,1.6584991,-0.7846564,321.86273,-95.129486,4.179081
2354566409000.0,-1.6111760815769522,-1.7126873548142532,2.383666545185747,-0.57910025,1.6062702,-0.6957755,321.4792,-94.75803,3.9289274
2354571424000.0,-1.6961378956616966,-1.9271147461039504,2.416032876118272,-0.70646566,1.5470163,-0.6056729,321.04764,-94.35845,3.6884735
2354576681000.0,-1.8830943708007075,-1.881645381409447,2.247332331270523,-0.8127562,1.4795157,-0.5152648,320.63922,-93.97104,3.4707584
2354581507000.0,-2.0776623400185232,-1.7765786845331313,2.044981690418456,-0.91324353,1.4077389,-0.4370741,320.25397,-93.60123,3.2726948
2354586433000.0,-2.3212797909162406,-1.554980794470114,1.6394218677565866,-0.94714653,1.3762794,-0.3594942,319.86853,-93.25246,3.0728292
2354591459000.0,-2.6335861022807707,-1.1669638359663783,0.94383045435116,-0.9239337,1.4388931,-0.30390546,319.47983,-92.95067,2.885899
2354597196000.0,-3.002913345228145,-0.6363042724187633,-0.0464669324912579,-0.82436264,1.5803084,-0.25686884,319.10785,-92.67325,2.6642985
2354601388000.0,-3.2836783818507462,-0.1740691789671642,-0.9366974783402984,-0.68600166,1.6581937,-0.2312125,318.7388,-87.545456,2.4492955
2354606741000.0,-3.626638090103548,0.3897326324121541,-1.965501820760482,-0.49449542,1.9214766,-0.22693644,318.33102,-87.80887,2.1584318
2354611368000.0,-3.7845992831607536,0.6417183926464098,-1.8940431820658632,-0.310625,1.9905044,-0.21868975,317.95953,-88.04655,1.8735288
2354616356000.0,-3.9548846583432353,0.913364161405534,-1.8170093178322864,-0.21166481,2.031127,-0.19761491,317.5933,-88.451225,1.4729046
2354621364000.0,-4.210229972639092,1.3803247522968525,-1.7618117239842606,-0.06078109,1.8982637,-0.18387043,317.25787,-88.87785,1.07189
2354626428000.0,-4.512004613195461,1.9528088864842608,-1.717433094921303,0.115453534,1.613906,-0.16676621,316.95523,-89.307495,0.67701894
2354631389000.0,-5.18427686400744,3.152817024697737,-1.8693477796424511,0.2950479,1.1227703,-0.25350907,316.77856,-90.24359,0.23187868
2354636395000.0,-6.264285799007957,5.045309640301747,-2.2310021810065104,0.21594086,0.56230146,-0.45204028,316.70544,-90.36359,-0.24081779
2354641387000.0,-8.215581127237787,7.784158639526652,-2.7118723742692423,0.05222898,-0.030543262,-0.78893244,316.8551,-90.937614,-0.8052751
2354646380000.0,-10.890082814503891,11.227639897542227,-3.292234312551836,-0.10354166,-0.79198676,-1.3582588,317.2144,-91.63325,-1.4927974
2354651415000.0,-13.11072505413415,13.685938522078436,-4.166053763627383,-0.1994475,-1.7895297,-2.286163,317.99432,-92.643394,-2.5021832
2354656465000.0,-14.978736666304457,15.386736916823075,-5.260106855596167,-0.20677789,-3.0100386,-3.5760052,319.04385,-93.89361,-3.7622292
2354661410000.0,-15.910369930616632,16.584786474934035,-6.862129000078179,-0.108123146,-4.1535783,-4.939151,320.54352,-95.81046,-5.6800466
2354666874000.0,-16.14559638541972,17.495011023746702,-9.10189463111502,0.079107046,-4.5561385,-5.713117,322.13245,-97.82959,-7.697965
2354671377000.0,-15.397565925811437,18.036206017001547,-10.504721349304482,0.13316862,-4.096768,-5.6462274,323.81,-100.167,-10.019965
2354676418000.0,-13.700047645575731,18.45125922575348,-11.670599660935084,0.0720821,-3.101363,-5.094005,325.37717,-102.43262,-12.271523
2354681522000.0,-12.033465509648453,18.49927629604509,-12.362781673098969,0.06383542,-1.9511036,-4.4015894,326.57755,-104.628975,-14.416226
2354686401000.0,-10.502441555215896,18.102012996178832,-12.443126703477263,0.18875736,-0.86590147,-3.7638462,327.4402,-106.56239,-16.288496
2354691411000.0,-9.059532457995434,17.551005928352097,-12.647178184158728,0.39767328,0.25320363,-3.2522466,327.76468,-108.08856,-17.706244
2354696419000.0,-7.870051035115345,16.72025715455476,-13.088985434611448,0.59437186,1.53205,-2.8426614,327.68607,-109.41459,-18.88648
2354701429000.0,-6.6800945797181335,15.889176612077788,-13.530969125659396,0.6719518,2.2516494,-2.475226,327.36218,-110.45583,-19.742065
2354706679000.0,-5.625836679401219,15.531251812567229,-14.280286961903908,0.67011917,3.8056905,-2.3011293,326.3834,-111.42578,-20.438566
2354711357000.0,-4.726296779903191,15.318414134367156,-15.007147775277875,0.6747007,5.4232616,-1.9657644,325.17203,-112.24263,-20.91182
2354716473000.0,-3.934268047771946,15.474691506637852,-15.248763439333128,0.7150178,6.91194,-1.6575829,323.45593,-112.973434,-21.160395
2354721465000.0,-3.304510885190903,15.917489150355047,-15.07164376535968,0.8668178,8.128173,-1.3426818,321.35135,-113.63326,-21.195412
2354726434000.0,-2.897729942072323,16.46520114394993,-13.885510660639778,1.1743884,8.888394,-1.0500773,318.90738,-114.22723,-20.944462
2354731472000.0,-2.614933428601232,17.083519298331016,-12.088075783230678,1.5677856,9.157481,-0.745561,316.29782,-114.80584,-20.489878
2354736629000.0,-2.075797043653251,17.689985085448917,-9.60463797878225,1.9840903,8.988882,-0.39950588,313.6633,-115.31849,-19.77891
2354741467000.0,-1.435078086377709,18.24463707120743,-6.927006037874097,2.3893993,8.038376,0.015271631,311.2647,-115.86087,-18.94814
2354746454000.0,0.5443927878922148,18.682458745365764,-0.7418695287458181,2.9938505,5.7720656,0.45937067,309.4661,-116.320656,-18.071869
2354751424000.0,3.1267273100009048,19.056897619585857,7.005133902757934,4.0613375,2.9471195,0.95417154,308.1867,-116.92297,-17.20469
2354756532000.0,4.5202527,19.29879328568367,11.521811736712388,5.130657,0.00061086525,1.5250251,307.84555,-117.31679,-16.38226
2354761470000.0,4.5202527,19.37987395456494,12.205929781183029,5.903707,-2.805704,2.1007655,308.3132,-117.84361,-15.741306
2354766433000.0,4.640755537851356,18.912961914674405,11.77564622926878,6.25862,-5.1104984,2.5836546,309.97766,-117.57544,-15.047085
2354771459000.0,4.842974991287386,18.07519553576073,10.596032667100127,6.231131,-6.733873,2.9385672,312.15454,-117.39044,-14.520004
2354776406000.0,4.491749029548721,16.922529494586566,9.826933746766311,5.9067616,-7.7402735,3.167947,314.69852,-117.195625,-14.140563
2354781471000.0,3.757435404225352,15.518967863849763,9.306407816901409,5.3808064,-8.381071,3.2797356,317.51422,-116.95953,-13.869312
2354786376000.0,3.131165706841166,14.22356712373587,9.04777108249058,4.7085495,-8.899085,3.211624,320.4283,-116.753815,-13.703
2354791462000.0,2.5661454471743013,12.943820905413444,9.023624936942296,3.907705,-9.334632,3.0347786,323.42224,-116.416336,-13.607544
2354796459000.0,2.887167971183054,11.561901678357314,10.146173172162271,3.040887,-9.727723,2.8221974,326.44614,-116.07215,-13.7048645
2354801428000.0,4.075895962589929,10.06410417086331,12.400001447841728,2.175902,-9.931447,2.7119362,329.47324,-115.55437,-13.826782
2354806479000.0,5.419851788148529,8.75215975268845,12.158085440099477,1.7580702,10.00414,2.4770586,326.9945,-115.13369,-12.040975
2354811472000.0,6.883762607537948,7.665503245793671,9.39018606740417,1.0998629,-7.7341647,2.0176878,334.80396,-114.43167,-14.260823
2354816464000.0,8.172100113724015,6.578003384564011,6.919448731069513,0.91415983,-4.779104,1.5012014,331.42715,-113.72115,-12.24116
2354821459000.0,8.590570792399586,5.484579889220205,5.920518739064999,0.17379116,-2.7864618,1.2119566,333.15512,-112.73264,-12.1460705
2354826710000.0,8.954653383665,4.369557374186551,4.889341549108742,-0.44165558,-1.5063937,1.0354166,334.17374,-111.96154,-11.627362
2354831459000.0,8.555741414693955,3.691835928416486,4.138700625917193,-0.86162543,-0.6750061,0.9034697,334.7342,-111.09287,-11.02102
2354836396000.0,8.141037605300387,2.9872853329718003,3.358343869169103,-1.1490375,-0.071776666,0.84391034,334.97498,-110.21412,-10.282255
2354841462000.0,7.293524987136765,3.135056895923832,2.3933610823564413,-1.3423764,0.3912592,0.8756753,335.01462,-109.259575,-9.487121
2354846324000.0,6.439211023098284,3.361334752038084,1.451306558821779,-1.4401149,0.7968737,1.0531317,334.9032,-108.245056,-8.617529
2354852170000.0,5.428629547017129,3.759713999527466,0.399974537241583,-1.4776831,1.1887437,1.284955,334.6723,-107.31408,-7.740547
2354856389000.0,4.700727113447529,4.058034596849774,-0.3517935100561133,-1.4483615,1.5189165,1.5030339,334.35153,-106.361145,-6.787734
2354861430000.0,3.899726214138129,4.231359983546968,-0.9070428539602066,-1.3677273,1.8234328,1.6636915,333.94534,-105.54174,-5.8646927
2354866333000.0,3.1316643697340734,4.370599274057778,-1.3921345538023722,-1.2733486,2.0622811,1.7455474,333.4692,-104.74,-4.883281
2354871441000.0,2.4137682743145046,4.351257943125666,-1.5527890126828796,-1.1829406,2.2214115,1.7733418,332.94327,-104.10801,-3.9756129
2354876398000.0,1.7422301180408877,4.282264341342893,-1.603384368685205,-1.0925325,2.3130412,1.765706,332.36865,-103.5331,-3.0462546
2354881651000.0,1.1464853178743477,4.134721927860297,-1.545933444921718,-1.0015136,2.375655,1.7101172,331.75958,-103.11066,-2.2457445
2354886502000.0,0.6382734235999598,3.9715346578683257,-1.4526836319951826,-0.92087936,2.3991733,1.6236799,331.13107,-102.74723,-1.4581506
2354891402000.0,0.2304512381375446,3.780558371472236,-1.2775372932959754,-0.86101454,2.4037547,1.4957036,330.4724,-102.461685,-0.83285296
2354896397000.0,-0.1448298193611817,3.575859556393276,-1.0679647017524196,-0.8142834,2.3860397,1.3552046,329.80566,-102.21944,-0.24189013
2354901418000.0,-0.34042659225058,3.280456250058005,-0.8444754823085846,-0.81031275,2.3441954,1.2739595,329.0992,-101.992226,0.186292
2354906470000.0,-0.4760683771229698,2.953045087296984,-0.6152876244199535,-0.80909103,2.2782218,1.1203269,328.3919,-101.7856,0.5468776
2354911385000.0,-0.4857413381592714,2.571232571933734,-0.3731438354378996,-0.82253003,2.1905627,0.9789116,327.60242,-101.534996,0.7027723
2354916402000.0,-0.4391933574694827,2.1523005804689017,-0.1171298609598915,-0.86345804,2.0613647,0.8750645,326.84464,-101.27673,0.8235322
2354922175000.0,-0.408023442112026,1.5512260361324768,0.795565594310741,-0.8924741,1.6911805,0.7495316,326.14832,-100.99246,0.8336454
2354926433000.0,-0.393263490259705,1.0641477868337708,1.695922300510361,-0.9630291,1.4333953,0.70188415,325.46786,-100.68795,0.84666866
2354931610000.0,-0.4518814728957141,0.3687392544414333,3.4357368095553547,-1.0030408,0.5412266,0.5534439,325.1418,-100.37478,0.8588139
2354936413000.0,-0.5996198052775269,-0.4022700941583859,5.836484710759812,-1.2125676,-0.745561,0.37782016,324.9985,-99.99457,0.8209826
2354941403000.0,-0.2297875328115408,-0.2294700217925107,6.643355844260282,-1.5063937,-1.8842138,0.43188173,325.01044,-99.41869,0.75591195
2354946397000.0,0.8809789793022302,1.321688553325148,5.06283782211991,-1.6667458,-2.2708917,0.6954701,325.16858,-98.83882,0.68849796
2354951431000.0,1.84467213592233,3.170252684730803,2.873726873874669,-1.4972308,-1.919644,1.0354166,325.49753,-97.9471,0.8009255
2354956471000.0,2.6269842277140336,5.354529804525395,-0.015405953213512,-1.2284501,-1.1624765,1.3939945,325.81738,-97.05708,0.99788135
2354961759000.0,3.3988246400864903,7.631824227037699,-2.912783503177588,-1.119716,-0.33567044,1.7721201,325.9779,-96.42916,1.4229873
2354966401000.0,2.897304958804174,9.282659860957036,-2.2315526125881355,-1.2550226,0.38423425,2.1383338,325.94373,-95.902054,1.965429
2354971382000.0,2.3591598634859454,11.054054150606374,-1.500572201983642,-1.6022996,0.80878556,2.4153612,325.91553,-95.96816,2.7455437
2354976428000.0,1.8169706113814077,12.850605533622936,-1.0000282526429192,-2.0665572,0.93584555,2.564107,325.77267,-96.12395,3.5921717
2354981504000.0,1.2721460233709818,14.65824101789748,-0.5438960437324066,-2.6160305,0.92057395,2.5986207,325.5518,-96.34568,4.4778867
2354986432000.0,0.8225247140656045,15.968296319775073,-0.4445648760562324,-3.1740558,0.8912524,2.5466971,325.1888,-96.41728,5.1832175
2354992057000.0,0.3832885706729146,17.048715954264292,-0.6515612174339269,-3.7168095,0.8698721,2.4123068,324.8153,-96.54757,5.8541155
2354996459000.0,-0.1163939433910866,17.709158653179767,-0.9636377518778168,-4.1749587,0.8741482,2.198504,324.36847,-96.58785,6.3069887
2355001413000.0,-0.8766303379389084,18.217566562243363,-1.505306176915373,-4.3576074,0.8371908,2.037541,323.92685,-96.781136,6.7295556
2355006389000.0,-1.864557232620759,18.614534994996816,-1.9274245181024288,-4.5594983,0.6414085,1.6337591,323.55328,-83.0449,6.948715
2355011449000.0,-3.2046307306649684,18.84816678977531,-2.174280206085691,-4.5066586,0.22296582,1.1872166,323.24835,-82.755486,7.1150656
2355016335000.0,-4.54166881021675,19.05542503388047,-2.4911700043771043,-4.134947,-0.26206118,0.657291,323.08594,-82.588585,7.0567265
2355021465000.0,-6.128643648284933,19.19499622706229,-3.15800954983165,-3.4898732,-0.5934556,0.02443461,323.00134,-82.495285,6.863494
2355026446000.0,-7.325015379568661,19.30639024353469,-3.8698762253077583,-2.7522533,-0.6600399,-0.68600166,323.05566,-82.69088,6.3613977
2355031409000.0,-7.774050465273404,19.36535422616662,-4.7180536357286,-2.111761,-0.52381694,-1.3518448,323.15555,-83.019646,5.7274823
2355036404000.0,-8.06271992415229,19.36819502558001,-5.658699059042236,-1.6007724,-0.1853976,-1.8216002,323.30023,-83.64865,4.8257747
2355041456000.0,-7.736527320939916,19.15712901725164,-6.939484493307555,-1.2177598,0.3979787,-2.0711386,323.34503,-84.357025,3.838466
2355046432000.0,-7.303510449902802,18.96688157848696,-8.211940982868946,-0.9285152,1.2174544,-2.035403,323.29694,-85.16183,2.7892084
2355051480000.0,-6.410721930414709,18.845494065122303,-9.5472079230925,-0.6704246,2.2992969,-1.7003434,323.0068,-85.895424,1.7914459
2355056397000.0,-5.541102051190669,18.72725666353475,-10.84782352235542,-0.376293,3.3884695,-1.074512,322.56012,-86.59254,0.94733053
2355061400000.0,-4.395818886343706,18.38276272345204,-10.72546693337611,-0.010079277,4.1044035,-0.2406809,321.89667,-87.206856,0.29119438
2355066370000.0,-3.158945121933483,17.955200814565288,-10.053585224467971,0.48349985,3.8496728,0.6395759,321.1934,-87.81385,-0.13516615
2355071400000.0,-1.5727675826841805,16.6995334620217,-4.564455763392348,1.2400564,1.7150042,1.3881912,320.86426,-88.65684,-0.24859232
2355076406000.0,0.0654387795012376,15.30317918656006,1.7556441570150376,1.7107282,-0.86009824,1.994475,320.72568,-89.54837,-0.14010781
2355081406000.0,1.0991469518659038,13.739025383117534,3.994138825424069,1.6896533,-2.747061,2.3655756,320.97992,-90.493706,0.22204828
2355086391000.0,1.9329145853899428,12.124199603733816,4.894990969406805,1.6230689,-3.8698313,2.500577,321.75497,-91.56226,0.66905785
2355091396000.0,1.90506272881087,10.866968703262918,4.069266135773083,1.6575829,-4.1572433,2.461787,322.61316,-92.19009,1.3488016
2355096413000.0,1.6000941114747596,9.723337010215214,2.6873776451254585,1.7815884,-4.359745,2.3854287,323.74237,-92.87796,2.0183554
2355101424000.0,1.0594827195337773,8.51010195813511,0.9436463372216934,1.8493946,-4.1538835,2.164601,324.77548,-93.52778,2.7033603
2355106576000.0,0.4210241097526166,7.2378790390104655,-0.9764242092293056,1.9233092,-3.6322048,1.8854356,325.74362,-94.17003,3.3248684
2355111441000.0,0.1864105429533525,6.5177467980588295,-1.650962950153511,1.8826867,-2.933375,1.5827519,326.63953,-94.77877,3.814345
2355116398000.0,0.1346927534525106,6.028778538575815,-1.7591001727146678,1.7376062,-2.2412646,1.2339478,327.35928,-95.28353,4.19367
2355121401000.0,0.0866282247596958,5.878633525551331,-1.7070712734220532,1.5085317,-1.600467,0.8323039,328.01733,-95.79222,4.4173965
2355126452000.0,0.040646808280038,5.938409421806083,-1.5553325595722434,1.2513574,-1.0720685,0.43585235,328.49597,-96.189476,4.5382676
2355131466000.0,-0.0855970294675324,6.00825080007215,-1.4320297157287156,0.9963212,-0.6973027,0.11209377,328.85257,-96.501465,4.5794377
2355136414000.0,-0.2809630995306122,6.086397121201814,-1.3343467505668936,0.7703011,-0.44318274,-0.10048734,329.08356,-96.71125,4.542117
2355141509000.0,-0.4925722009090909,6.021690832130316,-1.376773455267265,0.591623,-0.2837469,-0.27183503,329.22205,-96.79185,4.418479
2355146399000.0,-0.7026977236363636,5.861812873585642,-1.5138117940304332,0.44868052,-0.1704314,-0.4382958,329.2961,-96.79698,4.239567
2355151442000.0,-0.8143200060516178,5.628966609697612,-1.6541849196263485,0.37232238,-0.08460484,-0.5702427,329.3285,-96.703964,3.9892595
2355156506000.0,-0.833001425866718,5.334734408541988,-1.7942955194722652,0.3417791,0.040317107,-0.6817256,329.31757,-96.57447,3.7036617
2355161431000.0,-0.820018813788794,5.017323340283275,-1.8629292675067692,0.3231477,0.2003638,-0.7510588,329.3011,-96.45022,3.3838334
2355166399000.0,-0.770469144886482,4.660565682795251,-1.8530193440741511,0.3277292,0.37110063,-0.8008443,329.24802,-96.32751,3.0445428
2355171397000.0,-0.713226256944471,4.276875610715306,-1.8145590468711303,0.33200526,0.5476407,-0.8216137,329.16437,-96.259766,2.7125592
2355176450000.0,-0.6486979886541575,3.866660133803219,-1.75003075932946,0.3417791,0.7128797,-0.81306165,329.03864,-96.21194,2.3821576
2355181653000.0,-0.5878155998193907,3.420131721206708,-1.549957264731567,0.36651915,0.89736104,-0.77579886,328.8641,-96.20716,2.0784292
2355186538000.0,-0.5367478379358936,2.9744494709338096,-1.215695625503622,0.37659842,1.0873401,-0.7134906,328.6459,-96.22148,1.7921941
2355191370000.0,-0.5620280033890548,2.645906785631841,-0.8457873433631841,0.33383787,1.1746938,-0.69058317,328.40378,-96.2573,1.5284855
2355196397000.0,-0.6961566967044777,2.4638751640597016,-0.4050789068059701,0.3032946,1.3356569,-0.65148777,328.09293,-96.31669,1.2977854
2355201417000.0,-0.8216146321551914,2.249766465074583,0.1202339923800426,0.22724187,1.5173893,-0.61819565,327.7565,-96.30141,1.0913509
2355206514000.0,-0.9363927500624586,1.984341978462782,0.7802081890734074,0.12003502,1.7125608,-0.5983425,327.3779,-96.27694,0.90097845
2355211513000.0,-1.0489640295245792,1.7240208074656478,1.4274930643471233,-0.049480084,1.8729129,-0.5726862,326.9983,-96.091194,0.7114063
2355216402000.0,-1.200783357343503,1.0724366270877128,2.4882442581248254,-0.26267207,1.9752327,-0.5503896,326.59143,-95.873375,0.5371305
2355221346000.0,-1.3725405201748675,0.2400748765082319,3.747796984829318,-0.54153204,1.9975294,-0.54825157,326.17294,-95.598946,0.37304366
2355226429000.0,-1.6045569536890771,-0.5374929698747832,4.78672443931805,-0.88056225,1.9953914,-0.5571091,325.63852,-95.245255,0.20545764
2355231472000.0,-1.883669856906184,-1.2399270966846463,5.591499951020998,-1.239751,1.9898936,-0.54733527,325.10562,-94.81227,0.04421865
2355236518000.0,-2.1061427452032846,-1.4387938780212297,5.779759052663729,-1.5741998,2.0555615,-0.4831944,324.6127,-94.05727,-0.068494864
2355241473000.0,-2.2629575293010213,-1.08714883133587,5.295059077047867,-1.7440202,2.112983,-0.37110063,324.12958,-93.26886,-0.15845548
2355247229000.0,-2.4484715094946954,-0.5426817167667686,4.658356052256789,-1.7739527,2.0955732,-0.28038713,323.5637,-92.39487,-0.29867357
2355252136000.0,-2.6090314878708867,0.0192784590325481,4.062593837978781,-1.7376062,2.025629,-0.22082779,323.00134,-91.52172,-0.41653928
2355256529000.0,-2.786119569708878,0.4893172902991418,3.213798619889326,-1.6740762,1.9782871,-0.17501289,322.5083,-90.8079,-0.50867826
2355261391000.0,-3.0699229984200818,0.9224909356179324,1.4437614142754032,-1.557401,2.0137172,-0.12889257,322.01312,-89.395325,-0.5802481
2355266332000.0,-3.3583377950597484,1.3627029844702865,-0.355036165514476,-1.3658947,2.1673498,-0.06841691,321.57236,-88.97712,-0.6288221
2355271398000.0,-3.4558692775759603,1.508132601071399,-1.2675685864735915,-1.1410962,2.3848178,-0.0070249503,321.1028,-88.4658,-0.65964687
2355276480000.0,-3.480311881208672,1.5407227817862226,-1.837896429948941,-0.89888823,2.593123,0.049480084,320.59204,-87.99337,-0.6707313
2355281369000.0,-3.4836661701376053,1.4932010082357774,-2.1981751842267405,-0.679893,2.7363708,0.09162979,320.05267,-87.79599,-0.8879293
2355286364000.0,-3.449279970507291,1.2967083363318956,-2.212912126925447,-0.48624873,2.7672195,0.1301143,319.4918,-87.65489,-1.0876585
2355291361000.0,-3.404150954147306,1.3277677469599605,-2.098217314147306,-0.39187005,2.724459,0.14446963,318.89413,-87.57559,-1.3568876
2355296464000.0,-3.341341625842808,1.714286321700445,-1.7793394458428078,-0.18997909,2.422997,0.16768251,318.3642,-87.546616,-1.608388
2355301508000.0,-3.5572086578785336,2.351742620878813,-1.568200071004758,0.26206118,1.7928895,0.18295415,317.93216,-87.548134,-1.8596406
2355306639000.0,-4.203588189905775,3.392367676564978,-1.5131890398731225,0.6649268,1.0302242,0.17592919,317.62695,-87.52327,-2.1071188
2355311420000.0,-5.003041904482302,4.674444573461793,-1.5701052428713198,0.49021935,0.087964594,0.04520403,317.58347,-87.44064,-2.312582
2355317142000.0,-6.6616794451703605,7.321014043078067,-2.02328499292094,0.0106901415,-1.022283,-0.5311473,317.81354,-87.213715,-2.644357
2355321397000.0,-7.895077336751571,9.2890589737347,-2.360279022361892,-0.48747048,-2.3823745,-0.8472701,318.54532,-86.99673,-2.9141474
2355326436000.0,-10.286359563915564,11.54776789907592,-3.495969263263272,-0.88086766,-4.0048327,-1.6872098,319.66992,-86.43169,-3.4981058
2355331382000.0,-12.835365890333392,13.74918240279036,-4.770472404067766,-1.1230757,-5.6639423,-2.8225029,321.18628,-85.67034,-4.2543945
2355336515000.0,-14.719090242870951,15.377501575640409,-6.702138443296279,-1.1652255,-6.9937963,-3.9962804,323.1602,-84.38269,-5.5464277
2355341473000.0,-16.082270656114062,16.557088614789755,-8.93279670442726,-1.0552697,-7.5234165,-4.7006083,325.35693,-82.93584,-6.987311
2355346455000.0,-15.922903022766404,17.138178315955617,-10.73352562722403,-0.8689558,-7.3031993,-4.831944,327.83862,-80.97617,-8.96567
2355352640000.0,-14.200433178687582,17.257164723550794,-12.529652822077674,-0.61911196,-6.7717466,-4.724432,330.32574,-78.984055,-10.9672785
2355356484000.0,-13.090023560820434,16.933194464818158,-13.558068197702022,-0.3390302,-6.0570345,-4.606535,332.63458,-76.8389,-13.133649
2355361503000.0,-11.606646219827176,16.1755303997721,-14.82692677779888,-0.043066,-5.041471,-4.459927,334.62018,-74.84196,-15.144684
2355366398000.0,-10.147162115797045,15.650678919782251,-15.974692326622844,0.33658674,-3.6199875,-4.1911464,336.1188,-73.13922,-16.859766
2355371400000.0,-8.631736652239113,15.517833588434677,-16.978415347986854,0.7874053,-1.7440202,-3.8542542,337.1183,-108.45255,-18.44763
2355376412000.0,-7.423534055953155,15.740302631285436,-17.76451055581374,1.1435398,0.56077427,-3.5246925,337.44614,-109.83895,-19.79136
2355381590000.0,-6.65843250644112,16.523840055395482,-18.234632432753976,1.35551,2.9917126,-3.2253685,337.10895,-111.142845,-20.985798
2355386696000.0,-6.07117473828063,17.21546163101859,-18.37315043413317,1.4208726,5.3462925,-2.9520063,335.9991,-112.251274,-21.863194
2355391453000.0,-5.890192545367869,17.682395613141587,-17.790388075321786,1.4001031,6.4553185,-2.82403,334.4819,-113.35461,-22.611963
2355396326000.0,-5.704797080565708,18.160715834895917,-17.19341498839981,1.3845261,8.469952,-2.56991,331.9253,-114.279106,-22.94646
2355402226000.0,-5.514742273425949,18.527233513445445,-15.763059504265172,1.3973542,9.877385,-2.3701572,329.20715,-115.2224,-23.13558
2355406680000.0,-5.379593352620034,18.75248201632952,-14.51206518644894,1.5558738,9.963212,-2.1670444,326.29764,-116.14786,-23.11731
2355411338000.0,-5.0840467001737,18.963568520282006,-12.94139486900991,1.8493946,9.963212,-1.8808541,323.07236,-116.973465,-22.793016
2355416398000.0,-4.31659080786758,19.12201109512619,-10.475633655154796,2.257147,9.963212,-1.4758505,319.89594,-117.79285,-22.267776
2355421331000.0,-3.159018715695969,19.25221141262749,-6.766288263020884,2.765387,9.963212,-0.893085,316.91125,-118.48378,-21.503723
2355426512000.0,-0.9371986605983488,19.32932452083536,0.3377527920155412,3.3362405,9.289733,-0.25167647,314.24005,-119.19382,-20.601423
2355431386000.0,1.359390947803206,19.39301166831334,6.210893869261014,4.687169,5.6236253,0.39278635,312.69974,-119.8689,-19.754019
2355436413000.0,4.354046444162718,19.43184054269584,9.81224670400242,6.5582495,1.9507982,1.144456,311.4784,-120.70244,-18.79381
2355441368000.0,6.9270030082385246,19.46495618007061,12.571116910160846,7.877718,-1.119716,1.9706513,311.8403,-120.89579,-17.845886
2355446389000.0,8.455013071596705,19.48382038632797,13.113465671635936,8.425664,-3.4309247,2.7382035,313.02463,-121.27791,-17.125875
2355451542000.0,9.631898777003483,19.31476780487805,13.898065407665506,8.36305,-5.0802608,3.3680055,314.8932,-121.46669,-16.36729
2355456590000.0,9.622540531552458,18.589517951219516,15.34388452651955,7.9006257,-6.7580023,3.7610974,317.35028,-121.677,-15.83921
2355461406000.0,9.360248772963075,17.628913534025024,16.616720027464144,7.085426,-9.2216215,3.7391062,320.22836,-121.83478,-15.47346
2355466558000.0,7.739180069636863,15.179745177601465,17.41470775770522,5.7302213,10.002308,3.467271,317.84857,-121.8638,-12.419018
2355471386000.0,6.42720685510104,13.050390078477536,18.08604814361389,4.205807,10.002308,3.1395419,321.0551,-121.54944,-12.375392
2355476544000.0,5.918407294320188,11.490071297233666,18.47370569393761,2.6514606,10.002308,2.7999008,319.21695,-121.09261,-9.80368
2355481472000.0,5.749645923508772,9.93138380982456,17.876639601403507,0.64751714,-10.005973,2.5289822,322.43085,-120.2006,-10.336939
2355486406000.0,7.102903110573731,8.044890129065909,12.63837009179706,-0.6533204,-6.914384,2.2907448,319.67804,-119.18826,-7.7566285
2355491561000.0,8.38829168613694,6.057366905536771,7.465238095773457,-0.75777835,-3.5573738,1.6328428,321.79318,-118.06797,-8.108657
2355496392000.0,8.141906847472526,4.008072672747252,6.002573908131868,-1.0134255,-1.3765849,1.0424415,323.37875,-116.580574,-8.203023
2355503178000.0,7.782879259189498,1.2360258025114157,3.9898403233637754,-1.3970488,0.47158796,0.36865717,323.9354,-115.62889,-7.7235036
2355506484000.0,7.379286760730594,1.7691292470319633,3.7488896587519034,-1.740966,0.79229224,0.20861048,324.30484,-114.61706,-7.173723
2355511391000.0,6.780246110416666,2.5603992416666665,3.3912535694444443,-1.7922786,1.1481212,0.10323623,324.07477,-113.89095,-6.566695
2355516396000.0,6.1465913832065775,3.362262319116136,2.8105811180678315,-1.788308,1.321607,0.32284227,323.82245,-113.06813,-5.893817
2355521402000.0,5.496203271202466,4.160465932168551,2.071503664275437,-1.700038,1.3640621,0.71929383,323.51263,-112.2482,-5.170133
2355527516000.0,4.715124760440175,4.969012219248345,1.2922839550219156,-1.5039502,1.3631458,1.149343,323.19586,-111.45703,-4.437794
2355531403000.0,4.222169714818614,5.4376666818987225,0.8305725523267743,-1.2589933,1.3939945,1.5366315,322.8879,-110.69032,-3.5995364
2355536647000.0,3.5426594020497806,5.872521508889354,0.3195821277870738,-1.0439687,1.4569136,1.8545868,322.6042,-110.0136,-2.7437725
2355541400000.0,2.9142919250366037,6.096258470822004,-0.0469656085599247,-0.8524625,1.5231925,2.0796907,322.331,-109.41105,-1.8056493
2355546396000.0,2.314799082253649,6.143475236405109,-0.2483460010976277,-0.72204274,1.5647314,2.2122486,322.06595,-108.91284,-0.9153047
2355551574000.0,1.740185414279197,6.048460353740876,-0.3162137589060219,-0.62888575,1.5549575,2.2745566,321.80255,-108.48947,0.012961989
2355556386000.0,1.1961189329096016,5.894513473843684,-0.3196003506170362,-0.5549711,1.4987578,2.2879958,321.5419,-108.14606,0.8357852
2355561418000.0,0.6110833104193839,5.628588202367814,-0.2277352559165245,-0.49418998,1.4034629,2.2363777,321.2859,-107.855965,1.6447697
2355566389000.0,0.0988650381139329,5.331195040008095,-0.1460775525683497,-0.45051312,1.2895365,2.151162,321.03137,-107.57009,2.2796972
2355572269000.0,-0.3854502499160175,4.915253847252859,-0.0663079762413235,-0.43493605,1.1591167,2.019826,320.79022,-107.30874,2.8693933
2355576448000.0,-0.6444956801630186,4.570762973807126,-0.0327421717476875,-0.44348818,1.0201449,1.8713857,320.51572,-106.929054,3.1564536
2355581481000.0,-0.8563835051561498,4.098429544573679,-0.0194991821094422,-0.4804455,0.95386606,1.6975945,320.2361,-106.54972,3.396624
2355586406000.0,-1.026226393420261,3.60153632002006,0.0391967063398194,-0.5555819,0.8356637,1.6114625,320.02652,-106.21156,3.614173
2355591402000.0,-1.0742161053159478,2.982469231995988,0.250351362012036,-0.58459806,0.7452556,1.4523321,319.8021,-105.86892,3.7609198
2355596384000.0,-1.1098033029923453,2.323265282574809,0.7503298207933193,-0.659429,0.6429357,1.3093897,319.64725,-105.57706,3.945592
2355602229000.0,-1.1042384957550453,1.3883770623938765,2.453162125386221,-0.75900006,0.41599923,1.1823297,319.53638,-105.2648,4.0719843
2355606412000.0,-1.1024347799369214,0.7106791773710448,3.876766314609828,-0.94042706,-0.057421334,1.0488557,319.53766,-104.94665,4.203323
2355611421000.0,-1.1073152551836405,-0.1287631562173161,6.24379833811171,-1.2696834,-0.75961095,0.9221011,319.653,-104.55438,4.2673926
2355616391000.0,-0.8707413723394,-0.291998829936055,8.181363707407773,-1.715615,-1.7189748,0.8155051,319.87967,-103.78101,4.136274
2355621402000.0,0.0687457383610425,1.4878335378160354,8.94145146238072,-2.293188,-2.8567114,0.8897252,320.3444,-102.90981,3.9829774
2355626629000.0,1.1194013462396095,3.282889272876762,8.668986626581136,-2.8866436,-3.5161405,1.1780536,320.95532,-101.79346,4.0621886
2355631413000.0,2.266029251653415,4.764812674828334,5.63062945491507,-2.9654453,-3.1309898,1.4532484,321.5794,-100.69296,4.1658688
2355636665000.0,3.478290942552416,6.353243090975387,2.349154841367365,-2.3808472,-2.2375994,1.6554449,322.15244,-99.558655,4.433644
2355641366000.0,3.9256238324247943,7.247908956426619,0.1535300362989975,-1.647809,-1.2599095,1.9263636,322.572,-98.61185,4.831428
2355646363000.0,4.401123183773929,8.198907750227894,-2.180343001549681,-1.212873,-0.28588495,2.3270912,322.82434,-98.42313,5.5380373
2355651675000.0,4.469574488301226,9.44417532574431,-3.048369726882662,-1.2287555,0.6542367,2.7656925,322.7959,-98.489296,6.3524127
2355656448000.0,4.445558691593695,10.6089419676007,-3.512675422460596,-1.591304,1.3234396,3.1267138,322.55566,-98.776886,7.264685
2355661473000.0,4.15924964288677,12.355593830775613,-3.536328209912899,-2.1209242,1.6530013,3.3860261,322.2958,-99.51001,8.369803
2355666476000.0,3.657467262909581,14.526672760472833,-3.173653819545832,-2.6740627,1.6759088,3.4953709,321.93323,-100.32109,9.522027
2355671457000.0,3.249585644988524,15.969424754399387,-3.004816552716144,-3.1969633,1.6358972,3.4712417,321.51672,-101.155205,10.634432
2355677208000.0,2.843993839900536,17.12299087146136,-2.94687495270658,-3.769955,1.4993688,3.3585372,321.1161,-102.00348,11.720323
2355681672000.0,2.3350309767722166,17.75165392737487,-3.0749161152400406,-4.3169847,1.2678508,3.1343496,320.70358,-102.65549,12.550654
2355686416000.0,1.6760527428192034,18.257488863432076,-3.3162320077017364,-4.757113,1.0812315,2.957504,320.3036,-103.34523,13.333827
2355691401000.0,0.5353184806762334,18.67847399764105,-3.370968171692549,-4.9473977,0.36865717,2.4291058,320.11,-76.163,13.826298
2355696396000.0,-0.9645568872223316,19.012302897287203,-3.267528467446432,-5.2516084,-0.573297,1.6603317,320.02887,-75.70213,14.192279
2355701546000.0,-3.637007022638485,19.238696636682363,-4.077517028147851,-5.436701,-1.5125023,0.7309003,320.18875,-75.46089,14.261787
2355706493000.0,-7.14883539477111,19.35733940338576,-5.6246197961534605,-5.4706035,-2.2088888,-0.36285394,320.55768,-75.38842,14.087332
2355711712000.0,-8.945445992954989,19.431420141291586,-8.147684781604696,-5.378974,-2.5259278,-1.568702,321.08047,-75.71053,13.433633
2355716404000.0,-9.222438809784736,19.4621968148728,-11.040720103326809,-5.0955324,-2.1975877,-2.6093109,321.63416,-76.17091,12.561702
2355721395000.0,-9.103861034680396,19.485909548766276,-13.412320702836604,-4.650517,-1.142318,-3.1606169,322.2529,-77.10012,11.166011
2355726561000.0,-8.517519030988925,19.50032807858947,-15.075224185447832,-3.7702603,0.6065892,-3.1089988,322.57364,-78.05867,9.687677
2355731368000.0,-7.979480326202456,19.51195332300261,-15.323395695914671,-2.5088236,2.4480424,-2.627637,322.78198,-79.17566,8.218279
2355736482000.0,-7.417673463232038,19.52180978868988,-13.766105507345545,-1.1640037,3.9547415,-1.8603901,322.52386,-80.26123,6.8572083
2355741387000.0,-6.365019679083863,19.0821127782194,-9.661959745727344,0.18936823,4.8154507,-0.89736104,321.93448,-81.42365,5.782419
2355746405000.0,-4.617339879103736,18.04591971144674,-2.055255616752783,1.582141,4.099211,0.11484267,321.29507,-82.65046,4.9913535
2355751477000.0,-3.3250834799674265,16.643850872692724,3.0075228453311618,2.728735,0.9086621,1.1093313,321.0332,-83.71802,4.5909333
2355756400000.0,-2.680934052768729,14.826581904451682,4.543243430184582,2.6972754,-1.0564915,2.0320432,320.59995,-84.52681,4.462049
2355761354000.0,-2.1293171966409927,12.944606090500642,5.6490785255883615,2.558609,-2.2201898,2.5558603,320.64584,-84.66888,4.7136497
2355766403000.0,-1.9534493678540863,10.813501939345317,5.018023416538297,2.4923303,-2.7867672,2.73576,321.0797,-84.56207,5.1367817
2355771324000.0,-1.6888330428707377,8.998564457573353,4.26797868481364,2.402533,-2.8625145,2.6007588,321.6341,-84.16886,5.6798573
2355776611000.0,-1.20198134591594,7.618314704004758,3.168798020568993,2.3063216,-2.5870142,2.2449298,322.24548,-83.74343,6.194756
2355781395000.0,-0.7215762657215813,6.5025186498014,2.221685969607528,2.1771238,-2.395508,2.021964,322.92734,-83.25461,6.732519
2355786391000.0,-0.1378710578910537,5.611123862965765,1.33029124419425,2.1022928,-1.9553796,1.5149459,323.45663,-97.069336,7.069333
2355791356000.0,0.4043150334614273,4.844642491866512,0.5368850201516903,1.9376645,-1.4957036,0.9773844,323.9877,-97.41396,7.3991723
2355796402000.0,0.8022492344698062,4.547937145131465,0.1040443487142444,1.7654005,-1.03786,0.5039638,324.38797,-97.641685,7.590786
2355801495000.0,1.2038899173345852,4.248468193303959,-0.3328279342090436,1.5690074,-0.5983425,0.116675265,324.74457,-97.85286,7.746147
2355806394000.0,1.4601479067658447,4.080740196311392,-0.6484534490319951,1.353372,-0.23823744,-0.18692477,324.985,-97.9512,7.784401
2355811660000.0,1.5629223693702874,4.060185250132464,-0.8488637852557571,1.1337659,0.02107485,-0.43066,325.12326,-97.9508,7.7275705
2355816406000.0,1.5541952313016631,4.050989,-1.057061612344388,0.9098838,0.19242255,-0.6105598,325.18634,-97.979866,7.6806364
2355821399000.0,1.439903019749029,4.050989,-1.3046946959366597,0.7110472,0.31673363,-0.73945236,325.1859,-97.949715,7.581921
2355827470000.0,1.2537797800881565,3.938236770946723,-1.6275735189344576,0.5381723,0.38820487,-0.86162543,325.1512,-97.88725,7.450044
2355831491000.0,1.1061817237255651,3.8053985895745495,-1.8526605914909928,0.41447207,0.45051312,-0.9633345,325.08234,-97.78916,7.2914925
2355836411000.0,0.9357206939710858,3.659140436686148,-2.1676074974879525,0.32834008,0.54244834,-1.0525209,324.99445,-97.656235,7.090605
2355841400000.0,0.7789568301138111,3.536668645668,-2.5497193708807546,0.26358834,0.6722572,-1.1145236,324.87744,-97.50088,6.8733263
2355846391000.0,0.6464727911442455,3.492246977991616,-2.937969127286585,0.22235495,0.8359691,-1.1481212,324.73,-97.3286,6.61568
2355852385000.0,0.5261532063976753,3.563344978029726,-3.413778512347561,0.18936823,0.9993755,-1.138042,324.54547,-97.15608,6.358435
2355856405000.0,0.4772147229417168,3.5880513560681844,-3.6805348933040727,0.18753563,1.135293,-1.0922271,324.33234,-97.00616,6.0829754
2355861476000.0,0.4722576845697662,3.578137310380729,-3.923429064407472,0.20280726,1.244027,-1.0360274,324.08005,-96.87617,5.8193355
2355866324000.0,0.4708715193932838,3.456373339196689,-4.083006638058508,0.25778514,1.3457361,-0.9859365,323.805,-96.800995,5.5516148
2355871421000.0,0.4754631008541059,3.125780317844041,-4.119739126733139,0.31306845,1.3836098,-0.95417154,323.51654,-96.762184,5.2994194
2355876520000.0,0.4239605232113915,2.6770690919194258,-4.033006116693679,0.36651915,1.4993688,-0.91690874,323.18295,-96.79496,5.068023
2355881460000.0,0.2231410088886316,1.9249086875356949,-3.616762143706105,0.3903429,1.6575829,-0.90469146,322.82477,-96.86274,4.844983
2355886424000.0,0.0213458532007408,1.169094062563865,-3.1984959327930844,0.410196,1.806634,-0.87872964,322.43268,-96.99335,4.647953
2355891461000.0,-0.2252513497420609,0.4072559164169984,-2.446040196268864,0.39736784,1.8961257,-0.8891144,322.01013,-97.1448,4.4514074
2355897086000.0,-0.5244988489319508,-0.4406120147930745,-1.418623816998426,0.37201694,1.8570304,-0.91690874,321.58044,-97.324814,4.2626934
2355901539000.0,-0.7322183756736811,-1.1771143902463348,-0.0771894418270668,0.35460728,1.67316,-0.9789116,321.13876,-97.448074,4.029428
2355906399000.0,-0.936457401324424,-2.031204741298494,1.7934540758751372,0.29718593,1.2993103,-1.0341948,320.76074,-97.575264,3.7856078
2355911391000.0,-1.1242696183142968,-2.852519247892871,3.1402119993698308,0.118202426,0.74220127,-1.0940597,320.44968,-97.528595,3.473313
2355916435000.0,-1.2907415340685309,-3.623046667585664,3.89171416226861,-0.22388211,0.2666427,-1.1148291,320.22144,-97.44011,3.146309
2355921460000.0,-1.4153473245089667,-4.144966217164816,3.974497607173357,-0.6252206,0.19639318,-1.0403035,320.0207,-96.97556,2.8219695
2355926512000.0,-1.493390346313692,-4.388276510019926,3.295064917620268,-0.93279123,0.58001655,-0.8491027,319.83423,-96.45692,2.5212317
2355931482000.0,-1.5201028664047964,-4.358046916497829,2.584680541409965,-1.1261301,1.0980303,-0.5726862,319.6139,-95.75892,2.2395742
2355936467000.0,-1.460883859323961,-3.864555362590449,1.800028865060988,-1.1954633,1.534799,-0.2782491,319.31757,-95.03014,2.0203476
2355941389000.0,-1.4642206638888888,-3.2580097625,1.0717378214826387,-1.1798862,1.892155,-0.02076942,318.9052,-94.42197,1.8450387
2355946463000.0,-1.55581401515873,-2.462593213214286,0.3871975314114086,-1.1191051,2.2058344,0.17195857,318.38654,-93.83116,1.7368637
2355951574000.0,-1.6801346022564982,-1.7067350322574504,-0.1896331702114634,-1.0027353,2.4798074,0.30726522,317.79007,-93.41529,1.6850324
2355956390000.0,-1.838221693716081,-1.0524302367514045,-0.5892421311452918,-0.86193085,2.717434,0.41447207,317.11667,-93.04835,1.6785781
2355961338000.0,-1.989813325806452,-0.4175178796774194,-0.93806365,-0.73792523,2.92299,0.49510628,316.38852,-92.82159,1.6710188
2355967303000.0,-2.1404794959220936,0.2373003968594035,-1.1756526012578616,-0.58459806,3.086702,0.55833083,315.6058,-92.653656,1.6868838
2355971328000.0,-2.2628954411285687,0.658145329344702,-1.0801193896165933,-0.41263947,3.1392365,0.5925393,314.8202,-92.56727,1.6768644
2355976549000.0,-2.4640854606629623,1.1611203331634412,-0.4334372091228206,-0.32528573,3.1047225,0.6774496,314.01563,-92.51706,1.697294
2355981373000.0,-2.661784455299665,1.6238734653731073,-0.045866906009067,-0.17256944,2.8597655,0.68966687,313.29135,-92.5186,1.6879617
2355986432000.0,-2.907785703898812,2.102697288212893,-0.3270111886807508,-0.032070424,2.5857925,0.7180721,312.5902,-92.55447,1.7058868
2355991558000.0,-3.229680375073769,2.6282823041776675,-0.6061260712284516,0.24831672,2.4205534,0.74128497,312.27008,-92.5542,1.9047834
2355996427000.0,-4.5512953748718745,3.692816032217736,-0.7907900836558471,0.5928447,2.160325,0.7486154,312.0491,-92.62005,2.0983958
2356001667000.0,-5.973612606118962,4.838463338631776,-0.9895248187389344,0.63621616,1.7235563,0.6649268,311.8586,-92.6284,2.1356728
2356006447000.0,-7.897628533377446,6.929674860024577,-1.3360519348142543,0.39492437,1.174083,0.4266894,311.77728,-92.61085,2.1260304
2356011482000.0,-10.614204361385765,10.284372899914924,-1.883013517950657,0.12156218,0.46089783,0.008552114,311.86798,-92.53198,2.0337095
2356016396000.0,-12.972035222643054,13.043629870815844,-2.5727731095301465,-0.09285152,-0.5644395,-0.72143185,312.28778,-92.046,1.383268
2356021396000.0,-14.810146595352643,14.867036053639062,-3.572706060702221,-0.25045475,-1.9578232,-1.9318613,313.01154,-91.53932,0.48650312
2356026591000.0,-16.205911314635348,16.29573707383377,-5.085974583196451,-0.321926,-3.6862664,-3.5503488,314.28802,-91.92256,-1.2537727
2356031545000.0,-16.83324452077858,17.02048212951708,-7.178382494661629,-0.26053402,-5.2586336,-5.1031685,315.88855,-93.52437,-3.216119
2356036932000.0,-17.420337079492086,17.788060285267,-9.40649174499913,-0.21227567,-5.7897806,-5.9015694,317.6528,-95.83796,-5.6300507
2356041478000.0,-16.545675688119672,18.14019657662202,-10.606784405287875,-0.2611449,-5.2671857,-5.888741,319.5161,-98.24197,-8.087849
2356046326000.0,-15.6129087665681,18.515725995999304,-11.88681494138111,-0.29138273,-4.2497897,-5.3866096,321.26004,-100.83609,-10.66095
2356051641000.0,-14.116900213343603,18.746208076441707,-12.71630523673823,-0.22357668,-3.1768048,-4.704273,322.76614,-103.20833,-13.016195
2356056431000.0,-12.549086682969095,18.86986635120824,-13.197690321940888,-0.042760566,-2.1022928,-4.0604215,323.92792,-105.31692,-15.100602
2356061389000.0,-10.816990420765029,18.72261795081967,-13.855428674863388,0.15088372,-0.754724,-3.5931094,324.57672,-107.08682,-16.796389
2356066432000.0,-8.974321131537861,18.36916506440281,-14.642450632123342,0.23518312,0.04337143,-3.2406402,325.03638,-108.63589,-18.261448
2356071406000.0,-7.571714753871991,18.252669998600485,-15.197855163883188,0.19700404,1.738828,-3.0677652,324.7516,-109.89485,-19.366743
2356077577000.0,-6.286965293524911,18.362948267400636,-15.644484887385708,0.14813483,3.4694092,-2.7681358,324.19553,-110.99111,-20.268845
2356081414000.0,-5.633741142916236,18.511669890382624,-15.484553682678388,0.077579886,5.0842314,-2.5445592,323.101,-111.905754,-20.891865
2356086414000.0,-4.970198226680455,18.808779507755943,-14.712071004291625,0.118507855,6.4369926,-2.356718,321.54617,-112.746,-21.34734
2356091401000.0,-4.392716791375198,19.035773122416533,-13.63459066037361,0.26542094,7.4467525,-2.17804,319.59116,-113.442276,-21.531803
2356096394000.0,-3.917587694018283,19.178311762321144,-12.180695441872018,0.5345071,8.079915,-1.9755383,317.34665,-114.108185,-21.55815
2356101527000.0,-3.440901378095872,19.286551086218378,-10.703235743175766,0.9211848,8.400619,-1.7333301,314.94586,-114.66726,-21.365059
2356106650000.0,-2.97951613623502,19.34779643184088,-9.249668270597535,1.4199562,8.431773,-1.4074335,312.4804,-115.22404,-21.015232
2356111521000.0,-2.441804092244827,19.405229453660237,-7.58965005581638,2.0100522,8.211862,-0.9850202,310.11984,-115.67757,-20.473835
2356116391000.0,-0.317055313336811,19.44983343731525,-1.4749147649973915,2.6325238,7.5234165,-0.5198463,307.9535,-116.16251,-19.821413
2356121360000.0,1.8508865105633805,19.495344154929576,4.764124179577465,3.381139,5.369811,-0.112399206,306.45,-116.5789,-19.139452
2356126721000.0,3.6638115994690255,19.514709056283188,7.296672479646017,4.829195,2.6410758,0.26633725,305.37567,-117.20863,-18.451824
2356131440000.0,5.099587603584071,19.522707970088497,8.24852401238938,6.4153066,0.20555615,0.76052725,304.90137,-117.976425,-17.813337
2356136373000.0,6.309375078949563,19.52944113130471,8.518240265527302,7.5646496,-1.7733418,1.3148874,305.72595,-118.177414,-17.088715
2356141359000.0,7.205060202084201,19.534416739474786,7.975853250937891,8.12573,-3.2378912,1.8570304,307.0616,-118.571556,-16.495905
2356146363000.0,7.711631997442455,18.975010028132992,8.631176700767263,8.140085,-4.148691,2.3151793,308.72888,-118.963776,-15.862282
2356153380000.0,7.963705249769821,17.53131761253197,10.951397103069054,7.8028874,-4.6602907,2.6865854,310.66132,-119.39328,-15.291735
2356156400000.0,7.830250024168236,16.626669625444652,12.03725274597196,7.2152348,-5.8215456,2.8677068,312.77405,-119.867805,-14.794583
2356161463000.0,6.8308764362837415,14.20179350261561,14.137459093952708,6.283971,-8.263785,2.6823094,315.31516,-120.219666,-14.57323
2356166388000.0,6.334857099741335,12.079249250646663,15.197582532591824,4.7607784,-9.290344,2.468812,317.78534,-120.215546,-14.348393
2356171414000.0,6.973974838868771,10.481454902828077,13.91519720253492,3.9837577,10.002308,2.3790147,315.52924,-120.236694,-11.835345
2356176978000.0,7.631015315221504,8.679127469437532,12.283575121353907,2.4654522,-7.972402,2.017077,323.29773,-119.63176,-14.573072
2356181479000.0,7.708257135291189,6.9197313777999,9.056584851667496,0.56107974,-6.1101794,1.8014416,320.7159,-118.848755,-12.29164
2356186780000.0,7.772711024629499,4.87183718659139,5.384983869442484,0.2144137,-3.2543845,1.3148874,322.38675,-118.34268,-12.197395
2356191467000.0,7.277755679437191,3.56515554332216,4.822714629057869,-0.4269948,-1.3897184,0.83199847,323.7955,-117.28874,-12.021374
2356196338000.0,6.763369614484827,2.207176818260409,4.238372092272407,-0.9477574,-0.29565877,0.39400807,324.47763,-116.597015,-11.613123
2356201673000.0,6.041571110409157,1.9117355125811104,3.937014205118962,-1.2990049,0.2919936,0.06414085,324.74985,-115.82316,-11.130342
2356206471000.0,5.333445074666546,2.0898023686012976,3.792076207281904,-1.5332718,0.6056729,0.005192355,324.78015,-114.95695,-10.587502
2356211461000.0,4.774710131791907,2.704524555333684,3.410636512926957,-1.6377298,0.8222246,0.2049453,324.65414,-114.19262,-10.081548
2356216458000.0,4.397500755144509,3.760711062028376,2.7920130070835523,-1.6740762,1.0219775,0.5476407,324.4544,-113.36605,-9.513811
2356222146000.0,4.108609909397325,4.618707731617512,2.1169759674482505,-1.5949692,1.1933253,0.9615019,324.24005,-112.541985,-8.953707
2356226643000.0,3.94293759560359,5.143336450705258,1.596291740959883,-1.4556919,1.312444,1.3274102,324.01,-111.68373,-8.29518
2356231371000.0,3.7307742911457793,5.514472508957537,1.1468965603988015,-1.2461652,1.3374895,1.5952746,323.7809,-110.85328,-7.5761685
2356236408000.0,3.4466965461927885,5.63408416365327,0.8179645360057859,-1.0115929,1.2907583,1.7253889,323.5521,-110.04591,-6.7899537
2356241400000.0,3.130317302929885,5.6205832192362095,0.6394283846393212,-0.795652,1.169807,1.7492126,323.33746,-109.33137,-5.9826827
2356246403000.0,2.772109276035563,5.451160551626591,0.6345877521570015,-0.5879578,1.0207558,1.6963727,323.1397,-108.68831,-5.1699457
2356251781000.0,2.434623577775636,5.150427289369699,0.6935394836382036,-0.43768495,0.82924956,1.6084082,322.97433,-108.15113,-4.4181733
2356256671000.0,2.168335460774865,4.775818556042792,0.8018600386979569,-0.30115658,0.64843345,1.5008959,322.8338,-107.69051,-3.7015939
2356261622000.0,1.9544566044630405,4.324509163040446,0.93029930013947,-0.22388211,0.4801401,1.393689,322.7267,-107.29174,-3.095899
2356266398000.0,1.8132030025503088,3.8050604503088254,1.0761095143654114,-0.17562376,0.40439278,1.350623,322.63385,-106.93866,-2.5129285
2356271377000.0,1.8017575159849144,3.016036566212165,1.6885232540373272,-0.16676621,0.24801129,1.303281,322.59076,-106.616646,-2.044619
2356276720000.0,2.014528269335654,1.7592050684459914,3.108643931002804,-0.19700404,-0.024129177,1.2843442,322.59274,-106.30625,-1.5984187
2356281360000.0,2.135628,0.9610381860379668,3.841894690630741,-0.37232238,-0.44043383,1.3078625,322.6726,-105.97339,-1.2019898
2356286486000.0,2.135628,0.6954933890589916,3.60140126985099,-0.7635816,-0.7467828,1.3912456,322.79315,-105.577,-0.8080074
2356291351000.0,2.093110788861362,0.5380018863145377,3.401104533861857,-1.1866057,-0.8753699,1.4914275,322.9957,-104.99962,-0.33527032
2356296401000.0,1.9732938713110693,0.542794557011198,3.24294635082747,-1.566564,-0.8588765,1.6050484,323.23932,-104.33321,0.15634662
2356301691000.0,1.8399341624561405,0.7023887659649123,3.3328745141520466,-1.9034561,-0.7134906,1.6991217,323.48843,-103.624855,0.68918097
2356306669000.0,1.7026829768151146,1.0841186008367072,3.800386552784525,-2.2116377,-0.5119051,1.7788396,323.71155,-102.841385,1.2596856
2356311396000.0,1.603734200973869,1.5398047275865392,4.412892505640729,-2.4761422,-0.30757064,1.8457294,323.88986,-102.032135,1.8467487
2356316403000.0,1.7146999616334009,2.6633328973580177,6.220709178767717,-2.6978865,-0.24740042,1.9074267,324.04123,-101.19646,2.462722
2356321536000.0,1.938631102321228,3.9132567666791465,7.722714030700112,-2.90161,-0.35613444,1.9336939,324.1338,-100.235374,3.0322943
2356326734000.0,3.485527343485586,6.354743938674654,5.034282839648071,-3.1132748,-0.4382958,1.9596558,324.18192,-99.30303,3.6273763
2356332062000.0,5.005836517946085,8.83168736063329,2.326426519418057,-3.114802,-0.061391957,2.0809124,324.00262,-98.182434,4.2256484
2356336451000.0,5.1281394116046215,10.428818355755242,0.9235410579546426,-2.545781,0.6032294,2.3716843,323.73056,-97.40798,4.883278
2356341479000.0,5.268248536534018,12.258477650235346,-0.6835922526486948,-1.8209893,1.2018774,2.8118126,323.4424,-97.49684,5.9115524
2356346461000.0,5.082791432344022,13.885342845998348,-1.6225124762473584,-1.5601498,1.6881261,3.3405166,322.9799,-97.93963,7.036731
2356351756000.0,4.649459151309382,15.478886792061015,-2.1443749873196727,-1.8777997,2.0189097,3.7830884,322.37378,-98.698074,8.243738
2356356640000.0,4.155504853296136,16.652059485430875,-2.481774425707791,-2.440712,2.3185391,4.075693,321.71484,-99.75045,9.508806
2356362090000.0,3.4813779773920235,17.574265034097955,-2.670529865364745,-3.0243938,2.6169467,4.2250495,320.9531,-100.91068,10.817692
2356366398000.0,3.069740945965058,18.10604043344426,-2.7273542324459235,-3.5964692,2.740036,4.2571197,320.1615,-101.991554,11.97637
2356371396000.0,2.711351653140599,18.52913963685524,-2.70246610515807,-3.8869355,2.8814514,4.2470407,319.2625,-76.87505,13.1210575
2356376719000.0,1.7427249127590212,18.84364500532069,-2.615114012092483,-4.463287,2.867096,4.1212025,318.35278,-75.872375,14.052856
2356381409000.0,0.5000284346028829,19.03048367998452,-2.497796545419367,-4.990769,2.52043,3.7849212,317.4836,-74.88055,14.889111
2356386356000.0,-1.275209896515606,19.18147891566627,-2.327276199879952,-5.4064627,1.6832392,3.0784554,316.74405,-74.03547,15.483936
2356391396000.0,-3.612272704918967,19.28288042827131,-2.100329981392557,-5.6199603,0.43157628,2.0744984,316.22906,-73.288994,15.897361
2356396406000.0,-5.696017807499767,19.35901022852889,-2.225293630687634,-5.58453,-1.0375546,0.8744536,315.97253,-72.92251,15.854761
2356401724000.0,-7.629508061654414,19.411138702521637,-2.7655335495487114,-5.3032265,-2.3270912,-0.4361578,316.06235,-72.77149,15.555962
2356406384000.0,-9.04609915732713,19.44912986804821,-3.923262739268345,-4.8786755,-3.1285462,-1.6713274,316.57767,-72.98772,14.816291
2356411407000.0,-10.012457334425884,19.474560332417003,-6.552774560689364,-4.401895,-3.2898147,-2.6355782,317.31964,-73.39619,13.856087
2356416384000.0,-10.275422173826572,19.49498454972156,-9.263952942322993,-3.9025126,-2.6279423,-3.1483996,318.12564,-74.133865,12.527852
2356421396000.0,-9.63104474463007,19.50930383770883,-12.132625668257756,-3.3594534,-1.1291844,-3.0946434,318.7493,-74.904045,11.118747
2356426741000.0,-8.679060483261338,19.51984986471628,-14.476297537306106,-2.7608054,0.8542951,-2.563496,319.21454,-75.87039,9.647468
2356431744000.0,-7.498410293304536,19.5245542367956,-15.887432833104262,-2.122146,2.9596422,-1.643533,319.17538,-76.73612,8.283269
2356436526000.0,-6.6075056384615385,19.112606,-16.832833384615384,-1.269378,4.7864347,-0.5021312,318.8039,-77.66665,7.21126
2356441400000.0,-6.018356020274299,18.133782116279068,-17.254980784138343,-0.10598512,5.8038306,0.61636305,317.98013,-78.59536,6.3754497
2356446318000.0,-5.342305757601793,16.556549695928275,-14.680810630369816,1.2986995,5.2748213,1.5152513,317.0866,-79.61781,5.965772
2356451765000.0,-4.436192017276802,13.672574808927903,-6.043501000840491,2.9932396,2.50638,2.000889,316.48895,-80.784195,5.831745
2356456352000.0,-3.422227732690763,11.512783072289157,0.5838006666666667,4.6163087,0.010079277,2.1636846,315.9671,-81.97432,5.947041
2356461410000.0,-1.4476862919317268,10.048898845180725,5.685510216666667,4.684115,-4.288885,2.2971587,316.74615,-82.77574,6.310676
2356466328000.0,0.1155183594122992,8.894990664445118,9.304645449560738,4.4919977,-6.34689,2.617252,317.3856,-82.84258,6.8282375
2356471390000.0,0.5022441950681612,8.6306467167525,8.433288318994244,4.279111,-6.7277646,2.8252518,318.78323,-82.62932,7.336969
2356477626000.0,0.8841849595392369,7.527796253611712,6.405288973102152,4.100433,-5.987701,2.8145616,320.20456,-98.01164,8.009404
2356481396000.0,1.0314797823614112,6.173261400239981,4.334496898268139,3.8472292,-4.7552805,2.503631,321.5813,-98.678795,8.622388
2356486335000.0,1.2244477213318936,4.398712954403647,1.621594495720343,3.467271,-3.4510832,1.897042,322.76608,-99.337036,9.172275
2356491403000.0,1.5872213456145676,3.6690214638846737,0.4826652451168436,3.0176742,-2.3499987,1.0986412,323.63593,-99.84532,9.559863
2356496350000.0,1.9946062701365703,3.3095642364188165,-0.0972590835295903,2.5234842,-1.498147,0.32711834,324.1847,-100.16342,9.776939
2356501754000.0,1.932605305544498,3.3631302373992984,-0.4043743467140555,2.0060816,-0.8332202,-0.25167647,324.6544,-100.41498,9.869913
2356506362000.0,1.7653038536252488,3.509518985991849,-0.592588432082267,1.4941764,-0.3631594,-0.6444628,324.9181,-100.46691,9.796456
2356511515000.0,1.421727054806786,3.552092706880301,-0.950730507068803,1.0231993,-0.10445796,-0.9111055,325.07874,-100.53819,9.712458
2356516367000.0,1.0275705996596505,3.537494228379935,-1.3546191880615772,0.623388,0.014660766,-1.1301007,325.13522,-100.48044,9.537688
2356521396000.0,0.7197229951236442,3.432398118394794,-1.7758557160520607,0.355829,0.08582657,-1.3179418,325.144,-100.31766,9.278801
2356526733000.0,0.4270242115652929,3.2904836069067245,-2.223773570932755,0.1872302,0.18509217,-1.491733,325.10687,-100.07215,8.968261
2356531397000.0,0.2136418236534935,3.1441447403519867,-2.591722689935715,0.09773844,0.31520647,-1.6145169,325.05997,-99.763504,8.576183
2356536405000.0,0.0316855184141637,2.962188515333544,-2.9606896364211197,0.045814894,0.47219884,-1.6988163,324.9754,-99.41299,8.152174
2356541468000.0,-0.0809705145758092,2.874347356899489,-3.2240556340715503,0.010079277,0.6462954,-1.740966,324.86563,-99.05588,7.671722
2356547214000.0,-0.1471434797274275,2.857804070698467,-3.428088902214651,-0.009162978,0.81489426,-1.7327193,324.7117,-98.70236,7.1885815
2356551771000.0,-0.1512630042309142,2.876973943590952,-3.459066739905749,-0.013744468,1.0005972,-1.6829338,324.51517,-98.38335,6.6904564
2356556400000.0,-0.1345500760810556,2.91039981734213,-3.433997367313854,-0.027183503,1.0800097,-1.6065756,324.30063,-98.09277,6.2069345
2356561424000.0,-0.0805798746248336,3.007360520728836,-3.3354746229910943,-0.016493361,1.2073752,-1.5564847,324.02573,-97.85131,5.7308645
2356566398000.0,0.0169429793377009,3.178025390418671,-3.150181183150783,0.0076358155,1.3338243,-1.4544702,323.73047,-97.667175,5.296859
2356571395000.0,0.0625106334343786,3.052921326829268,-2.824123506678281,0.03940081,1.412015,-1.3252722,323.4125,-97.52901,4.8928647
2356576697000.0,0.0526817055756871,2.5909619463414635,-2.322848297754549,0.09590584,1.4462235,-1.2302825,323.07205,-97.44325,4.514125
2356581397000.0,0.0238552633252153,1.997030258853579,-1.673682744104544,0.16554448,1.4422529,-1.1902709,322.7208,-97.38716,4.1782317
2356586413000.0,-0.0332130622773982,1.1219825486308288,-0.7130326363528363,0.20769419,1.3720033,-1.1936307,322.3805,-97.369705,3.8598478
2356591356000.0,-0.1214074163022955,0.1683807056663023,0.4300426745205207,0.23732115,1.2388347,-1.2269229,322.04865,-97.33041,3.553871
2356596398000.0,-0.2605608993968001,-0.9448471691106032,1.8983518385471527,0.21746802,1.0277808,-1.2428054,321.76086,-97.30962,3.2503088
2356601763000.0,-0.39946545734533,-2.0190285778405923,3.185634449199777,0.12522738,0.8078693,-1.2394456,321.66583,-97.056915,3.0117323
