timestamp,acc_x,acc_y,acc_z,gyro_x,gyro_y,gyro_z,ori_azimuth,ori_pitch,ori_roll
10423622777000.0,1.5797933672086724,10.09414777773792,-5.466254874940222,-1.1771374,0.7440339,0.036651913,219.95149,-75.5434,-4.727665
10423627783000.0,1.488083175880759,10.044471427427064,-5.439505932807271,-1.1771374,0.73975784,0.029626964,220.52606,-74.98322,-4.320714
10423632807000.0,1.396043223577236,9.994616456599708,-5.412660809899571,-1.1655309,0.7498371,0.03390302,220.36488,-75.23145,-4.358422
10423637847000.0,1.3037101504065045,9.94460271197991,-5.385730192969872,-1.1624765,0.7593055,0.03268129,220.22089,-75.45401,-4.3868074
10423642827000.0,1.212476280487805,9.895184369081775,-5.359120178622669,-1.1792754,0.77396625,0.03848451,220.08527,-75.65602,-4.4025626
10423647748000.0,1.1223232937669376,9.846351504543277,-5.332825423481589,-1.1951579,0.7626653,0.03970624,219.96669,-75.84187,-4.409882
10423652647000.0,1.032573348238483,9.79773695396939,-5.3066482226207565,-1.2137892,0.74189585,0.03756821,219.85732,-76.008156,-4.409391
10423658225000.0,0.9303840859078591,9.742384440578666,-5.2768428692013405,-1.1969905,0.7254025,0.038179077,219.7593,-76.16762,-4.4009905
10423662626000.0,0.8497575273712739,9.698711724294592,-5.2533266697752286,-1.1691961,0.6933321,0.028099801,219.68077,-76.313065,-4.3884435
10423667672000.0,0.7573145338753389,9.648638439502626,-5.22636399258728,-1.1261301,0.71868294,0.07269296,219.59497,-76.462746,-4.3583326
10423672623000.0,0.6666119455284554,9.599507874103296,-5.199908936154951,-1.2519683,0.61941737,0.05497787,219.56454,-76.55883,-4.334458
10423677644000.0,0.5746269533875339,9.549682673362025,-5.173079843376375,-1.2009611,0.58551437,0.062308256,219.51112,-76.71277,-4.2933903
10423682629000.0,0.4833014831978319,9.500214713653753,-5.146443112147299,-1.1472049,0.56596667,0.064446285,219.48811,-76.82519,-4.2508574
10423687645000.0,0.3914080913279134,9.450439129722618,-5.119640736250599,-1.0558805,0.54000485,0.07391469,219.48027,-76.95727,-4.199396
10423692712000.0,0.2985803766937669,9.40015745432807,-5.0925658481587766,-1.0115929,0.50793445,0.083383106,219.484,-77.085815,-4.14367
10423697627000.0,0.2085373102981029,9.35138412996174,-5.066303153275945,-0.8677341,0.47952923,0.09468412,219.49763,-77.26149,-4.081451
10423702680000.0,0.1159660764227643,9.30124138163558,-5.0393030724533725,-0.6765333,0.42913285,0.09896017,219.53038,-77.456726,-4.0136786
10423707693000.0,0.0241276447154472,9.25149556779053,-5.012516726685797,-0.40866885,0.344528,0.08582657,219.58517,-77.70511,-3.9423685
10423712692000.0,-0.0674543062330623,9.201888681013868,-4.98580518818747,-0.02107485,0.23518312,0.05681047,219.66597,-78.02964,-3.8683865
10423717761000.0,-0.1603186609756097,9.151587158895264,-4.958719613342899,0.37323865,0.09682214,0.014660766,219.78447,-78.417496,-3.7935853
10423722749000.0,-0.2516990913279132,9.102089429100907,-4.932066851984697,0.7684685,-0.04184427,-0.032070424,219.94017,-78.89612,-3.7200155
10423728530000.0,-0.3576073246612465,9.044722473218554,-4.901176793161167,1.0616838,-0.13194689,-0.062002823,220.12698,-79.43738,-3.6461205
10423732712000.0,-0.4342217913279133,9.003222973218554,-4.878830793161167,1.2156218,-0.31673363,-0.10720685,220.38719,-80.0248,-3.5752137
10423737732000.0,-0.5261884634146342,8.95340769583931,-4.852007043758968,1.3658947,-0.6227771,-0.15241088,220.71289,-80.667656,-3.500937
10423742753000.0,-0.6181734555555556,8.90358249509804,-4.825177950980392,1.5057828,-0.7110472,-0.10048734,221.03032,-81.33472,-3.4112616
10423747766000.0,-0.7100118872628727,8.853836681252988,-4.798391605212816,1.1878275,-0.74006325,0.0021380284,221.41956,-81.903366,-3.3068426
10423752741000.0,-0.8011541569105691,8.804467955164991,-4.771808307747489,0.8304713,-0.7626653,0.109650314,221.83185,-82.487114,-3.1817985
10423757733000.0,-0.8926078674796749,8.754930531922525,-4.745134172883788,0.5543602,-0.72387534,0.21319197,222.23236,-83.00759,-3.0294716
10423762733000.0,-0.9842081384823848,8.705313721783835,-4.718417291009087,0.3652974,-0.6160576,0.29932398,222.61655,-83.46002,-2.8534973
10423767788000.0,-1.0768160124661248,8.65515112673362,-4.691406523433764,0.23487769,-0.48838675,0.35094208,222.98128,-83.85816,-2.6611493
10423772817000.0,-1.1689475650406504,8.605246539096127,-4.664534683644189,0.20952678,-0.35369098,0.35888332,223.31146,-84.23406,-2.462413
10423777762000.0,-1.2595402330623306,8.556175513868963,-4.63811168747011,0.22021692,-0.25411993,0.3295618,223.57181,-84.656654,-2.355166
10423782790000.0,-1.3366311052715514,8.55344612128998,-4.541273829494108,0.27580565,-0.20891592,0.27916542,223.81296,-85.07716,-2.2542963
10423787787000.0,-1.4002290093824754,8.591604748648887,-4.3843991528306905,0.35613444,-0.18570304,0.22968534,224.0361,-85.49634,-2.163693
10423792717000.0,-1.4536417503168315,8.636728387425743,-4.227250077386139,0.3912592,-0.18081611,0.19822577,224.24606,-85.887245,-2.098278
10423798717000.0,-1.4877768196237624,8.71637719930693,-4.02812825560396,0.48441613,-0.16890424,0.11942416,224.45238,-86.286,-2.0607057
10423802746000.0,-1.5035586,8.771871173108552,-3.9141032422697366,0.6301075,-0.16035213,0.098043874,224.6428,-86.66267,-2.0247443
10423807726000.0,-1.5035586,8.845954816200658,-3.8269458705592094,0.68477994,-0.13591751,0.056199603,224.8294,-87.000206,-2.016589
10423812866000.0,-1.4996074824505423,8.936750387763242,-3.7389339834716018,0.7834347,-0.06841691,0.011911872,224.99539,-87.31351,-2.020435
10423817756000.0,-1.4547792578174856,9.17209880113274,-3.675427331908105,0.883922,0.004276057,-0.009773844,225.15564,-87.58508,-2.0283682
10423822748000.0,-1.4090159659221442,9.412356322511169,-3.610596001723038,0.9636399,0.09101892,-0.036957346,225.2923,-87.780014,-2.0500064
10423827740000.0,-1.3751307561373127,9.60578607354589,-3.5466095095446675,1.047023,0.22204952,-0.061391957,225.39835,-87.89187,-2.075361
10423832725000.0,-1.350815615055516,9.761403179586432,-3.483390041173475,1.1227703,0.33964106,-0.09162979,225.48653,-92.11138,-2.1077254
10423837793000.0,-1.328254830973682,9.895793642143664,-3.4197327190219755,1.16492,0.47769663,-0.121256754,225.53836,-92.21665,-2.1319323
10423842770000.0,-1.3075548684964824,10.01171325909841,-3.357632874819769,1.205848,0.6209445,-0.1591304,225.55855,-92.42817,-2.1637769
10423847786000.0,-1.2762514966539198,10.12416761376673,-3.28034029330784,1.2409728,0.7666359,-0.1881465,225.53847,-92.702126,-2.1892378
10423852810000.0,-1.220031741225834,10.226385253877204,-3.167900782451668,1.2614367,0.9224065,-0.20891592,225.47844,-93.030205,-2.2187934
10423857785000.0,-1.1630741865811545,10.311570093734582,-3.062135638628515,1.3054191,1.112691,-0.21868975,225.36453,-93.38719,-2.2425904
10423862743000.0,-1.1045125098996875,10.374036327906596,-2.9645328305706298,1.3222178,1.3304645,-0.21471913,225.20299,-93.75866,-2.2627008
10423868322000.0,-1.041879441135216,10.44629169955115,-2.849118889489433,1.3503176,1.5833627,-0.20463985,224.97589,-94.13151,-2.2686732
10423872799000.0,-1.021832955657378,10.522468101552272,-2.70478432801571,1.3594806,1.8777997,-0.17959438,224.68117,-94.50325,-2.2618225
10423877702000.0,-0.9998789868617916,10.605892917056297,-2.546715899401533,1.346347,2.25562,-0.16615535,224.29099,-94.84948,-2.2328842
10423882732000.0,-1.02962214920754,10.702895724092658,-2.2720490692206696,1.2990049,2.48164,-0.14905111,223.86893,-95.182365,-2.1911702
10423887694000.0,-1.069731052011629,10.800939315764792,-1.977917270439839,1.2046263,2.9911017,-0.14966199,223.26741,-95.49528,-2.1347094
10423892843000.0,-1.2268061077594832,10.969706981169836,-0.732759437069044,1.1239921,3.7146716,-0.13958271,222.5291,-95.76223,-2.053123
10423897783000.0,-1.4247714511598288,11.15906540926044,0.8466600771672885,0.8781188,4.828584,-0.16676621,221.54497,-95.95673,-1.9598846
10423902800000.0,-1.7565603375769814,11.25523553639576,3.123192435254922,0.26816985,6.0267963,-0.2302962,220.31232,-95.97492,-1.8654369
10423907725000.0,-2.204170939040889,11.25999694982332,5.985043008955074,-0.8188649,6.4696736,-0.3631594,218.99287,-95.796844,-1.8008399
10423912719000.0,-2.5786501554857195,11.21423482872724,7.821102489324336,-1.9388863,6.1107903,-0.5656612,217.46898,-95.18969,-1.8613026
10423917859000.0,-2.8880397206950734,11.118688504667714,8.690123082724835,-2.7733283,5.224425,-0.78038037,215.98994,-94.441025,-2.0053992
10423922757000.0,-3.162996730141771,11.07364972570372,9.006775049517156,-3.1768048,4.132198,-0.9611965,214.30087,-93.5595,-2.392161
10423927761000.0,-3.4091562083418943,11.108111729813029,8.435684681734129,-3.2091806,3.07815,-1.0839803,212.89374,-93.11101,-2.8659554
10423932736000.0,-3.6406910075341834,11.203155999348898,7.727444033429449,-3.0240884,2.185065,-1.1414018,211.68625,-86.520645,-3.463061
10423937781000.0,-3.856403025579016,11.387410417542554,6.806174476458004,-2.690556,1.4761559,-1.1313224,210.77791,-85.53115,-4.0840597
10423942740000.0,-4.05680505987152,11.566359036830836,5.907421684625267,-2.2696698,0.9306532,-1.0729848,210.13281,-84.34423,-4.7200313
10423947748000.0,-4.226259265267665,11.74094788993576,5.019071170364025,-1.8460348,0.50426924,-0.9954049,209.68921,-83.15218,-5.3328595
10423952725000.0,-4.426714555978998,11.883681524893635,4.35353462847832,-1.4886786,0.16737708,-0.9440922,209.44499,-82.08679,-5.9294004
10423957908000.0,-4.687321210283335,11.982532224495335,4.012049996822667,-1.2278391,-0.100792766,-0.93370754,209.31445,-81.109665,-6.493833
10423962720000.0,-4.985303799036777,12.068064955779334,3.789211969468768,-1.0882565,-0.28191432,-0.9993755,209.29892,-80.257126,-7.0517697
10423967856000.0,-5.564362313922942,12.130277866462349,3.9902074655575017,-1.0940597,-0.33292156,-1.1478158,209.32045,-79.44017,-7.6091866
10423972803000.0,-6.132500107006369,12.14212090387956,4.190720686160973,-1.2712106,-0.21868975,-1.3457361,209.32297,-78.63789,-8.20281
10423977790000.0,-6.768556486836518,11.860965664060991,4.435003312777456,-1.6475036,0.01863139,-1.582141,209.30626,-77.78118,-8.834763
10423983789000.0,-7.278270378240343,11.592971212875536,4.514025930042918,-2.1826215,0.15699236,-1.7864754,209.23605,-76.77778,-9.568631
10423987796000.0,-7.01750103797568,11.579246521316165,4.061110821959943,-2.7290404,0.43096542,-1.865277,209.06169,-75.70466,-10.330377
10423992836000.0,-6.689505661151645,11.561983620028611,3.4914347189556505,-2.9523118,0.600786,-1.9688187,208.82944,-74.47397,-11.232103
10423997709000.0,-6.333355124632663,11.581400564436125,2.928278479663079,-3.254079,0.6102544,-1.9996674,208.56863,-73.154045,-12.122403
10424002787000.0,-5.846362188048666,11.708838166495086,2.304745323051006,-3.363424,0.50640726,-2.022575,208.30069,-71.84298,-13.024097
10424007777000.0,-5.372080973930846,11.857839461025176,1.7189249345541402,-3.359148,0.3368922,-2.069917,208.07256,-70.637505,-13.848047
10424012792000.0,-4.924143136123749,12.16738984167425,1.311046519745223,-3.2583551,0.20555615,-2.1533,207.8676,-69.44559,-14.670807
10424017770000.0,-4.479510123839854,12.47465640097058,0.906177377388535,-3.0946434,0.13652839,-2.2427917,207.71704,-68.40241,-15.395812
10424022809000.0,-3.5943713761120266,13.38131546705107,0.316705159967051,-2.9071076,0.18020524,-2.3090706,207.5729,-67.395065,-16.124825
10424027791000.0,-2.2799646528830317,14.879127821984255,-0.4474847593446825,-2.6853635,0.2968805,-2.3115141,207.42516,-66.44421,-16.849476
10424032712000.0,-1.2212003147462496,16.098636818225344,-1.0206452148579637,-2.4065037,0.35613444,-2.2815816,207.31038,-65.6863,-17.455736
10424037788000.0,-0.7091697428088095,16.727038084423874,-1.1719269861634216,-2.0864103,0.27183503,-2.2015584,207.19403,-65.00516,-18.03615
10424044249000.0,-0.0699614426316642,17.497950723707664,-1.3510669544320206,-1.743104,-0.005497787,-2.0955732,207.21892,-64.716995,-18.285103
10424047782000.0,0.1932168399416625,17.72000701604278,-1.3565498315021876,-1.4321736,-0.40378192,-1.9523253,207.2868,-64.50865,-18.48315
10424054057000.0,0.6606506704391509,18.11440362923351,-1.3662880295251985,-1.1633929,-0.8735373,-1.7870862,207.47646,-64.51129,-18.479761
10424057744000.0,0.905459610601313,18.232898924113783,-1.579638364761488,-0.91599244,-1.3121386,-1.6190983,207.75215,-64.58955,-18.412771
10424062787000.0,1.1886824534652078,18.199081470984684,-2.230628221820569,-0.698219,-1.6856827,-1.4608842,208.123,-64.73612,-18.276968
10424068012000.0,1.474122405325098,18.14611880402304,-2.906431847149653,-0.52473325,-1.9550742,-1.3078625,208.60501,-65.01269,-17.990702
10424072818000.0,1.662360520807946,17.93098963233453,-3.540294749912361,-0.3839288,-2.1560488,-1.1780536,209.1533,-65.33888,-17.656889
10424077795000.0,1.857296247141307,17.708206051915536,-4.196710827117936,-0.26267207,-2.2999077,-1.0476339,209.76013,-65.778824,-17.229956
10424082735000.0,1.8776375889805823,16.988608782524274,-5.203699666334951,-0.17654006,-2.3322835,-0.9896017,210.38068,-66.23636,-16.79674
10424087746000.0,1.8038674794822005,15.98688880064725,-6.418964588932038,-0.14080444,-2.325564,-0.91690874,211.01201,-66.72325,-16.332066
10424092821000.0,1.680398015089852,15.028586123150106,-7.570159280919661,-0.12675454,-2.2229385,-0.93492925,211.66824,-67.23603,-15.882533
10424097740000.0,1.352565340997181,14.339722464763918,-8.346168362755462,-0.17012598,-1.9996674,-1.0146471,212.2822,-67.73507,-15.45444
10424102770000.0,1.0173349383368568,13.635314210711767,-9.13968852572234,-0.23671028,-1.6783522,-1.1325442,212.85057,-68.2133,-15.13302
10424107796000.0,0.3298371307308848,13.032264641008725,-9.792594760794662,-0.26725355,-1.2666291,-1.2260065,213.33199,-68.67477,-14.855395
10424112695000.0,-0.3752386858954621,12.454446427791218,-10.415125102998314,-0.24220806,-0.677755,-1.2932017,213.67644,-69.11054,-14.6436615
10424117776000.0,-1.52408368,11.743224535173104,-10.794757351630707,-0.1994475,0.5564982,-1.5610662,213.72133,-69.44765,-14.673384
10424123686000.0,-5.11369948,10.311922468439535,-9.800797360662315,-0.42271876,2.3341162,-2.1697934,213.46886,-69.6436,-14.890005
10424127907000.0,-7.450602734645262,9.469758426411186,-9.034335042889694,-1.061073,3.8918226,-2.934902,212.8883,-69.56536,-15.452383
10424132755000.0,-9.364480156913515,9.11391171154842,-7.961986716675297,-1.676825,5.0039024,-3.6419785,211.94904,-69.3066,-16.238758
10424137733000.0,-10.838001138056612,9.0130834163218,-6.654864753534183,-2.058616,5.635232,-4.1581597,210.53235,-68.364456,-17.72629
10424142770000.0,-10.826023567290184,9.719770514070518,-4.70249203580533,-2.2104158,5.7054815,-4.344168,208.95076,-67.24127,-19.329992
10424147730000.0,-10.81422909617613,10.41565457300116,-2.7799649998841254,-2.2812762,5.119356,-4.1798453,207.2698,-65.72669,-21.218903
10424152751000.0,-9.68400823446694,11.866010651042188,0.2751685738007383,-2.3674083,3.9116757,-3.6893206,205.72305,-64.22498,-23.004295
10424157731000.0,-8.337944580333101,13.454650517403012,3.5285511199261994,-2.4049764,2.2913556,-2.948952,204.43454,-62.83666,-24.586182
10424162793000.0,-6.608718387060787,14.661722757793765,5.550304939109582,-2.245846,0.5500842,-2.1239784,203.65485,-61.60925,-25.821976
10424167728000.0,-4.849530946178709,15.755671426858513,7.260215805546866,-1.8145752,-0.77946407,-1.4999796,203.21663,-60.571114,-26.814241
10424172763000.0,-3.254814746663869,15.183621413008812,5.053857213445237,-1.2217305,-1.5091426,-1.1236867,203.45067,-59.974594,-27.101267
10424177823000.0,-1.672740665253882,14.435287969450272,2.430624069844733,-0.602924,-1.6633861,-0.93279123,203.86163,-59.54789,-27.218874
10424182790000.0,-0.8583931056369163,13.721184556783642,0.7822338024592428,-0.04642576,-1.6676621,-0.8875872,204.65451,-59.45113,-26.927547
10424187780000.0,-0.6735255325504284,13.02132878378005,-0.0793811142304503,0.16523905,-1.4391985,-0.87872964,205.3652,-59.41469,-26.618116
10424193341000.0,-0.4675037742470296,12.241389314106108,-1.0395896416275212,0.48075095,-0.9801333,-0.9975429,205.95013,-59.66249,-26.24648
10424197817000.0,-0.3063405829270946,11.609426309303592,-1.5547852062840044,0.64476824,-0.82894415,-1.0473285,206.53891,-59.935337,-25.856796
10424202948000.0,-0.1236526585999274,10.883130653790351,-2.031556116449039,0.6401868,-0.6203337,-1.1328496,206.97377,-60.185383,-25.559235
10424207779000.0,0.115082715188818,10.312553388986196,-2.417282512120788,0.57940567,-0.5555819,-1.1869112,207.37671,-60.430088,-25.34831
10424212742000.0,0.4447568906817068,9.869657536117144,-2.733636538751489,0.4978552,-0.5644395,-1.1969905,207.74052,-60.661755,-25.158598
10424217773000.0,0.7789480607209417,9.420693394310938,-3.0543250553702794,0.4343252,-0.61361414,-1.1496484,208.10413,-60.86876,-25.003115
10424222836000.0,0.935485653732053,9.129997243985928,-3.250840121935913,0.37751472,-0.6658431,-1.0619892,208.46776,-61.07654,-24.834484
10424227874000.0,0.9630113513929828,8.955668168774366,-3.3563552523913662,0.3454443,-0.700357,-0.945314,208.83336,-61.3017,-24.639019
10424232794000.0,0.9522806850754274,8.779116131076098,-3.418550797184043,0.34788775,-0.7098254,-0.81397796,209.22922,-61.581585,-24.374252
10424237750000.0,0.9013653229138452,8.594547912504192,-3.4376440405497823,0.37965274,-0.68233645,-0.68416905,209.61449,-61.893883,-24.075855
10424242788000.0,0.8496075354703319,8.406925901776734,-3.45705319310761,0.4334089,-0.6056729,-0.5626069,210.00116,-62.225094,-23.768797
10424247821000.0,0.790086545,8.10197825,-3.41173735,0.49938235,-0.5348125,-0.44806966,210.3719,-62.596394,-23.428493
10424252949000.0,0.7213877107394084,7.670156891886491,-3.2988749274580336,0.5635232,-0.44837508,-0.3304781,210.70686,-63.008102,-23.060482
10424257780000.0,0.7345840985256513,7.075686574156944,-3.004372159149752,0.6273586,-0.38056904,-0.19700404,211.03563,-63.426025,-22.69646
10424262987000.0,0.8302205315966118,6.238867914815407,-2.4903263339939268,0.6750061,-0.32895094,-0.079107046,211.33917,-63.877003,-22.309788
10424268146000.0,0.9225322602279344,5.431322659803677,-1.9892607249313703,0.7281514,-0.30604348,0.033292156,211.64072,-64.317474,-21.938778
10424272820000.0,0.9709397323766742,5.010550174303303,-1.6541322420763664,0.7678576,-0.3136793,0.1459968,211.93181,-64.792274,-21.537567
10424277802000.0,1.0225370850178852,4.562050276407953,-1.2969199824307462,0.7959574,-0.32895094,0.25259277,212.23746,-65.20957,-21.159359
10424282726000.0,1.0372855794444888,4.124121917833987,-0.9801658082702314,0.81061816,-0.37415496,0.30634892,212.55177,-65.64566,-20.764156
10424287795000.0,1.0256282589850316,3.677259157079965,-0.6809620802401344,0.82436264,-0.4251622,0.41538838,212.86343,-66.12518,-20.325335
10424292827000.0,1.0001240491418848,3.239006152353942,-0.3887270849655619,0.84299403,-0.50426924,0.5149594,213.1765,-66.56082,-19.92758
10424297814000.0,0.8414544995032817,2.855877260805445,-0.1449177789555141,0.88453287,-0.5864306,0.61483586,213.49974,-67.02859,-19.498026
10424302784000.0,0.6833258326286362,2.474054403176404,0.0980604145215137,0.91751957,-0.70157874,0.72143185,213.80301,-67.46574,-19.100262
10424307721000.0,0.1873473383002567,2.076899221612577,0.2884855577959374,0.960891,-0.82527894,0.8081747,214.1294,-67.930214,-18.675787
10424312801000.0,-0.5434087165211302,1.6566198582379952,0.4512964976978754,0.9673051,-0.95386606,0.90010995,214.48546,-68.4212,-18.214556
10424317848000.0,-1.2685285710890128,1.269299707785593,0.5866822106781471,0.9465357,-1.0436633,0.97341377,214.83136,-68.855354,-17.798147
10424322802000.0,-1.966621907640068,1.3536846033955858,0.3143490698845501,0.9114109,-1.1004738,1.035722,215.20073,-69.30705,-17.355522
10424327822000.0,-2.674015639873878,1.4391937224836284,0.0383877524069852,0.8744536,-1.1102476,1.073901,215.63022,-69.55391,-17.053226
10424332763000.0,-3.338759287287369,1.5734813510806147,-0.2358047570531679,0.84757555,-1.0818423,1.0937542,216.0517,-69.80636,-16.742117
10424337795000.0,-3.992176210288438,1.7477258776645574,-0.5169720455626592,0.80573124,-1.03786,1.0946705,216.45993,-70.05385,-16.43075
10424342791000.0,-4.629195660676191,1.939163115889844,-0.7771687653565195,0.7144069,-1.0158689,1.0638218,216.72905,-70.22641,-16.25998
10424347754000.0,-5.191477348438813,2.2402757275583425,-0.921579905701726,0.59315014,-0.9957104,1.0015136,216.98682,-70.37746,-16.103428
10424352789000.0,-5.761916255931217,2.545756686605469,-1.0680860696425107,0.4269948,-1.0247264,0.8933904,217.20898,-70.4178,-16.077673
10424357857000.0,-6.313665928117877,2.848764190573103,-1.2249869885460762,0.25900686,-1.0231993,0.7348709,217.4224,-70.409485,-16.088589
10424362753000.0,-6.508332944724845,3.073967197281016,-1.5188960925512862,0.10262536,-0.9624182,0.52931476,217.63434,-70.33798,-16.146538
10424367814000.0,-6.709560430641485,3.3067597661022465,-1.822710221507652,0.0027488936,-0.8145888,0.2932153,217.78316,-70.12668,-16.37286
10424372802000.0,-6.866642794816415,3.5761461348452124,-2.27128900475162,-0.01740966,-0.70402217,0.05589417,217.93509,-69.854195,-16.657433
10424378814000.0,-7.022084807775378,3.9336629810655146,-2.93450869287257,0.040011674,-0.29871312,-0.17134771,217.96814,-69.52487,-17.028635
10424382718000.0,-7.120251600543479,4.141942824184782,-3.2866143222826087,0.21105394,-0.14477506,-0.27885997,218.03598,-69.20186,-17.439114
10424387789000.0,-7.243421321648551,4.375085126693841,-3.620931664257246,0.30176744,0.2144137,-0.48655418,217.94247,-68.79509,-17.9714
10424392817000.0,-7.319760387730497,4.6012947859180455,-3.8846222851851855,0.45142943,0.7657196,-0.6597345,217.75096,-68.46097,-18.528587
10424397824000.0,-7.164835640283688,4.801563225232466,-3.805270607407407,0.51068336,1.5494597,-0.7706065,217.3906,-68.084526,-19.150116
10424402720000.0,-7.013345413900709,4.997391920835304,-3.727678074074074,0.40958515,2.486527,-0.7892379,216.82335,-67.7075,-19.81975
10424407724000.0,-5.744185843424399,5.322209017080975,-3.009793379711214,0.16982053,3.388164,-0.68630713,216.02931,-67.31401,-20.508425
10424412788000.0,-3.7349185624989754,5.732019978636476,-1.8678929336368852,-0.103847094,3.9813142,-0.4905248,215.04121,-66.91504,-21.188747
10424417818000.0,-1.8968670695790228,6.091834351440395,-0.7850291043331211,-0.31612277,4.1129556,-0.2275473,213.92847,-66.5738,-21.781315
10424422815000.0,-0.7429471640967691,6.247975371048862,0.0718420881983129,-0.38789943,3.817297,0.076358154,212.75815,-66.274895,-22.298683
10424427707000.0,0.3867258752506761,6.40083546068757,0.9107081826277258,-0.3491095,3.2388074,0.42302418,211.88643,-66.34173,-22.322708
10424432727000.0,1.34723707901908,6.374847530274721,1.8410442835325789,-0.26725355,2.5314255,0.77946407,211.1461,-66.48265,-22.243374
10424437790000.0,2.210957994733592,6.252007269400681,2.816089217480801,-0.20433442,1.7345519,1.1200215,210.60995,-66.70634,-22.049398
10424442794000.0,3.188920858491747,6.142840950559337,3.902794117171243,-0.17989981,0.80756384,1.4300356,210.37364,-67.18927,-21.528048
10424448819000.0,5.242712611796918,6.097702563052492,6.0784588993037625,-0.17592919,-0.38973203,1.6811012,210.45396,-67.73684,-20.897905
10424452763000.0,6.587136624250958,6.068154712375812,7.502661704404287,0.014660766,-1.5170839,1.7654005,210.7158,-68.436966,-20.071598
10424457727000.0,7.089283337349397,6.827917113975904,7.132020740722892,0.6630942,-2.189952,1.6249015,211.18933,-69.17737,-19.213707
10424462785000.0,6.723555404819277,8.189670184771085,5.15942487286747,1.5125023,-2.572659,1.4758505,211.89656,-69.96932,-18.30479
10424467786000.0,6.426024212808524,9.594317501149778,3.290282049359957,2.1093178,-2.8573222,1.5234979,212.85114,-70.96514,-17.057621
10424472857000.0,6.723825820481373,11.563529921048596,2.1549136606162804,2.3377812,-2.9553661,1.781283,213.82619,-72.00099,-15.795774
10424478043000.0,7.028380964908784,13.577400086616588,0.9937974184500996,2.3872614,-3.0650163,2.1679606,214.88881,-73.38585,-14.416383
10424482729000.0,7.144063941795351,14.98432744442559,0.3334331189988122,2.3716843,-3.0656273,2.3747387,215.92375,-74.779755,-13.049582
10424487786000.0,7.102972620235873,16.073240793738336,0.025250232505515,2.3060162,-2.994156,2.734233,216.9275,-76.27179,-11.562779
10424492808000.0,6.943072187094251,17.090297028236215,-0.3355485452076652,2.0176878,-2.7305677,2.883895,217.94934,-77.995964,-9.960376
10424497810000.0,6.025099747985921,17.693535489558077,-1.043698888018772,1.4569136,-2.2492058,2.7690523,218.86848,-79.61153,-8.4119005
10424502793000.0,5.110614209385998,18.29448256128276,-1.7491593354853343,0.75319684,-1.6475036,2.4727826,219.6921,-81.11523,-6.941695
10424507783000.0,4.62230692460468,18.05324089095509,-2.2284380829791277,0.02107485,-0.9673051,2.1160371,220.34781,-82.37682,-5.606258
10424512745000.0,4.450982026691967,17.19361095471221,-2.538025172049336,-0.55680364,-0.33628133,1.8017471,220.84123,-83.3718,-4.414481
10424518474000.0,4.253174622390891,16.201103920303606,-2.895466613662239,-0.8958339,0.18173242,1.5735888,221.23634,-84.04125,-3.549616
10424522837000.0,4.04041383589904,15.171816307363372,-2.999968638245724,-1.0173961,0.61636305,1.4309518,221.47803,-84.503494,-2.7986283
10424528006000.0,3.709983947476012,13.607437434084272,-2.9121982311430954,-1.0128145,1.0064005,1.3939945,221.58534,-84.80888,-2.1237736
10424532782000.0,3.552916630229168,12.417102209166716,-2.6813104284797946,-0.9602802,1.3466524,1.4440855,221.59926,-85.03476,-1.530098
10424537786000.0,3.533355305883725,11.419477235349,-2.292879341885824,-0.85062987,1.6102408,1.572978,221.52615,-85.20863,-0.95068115
10424542765000.0,3.513891709977258,10.426836399090323,-1.906388858242463,-0.71685034,1.738828,1.72264,221.38567,-85.30235,-0.4111519
10424547761000.0,3.495056674692385,9.498737325241104,-1.5306394452943133,-0.56230146,1.7632625,1.8619173,221.20457,-85.36929,0.14386784
10424552858000.0,3.486940121715996,9.636718641087462,-1.3399002808446956,-0.4156938,1.7058412,1.981036,221.01596,-85.39769,0.7196938
10424557701000.0,3.4792280428333884,9.76782390156302,-1.1586662660458928,-0.28130344,1.5903877,2.1108449,220.75359,-85.274635,1.3634498
10424562721000.0,3.521373634378123,10.26896715735441,-1.060823437376215,-0.1600467,1.4758505,2.2672265,220.51237,-85.09041,2.0371792
10424567794000.0,3.591995122249477,10.979595504587987,-1.0122711817479786,-0.013744468,1.3997977,2.4080307,220.29929,-84.84947,2.732035
10424572807000.0,3.647838928407874,12.378925142574747,-1.128598396754798,0.1386664,1.2461652,2.4767532,220.13573,-84.52486,3.4386582
10424577793000.0,3.687168410987563,14.58137822041018,-1.4353685662136564,0.22174409,1.0919216,2.6239717,219.998,-84.11019,4.1943545
10424583038000.0,3.697586640478004,16.774859893448866,-1.7180437305465626,0.42913285,0.9392053,2.7898216,219.92523,-83.673035,4.9550796
10424588060000.0,3.349538752399543,17.448057032850883,-1.5257015131022662,0.6426302,0.7699956,2.9819386,219.9067,-83.15723,5.75107
10424593309000.0,2.978196120391403,18.13942063777739,-1.3180902952385114,0.8790351,0.5354234,3.1306844,220.07216,-82.70997,6.4681153
10424597820000.0,2.4648873179538704,18.418721531976235,-0.9708519635968896,1.0571023,0.10629055,3.2100968,220.34875,-82.20421,7.207465
10424602699000.0,1.90970362318714,18.720807336187317,-0.5952864969421632,1.1685852,-0.6087272,3.1713068,220.7971,-81.73073,7.8618107
10424607782000.0,1.2848487785149143,18.927931585340563,-0.3060354319006221,1.135904,-1.5244142,3.0185907,221.43341,-81.239265,8.498651
10424612763000.0,0.6456759811995534,19.06870144664221,-0.0815640290126016,0.96669424,-2.6386325,2.795014,222.33768,-80.75145,9.098173
10424617784000.0,-0.032466578817899,19.201009710457047,0.073012741515514,0.7351763,-3.9370265,2.543643,223.48795,-80.334946,9.584026
10424622904000.0,-0.9515711699641062,19.27140940416368,-0.2516071753385978,0.46883908,-5.3142223,2.3096814,224.97664,-79.9566,10.0089655
10424627753000.0,-1.822027842321129,19.33808286408232,-0.5590450614373454,0.2910773,-6.5774918,2.0998492,226.73218,-79.68792,10.302394
10424632725000.0,-3.5053067141851346,19.24218610176814,-1.1778185208176652,0.26206118,-7.795557,1.9043725,228.85081,-79.465614,10.53437
10424637808000.0,-5.729137148443876,19.0396656199696,-2.003478852764221,0.39675698,-8.899085,1.6963727,231.27188,-100.71086,10.699911
10424642790000.0,-7.731144114338442,18.85127885396774,-2.8164233626414186,0.6728681,-9.776593,1.4831808,233.90819,-100.79164,10.736581
10424647807000.0,-8.51374136732729,18.73176814137848,-3.660703066717484,1.0512991,10.002308,1.3191634,230.80423,-100.85243,10.82848
10424652756000.0,-9.285731362352564,18.61387726703041,-4.49353947402712,1.4291192,10.002308,1.2229522,233.64725,-100.78318,10.66452
10424657762000.0,-9.862300136131816,18.13292955158886,-5.255852299333072,1.758681,-9.874026,1.1539245,236.53546,-100.683,10.377196
10424662794000.0,-10.319816524990191,17.433421538721067,-5.974266931894861,2.0360138,-9.134268,1.0574077,233.44342,-100.537834,10.239053
10424667771000.0,-10.756969420594688,16.710193309828252,-6.645592572724522,2.284636,-8.65596,0.86742866,236.23706,-100.451485,9.794046
10424672800000.0,-11.022976391314216,15.620659337368542,-6.875159859188924,2.4007003,-7.528303,0.74464476,238.60983,-100.47224,9.334757
10424677757000.0,-11.285174950442611,14.54672418097904,-7.101440439623213,2.5708263,-6.047566,0.46639562,240.78146,-100.589836,8.749735
10424682743000.0,-10.519888796747969,13.277778501069749,-7.777257241745828,2.6578746,-2.488665,0.21105394,242.01132,-100.81447,8.219642
10424687789000.0,-8.381779626016261,11.743468465126227,-9.055159527086008,3.143818,3.9019017,0.105068825,241.9915,-101.23462,7.8232107
10424692810000.0,-6.535568890186225,10.388533594960094,-9.946979821659768,3.9730675,8.996518,0.1957823,241.36615,-101.878334,7.5313787
10424697815000.0,-7.017296811409991,10.455833683269288,-7.701278153281111,4.29591,9.963212,0.3622431,240.10754,-102.572334,7.3456774
10424703590000.0,-7.573136720514336,10.533487631318357,-5.110083920536506,4.2824707,9.963212,0.5036584,237.89055,-103.752686,7.6659684
10424707734000.0,-7.880484328872061,10.626788118429165,-3.369854411957383,4.1395283,9.963212,0.62796944,235.4451,-104.993126,8.115468
10424712790000.0,-8.127766223738663,10.793063606674298,-1.4129174805846616,3.9095376,9.963212,0.72051555,233.04456,-106.20722,8.629704
10424717792000.0,-8.166244824434742,10.87327879385623,0.7179797285825668,3.6089919,9.963212,0.7883216,230.38708,-106.981094,9.10102
10424722812000.0,-6.779377377530016,10.37100795025729,4.203889333447685,3.1722233,9.963212,0.88789266,227.76082,-107.65392,9.611408
10424727829000.0,-5.393338735872447,9.869037268517074,7.687715725401529,2.5305092,9.963212,1.1096367,224.98332,-107.86521,10.118505
10424732730000.0,-5.010918911690284,8.999078637972335,10.379718521592444,1.4456125,9.963212,1.3240504,222.2193,-107.848694,10.6162195
10424737789000.0,-5.403219143496964,7.7935731720226045,12.582320756747638,-0.0729984,9.501703,1.3310753,219.58745,-107.55839,11.037921
10424742811000.0,-5.863749104064257,6.694565670465863,14.494692766506024,-1.68385,7.8612247,0.981355,216.81181,-106.63862,11.440702
10424747740000.0,-6.606881408835342,6.015888414056224,15.249199144578316,-3.0091221,5.712201,0.39278635,214.3001,-105.46915,11.626087
10424752896000.0,-7.384237903742973,5.305955378136546,16.038453533975904,-3.685961,3.4049628,-0.18173242,211.97281,-104.02312,11.556525
10424757751000.0,-7.887921570104952,4.836807030936373,14.838625103394556,-3.3163874,1.6157386,-0.5009095,210.14572,-102.62445,11.246319
10424762771000.0,-8.31364827623811,4.434731909093145,12.7888305986389,-2.2721133,0.46486846,-0.6249151,208.84467,-101.3295,10.718095
10424767736000.0,-8.672918242920732,3.995464630902547,10.767393163083623,-1.1520919,0.082161374,-0.66645396,207.79285,-100.13288,9.985512
10424773806000.0,-8.8876274625438,3.3072933417653188,8.31750310701771,-0.6609562,-0.6743952,-0.85918194,207.25719,-99.14907,9.149046
10424777751000.0,-9.045762636994448,2.837535334516257,6.850038754242664,0.32406402,-0.8729264,-0.947452,206.8824,-81.65484,8.298887
10424782749000.0,-9.354170647898494,2.1115909454401267,5.716047449008723,0.51251596,-1.2076806,-1.1609493,206.80183,-82.41678,7.363943
10424787747000.0,-9.759145861890245,1.3027259749085365,4.652794002652438,0.6914995,-1.502423,-1.4721853,206.91899,-83.25551,6.3814588
10424792849000.0,-10.876391310365854,-0.1273482146951219,4.082998676158536,0.66431594,-1.6951511,-1.8939877,207.12039,-84.10463,5.312328
10424797858000.0,-11.973271445884146,-1.5313548034298778,3.5235896619664637,0.43371433,-1.711339,-2.4199426,207.4211,-85.03277,4.110492
10424802782000.0,-12.270732544889505,-2.329307894820442,2.8045029901835044,0.00580322,-1.5555683,-3.0418036,207.74284,-85.85181,2.7637606
10424807750000.0,-11.824809942679558,-2.578085641229282,1.9173521438535912,-0.5348125,-1.2544118,-3.6911533,208.04616,-86.27351,1.2615577
10424812782000.0,-11.332819909470407,-2.627698738994843,1.3654361908733732,-1.0302242,-0.8338311,-4.3041563,208.28206,-86.01621,-0.5784722
10424817807000.0,-10.797108102152738,-2.4543802082589834,1.1960567139150364,-1.3558154,-0.4465425,-4.832555,208.46999,-84.8206,-2.5849173
10424822904000.0,-10.251232807521196,-2.266098420238395,1.038846757953496,-1.5305228,-0.15454891,-5.2742105,208.62439,-83.13891,-4.687206
10424827793000.0,-9.689207928229663,-1.892725166028708,1.1135214416267942,-1.6221527,0.15577064,-5.562539,208.68698,-81.106895,-6.909048
10424832735000.0,-9.121090326785865,-1.5153042983043732,1.1890056483589355,-1.668273,0.44990227,-5.6850176,208.70341,-78.97346,-9.12919
10424837724000.0,-8.584128463611412,-0.8863480312900274,1.4587811924644432,-1.6957619,0.59956425,-5.629429,208.68983,-76.744514,-11.388348
10424843587000.0,-7.977013375047825,0.0149845299725526,1.9024423462613325,-1.7299703,0.51343226,-5.304754,208.66924,-74.51192,-13.608649
10424847799000.0,-7.393657038666234,0.7231895311520363,2.2246916898182705,-1.7825048,0.21410827,-4.7024407,208.6766,-72.43709,-15.620281
10424852725000.0,-6.306702567759208,1.7182886011082263,2.611249408867435,-1.856114,-0.24495697,-3.9376373,208.74976,-70.47501,-17.480892
10424857730000.0,-5.202316224501056,2.729346425941912,3.004006490442966,-1.9401081,-0.7816021,-3.121827,208.92462,-68.780716,-18.991425
10424862734000.0,-4.980710122549802,3.0510146386100043,2.716349603815848,-2.021353,-1.0308352,-2.3860397,209.12828,-67.260216,-20.291603
10424867812000.0,-5.019459915697212,3.171569640540062,2.221212953421868,-2.0460932,-1.4037683,-2.0882428,209.52046,-65.83799,-21.442827
10424872821000.0,-5.369446195966286,3.510900086092715,1.7595436481637567,-1.9871446,-1.5406022,-1.6325374,209.85603,-64.905106,-22.017206
10424877726000.0,-5.982194732540638,4.034093048013245,1.330619756231186,-1.8164078,-1.4972308,-1.3567317,210.2408,-64.01613,-22.536634
10424882723000.0,-6.609494690246807,4.633956673751076,1.0465169272149806,-1.5726726,-1.348485,-1.244638,210.46318,-63.347466,-22.88126
10424887722000.0,-7.239880134288361,5.296019827830345,0.9039674305101568,-1.3182472,-1.1679744,-1.2822062,210.64648,-62.73978,-23.192535
10424892789000.0,-7.878840535360286,5.967088841977105,0.7594788728379541,-1.0503827,-1.0549643,-1.4871514,210.49171,-62.342014,-23.401321
10424897727000.0,-8.452909463298989,6.639161613841525,0.7502900380869882,-0.7846564,-1.0852021,-1.9294178,210.35155,-61.910244,-23.698526
10424902796000.0,-8.992936374350323,7.34739293881645,0.87423053151272,-0.5873469,-1.3267993,-2.5305092,210.27512,-61.416626,-24.094965
10424907693000.0,-9.506007782995113,8.436854597096726,1.0008366224114946,-0.4914411,-1.7767016,-3.1673362,210.14316,-60.893543,-24.592588
10424913596000.0,-10.10055119271219,10.87364639875574,1.172500645319212,-0.47494772,-2.3328943,-3.7543778,210.17172,-60.247097,-25.215364
10424917828000.0,-10.52679339327507,12.620639945193304,1.2955706342986224,-0.4905248,-2.95109,-4.258342,210.40376,-59.453766,-25.968672
10424922810000.0,-10.998324611867227,14.330764440908643,1.3096464205130716,-0.49480084,-3.6034942,-4.670981,210.85971,-58.55047,-26.793787
10424927793000.0,-11.451566347889944,15.830667445118968,1.2442300668559678,-0.5012149,-4.1993933,-5.0002375,211.52309,-57.555573,-27.66454
10424932723000.0,-11.91330306187039,16.812305057507736,1.022766834533196,-0.5296202,-4.753448,-5.225952,212.42824,-56.62704,-28.42588
10424937801000.0,-12.399343427064329,17.429498961053383,0.6717377651368288,-0.5491679,-5.2128186,-5.2806244,213.49637,-55.67961,-29.157736
10424942825000.0,-12.865331982832306,18.030502092575155,0.1762992696443317,-0.593761,-5.45747,-5.1923547,214.72798,-54.771214,-29.820631
10424947739000.0,-13.08691298160087,18.46684678275987,-2.639485749157552,-0.7996226,-5.4147096,-5.03017,215.99818,-53.861652,-30.434237
10424952786000.0,-13.314491186888809,18.91500137196668,-5.531481473596523,-1.2055426,-4.933042,-4.59279,217.2961,-52.949356,-31.04072
10424957696000.0,-12.645101139447116,19.24497410057553,-7.726654858288517,-1.9071213,-4.365854,-3.6795468,218.46165,-52.139515,-31.462027
10424962761000.0,-9.555950710255685,19.29989248249835,-8.326179014340976,-2.6755898,-2.6966646,-3.109915,219.10762,-51.295536,-32.01061
10424967839000.0,-6.732015508691066,19.35217542173172,-8.928430553355515,-2.9846876,-1.131017,-2.055867,219.51093,-50.739555,-32.45728
10424972925000.0,-5.166793994092348,19.39170119045687,-9.537127721902134,-3.3869424,0.17562376,-1.2321151,219.43098,-50.14131,-32.95998
10424977703000.0,-3.696359783169683,19.428833342043333,-10.108963166517892,-3.5708127,1.4892895,-0.56596667,218.92296,-50.03449,-33.06438
10424982761000.0,-2.633409899168236,19.454080088198367,-10.195035239642184,-3.522249,2.9232957,0.0070249503,217.87462,-50.073444,-33.14377
10424987786000.0,-1.795101183301946,19.47296090269931,-10.051541207156308,-3.3148603,4.277584,0.4633413,216.37431,-50.234215,-33.219887
10424992795000.0,-1.033955707247028,19.43650642055668,-9.832613231878804,-3.0283644,5.3142223,0.62888575,214.55533,-50.675236,-33.120167
10424997792000.0,-0.6697336859524501,19.10697172890693,-9.211701210060887,-2.6853635,5.9116483,0.5537493,212.44522,-51.190193,-33.052242
10425002744000.0,-0.308791630829226,18.78040463003769,-8.596380751377211,-2.1762075,5.9018745,0.36743546,210.29321,-51.87469,-32.837143
10425007731000.0,0.2152269761890513,17.70081821395881,-7.490237698046119,-1.4138476,5.46816,0.11636983,208.14137,-52.578197,-32.662094
10425012783000.0,1.0029998314539694,15.405632186498856,-5.591066487766239,-0.5338962,4.7152686,-0.15943582,206.15501,-53.280666,-32.496387
10425017799000.0,1.718268049495413,13.29406036857798,-3.8773371613073393,0.35369098,3.751018,-0.37904188,204.55449,-54.012592,-32.22821
10425022842000.0,1.9767320551376144,12.322974042660553,-3.3382551507798164,1.1643091,2.8206704,-0.5458081,203.24641,-54.750866,-31.95203
10425028724000.0,2.278196517003058,11.19032883761468,-2.7094864841284405,1.8099937,2.0357084,-0.6728681,202.47668,-55.404583,-31.609629
10425032733000.0,2.38825716883246,10.475534535875656,-2.228119395816013,2.235767,1.4407257,-0.73761976,201.9838,-56.076027,-31.239323
10425037788000.0,2.45387802139888,9.61808758395084,-1.5806594553226097,2.4514022,0.9254609,-0.7519751,201.75008,-56.75421,-30.839695
10425042809000.0,2.4174629406008146,8.788293269124237,-0.986416948858452,2.4727826,0.4905248,-0.6973027,201.79533,-57.370647,-30.437328
10425047772000.0,2.1464178938289207,8.018718763910387,-0.5120880437250509,2.363743,0.13622294,-0.5861252,201.99031,-57.996284,-29.996098
10425052777000.0,1.8044687770158871,7.421621105747901,-0.1192572195001498,2.1817052,-0.1695151,-0.45998153,202.34949,-58.543167,-29.584929
10425057797000.0,1.3216955199715228,7.187440099602818,0.1005126961323441,2.0265455,-0.31673363,-0.32162055,202.7655,-59.112106,-29.128218
10425062699000.0,0.8502703195668466,6.958763746590228,0.3151167053814447,1.9193386,-0.57451874,-0.25992316,203.28699,-59.573895,-28.74766
10425067783000.0,0.0723855991525422,7.276883617152868,0.511577227535854,1.8649716,-0.75594574,-0.13439035,203.81671,-60.08129,-28.306221
10425072768000.0,-0.8418084813559326,7.879862953406127,0.6905258588265971,1.7831156,-0.94959,-0.011911872,204.4256,-60.59381,-27.834185
10425077729000.0,-1.4891737917471863,8.296029484173744,0.7767241396936329,1.7415768,-1.1096367,0.06291912,205.17328,-61.037823,-27.377878
10425082724000.0,-1.0771115539327942,7.9694895028645725,0.4910017372313193,1.645671,-1.1102476,0.051923547,205.91356,-61.480614,-26.912943
10425087703000.0,-0.6663692351984886,7.643995495469505,0.2061945616837999,1.4676038,-0.9425651,-0.04184427,206.62534,-61.81103,-26.556147
10425092798000.0,-0.2460575031335583,7.310918177197188,-0.0852480089959774,1.2382239,-0.6389651,-0.17592919,207.2794,-62.113827,-26.22475
10425098816000.0,0.2503970608638413,6.917501238755028,-0.4294877323229451,0.9837985,-0.3484986,-0.37384954,207.90135,-62.33934,-25.967173
10425102707000.0,0.6550780598054087,6.558845615347769,-0.5409648630436085,0.6737844,-0.12675454,-0.4007276,208.4322,-62.547676,-25.713924
10425107714000.0,1.3776219212054683,5.845871799281508,-0.4165533493503642,0.60139686,-0.0012217305,-0.41233405,208.89862,-62.70566,-25.524063
10425112697000.0,2.0390162875711084,5.219866531322186,-0.3015860519220824,0.46914452,0.04550946,-0.35979962,209.35081,-62.910374,-25.279938
10425117791000.0,2.5520036016204104,4.816204307705568,-0.2090801359213928,0.32498032,0.05375614,-0.28008172,209.76512,-63.111897,-25.037123
10425123165000.0,3.0898530370945885,4.391431698563556,-0.1172109771189809,0.18845193,0.03023783,-0.16554448,210.00261,-63.354416,-24.80252
10425127727000.0,3.468765445695185,4.055936390875418,-0.1724690377369229,0.059864793,0.015271631,-0.027183503,210.22859,-63.61357,-24.53682
10425137722000.0,3.942430825306537,3.36391820586955,-0.2055640021649858,-0.18387043,-0.027794369,0.33353242,210.41566,-63.97841,-24.14477
10425142773000.0,3.8722394057316976,3.0515661322353624,-0.1459012552151201,-0.3005457,-0.06291912,0.535118,210.60501,-64.34105,-23.754118
10425148146000.0,3.786418150853775,2.709138065710324,-0.0803839148929531,-0.41416663,-0.13347405,0.7461719,210.79008,-64.81666,-23.220114
10425152807000.0,3.5581427569212103,2.271932831672012,0.0047356937358065,-0.48502702,-0.24129178,0.94042706,210.98558,-65.336266,-22.625368
10425157694000.0,3.3187988714570515,1.8135286311259424,0.0939825350507064,-0.5497787,-0.3109304,1.0262536,211.16502,-65.83032,-22.035126
10425162786000.0,3.1115094851004086,1.3919463380275698,0.302917848561096,-0.5644395,-0.47250426,1.1914927,211.38846,-66.39424,-21.352556
10425168670000.0,2.8957379679799184,0.936428657394486,0.6097928867877808,-0.5525276,-0.84696466,1.4095715,211.68697,-66.98849,-20.611376
10425172717000.0,2.8135906669670265,0.4829862500346569,1.6189469091890287,-0.44868052,-1.0412198,1.4773777,211.94678,-67.51625,-19.935673
10425177791000.0,2.837648933211209,-0.3542384961679375,4.414507830329735,-0.38789943,-1.7907515,1.5711454,212.46747,-68.09802,-19.136635
10425182698000.0,2.829565800275688,-1.4079425878809328,6.274043731495418,-0.23487769,-3.3912184,1.4899004,213.2802,-68.59404,-18.36361
10425187777000.0,2.746208855673944,-3.0823303417927126,6.1798139955070415,-0.12767084,-4.692972,1.3723087,214.21405,-69.0996,-17.539661
10425192756000.0,2.6644931188808583,-4.72375121730497,6.087439540794278,-0.14080444,-5.085453,1.3136657,215.38234,-69.28914,-16.724516
10425197814000.0,2.4206145796972565,-5.361129057294229,4.575882409470198,-0.2049453,-4.5341473,1.3426818,216.63458,-69.432144,-15.879666
10425202933000.0,2.0774024347398297,-5.388957045487228,2.1965878207947016,-0.28252518,-3.3136384,1.4456125,217.78249,-69.5223,-15.033647
10425207782000.0,1.7717687716452404,-5.201842568900766,0.6320436550267224,-0.33841935,-1.93797,1.5836681,218.66614,-69.4106,-14.342117
10425212785000.0,1.4741739560884008,-4.814277293254369,-0.3541716901776688,-0.321926,-0.7828238,1.7012597,219.24113,-69.26597,-13.690489
10425218075000.0,1.159507441138235,-4.404479110530117,-1.3969618513072368,-0.1966986,-0.0421497,1.7608191,219.48299,-69.38325,-13.1201105
10425222764000.0,0.9087331612014328,-3.989219133342518,-1.801935962965004,-0.030543262,0.30634892,1.7632625,219.50056,-69.50745,-12.588592
10425227740000.0,0.6504804523192799,-3.5339940217047854,-2.086451686304767,0.14996742,0.4392121,1.7275269,219.36641,-69.651505,-12.089558
10425232726000.0,0.4606483353765324,-2.987840826678342,-2.03868582206655,0.27672195,0.4905248,1.6551393,219.13756,-69.98882,-11.654888
10425238282000.0,0.309777080585439,-2.3000453724876992,-1.6925694017513135,0.3585779,0.5479461,1.5827519,218.8763,-70.35036,-11.237372
10425242783000.0,0.1813680141293694,-1.794345053511924,-1.6385162047696833,0.40561453,0.6239988,1.4975362,218.59833,-70.763626,-10.879996
10425247754000.0,0.010290139701078,-1.4794062604459326,-2.649430928373081,0.4147775,0.7275405,1.4236214,218.30653,-71.17974,-10.54275
10425252699000.0,-0.1598929399705978,-1.1661147030708918,-3.6550582283567454,0.43554693,0.93370754,1.3692545,217.97632,-71.56949,-10.244566
10425257779000.0,-0.2946265477302205,-0.9327077293255512,-3.3173015138780806,0.4269948,2.552806,1.3084733,217.23082,-71.94347,-10.080183
10425262741000.0,-0.4101910289559014,-0.7401002498897535,-2.439011424383917,0.29077184,3.8563924,1.0433578,216.53906,-72.251785,-9.9735365
10425267772000.0,-0.4617068309895833,-0.4969963859375,-1.5769683321875,0.24037547,3.7137554,0.8350528,215.84882,-72.76284,-9.935864
10425272772000.0,-0.3178245192908654,-0.1133102080528846,-0.8047999427644231,0.27152961,3.0934217,0.66828656,214.95407,-73.21938,-10.012516
10425277764000.0,-0.1423548181794947,0.2673414526873083,-0.1233473667263034,0.2932153,2.2214115,0.50488013,214.21614,-73.4048,-10.18565
10425282804000.0,0.129046329476413,0.644483313005696,0.2996154434387323,0.36102137,1.2269229,0.33964106,213.70856,-73.569725,-10.3540125
10425287835000.0,0.3999628322257923,1.0209517057163722,0.7218229628713304,0.44409904,0.057726767,0.1908954,213.6283,-73.551056,-10.547766
10425292772000.0,0.7964733368450235,4.431802016467978,0.3981636388134183,0.5665775,-1.1133019,0.048258353,213.84132,-73.52358,-10.717925
10425297885000.0,1.330436292357453,10.834832139774512,-0.6335613958737641,0.7357872,-2.0433443,-0.20066923,214.3296,-73.47653,-10.894806
10425302706000.0,2.283432800233236,15.142895050340137,-1.971284711078717,0.8231409,-2.6740627,-0.3368922,214.91666,-73.55944,-10.788827
10425307864000.0,4.189232294810496,16.34302129659864,-4.121909803498541,0.5946773,-2.8454103,-0.16340645,215.6316,-73.62351,-10.635282
10425312694000.0,5.5831901011441225,17.296457689241556,-6.009075989850525,0.26908615,-2.5024095,0.5164866,216.7838,-74.26748,-10.146261
10425317757000.0,6.03504687452482,17.855685612935964,-7.659919040505628,-0.11362094,-1.6203201,1.509448,217.77472,-74.921814,-9.548025
10425322788000.0,6.3789806482721385,18.381935079913607,-9.001670338012959,-0.48441613,-0.2134974,2.329229,218.4891,-76.26372,-8.355793
10425327900000.0,6.008898181144708,18.715010034557235,-8.319661414816414,-0.8378017,1.1328496,2.776077,218.93266,-77.51229,-7.111806
10425332727000.0,5.663579836488169,18.7021544063334,-7.645421669596157,-1.0757337,2.0949624,2.999043,219.10411,-78.95068,-5.713653
10425337768000.0,5.314308846824408,17.788896677459526,-6.858130767289332,-1.2791518,2.747061,3.154508,218.9781,-80.19319,-4.338746
10425342806000.0,4.965245715317559,16.87618244653976,-6.0713083975567805,-1.4410311,3.1096096,3.2424726,218.68417,-81.08709,-3.0901096
10425348463000.0,4.57538236251471,15.789856622793518,-5.1972952805286505,-1.5491543,3.325245,3.225063,218.25963,-81.75644,-1.9090648
10425352903000.0,4.31364353858061,13.63436021290848,-4.712308377297004,-1.5317446,3.7274997,3.0989194,217.693,-82.22051,-0.80920947
10425357791000.0,4.025495031510817,11.261372273377386,-4.178385858604146,-1.0690142,4.0118575,2.9700267,217.0733,-82.39749,0.1374389
10425362740000.0,3.845887016050956,9.77125859745223,-2.978826067770701,-0.5656612,4.397008,2.5705209,216.338,-82.475296,0.9158238
10425367765000.0,3.713848136580108,8.667790263302303,-1.4650946984664386,0.68477994,4.2934666,2.1896465,215.68085,-82.79682,1.6435277
10425372790000.0,3.8797551746079018,10.115713965554894,-0.4120469917361524,1.6267341,3.8353174,2.1847596,214.92468,-82.96302,2.3555093
10425377766000.0,4.201423394580107,12.897197694758784,0.387392974672424,1.8350391,3.5824192,2.5357015,214.1645,-83.16145,3.04918
10425382795000.0,3.576072782904322,15.231134713550269,1.0350737584749878,1.4437801,3.6758816,3.0766227,213.28835,-83.1072,3.8208048
10425387766000.0,2.4246428776104905,17.270414190189413,1.5853554913550267,0.90285885,3.3899968,3.823711,212.59499,-82.83793,4.7634835
10425392772000.0,0.600962997999333,17.344800811270424,2.306409005818606,0.6603453,2.2052236,4.7332892,212.16544,-82.231255,5.875304
10425397779000.0,-1.7094504532177397,15.969744879793264,3.1498298497749246,0.90224797,1.0537425,5.977927,211.791,-81.26838,7.268624
10425402651000.0,-3.835995577878956,14.407523122487506,3.77453282867296,0.82924956,-0.29077184,6.5979557,211.95789,-80.30252,8.391897
10425407622000.0,-5.347978139633537,11.600310822209885,3.351600590294281,0.462425,-1.4071281,6.194479,212.38875,-79.2814,9.562943
10425412603000.0,-6.257237695085255,9.092942613841524,2.869286248545637,-0.17867808,-2.2886066,5.3016996,212.91493,-78.3617,10.474813
10425417673000.0,-6.0137353079237705,7.13031205115346,2.265399870712137,-0.84391034,-3.1062498,4.2106943,213.7475,-77.57625,11.222565
10425422956000.0,-5.656812504533716,5.562201194835008,1.4898021097101866,-1.348485,-3.805385,3.1429017,214.71854,-77.027405,11.673267
10425427621000.0,-5.203858317015782,4.814399686944046,0.6095328245451936,-1.6462818,-4.3252316,2.214081,215.87085,-76.67232,11.87137
10425432625000.0,-4.741644882897922,4.2781135155663135,-0.3672678644971204,-1.8170186,-4.616003,1.4474452,217.15927,-76.41458,11.956254
10425437641000.0,-4.344708970837159,4.4866051192721805,-1.437791970918955,-1.9327776,-4.678922,0.8604037,218.51955,-76.29969,11.8468685
10425442671000.0,-3.9466651834237534,4.695678637342459,-2.511303983538937,-1.9990565,-4.488943,0.45234573,219.8412,-76.170006,11.810545
10425447632000.0,-3.2678977010570183,5.156774372090659,-3.2138796261815226,-2.0060816,-4.351804,0.10720685,221.19542,-76.15098,11.634233
10425452664000.0,-2.53810974317512,5.6612585830877125,-3.8750968540298807,-1.9905044,-4.174348,-0.0729984,222.47145,-76.16806,11.387742
10425457684000.0,-1.7623403206871804,6.741133549385485,-4.374461475876918,-1.7980819,-3.9718459,-0.33200526,223.77345,-76.28925,11.175591
10425462664000.0,-0.9879308867587692,7.870658487036871,-4.853654079447385,-1.4789047,-3.7204747,-0.38973203,224.99785,-76.426636,10.962859
10425467757000.0,-0.448544014883595,9.520923568128495,-5.35471220943873,-0.9975429,-3.467271,-0.19730948,226.23326,-76.604904,10.85898
10425472716000.0,-0.0371405823470493,11.350812467424651,-5.847539124029959,-0.01863139,-3.0201178,0.1740966,227.32616,-76.89006,10.7721615
10425477697000.0,0.2111562097955502,13.1698143884546,-5.89664079344558,1.5109752,-2.331978,0.66767573,228.34668,-77.230034,10.870031
10425482689000.0,0.273442886692724,14.971336283824414,-5.441469152796151,3.1859677,-1.6475036,1.1166617,229.22607,-77.60158,11.040658
10425487680000.0,0.1918781680425824,16.318444439903846,-4.812398174656593,4.551557,-1.0812315,1.4801265,229.99332,-77.90909,11.350014
10425493010000.0,-0.0685523415237441,17.209918055975276,-3.9309409004218994,5.4235673,-0.63224554,1.7510452,230.59737,-78.02274,11.728214
10425497726000.0,-0.3527208059964675,17.475916058286725,-3.293575690933176,5.9052343,-0.22968534,1.9590448,230.99657,-77.85513,12.131031
10425502728000.0,-0.7193628020557354,17.123376413698363,-2.7906180874987734,6.1016273,0.19150625,2.1389446,231.27113,-102.654465,12.582802
10425507717000.0,-1.261282972491169,16.073476372029546,-1.5754946036608866,6.087883,0.72692966,2.2883012,231.29565,-103.38179,13.019079
10425512719000.0,-2.06889934282675,13.973673234906872,0.7127517354527937,5.9202003,1.6233743,2.3823745,231.10739,-104.30702,13.497287
10425518624000.0,-3.0446577105511072,11.530646515308526,3.4372075623645784,5.6483655,3.5931094,2.4226916,230.38808,-105.29454,14.015943
10425522754000.0,-3.916557709609044,10.12591893358455,5.538709992510598,4.9275446,6.1248403,2.3399193,229.25589,-106.2499,14.584808
10425527777000.0,-4.976982333160622,8.417457276683937,8.094605078860104,3.1975741,7.787616,2.0528126,227.55234,-106.73771,15.108516
10425532795000.0,-5.70691543248658,7.371331199364935,9.618917487525517,0.960891,8.154135,1.5671748,225.49083,-106.963326,15.558947
10425537687000.0,-6.337387419936493,6.51417268995237,10.851525624064411,-0.9779953,7.4339247,1.0088439,223.25865,-106.90524,15.864502
10425542772000.0,-6.907949328270476,5.719203985715754,11.810586311581543,-2.1719313,5.6660805,0.5375614,220.79483,-106.463394,15.874804
10425547816000.0,-6.992338439112116,5.475964329565307,10.931944940704962,-2.3924537,4.661818,0.23304509,218.32222,-105.91096,15.692674
10425552774000.0,-7.022223661532301,5.16824688906389,9.961871241724506,-2.1184807,2.6942213,0.116980694,216.44939,-105.26202,15.244069
10425557790000.0,-6.846967754858516,4.591184119389571,8.568371943272824,-1.9242256,0.9611965,-0.09193522,214.85208,-75.32232,14.633876
10425563602000.0,-6.668509359967538,3.8474845714689394,6.865317260144607,-1.5317446,-0.9224065,-0.4633413,214.00258,-75.821785,13.944778
10425567716000.0,-6.688857057060647,2.873701248005755,5.132854918548031,-1.1508701,-1.382388,-0.61300325,213.2819,-76.18928,13.2510195
10425572837000.0,-6.714185340194777,1.6615611411863656,2.97633093913236,-1.0793989,-2.122146,-0.94225967,213.37308,-76.59645,12.510263
10425577740000.0,-6.886230963618054,0.6663109680234368,1.2130885820653663,-0.97158116,-2.5949554,-1.3191634,213.54126,-77.00989,11.722283
10425582786000.0,-7.532151162299734,0.1663863875290672,0.3548109634990388,-0.915687,-2.8643472,-1.707063,213.89127,-77.42397,10.859083
10425587869000.0,-8.17173805116959,-0.3467427203114035,-0.4784279923318714,-0.86620694,-2.9251282,-2.083356,214.5484,-77.99474,9.993569
10425592853000.0,-8.674167513157894,-0.9573341560657896,-0.9424774846710526,-0.7779369,-2.763249,-2.4211645,215.2265,-78.609085,9.031544
10425597818000.0,-9.174681614035087,-1.5655978957368422,-1.4047579279824562,-0.5879578,-2.2812762,-2.71102,215.87277,-79.38495,7.9010596
10425602708000.0,-9.86335728392947,-2.35360954506801,-1.60091883395466,-0.22113322,-1.3921618,-3.071125,216.36238,-80.21646,6.6333904
10425607788000.0,-11.010374194760706,-3.58885840390932,-1.2332852480604537,0.25167647,-0.3032946,-3.5729508,216.66522,-81.078735,5.2175326
10425612692000.0,-11.923589800367008,-4.676261171769364,-0.4353599180606529,0.7098254,0.9068295,-4.2540655,216.7087,-82.04985,3.5213807
10425617853000.0,-12.472554414332624,-5.5975669133088655,1.345194552578714,0.7473936,1.9630154,-5.067127,216.49854,-82.80352,1.6065617
10425622753000.0,-12.670569581635784,-6.064748083058655,2.8621301284368923,0.1853976,2.4248295,-5.805358,216.0852,-82.955345,-0.68783706
10425627794000.0,-11.983656057631284,-5.422310792742348,3.9443897923635993,-0.5552765,2.1600194,-6.367659,215.59607,-82.282486,-3.1824565
10425632778000.0,-11.290155846743016,-4.642292263673499,4.643529741483697,-1.1410962,1.4706581,-6.672481,215.07141,-80.48458,-5.942547
10425637759000.0,-10.566395364140346,-3.553172033860968,4.549579993580859,-1.4957036,0.6942484,-6.6856146,214.69366,-78.14788,-8.7752695
10425642738000.0,-9.842925490043038,-2.4644891139178644,4.455667968925523,-1.8069394,0.29871312,-6.427219,214.47992,-75.520386,-11.5049715
10425647865000.0,-8.621718066955676,-0.3233220437582944,4.100778869149783,-2.1041253,-0.48288897,-5.9073725,214.6475,-72.83361,-14.114595
10425652797000.0,-7.113176350915687,2.451391484827037,3.578430631336813,-2.3612995,-1.2119566,-5.554598,214.97229,-70.10008,-16.673475
10425657756000.0,-6.154989460069478,4.792111155263919,2.7955920950033777,-2.4804184,-1.8350391,-4.7143526,215.51334,-67.791435,-18.684689
10425662745000.0,-6.422399089790601,6.156821462607353,1.4401029308925986,-2.6923885,-2.332589,-3.8176024,216.25545,-65.53424,-20.525316
10425667714000.0,-6.764738980498135,7.562373988202077,0.1581172579852778,-2.85946,-2.6077838,-3.0207286,216.87526,-64.08105,-21.48951
10425672814000.0,-7.375445029706564,9.16301492800242,-0.9253935969103556,-2.944065,-2.144748,-2.2977695,217.35838,-62.825726,-22.219248
10425678856000.0,-7.886310444013345,10.281914447547264,-1.696243811998023,-2.6438248,-1.3692545,-1.674687,217.17949,-62.310448,-22.35747
10425682785000.0,-8.004869002112937,10.22844669498332,-1.682295716353639,-2.1013765,-0.77518797,-1.2831224,216.87907,-61.92388,-22.409466
10425687740000.0,-8.154387366934388,10.161016632892624,-1.664705282676387,-1.5656476,-0.57543504,-1.2476922,216.69217,-61.518173,-22.71512
10425692966000.0,-8.32163681584944,10.16524702303992,-1.6349271068022615,-1.1200215,-0.66859204,-1.4575244,216.40733,-61.21612,-23.008865
10425697796000.0,-8.622228394885644,11.320768168284244,-1.435833968731539,-0.7724391,-0.9315695,-1.8118263,216.12973,-60.952976,-23.336155
10425702706000.0,-8.927798716431766,12.495428380116463,-1.2334432217486708,-0.49968776,-1.3017539,-2.2214115,215.9363,-60.643604,-23.752378
10425707785000.0,-9.704698753630126,13.792640101005263,-1.0913754587585769,-0.26847526,-1.754405,-2.6203065,215.88097,-60.295143,-24.22732
10425712769000.0,-10.717655200414873,15.110244840114888,-0.9885566044295516,-0.099265605,-2.245846,-2.9700267,215.98218,-59.88868,-24.757326
10425717775000.0,-11.651451745836107,16.341579519986674,-0.8494072741838774,0.005497787,-2.7113254,-3.250414,216.2933,-59.446598,-25.310492
10425722807000.0,-12.092903725183213,17.031849819120588,-0.4962457661359093,0.039095376,-3.1881058,-3.4287865,216.77707,-58.958435,-25.874214
10425727701000.0,-12.522249112091938,17.703189811958694,-0.1527695299700199,0.013439035,-3.6410623,-3.4352007,217.39183,-58.42611,-26.462442
10425732780000.0,-12.190570633200942,18.114882320241247,-1.423008768167108,-0.06811147,-3.3927455,-3.3658676,217.9468,-57.867115,-27.079903
10425737727000.0,-11.591221352750807,18.414557142394823,-3.2384792332686083,-0.19364429,-1.9611828,-3.3328807,218.27664,-57.291946,-27.757122
10425742967000.0,-10.76943789825305,18.727277148234776,-5.106382475038375,-0.3368922,0.48258355,-3.0839531,218.22697,-56.761032,-28.45003
10425747980000.0,-7.158533801915064,18.955371029968568,-6.06086852108764,-0.7128797,2.8170052,-2.5589144,217.73045,-56.25779,-29.159971
10425752787000.0,-3.696013157371537,19.1740918138294,-6.976131721438491,-1.1695015,3.7598755,-2.2351558,216.96657,-55.83084,-29.951256
10425757695000.0,-0.8781265772450868,19.348189890367497,-7.396090468617255,-1.4046847,5.2308393,-1.5344934,215.20444,-55.59771,-30.707842
10425762784000.0,0.1011536349695954,19.39543592059575,-6.438285504521018,-1.7278323,6.0408463,-0.82924956,213.31383,-55.37229,-31.363533
10425767975000.0,1.062447303416149,19.40183748274672,-5.447729089889579,-1.7773124,6.393316,-0.3136793,211.23299,-55.801426,-31.369339
10425772807000.0,1.369830406521739,18.75513522463768,-4.3140043746376815,-1.6475036,6.412558,-0.07971791,208.98521,-56.296856,-31.276114
10425777703000.0,1.6812848090062111,18.099867373706005,-3.1652634379917184,-1.3808609,6.084218,-0.13744467,206.88232,-56.95252,-30.90961
10425783668000.0,2.1011555749020814,16.93955968374165,-1.9660593201996772,-1.0149527,5.370727,-0.3839288,204.9435,-57.603355,-30.515602
10425787776000.0,2.4002732172644192,16.0512710155902,-1.189562055774518,-0.50976706,4.407698,-0.73792523,203.24779,-58.21011,-30.143778
10425792783000.0,2.822305879461421,14.901448393550565,-0.3068410207952051,-0.011301007,3.3982434,-1.1090258,202.01053,-58.754673,-29.72439
10425797829000.0,3.7850441294867463,13.114671124261353,-0.0131242485007597,0.3857614,2.5097399,-1.4037683,201.09895,-59.225067,-29.362803
10425802789000.0,4.731374236527097,11.358346261860545,0.2755866493550566,0.691194,1.7901406,-1.5464053,200.64331,-59.591125,-29.043238
10425807787000.0,4.904695961033797,10.987205568588468,0.3697637500596421,0.86498517,1.2443326,-1.4648548,200.43222,-59.94493,-28.72284
10425812744000.0,4.789344954104999,11.134016498490537,0.3907366743465135,0.9092729,0.82772243,-1.1441506,200.41153,-60.328697,-28.357977
10425817982000.0,4.6431618107244725,11.278446962920707,0.4010895496360525,0.8915578,0.44501534,-0.732122,200.54198,-60.6885,-28.036726
10425822820000.0,4.076794723021759,11.221809915084345,0.2009732380500366,0.8723156,0.081855945,-0.4251622,200.78406,-61.1124,-27.63449
10425827705000.0,3.5049255160296635,11.1646226520251,-0.0010871551078152,0.96883225,-0.20433442,-0.24709499,201.13686,-61.611828,-27.14317
10425832780000.0,2.911990395058464,10.961413524916482,-0.0084903462756124,1.1774428,-0.42271876,-0.13072516,201.56473,-62.18515,-26.571815
10425837745000.0,2.3328528977380287,10.64702445858853,0.1470494485921492,1.4727961,-0.63194007,-0.061391957,202.06645,-62.807983,-25.954662
10425842848000.0,1.7376185273802895,10.3238970858853,0.3069124039214922,1.7638733,-0.72387534,-0.04428773,202.63559,-63.397114,-25.366135
10425847804000.0,1.6331691564341084,10.107779677245782,0.4625663258166894,1.8765781,-0.8197812,-0.035124753,203.26102,-64.010185,-24.757149
10425853465000.0,1.7518324931782945,9.910007621431827,0.6405612999562242,2.0131063,-0.8381071,0.0720821,203.87898,-64.67765,-24.121468
10425857780000.0,1.888555307069545,9.686986361086534,0.6824784010697221,1.8707749,-0.84482664,0.11362094,204.58363,-65.2003,-23.58232
10425862746000.0,2.086329662351796,9.36718114590338,0.6488146727012918,1.7208074,-0.8943067,0.21533,205.287,-65.777,-23.000467
10425867769000.0,2.301812055209175,8.991032888063318,0.5695887332046519,1.3304645,-1.031446,0.33414328,205.995,-66.316956,-22.431845
10425872824000.0,2.5715861210709097,8.431936089080924,0.3350026039937005,0.93645644,-1.1976013,0.42302418,206.71198,-66.85941,-21.846016
10425877764000.0,2.835222893643999,7.885558604021967,0.1057532512138588,0.63529986,-1.3509285,0.49632803,207.39627,-67.39764,-21.261318
10425882778000.0,3.122022132092681,7.092195181890401,-0.145829525399338,0.43249258,-1.4526376,0.5589417,208.1009,-67.92718,-20.653242
10425887702000.0,3.409919447841118,6.23544033390217,-0.3990404509725634,0.310625,-1.5012014,0.6264423,208.81966,-68.452965,-20.02245
10425892903000.0,3.698375113224575,5.341193884033322,-0.6403629795400902,0.26206118,-1.4895949,0.7125743,209.48244,-68.99342,-19.396782
10425897782000.0,3.726757311280805,4.668129822075668,-0.4619604478097883,0.24007004,-1.4156802,0.82741696,210.1288,-69.54801,-18.744822
10425902699000.0,3.7553605635543215,3.9898236132939946,-0.2821684313068379,0.22724187,-1.3191634,0.9627236,210.68915,-70.135414,-18.090923
10425907786000.0,3.7195882987405535,3.2399092932582603,0.0269552555104459,0.20189096,-1.2174544,1.0900891,211.21805,-70.74861,-17.407452
10425912714000.0,3.660149419143577,2.4951745848273816,0.3730995600059267,0.1740966,-1.1297953,1.2098186,211.71422,-71.393654,-16.689621
10425917919000.0,3.593345395535014,1.693984829406122,0.7535001787389901,0.12858713,-1.065349,1.2983941,212.15427,-72.01927,-15.981768
10425923254000.0,3.455221980343594,0.620187368518357,1.3995609556204762,0.0693332,-1.042747,1.352761,212.5752,-72.66084,-15.248687
10425927699000.0,3.340140709392169,-0.2744761204499872,1.9378440208947412,0.016187929,-1.0549643,1.3658947,212.95792,-73.228806,-14.5542145
10425932781000.0,3.1404636424442973,-1.4328308402676666,2.9219746837561584,-0.08368854,-1.1029172,1.3775011,213.33945,-73.79079,-13.839236
10425937747000.0,2.9201400904037063,-2.614884398588132,4.020095356011471,-0.2855795,-1.1505647,1.409877,213.7201,-74.33061,-13.109262
10425942993000.0,2.680302146857671,-3.791193959704251,5.062103355545286,-0.6450737,-1.3344351,1.434617,214.13507,-74.6955,-12.431275
10425947841000.0,2.3502270698208445,-3.771389469557799,4.220412007329731,-1.0433578,-1.3387111,1.4520267,214.50526,-75.0014,-11.7449255
10425952891000.0,2.0063988645741504,-3.750759792321911,3.3436501862718613,-1.1972959,-1.269378,1.4804319,214.8859,-75.00122,-11.1491785
10425957769000.0,1.6425390385333332,-3.631051389254481,2.3823854980143366,-1.3732251,-1.110553,1.5106697,215.22942,-74.864876,-10.544188
10425962789000.0,1.1428288278666665,-3.1141097461003584,0.941841511921147,-1.3906348,-0.9761627,1.5509869,215.54619,-74.670296,-9.923268
10425967750000.0,0.6489917053333332,-2.603243711899641,-0.4817717779211468,-1.2983941,-1.0140363,1.5778649,215.82407,-74.50158,-9.357915
10425972795000.0,0.2389909378884462,-2.19899307998008,-1.484314465936255,-1.0833695,-1.1636983,1.5793921,216.08607,-74.313965,-8.783429
10425977787000.0,-0.0371873849800796,-1.9609083908964144,-1.8509649328685256,-0.8194757,-1.3765849,1.5546521,216.36806,-74.11649,-8.196064
10425982780000.0,-0.3581448626824457,-1.8049856701512164,-2.143454262458909,-0.54550266,-1.5741998,1.5048665,216.65575,-74.19294,-7.686899
10425987786000.0,-0.7453871311298957,-1.7689631110265802,-2.328069778059547,-0.27488935,-1.7098118,1.4376713,216.98805,-74.316086,-7.1770244
10425992759000.0,-1.1416896990833,-1.7520765827222,-2.465138343921881,-0.03176499,-1.7327193,1.3417655,217.34569,-74.523796,-6.7351537
10425997744000.0,-1.5698118902949385,-1.785375001863292,-2.479409073694699,0.1255328,-1.6194037,1.2275337,217.71107,-74.765396,-6.3171134
10426003008000.0,-2.2314288529002764,-1.8085798431755404,-3.224101862348795,0.23976462,-1.3564262,1.0858129,218.04317,-75.035614,-6.0383096
10426007793000.0,-3.2789578717115915,-1.8042151429183733,-5.45446528891323,0.2950479,-0.6411031,0.9309586,218.22859,-75.319466,-5.834138
10426012789000.0,-4.197295316680637,-1.7087121413150788,-7.181152979891962,0.34147367,1.677436,0.7959574,217.8891,-75.57674,-5.8922973
10426017793000.0,-4.268707807544007,-1.173117387920276,-5.998381263881903,0.49571714,4.6798387,0.56413406,217.17505,-75.84714,-6.1057844
10426023002000.0,-4.335326099007444,-0.5757164273263028,-4.746617805614144,0.70707655,6.1349196,0.14446963,216.29419,-76.37011,-6.6892858
10426027794000.0,-4.292622601240695,0.5108511914495453,-3.3184220065239867,0.8200866,6.376517,-0.121256754,214.9312,-76.81707,-7.3709784
10426032736000.0,-4.255567801291682,1.698155877244412,-1.8637882077913157,0.78954333,6.2427373,-0.2938262,213.40442,-76.87048,-8.290454
10426037751000.0,-4.299565237944302,3.682443812385489,-0.6010595522810553,0.6969972,6.1266727,-0.4156938,211.83693,-76.79407,-9.232333
10426042808000.0,-4.343931147645658,5.683349911689263,0.6722442983501282,0.66645396,5.6865444,-0.45875978,210.28873,-76.57274,-10.056327
10426047772000.0,-3.595431574677468,8.948599519351935,2.2988243043084307,0.59681535,4.8010955,-0.5158757,208.91948,-76.24406,-10.8742075
10426052732000.0,-2.768832221942194,12.340507350135011,3.961524110769077,0.47678033,3.4538321,-0.4428773,207.81633,-75.87929,-11.612891
10426057729000.0,-1.2843248589457832,14.014923856024096,4.885538490542169,0.30482176,1.7318029,-0.022907447,207.11418,-75.46276,-12.162213
10426062696000.0,0.2671615545611017,15.476349903614455,5.716545674182444,0.1337795,-0.004581489,0.63713247,206.79744,-75.10819,-12.552714
10426067787000.0,2.5746187133773417,16.602201349771867,5.63472471303757,-0.089491755,-1.4902058,1.4804319,207.07428,-74.93645,-12.475544
10426072787000.0,5.368357743568585,17.43428027414814,4.867724907193477,-0.40011674,-2.3942864,2.6734517,207.61467,-74.97618,-12.055029
10426077743000.0,7.4967105918007055,18.046519368968223,3.6647703159866616,-0.72051555,-2.617863,3.9660425,208.25285,-75.54559,-10.913282
10426082757000.0,9.0461374029031,18.46566586936053,2.030572334052569,-0.97585726,-2.2525656,4.9333477,208.9061,-76.14699,-9.553055
10426087790000.0,9.843021453695414,18.13405061344872,0.6759999060559037,-0.9166033,-1.5314392,5.4211235,209.54207,-77.264565,-7.518334
10426092775000.0,9.819277124639411,16.99907029613051,-0.3592536143459666,-0.7443393,-0.7507534,5.5384097,209.9864,-78.15216,-5.4231567
10426097796000.0,9.512750935844617,15.435867817539728,-0.8340953587051207,-0.5320636,-0.2284636,5.4202075,210.33653,-79.07316,-3.108783
10426102792000.0,8.893206748283305,13.412961736707867,-0.6745157379164215,-0.46975538,-0.051618114,5.1963253,210.54689,-79.545944,-0.9093959
10426108448000.0,8.188883597771587,11.438042103412256,-0.4875268414032034,-0.6114761,-0.07788532,4.905859,210.6785,-79.67141,1.1641978
10426112789000.0,7.646061499442897,10.164219713353065,-0.3391555159758008,-0.8213083,-0.23732115,4.5359797,210.81805,-79.41536,3.0840225
10426117749000.0,7.025833567617257,8.726279237334168,-0.1402357389282356,-0.9611965,-0.5027421,4.0903535,210.96672,-78.820206,4.810481
10426122764000.0,6.398709520192208,7.391759081688081,0.2611237949639612,-1.0332786,-0.88147855,3.6053267,211.21751,-78.05453,6.3989625
10426127774000.0,5.8901981180263165,6.599303858740601,0.6228137679323308,-1.0641272,-1.3402383,3.1007519,211.53722,-77.18976,7.791216
10426132791000.0,5.804400156578947,7.746286720864662,0.8440821402255638,-1.0919216,-1.8411479,2.758362,211.99641,-76.305214,9.095351
10426137801000.0,5.8173352978566495,9.079631857109932,0.808678512099562,-1.1346822,-2.0775528,2.6853635,212.459,-75.37477,10.288974
10426142950000.0,6.787114025489744,12.273083032649613,-1.7142616320657602,-1.2021828,-2.3133466,2.857933,213.07002,-74.43134,11.472522
10426147794000.0,7.69944810135976,15.277370757317357,-4.08775591412768,-1.7391334,-2.235767,3.0185907,213.6925,-73.45578,12.536186
10426152753000.0,7.737644510056568,17.19437087366436,-5.8454908566310495,-2.5277603,-1.5494597,3.5020905,214.17854,-72.32068,13.703441
10426157792000.0,6.817586770584538,17.902107027865075,-6.912151085187514,-3.2284229,-0.45845437,4.1783185,214.49872,-71.03805,14.925907
10426162779000.0,4.677896186577246,18.383208301264112,-5.763142670925408,-3.4804046,0.35918877,4.8322496,215.13332,-70.08167,16.119333
10426167757000.0,1.6554715664672388,18.705232974042264,-3.0259391970278884,-3.2922583,-0.17928895,5.330105,215.80942,-68.961174,17.44409
10426172731000.0,-0.968332681706209,17.95366582958102,-1.0203384491468954,-2.5491407,-1.357648,5.9049287,216.42526,-67.86516,18.83563
10426177721000.0,-3.202150741574962,16.120294488844017,0.2581966807874811,-1.6358972,-2.450486,6.2717533,217.16705,-66.73965,20.304287
10426182767000.0,-4.982924202376884,14.217530080549944,1.1067170159080315,-0.9801333,-3.4110715,6.1865377,217.77353,-65.69279,21.506653
10426187787000.0,-6.312340379788722,12.27942053728445,1.539897549697064,-0.6374379,-4.2742243,5.7286944,218.7037,-64.7353,22.73874
10426193224000.0,-7.736228904103099,10.191714307590258,1.9871243253103383,-0.5213735,-5.097365,4.9803843,219.69669,-63.94672,23.737621
10426197768000.0,-8.573332481095424,8.698948518146498,1.8757854314223448,-0.47616947,-5.8618627,4.024991,220.99953,-63.372902,24.571146
10426202791000.0,-9.498678270539184,7.04882471524685,1.7527098891689568,-0.3915646,-6.526179,2.9932396,222.48473,-63.092403,25.063128
10426207790000.0,-8.806082026930193,6.19639929391085,0.6107320460050465,-0.26267207,-6.768387,2.0173824,224.13164,-63.062737,25.306934
10426212695000.0,-7.830250304558453,5.505020608713204,-0.6969611680403698,-0.09682214,-6.5167103,1.1881329,225.87526,-63.27816,25.30072
10426217726000.0,-5.978664324162306,4.996941587863765,-2.1429276674102637,0.09773844,-6.023742,0.5131268,227.63687,-63.746952,25.020086
10426222795000.0,-3.0596460292481407,4.734007117984026,-3.72944755979069,0.35216382,-5.466022,-0.03970624,229.3056,-64.40588,24.53404
10426227722000.0,-0.83602271967457,4.615588781868898,-5.10381029646676,0.65087694,-4.8878384,-0.43799037,231.00935,-65.01061,24.154732
10426232792000.0,-0.2039801900790329,4.863891218688981,-6.065417798000929,0.99204516,-4.5491133,-0.7031059,232.6046,-65.72777,23.64213
10426237737000.0,0.3936177920024411,5.166748797818292,-6.915165245556488,1.3848315,-3.6670241,-0.7968737,234.13165,-66.12515,23.48085
10426242767000.0,0.8676510929254712,5.905358847860248,-7.154019221603479,1.6206255,-2.4700336,-0.88239485,235.45026,-66.56538,23.217432
10426248329000.0,1.391820719115112,6.722088290868869,-7.418135685773133,2.2608123,-0.37140608,-0.78984874,236.3321,-66.86066,23.061157
10426252801000.0,1.7087906207745422,7.676810606004203,-7.0492140048233765,3.4697146,0.3555236,-0.70646566,237.25806,-67.11214,22.884363
10426257727000.0,1.973157698108676,8.97032082719904,-6.171137966516562,3.8719695,1.6603317,-0.5213735,237.34656,-112.7631,22.752161
10426262725000.0,2.087804905895872,10.034122622381332,-5.113843935649253,4.5365906,2.653904,-0.3484986,237.33865,-112.81266,22.709272
10426267781000.0,2.0492842908158755,10.860174610713338,-3.876906116432423,4.8979177,3.3988543,-0.16157386,237.00647,-113.00678,22.740076
10426272732000.0,1.9195173051212933,11.560780929919138,-2.5658356288409703,4.989853,4.1187587,0.030848695,236.2415,-113.25911,22.789774
10426277791000.0,1.4929217891284814,11.930787462803234,-0.907336613513028,4.855157,5.1746397,0.27488935,235.14937,-113.63751,22.946123
10426282992000.0,1.0174180037704916,12.265543255737704,0.8239743423770493,4.3780713,6.578408,0.48747048,233.52759,-113.95284,23.12753
10426287787000.0,0.0764181979508196,11.953130926229507,2.7774899247950824,3.4190128,7.7402735,0.6065892,231.66081,-114.26405,23.380737
10426292751000.0,-0.8977471901803278,11.629707609508197,4.799857255581967,2.0775528,8.011803,0.6010914,229.37619,-114.352684,23.586645
10426297823000.0,-2.061865305101134,11.178801002269363,7.688385430685743,0.7648033,6.661791,0.59223384,227.24292,-114.37949,23.770823
10426302803000.0,-3.322998932728169,10.651760256339417,11.100034300937343,-0.022296581,4.4941354,0.6267477,225.28888,-114.342186,23.902294
10426307793000.0,-4.235802270973963,9.5653092024108,12.217909227579556,-0.43035457,2.1041253,0.63132924,223.49011,-114.03739,23.827736
10426312786000.0,-4.873669576615236,8.03980698840405,11.530088168675666,-0.602924,-0.051618114,0.5821546,222.3115,-113.74271,23.669554
10426317859000.0,-5.476815355168164,6.538977383430182,10.735161656154252,-0.6747007,-1.7079792,0.4615087,221.25334,-113.29192,23.287277
10426322832000.0,-5.577450258161648,5.603911610459588,8.906961414659271,-0.7156286,-2.7849348,0.25595254,220.7421,-67.12301,22.86525
10426327733000.0,-5.676628150695545,4.682383890103892,7.105230189329107,-0.8371908,-3.125492,-0.03604105,220.63393,-67.533226,22.404041
10426332728000.0,-5.973710239843686,3.893777529387084,5.592726801217606,-1.0369438,-3.4599407,-0.21563543,220.88641,-67.92109,21.934952
10426337692000.0,-6.321796987256273,3.1506709358206497,4.176913017161661,-1.1603385,-3.3438764,-0.61361414,221.13925,-68.402916,21.332922
10426342772000.0,-6.733970222165959,2.463276118016988,3.090120415779157,-1.4086553,-2.7281241,-1.01312,221.57056,-68.85849,20.755295
10426347759000.0,-7.237153919658608,1.9171854031934008,2.661049183485789,-1.7003434,-1.9107865,-1.3732251,221.92046,-69.36989,20.074364
10426353263000.0,-7.803915135909394,1.3109088787252945,2.1976046236360944,-1.858252,-1.260215,-1.6319265,222.3031,-69.95941,19.321177
10426357730000.0,-9.038946891405727,0.5762233628159004,2.5079459187504627,-1.7638733,-0.9263771,-1.7556267,222.54185,-70.57293,18.493633
10426362744000.0,-10.425212667554964,-0.2484270013590941,2.85628960661781,-1.4477507,-0.75625116,-1.8408424,222.68262,-71.2906,17.534182
10426367802000.0,-11.550882731721265,-0.9644707530479536,3.124762457715873,-1.0598512,-0.64599,-1.9788979,222.75089,-72.03265,16.51271
10426372760000.0,-11.686644687770608,-1.2553894085107429,3.093731072469569,-0.80573124,-0.5009095,-2.2360723,222.77026,-72.80506,15.42269
10426377737000.0,-11.82292690948452,-1.5474229196519893,3.0625807690466464,-0.82802784,-0.3567453,-2.5592198,222.68523,-73.75321,14.026262
10426382726000.0,-11.128330556659218,-1.277063712780399,2.8543442177882623,-1.0824533,-0.30695978,-2.8603766,222.61197,-74.6748,12.555899
10426387713000.0,-10.167684346246173,-0.8263902028640013,2.5894747447893387,-1.4697418,-0.40286562,-3.0424144,222.56534,-75.50283,11.023726
10426392740000.0,-9.041130374721227,-0.2591725839506173,2.2681595890780564,-1.8359555,-0.55924714,-3.1010575,222.54617,-76.1847,9.419614
10426397831000.0,-7.589726368120271,0.5369152567901234,1.836136284926324,-2.1569653,-0.70707655,-3.1025846,222.57805,-76.61735,7.7809157
10426402783000.0,-6.354224011613242,1.2762215373095112,1.4261994038360484,-2.4419339,-0.784351,-3.0207286,222.69792,-76.710266,6.317834
10426407728000.0,-5.454194427360308,1.9481329185934488,1.03632491522158,-2.7000244,-0.7910705,-2.8866436,222.84953,-76.51079,4.871116
10426412904000.0,-4.56736555323045,2.753763913489525,0.6079832960538941,-2.9568932,-0.73975784,-2.777299,223.04373,-76.04917,3.6836638
10426417776000.0,-4.332321082864225,4.62292751668799,-0.0150712318527106,-3.1994066,-0.6404922,-2.7076602,223.22589,-75.37866,2.522755
10426422751000.0,-4.09230748679034,6.531607509691348,-0.6512978895570126,-3.4095445,-0.5177083,-2.65818,223.24048,-74.57821,1.7673407
10426427724000.0,-4.184843580471154,8.345020359903847,-0.9736831537932692,-3.506061,-0.46486846,-2.6261096,223.23824,-73.70756,1.0311683
10426433461000.0,-4.607475517384615,10.347238324615384,-1.047643757923077,-3.5246925,-0.37659842,-2.6367998,223.1875,-72.775955,0.2903355
10426437720000.0,-5.050816157458353,11.9377703934317,-1.0958976120609234,-3.484681,-0.3924809,-2.7333164,223.12268,-72.051796,-0.33836955
10426442770000.0,-5.70455497801999,13.926610379152784,-1.1465393774107568,-3.39244,-0.559858,-2.934902,223.08041,-71.327965,-0.986147
10426447762000.0,-6.385025116321815,15.588521670517803,-1.1947854086020375,-3.2436945,-0.88239485,-3.2458324,223.14822,-70.68596,-1.7692419
10426452804000.0,-7.130543412824284,16.749907526835415,-1.240429356758744,-3.0543263,-1.3750577,-3.647171,223.328,-70.05046,-2.5835354
10426457723000.0,-7.431058768288414,17.572900881344065,-1.3971310892544628,-2.8441887,-1.922393,-4.102876,223.62938,-69.49438,-3.5315273
10426462778000.0,-7.24043201120056,18.055822353167656,-1.6894256712898144,-2.6096163,-2.4297166,-4.565607,224.08392,-68.93279,-4.5172353
10426467980000.0,-6.657279297611182,18.49713637543414,-2.016528341736552,-2.3176227,-2.701857,-4.9147162,224.62877,-68.392365,-5.621686
10426472790000.0,-4.82718846635324,18.71955680576027,-2.406739663041084,-1.8533652,-2.7049112,-5.0814824,225.25485,-67.88435,-6.7407374
10426477733000.0,-2.9464942919440915,18.94812732282931,-2.8077406113172385,-1.2205088,-2.403144,-4.850881,225.93068,-67.4911,-7.803686
10426482720000.0,-0.6561377189531512,19.07692783763162,-3.4973351251335267,-0.51893,-1.7577647,-4.2103887,226.47487,-67.212074,-8.803949
10426487725000.0,1.732046530589043,19.182988316801467,-4.254385864871051,0.039095376,-0.84329945,-3.1658092,226.78416,-67.08567,-9.665032
10426492787000.0,4.116882209807996,19.285670053694624,-5.0983686088438205,0.3454443,0.17134771,-1.89918,226.99619,-67.31086,-10.062538
10426497860000.0,6.386329639813814,19.370471082370543,-6.253283378272795,0.37568212,1.2198979,-0.71593404,226.84247,-67.701164,-10.292157
10426503976000.0,9.0394157014218,19.47019266350711,-7.577297022748815,0.2312125,2.2177463,0.23701571,226.48233,-68.530556,-9.8436575
10426507726000.0,9.017094009245591,19.48135380094787,-7.030412243011421,-0.01160644,2.993545,0.8362745,225.82716,-69.404396,-9.273207
10426512773000.0,8.987051987802035,19.49637520379147,-6.29437824745552,-0.30543262,3.3863316,1.1001683,224.93773,-70.54753,-8.0518675
10426517769000.0,8.931414066548216,19.254977396381843,-5.52950465322242,-0.5928447,3.4266486,1.0781772,223.96667,-71.53675,-6.8567576
10426522845000.0,8.782225908900017,18.09287839912777,-4.622595960151833,-0.7666359,3.133128,0.7678576,223.037,-72.35254,-5.742364
10426527704000.0,8.639415574382168,16.980459362946213,-3.7544577923760296,-0.7348709,2.9034426,0.48899764,222.18588,-72.93586,-4.6793237
10426532720000.0,9.0400019292675,14.775953064317036,-3.0232268897352608,-0.63071835,2.3753495,-0.20158553,221.5875,-73.344284,-3.8299022
10426537729000.0,9.639921609915543,12.1892845561962,-2.3531864157787883,-0.33108896,1.8390098,-0.9300423,221.10446,-73.728424,-3.1028972
10426542717000.0,10.082363438748787,10.146574771871968,-1.895208233355965,-0.058643065,1.3839152,-1.5711454,220.85304,-73.92251,-2.5742984
10426547804000.0,10.110714705819593,9.51811761454898,-1.9991634713676043,0.17440203,1.0525209,-2.0054705,220.76077,-74.14372,-2.1845384
10426552740000.0,10.005573130117552,8.958469353465748,-2.0501295193554925,0.39950588,0.83077675,-2.1285598,220.89246,-74.33471,-1.9483162
10426557731000.0,9.414639337049048,8.575815230239156,-1.9193490839379812,0.5748242,0.689056,-1.9798143,221.09364,-74.56843,-1.7387255
10426562715000.0,8.760402724674881,8.215464763175907,-1.7366549396475015,0.6957755,0.5500842,-1.6853772,221.36064,-74.8561,-1.5531443
10426567794000.0,7.882308459274469,7.919992808350445,-1.3787586505817933,0.7834347,0.355829,-1.314582,221.65253,-75.187,-1.2901081
10426573588000.0,6.89782668222959,7.602742281476835,-0.976104804590017,0.8197812,0.028099801,-0.96944314,221.97421,-75.51146,-1.013542
10426577733000.0,6.378461413836365,7.588512811094183,-0.7484378695779192,0.8359691,-0.42058071,-0.6759224,222.35268,-75.85533,-0.62600785
10426582691000.0,5.757227879290259,7.571492373420558,-0.4761163584102519,0.87598073,-0.93584555,-0.42852196,222.78308,-76.14232,-0.23988377
10426587722000.0,5.422381152007501,7.778166043304067,-0.3176910257531327,0.92485,-1.5338826,-0.2706133,223.3439,-76.42851,0.23797812
10426592826000.0,5.234877830415139,8.103171760122752,-0.217689281792686,0.97127575,-2.144748,-0.1704314,224.0358,-76.71124,0.8003364
10426597744000.0,5.120443312050304,8.35927568827956,-0.2689442987764148,1.0192287,-2.6038132,-0.077579886,224.83936,-76.91932,1.3723829
10426602735000.0,5.14015197411607,8.502162034841769,-0.6236958377095145,1.0845913,-2.8683178,0.021685716,225.74779,-77.126434,1.9933507
10426607707000.0,5.185207733412064,8.51804787136628,-0.9578581457122092,1.1417072,-2.97583,0.12583824,226.75311,-77.28971,2.6370695
10426612729000.0,5.272589027906976,8.325808558139535,-1.263693018604651,1.1979067,-2.9923234,0.23732115,227.79373,-77.44587,3.307869
10426617803000.0,5.3431285248363976,8.086562660797755,-1.5328366446556558,1.237613,-2.9404,0.36071593,228.85458,-77.62335,3.9856613
10426622849000.0,5.339363759114989,7.661143898410719,-1.6344853977563103,1.2525792,-2.8619037,0.4569272,229.90416,-77.773865,4.670426
10426627787000.0,5.335679571019009,7.2448304127454035,-1.7339585532876287,1.2339478,-2.8185322,0.4886922,230.94794,-77.9477,5.336374
10426632731000.0,5.209692343851684,6.372674620128642,-1.80285649307605,1.2061534,-2.7250698,0.5479461,231.94902,-78.069954,6.0142236
10426637786000.0,5.004546520128642,5.19674926825577,-1.8541429968217933,1.1621711,-2.5799894,0.5867361,232.92322,-78.14221,6.674615
10426643184000.0,4.790532923767042,3.977182853694664,-1.901067928126578,1.1001683,-2.364354,0.63163465,233.83597,-78.19646,7.304191
10426647856000.0,4.677564931038546,3.4387022967513885,-1.8295215287998652,1.0155635,-2.0754147,0.7141015,234.68486,-78.18019,7.933014
10426652753000.0,4.559156484893116,2.874288921890254,-1.7545295087863997,0.9263771,-1.7620409,0.8164214,235.42288,-78.1345,8.522432
10426657726000.0,4.399245828814113,2.336765886801699,-1.5984663483175434,0.79901177,-1.4437801,0.9104946,236.07712,-78.009315,9.115634
10426662726000.0,4.211526537732768,1.8205381017641296,-1.387282298987259,0.6386596,-1.1563679,1.0277808,236.64896,-77.79767,9.728715
10426667806000.0,4.01529183930789,1.2923669714807515,-1.1569566353522642,0.464563,-0.88331115,1.144456,237.11183,-77.51297,10.340087
10426672755000.0,3.795558943455584,0.758729791080553,-0.8508999824397715,0.2657264,-0.59498274,1.2470814,237.4873,-77.147224,10.969019
10426677706000.0,3.5757372486960843,0.2248769561317991,-0.5447196452868616,0.07880162,-0.22510384,1.3573426,237.72745,-76.70422,11.600357
10426682722000.0,3.363152922038586,-1.089746932087707,1.126840296465398,-0.12858713,0.28588495,1.4691309,237.8418,-76.18906,12.249231
10426687727000.0,3.154849416079542,-2.693053369156911,3.3077158162290115,-0.38087448,0.94134337,1.597718,237.80411,-75.60029,12.919703
10426692814000.0,2.9431331453875025,-4.32262776383644,5.524321963888852,-0.69974613,1.5430456,1.677436,237.58981,-74.94679,13.5735855
10426697746000.0,2.218461271482317,-5.837897851015802,7.304498743604213,-1.1414018,1.7776178,1.6377298,237.28986,-74.241394,14.22285
10426702732000.0,1.2663363622272386,-7.342434606094808,8.948261294958616,-1.7168368,1.7617353,1.428203,236.88866,-73.5017,14.835892
10426707753000.0,0.0558929134498371,-7.298779445832744,8.108774555270978,-2.1426098,1.7950275,1.1239921,236.14392,-72.49477,15.384495
10426712733000.0,-1.334322850665063,-6.0806535468657135,5.3958293205179,-2.1352794,1.8219056,0.8585711,235.39734,-71.47828,15.874306
10426717864000.0,-2.766691743370596,-4.825592505179,2.600624099731145,-1.7938058,1.539075,0.6609562,234.54901,-70.39067,16.160217
10426722877000.0,-3.5118830509741774,-3.788030979239303,1.06777065554209,-1.3127494,1.1667526,0.58062744,233.71736,-69.30521,16.386694
10426727789000.0,-4.04689143296355,-2.82764701473851,-0.0767965952456419,-1.0464121,0.09162979,0.3475823,233.18921,-68.27271,16.563007
10426732729000.0,-4.370221489988378,-2.0905025698655155,-0.8690073721401296,-0.539394,-1.1468995,0.018020526,233.036,-68.0432,16.419777
10426737726000.0,-4.552966376265981,-1.498568303934916,-1.429159913307322,-0.009468411,-2.2452352,-0.40286562,233.17444,-67.92705,16.251116
10426742784000.0,-4.6093782946181605,-0.8885497065243535,-1.9307036167468432,0.51343226,-2.9798007,-0.79809546,233.6726,-68.23425,15.920897
10426747775000.0,-4.135136205712568,-0.241856112627781,-2.1558488872519543,0.9095783,-3.3600643,-1.0821478,234.40689,-68.685776,15.555196
10426752757000.0,-3.6478256815398606,0.3576744343740528,-2.3583737011821766,1.1206323,-3.3860261,-1.1927143,235.3357,-69.415985,15.053673
10426758551000.0,-3.01428564866121,0.8342311392745276,-2.487324185389512,1.1591167,-3.1813862,-1.1661417,236.31335,-70.21626,14.520788
10426762762000.0,-2.640503894472214,1.283348455160247,-3.4217076857688915,1.0699304,-2.7577512,-1.061073,237.32367,-71.07643,13.9627495
10426767853000.0,-2.4923689673037344,2.186494000735078,-7.497809226462806,0.93218035,-1.5903877,-0.8772025,238.04427,-71.887856,13.395948
10426772801000.0,-2.406961802555457,2.9959566034605145,-10.203730260727596,0.9034697,2.243097,-0.593761,237.9399,-72.6162,12.769072
10426777901000.0,-2.5846467076131323,3.52034407905945,-7.295762935084294,1.3374895,8.077471,-0.48899764,236.91774,-73.37068,12.009843
10426782699000.0,-2.751809879077196,4.013679590417036,-4.559992890292812,2.3521366,9.949773,-0.77579886,236.21053,-74.6196,11.466654
10426787785000.0,-2.6902783113398274,5.523374377871715,-2.095587067340562,2.6306913,8.8905325,-1.040609,234.66605,-75.74924,10.811975
10426792887000.0,-2.6049672639220733,7.135307065539423,0.3335372080867484,2.0210476,7.2466946,-1.3732251,232.77167,-76.941635,10.021843
10426797937000.0,-1.260883572730522,9.597716124303073,1.7754263125804148,1.2803736,5.528941,-1.7159204,231.06888,-77.88686,9.090945
10426802762000.0,0.3781991481862041,12.194650542190852,2.8819102980164404,0.37843102,3.785532,-1.9523253,229.87253,-78.696785,8.190084
10426807727000.0,2.998052509429066,14.172258808477508,3.021343319065744,-0.6753115,2.1878138,-1.7684549,228.8682,-79.11408,7.3066435
10426812782000.0,6.603732628589966,15.487222167906577,2.158660254965398,-1.7232509,1.0845913,-0.9669997,228.21513,-79.20197,6.597644
10426817719000.0,9.950137520062531,16.675301180823347,1.320740926586764,-2.510656,0.75777835,0.3277292,227.94904,-78.52927,6.388629
10426822900000.0,12.670176559249608,17.487176030119855,0.4623256969588327,-2.903748,0.29077184,1.6163495,227.98192,-77.59342,6.463713
10426828546000.0,14.2237407995303,17.306444231130538,-0.0082154810202883,-3.0396655,-0.03970624,2.5033257,228.1382,-76.511856,7.359374
10426832746000.0,13.688454101115532,15.894757076064977,0.1990768574231848,-2.9455922,-0.074830994,2.7501154,228.2937,-75.326256,8.390464
10426837693000.0,13.05796283991128,14.231991276991325,0.44323761891839,-2.695443,-0.24495697,2.83808,228.61528,-74.0336,9.915058
10426842757000.0,12.319964881592934,12.52352257167389,0.6555448644566195,-1.5479325,-0.5867361,2.557082,228.97601,-72.97548,11.339892
10426847768000.0,11.236877941614196,10.808635360618204,0.7222567512306812,0.15424347,-0.98899084,2.228131,229.37761,-72.06867,12.720144
10426852725000.0,10.165462662932374,9.11222827516559,0.7882497312225039,1.4465289,-1.2333369,2.0399845,229.74513,-71.25407,13.99399
10426857719000.0,8.854887266921374,7.518305103835868,0.4810715309742492,1.8832976,-1.2623531,2.0109684,230.17091,-70.602615,15.194621
10426862706000.0,7.471769510537175,5.963665756689845,0.0540931878046916,1.856114,-1.1646146,2.0720549,230.6336,-70.07326,16.337318
10426867794000.0,6.261076235599328,4.658257122411722,-0.3230740214893106,1.6627752,-1.0503827,2.1948388,231.03506,-69.54891,17.387846
10426872818000.0,6.184026041156217,4.935637235086877,-0.3693040255184562,1.4385877,-0.9550878,2.2968533,231.41412,-68.962975,18.425886
10426877702000.0,6.109122946080551,5.205287806405638,-0.414245773065898,1.2250903,-0.93828905,2.3536637,231.75491,-68.40652,19.352444
10426882725000.0,6.394717786297469,6.228879283386076,-0.4844121439794304,1.033584,-0.83108217,2.4938574,232.03943,-67.74859,20.313608
10426887794000.0,6.890151740379747,7.688296517088608,-0.5689047143354431,0.7870999,-0.6081163,2.765387,232.28284,-66.98874,21.313686
10426892809000.0,7.411959706286044,9.235368829296425,-0.7471123800461361,0.38362336,-0.419359,3.138931,232.516,-66.151085,22.333979
10426898406000.0,8.231127566935793,11.734088258746636,-1.653864037677816,-0.1160644,-0.16493362,3.58303,232.65305,-65.18425,23.427162
10426903000000.0,8.84916975381179,13.71617959609595,-2.3173872376808777,-0.70096785,0.25259277,4.09127,232.74307,-64.129814,24.553574
10426907759000.0,8.955397085753132,15.092710524910167,-2.211159813304846,-1.2284501,0.47219884,4.5475864,232.80203,-62.949043,25.764225
10426913109000.0,8.984923806948283,16.538195607974735,-2.009416824476905,-1.6878207,0.26206118,4.8020115,233.03058,-61.814785,26.93044
10426917747000.0,7.420764001452823,15.987583527121991,-0.378622270572444,-2.180789,0.030543262,4.794681,233.19072,-60.617054,28.107838
10426922766000.0,5.728112413746546,15.39174005282274,1.386137942029214,-2.4263568,-0.6759224,4.7015243,233.63412,-59.54858,29.162941
10426927732000.0,4.5107148197803255,14.60387741391271,2.1786456608729163,-2.9211576,-1.6270396,4.353331,234.23871,-58.525352,30.13987
10426932733000.0,3.8600741193371233,13.561006775315542,1.7771864468445902,-3.3438764,-2.6535985,3.8857138,235.10602,-57.57734,31.070158
10426937725000.0,3.2996370902973693,12.613910730651924,1.264936193442051,-3.6642752,-3.4886515,3.379612,235.95764,-56.87532,31.646008
10426942750000.0,2.8914225561284788,11.825001535550896,0.5540007198121426,-3.8234055,-4.0280457,2.8958068,237.05244,-56.285713,32.131306
10426947741000.0,2.465816240071758,11.193284465812404,-0.2946888165409533,-3.8255436,-4.3924265,2.4840834,238.37798,-55.785675,32.564106
10426952741000.0,1.984766983280369,10.972394665709892,-1.531672633557868,-3.6987891,-4.647768,2.11451,239.84863,-55.4126,32.89702
10426957632000.0,1.5073011717747808,10.886057028447684,-2.383430610237228,-3.4257324,-4.72321,1.8002199,241.43875,-55.1187,33.207603
10426962655000.0,1.0006410307658231,11.10387297844276,-2.411841437917118,-3.0179799,-4.685031,1.5592335,243.07477,-54.936417,33.4399
10426967688000.0,0.601746022208246,11.353293671558353,-2.5129313934311672,-2.413834,-4.8701234,1.3710871,244.91486,-54.772076,33.752995
10426972737000.0,0.4907221816422082,11.686365369671558,-2.807385827393431,-1.4333953,-5.2558846,1.2797627,246.81839,-54.718197,34.015324
10426977642000.0,0.423933854026374,11.901287951102129,-3.1137434074116856,0.0021380284,-5.442809,1.2431108,248.69913,-54.763783,34.22287
10426982633000.0,0.4699419767966118,11.818473574164983,-3.4818084472230244,1.5882497,-5.28429,1.1960741,250.60419,-54.903988,34.371277
10426987632000.0,0.5251275831347462,11.736696518892444,-3.796006239684126,2.9361238,-4.906775,1.0732902,252.549,-55.11596,34.4542
10426992699000.0,0.622140150379848,11.659086428628548,-3.868765705637745,3.9339721,-4.426635,0.93279123,254.41153,-55.35805,34.458893
10426997646000.0,0.7087603880604982,11.603656161921707,-3.924735621352313,4.6547933,-3.8756344,0.79717916,256.18756,-55.572887,34.398037
10427002650000.0,0.7608704789501779,11.63681730782918,-3.9152610647686834,5.162728,-3.245527,0.72204274,257.7685,-124.26604,34.2567
10427007625000.0,0.7820158018853343,11.66998998813803,-3.899858552264558,5.5643716,-2.4911084,0.6927212,259.12402,-124.216385,34.082783
10427012705000.0,0.6377440712239396,11.704964747304098,-3.851768007332854,5.9443297,-2.0463986,0.75747293,260.36243,-124.28894,33.88132
10427018142000.0,0.4764391892486389,11.742565017150635,-3.807748039419238,6.3401704,-0.4175264,0.8762862,260.92825,-124.50353,33.736904
10427022767000.0,0.1669527731869328,11.7787386446461,-3.9564621864246825,6.7152414,0.2312125,0.9575313,261.67722,-124.85121,33.574768
10427027670000.0,-0.161136285829401,11.81708660045372,-4.114115259455535,6.8875055,2.1337523,1.1233811,261.44455,-125.338425,33.59798
10427032729000.0,-1.010625183785922,11.659392290765256,-3.0558825567355505,7.075652,5.315749,1.2767084,260.58017,-125.94177,33.775784
10427037669000.0,-2.01501476630126,11.437891830642558,-1.604673232195673,6.5683284,8.90214,1.3020593,258.956,-126.5401,34.13755
10427042710000.0,-3.1977444077510397,10.993051888276796,0.5685052406185368,5.054299,9.963212,1.106277,257.1379,-127.03386,34.514492
10427047907000.0,-4.8668679164008894,9.910767471827585,4.7822001628549335,2.9932396,9.963212,0.6960809,254.44623,-127.334915,34.987854
10427052742000.0,-6.244077915662651,9.09865869879518,8.43428208433735,1.0812315,9.422596,0.2510656,251.1981,-127.25523,35.333023
10427057756000.0,-6.994360907003013,9.008263225903615,11.186826499246989,-0.014049901,5.78917,0.04734206,248.9749,-126.98748,35.36865
10427062774000.0,-7.635784957802198,8.825239507943486,13.540417560753532,-0.50701815,2.046704,-0.013439035,246.22112,-126.21192,35.19082
10427067775000.0,-7.117000177637363,7.6636126450392466,11.641965732810048,-0.68569624,-0.9245446,-0.086132,244.44327,-125.37918,34.753128
10427072765000.0,-6.59935649576923,6.50454085021978,9.747689663736264,-0.7263188,-2.8099802,-0.2321288,242.98285,-124.49591,34.153084
10427077729000.0,-6.299437124924812,5.558943018364662,7.603015123421053,-0.799928,-3.7641516,-0.4868596,242.31271,-123.619125,33.44027
10427083594000.0,-6.16746338,4.65624356,4.79989548,-0.9569204,-4.0118575,-0.80848014,242.12634,-122.739,32.657112
10427087723000.0,-6.1195793,4.1004703467096775,3.1779855553846152,-1.1930199,-3.681074,-1.1588113,242.50818,-121.993164,31.950294
10427092788000.0,-6.1195793,3.522725076387097,1.6469607323076922,-1.4651603,-2.9443705,-1.5008959,242.85358,-121.18059,31.166796
10427097745000.0,-6.234451596672956,3.0368359947859767,0.694800209953322,-1.7003434,-2.1175644,-1.815186,243.45091,-120.39935,30.395552
10427102799000.0,-6.532482699026716,2.666700791012017,0.5842403535385837,-1.8197676,-1.3857478,-2.0485365,243.83278,-60.43317,29.566622
10427107741000.0,-6.989825673158552,2.3748328441947564,0.6934994688389513,-1.7867808,-0.8561276,-2.164601,244.22609,-61.25028,28.744406
10427112748000.0,-7.728148475081149,2.1952408180524343,1.1644296596104868,-1.5769486,-0.65209866,-2.1786509,244.48119,-62.082428,27.898167
10427118166000.0,-8.541155934560013,1.988225135506968,1.6564564585264454,-1.3955216,-0.160963,-2.1423044,244.4985,-62.978558,26.975603
10427122919000.0,-9.47682875548541,1.6062462964354456,1.810649757741165,-0.79779,0.050701816,-2.1310034,244.53833,-63.8829,26.046316
10427127781000.0,-10.433959253137273,1.2155075807683424,1.9683791540765263,-0.64934975,0.6747007,-2.1584923,244.21707,-64.8962,24.975727
10427132783000.0,-10.964866893757698,0.8675027677033772,2.2004089699552734,-0.5699373,1.3826935,-2.322204,243.81094,-65.948135,23.86055
10427137750000.0,-10.76444440305957,0.6084950545212938,2.5426692053801774,-0.77518797,1.8216002,-2.5842655,243.30438,-67.01834,22.69858
10427142751000.0,-10.562649984702146,0.3477143873935308,2.887272273099112,-1.1142182,1.7825048,-2.8166997,242.70074,-68.253334,21.33205
10427147776000.0,-10.01810962238239,0.3173181306379662,3.0998856670789907,-1.4428637,1.3903292,-2.999043,242.09012,-69.509735,19.893333
10427153614000.0,-8.433456253530728,0.9272190456511152,2.974638135102756,-1.7760907,0.8258898,-3.0854805,241.56265,-70.739044,18.411335
10427157752000.0,-7.425691031578948,1.3178877775119615,2.83464319569378,-2.1035144,0.28160888,-3.094338,241.12509,-71.850876,16.932352
10427162776000.0,-6.5501957307815,1.6666907234884731,2.510256438089024,-2.422997,-0.16187929,-3.0375273,240.84554,-72.843834,15.452796
10427167789000.0,-5.676617318580543,2.014729968747281,2.1865799221908078,-2.7348437,-0.46486846,-2.9495628,240.72925,-73.5307,14.171529
10427172806000.0,-5.054374541978084,2.884750117898286,1.7358076401573477,-2.9984322,-0.655153,-2.8487701,240.71887,-74.03321,12.922046
10427177948000.0,-4.687708440446755,4.337577935150323,1.1373810083309916,-3.2598825,-0.8002335,-2.8166997,240.79402,-74.32978,11.6902685
10427182765000.0,-4.344217462018825,5.698579801292498,0.5767779189674065,-3.4816265,-0.8903361,-2.807842,240.91878,-74.28915,10.743888
10427187902000.0,-4.377662122225049,7.289886147714746,0.0469298587382345,-3.637397,-0.9437868,-2.8212812,241.07733,-74.08107,9.815235
10427192795000.0,-4.620044779131688,8.879280088696685,-0.4219414243856524,-3.710701,-0.9370673,-2.8973339,241.25098,-73.72909,8.8827915
10427197821000.0,-4.926425792962282,10.537742580956762,-0.7808841554921803,-3.7003162,-0.981355,-3.0671544,241.28278,-73.24869,8.36242
10427202679000.0,-5.3615640111008895,12.203394881018092,-0.8308180790493713,-3.5848627,-1.2174544,-3.3542612,241.37677,-72.77201,7.808345
10427207694000.0,-5.810764950574977,13.922877442732291,-0.882365758472861,-3.350596,-1.4156802,-3.7125335,241.67075,-72.56908,6.908328
10427212629000.0,-6.352946182597803,15.291630226825978,-0.8618554280208133,-3.0976977,-1.9318613,-3.8982365,242.119,-72.34722,6.04383
10427217689000.0,-6.964632751686259,16.515003462516862,-0.801153731393332,-2.9703321,-2.5506678,-4.324315,242.68835,-72.14071,5.0660906
10427222867000.0,-6.999672239434491,17.441597916684653,-1.0443701322469243,-2.7430904,-3.128852,-4.702135,243.4136,-72.07842,3.9856849
10427227610000.0,-6.656525556680337,18.08377175901144,-1.4610480057090438,-2.4556782,-3.492011,-4.9764137,244.26465,-71.9964,2.8875437
10427232611000.0,-5.290167915076516,18.49325185943699,-1.5641586594936707,-2.039679,-3.5579846,-5.1407366,245.19423,-71.97063,1.6783217
10427237611000.0,-3.5079736490648026,18.791792384658983,-1.5279719506329112,-1.3078625,-3.591277,-4.993518,246.19734,-72.01268,0.548698
10427242669000.0,-0.8248563845553496,19.01181468925857,-2.40059798336414,-0.5112942,-3.3331861,-4.442212,247.1928,-72.15371,-0.48876563
10427247633000.0,2.3971519409324302,19.17291478948449,-3.8651472731977816,0.12217305,-2.496301,-3.4245105,247.9718,-72.38348,-1.3752388
10427252640000.0,5.296439988483877,19.2799591424995,-5.418097976617264,0.6038403,-1.3106114,-2.0839667,248.64977,-72.794586,-1.8355224
10427257643000.0,8.002508179531343,19.35672708632085,-7.01103168365712,0.83199847,-0.06078109,-0.75686204,248.98636,-73.312454,-2.0889468
10427262643000.0,9.137925290921777,19.41610859815121,-7.87042458646551,0.8210029,1.1560625,0.30634892,249.08997,-74.1474,-1.6388162
10427267710000.0,9.438381113543212,19.466889951077004,-8.344382849393913,0.68019843,2.1569653,1.0082331,248.83746,-74.98291,-1.0306064
10427272649000.0,9.469400394779246,19.12124470061231,-8.281481393490171,0.4831944,2.8948903,1.3136657,248.2927,-75.89328,0.35769072
10427277641000.0,9.038008796970674,18.07357946825653,-7.290307969062198,0.25717425,3.3383787,1.3154984,247.57779,-76.53955,1.7114524
10427282640000.0,8.774033334847081,16.737211246339204,-6.114473393104727,0.05009095,3.5439348,1.0922271,246.83566,-76.95904,2.9765484
10427287672000.0,8.680242730954587,15.098109298609824,-4.743344519406858,-0.13713925,3.5442402,0.6606508,246.07898,-77.16033,4.09295
10427292752000.0,8.710852654039932,13.47161588393357,-3.449175744560552,-0.2996294,3.3105843,0.10873401,245.40213,-77.142204,4.9872975
10427297657000.0,8.960668999440193,11.9508041130808,-2.357872737936182,-0.34666604,2.8173106,-0.5558874,244.8483,-77.09743,5.6953535
10427302665000.0,9.19268912449466,10.564489595729242,-1.3040846760294391,-0.17104226,2.1832323,-1.269378,244.44603,-76.97126,6.1966743
10427307675000.0,9.331948636259977,9.848299007981757,-0.4933966367799315,0.11942416,1.8787161,-1.8765781,244.12308,-76.929504,6.5230594
10427312659000.0,9.376195612111292,9.2559917594108,0.2455957190638297,0.269697,1.2910637,-2.068695,244.05435,-76.95077,6.6293197
10427317730000.0,9.161124088668528,8.98481506691056,0.8113262021827284,0.5558874,0.6218608,-2.223244,244.11769,-77.15557,6.5995502
10427322698000.0,8.913654760621,8.739369179167102,1.2155783765446344,0.7510588,-0.1020145,-2.1502457,244.33627,-77.3296,6.571843
10427327773000.0,8.510887258260778,8.57112491712997,1.0167438373124935,0.8237518,-0.8020661,-1.8997909,244.72485,-77.53392,6.589809
10427332679000.0,8.148152916709645,8.41593436462094,0.6957631404228984,0.8228355,-1.3747523,-1.5436565,245.2417,-77.70734,6.6464458
10427337689000.0,7.842969675348118,8.275714653429603,0.0524032454254771,0.79717916,-1.7626517,-1.1148291,245.87622,-77.8345,6.8222427
10427343091000.0,7.509870872824195,8.11735439218886,-0.630875279051349,0.7696902,-1.9297233,-0.68539083,246.57732,-77.931335,7.0682993
10427347732000.0,7.142389202132289,7.836907628154917,-1.008027699129678,0.7809912,-2.0222695,-0.38423425,247.34268,-77.96906,7.4119005
10427352740000.0,6.794416311321251,7.570137329130549,-1.4093679021276595,0.7489208,-2.1508565,-0.2519819,248.15857,-78.012665,7.79368
10427357733000.0,6.756735446169337,7.532456595131775,-1.773616104964539,0.66645396,-2.324953,-0.21227567,248.99783,-77.99196,8.2338
10427362686000.0,6.719356450555994,7.495077729620873,-2.1349462368794327,0.56291234,-2.4642303,-0.1966986,249.85706,-77.976234,8.657312
10427367773000.0,6.791319379478055,7.541048164887307,-2.41727470059312,0.4813618,-2.552806,-0.16187929,250.74521,-77.917816,9.095384
10427372801000.0,6.882711401020166,7.601976232265718,-2.6800268470225386,0.4810564,-2.6141977,-0.04886922,251.65797,-77.816246,9.556876
10427377738000.0,6.908838359322034,7.531785342372881,-2.8538885,0.5299256,-2.694832,0.1160644,252.61172,-77.710884,10.02453
10427382763000.0,6.801638440435835,7.186881022760291,-2.8538885,0.5983425,-2.762638,0.27550024,253.57355,-77.56139,10.515022
10427387701000.0,6.658475157014478,6.799947760758862,-2.849114884423365,0.66553766,-2.785851,0.39706242,254.55508,-77.385666,11.034026
10427392801000.0,6.395124957314029,6.253740052321517,-2.829607320768847,0.74097955,-2.7464502,0.49663344,255.53322,-77.15825,11.579313
10427397710000.0,6.121821793103448,5.695506219056261,-2.787997742831216,0.8014552,-2.63344,0.5925393,256.4894,-76.88789,12.131628
10427402749000.0,5.78122593678161,5.024046157723331,-2.6760878934966725,0.82833326,-2.4904976,0.6750061,257.42395,-76.57084,12.693713
10427407722000.0,5.388898073754647,4.273050036148699,-2.5106514462899625,0.82986045,-2.4168882,0.7119634,258.33447,-76.2369,13.233503
10427412723000.0,4.84052522408922,3.276008362855018,-2.193734581167286,0.8335256,-2.2351558,0.7791586,259.1714,-75.849045,13.788778
10427417725000.0,4.292042721784386,2.278767321100372,-1.876754345345725,0.84421575,-2.05434,0.8426886,259.97214,-75.44894,14.317905
10427422802000.0,3.847591433413438,1.530247224137268,-1.423516858884937,0.82436264,-1.8982637,0.90408057,260.72894,-75.0087,14.854541
10427427975000.0,3.4761425349130057,0.9587872119869268,-0.8663433520109582,0.7648033,-1.7650951,0.97158116,261.44186,-74.53048,15.400432
10427432697000.0,3.261148110014592,0.3055369659549958,-0.0801425866899624,0.6954701,-1.6698002,1.0461067,262.07822,-74.058174,15.911975
10427437719000.0,3.1540328341371637,-0.5181420000230398,1.0279456611143534,0.6053675,-1.5958854,1.1346822,262.68515,-73.54943,16.442503
10427443429000.0,3.04022998560962,-1.4818517324520188,2.36668010136179,0.54428095,-1.3524556,1.2266175,263.16986,-73.03294,16.966211
10427447800000.0,3.15357300572589,-2.901972367054233,5.370268393979453,0.43157628,-0.7302894,1.351234,263.5212,-107.52464,17.524351
10427452761000.0,3.282215129449709,-4.513781671163494,8.779282697268455,-0.087659165,-0.32742378,1.4263704,263.75708,-108.12394,18.12394
10427457781000.0,2.903282563376393,-5.985666884181,10.784839807485053,-1.1572843,-0.41325033,1.3121386,263.9483,-71.28824,18.709402
10427462750000.0,1.7440767567151398,-7.19756369247804,10.545973114711744,-2.1649065,-0.46853364,1.0607675,264.0034,-70.70292,19.281818
10427467836000.0,0.5575763073935187,-8.437995804975273,10.301482070347678,-2.7870727,-0.23518312,0.75991637,263.63113,-69.96477,19.911198
10427472804000.0,-0.0835650440931134,-7.89853057596332,8.342763707697733,-2.9437597,0.3912592,0.56779927,263.136,-69.15296,20.482225
10427478675000.0,-0.5694209872938893,-6.341808601975135,5.12520773935279,-2.770274,1.1502593,0.5555819,262.51138,-68.256226,20.99074
10427482735000.0,-0.867229442089815,-5.399833546448488,3.4734490364250075,-2.438574,1.4807373,0.6908886,261.8006,-67.4061,21.318243
10427487746000.0,-1.1876750968740828,-4.403282761351629,2.142367075600234,-2.0103576,1.056186,0.8145888,261.07275,-66.48951,21.619787
10427492760000.0,-1.5083125969914883,-3.4061353583431173,0.8104882187701792,-1.4758505,0.29840767,0.77366084,260.60684,-65.877235,21.814821
10427497804000.0,-2.027349497854282,-2.763623977427045,-0.6249355359336259,-0.9071349,-0.34116822,0.59864795,260.22314,-65.293106,22.01849
10427502789000.0,-2.6283155881174896,-2.2901355469959945,-2.086375844325768,-0.2779437,-0.5726862,0.32895094,259.94373,-64.79946,22.200268
10427507776000.0,-2.826991911313303,-1.888998913527954,-2.756063272270404,0.419359,-0.96486163,0.1777618,260.07175,-64.67126,22.301474
10427512832000.0,-2.748253579084714,-1.5328015993572863,-2.883544357356357,0.7583892,-1.2315043,-0.124005646,260.2582,-64.685265,22.290876
10427518028000.0,-2.641534848955277,-1.1591393867520228,-2.9809933175602383,1.3057245,-1.35551,-0.3643811,260.65836,-65.09112,22.14689
10427522768000.0,-2.153166205050236,-0.7030595874455411,-2.561238481070508,1.6737708,-1.3796391,-0.5354234,261.12677,-65.57415,21.942228
10427527701000.0,-1.6449125087667822,-0.2284094503191962,-2.1243923611540856,1.851838,-1.4263704,-0.6395759,261.67575,-66.18019,21.668596
10427532778000.0,-1.3279027717027083,0.2382751068211676,-2.1399868866484613,1.8301523,-1.4932601,-0.6759224,262.24646,-66.82264,21.359688
10427537694000.0,-1.0881440564026863,0.6830449475828475,-2.306775566049155,1.6539177,-1.4257594,-0.72112644,262.79807,-67.48528,21.006262
10427542841000.0,-0.7771130726916409,1.3673250483153692,-2.529597930044471,1.4492778,-1.071763,-0.8512407,263.25824,-68.10059,20.637716
10427548663000.0,0.6265623067611367,5.97339751784126,-3.6264819509384183,1.3854424,-0.7351763,-1.0189233,263.70636,-68.72001,20.242002
10427552794000.0,1.6225401481420063,9.241636159478404,-4.404775989123388,1.3701707,-0.48716503,-1.1218541,264.12024,-69.36575,19.794937
10427557750000.0,3.5818229660402463,12.260872495759187,-5.434066154032928,1.1612549,-0.18081611,-1.104139,264.419,-69.98106,19.330996
10427562784000.0,6.764797892266756,13.920509376850156,-6.628683957309164,0.786489,0.25503623,-0.9431759,264.60617,-70.551186,18.878841
10427568123000.0,10.078389980487806,15.634387580842573,-7.856209084345898,0.38362336,0.8029824,-0.39064834,264.88757,-71.14126,18.432747
10427572844000.0,12.087371229268292,16.464445734190686,-8.357451995299336,-0.054367006,1.4309518,0.6084218,265.0082,-71.462616,18.203894
10427577699000.0,14.15337503414634,17.31806410625277,-8.87292209330377,-0.54244834,1.9874501,1.8860464,265.10315,-70.98147,18.797735
10427582782000.0,15.445944348173336,17.851300410722757,-8.633451987347778,-0.98654735,2.3881776,3.2653801,265.01675,-70.17666,19.665073
10427587720000.0,16.380830827218094,18.236473001265225,-8.11365544393484,-1.3665055,2.6569583,4.2137485,264.77603,-69.14232,20.727882
10427592770000.0,16.865940035350448,18.33585144508965,-7.450704103198859,-1.6575829,2.7302623,4.5906525,264.4791,-67.65586,22.229082
10427597838000.0,15.50125660707009,17.277727289017932,-6.268967420639772,-1.6624697,2.7333164,4.488943,264.09644,-66.10388,23.784496
10427602997000.0,14.181243341372506,15.806376848863554,-5.119509043996199,-1.0983357,2.7036896,4.0405684,263.62686,-64.50668,25.376316
10427607797000.0,13.119626678360008,13.488290113498502,-4.178836033691442,0.12461651,2.6212227,3.7705657,263.1498,-62.975662,26.915556
10427612691000.0,12.037220022363517,11.12480751289922,-3.219741510268216,0.7812967,2.42147,3.261104,262.6305,-61.760612,28.124865
10427617719000.0,10.407918511795982,8.463369714474203,-2.0985068461047653,1.7498235,2.3090706,2.8539624,262.1034,-60.66643,29.246204
10427622753000.0,8.243325971780228,5.5582593182946045,-0.8358281304371802,2.1197023,2.1484132,2.477975,261.65506,-59.736362,30.200384
10427627801000.0,7.019130515946739,4.311717680960369,0.100261280538897,2.1184807,1.8918496,2.1670444,261.17627,-58.83453,31.122313
10427632793000.0,6.8386875108723,4.893145624428601,0.6666523967645209,1.9908098,1.5402967,1.9281962,260.78564,-58.031242,31.945152
10427637755000.0,7.039081697774946,6.349433948833562,0.994476590499902,1.8521434,1.0687088,1.7278323,260.3881,-57.31277,32.67366
10427642828000.0,7.539104215232307,8.520960389923545,1.1468644186041952,1.7324139,0.5687156,1.7015651,260.1194,-56.6123,33.38183
10427647800000.0,8.036954465760104,10.707576879771173,1.3166694938666417,1.5754215,0.11575896,1.8127426,259.93964,-56.004463,33.993423
10427652784000.0,8.542776292863172,12.950204405233048,1.5046741255087688,1.3481796,-0.30634892,2.0500638,259.92044,-55.371845,34.628
10427657730000.0,8.921595060694802,14.712380036264442,1.4287636421550065,1.0387764,-0.7333437,2.4168882,260.06067,-125.143875,35.143673
10427662731000.0,9.109880664393453,15.761397564184854,0.9369165680840822,0.63529986,-1.1960741,2.820365,260.3615,-125.72633,35.7247
10427667814000.0,9.301253534539471,16.827615539473683,0.4370048149342105,0.20525073,-1.5039502,3.2223141,260.75763,-126.1788,36.17608
10427672800000.0,8.613281202183199,17.454023481252968,0.7471863917892738,-0.18173242,-1.7324139,3.5143077,261.28958,-126.704346,36.700466
10427677735000.0,7.846150090887518,18.0327357304224,1.132994910792596,-0.5317582,-2.1606305,3.5714238,262.00107,-127.26274,37.257423
10427682724000.0,6.923942774797688,17.5783666150289,1.694142695953757,-0.91721416,-2.8738155,3.4636059,262.9837,-127.70552,37.697002
10427687873000.0,5.931072513949904,16.81827450895954,2.3212187206647394,-1.2956452,-3.630372,3.29348,264.13422,-128.13934,38.12628
10427692805000.0,4.975408727285831,15.840389452391676,2.1739196755247274,-1.6081028,-4.2461243,3.061351,265.45853,-128.27913,38.262234
10427697832000.0,3.9996328414557247,14.75185806071525,1.7489151507972256,-1.7773124,-4.627915,2.7980683,266.9524,-128.37624,38.3527
10427702740000.0,3.125197739603033,13.69240895178354,1.336820462793746,-1.840537,-4.765054,2.6667323,268.465,-128.45827,38.428596
10427707717000.0,2.317488605973224,12.62141269721936,0.9218096296601442,-1.8503108,-4.990769,2.393981,270.12082,-128.43398,38.393833
10427712720000.0,1.4677145963896354,11.74377678790787,0.4767228144644914,-1.7989981,-5.233588,2.1517727,271.867,-128.51611,38.45643
10427717785000.0,0.5366872028819578,11.22705686228407,-0.0260319825988483,-1.5384641,-5.415931,1.9251418,273.65192,-128.52142,38.43228
10427722808000.0,-0.3248558512455115,10.85029124499846,-0.5203801189966143,-0.9795224,-5.4761014,1.709201,275.53455,-128.55887,38.4175
10427727812000.0,-1.0279331553637017,10.81587469098184,-1.0022093801600491,-0.08399397,-5.4070735,1.5164729,277.41797,-128.5426,38.319572
10427732699000.0,-1.4048073654117244,10.68708559515214,-1.6020465540312876,1.0995574,-5.1505103,1.2983941,279.3288,-128.50543,38.143642
10427737717000.0,-1.1197899687467767,10.348369301186178,-2.4984056743682306,2.3677137,-4.7812424,1.0797043,281.1547,-128.45097,37.881157
10427743075000.0,-0.8052508329048208,9.993220242274411,-3.425851063102596,3.4837644,-4.290107,0.9108001,282.90903,-128.39584,37.51396
10427747764000.0,-0.3854746139647714,9.774659373763908,-3.817873451846415,4.308127,-3.5775323,0.7480045,284.42752,-128.36264,37.069603
10427752981000.0,0.0815700723671197,9.53148768448702,-4.254039116610012,4.880508,-2.5735753,0.5925393,285.80582,-128.45714,36.606598
10427757700000.0,0.5101522004116958,9.419307309863548,-4.522127798791424,5.265353,-1.2284501,0.45112398,286.79297,-128.61877,36.137222
10427762716000.0,0.9746060158783624,9.456763238752435,-4.623258963235868,5.4889297,0.7458665,0.3717115,287.2062,-128.84947,35.745445
10427767844000.0,1.449430410956725,9.49505550417154,-4.726648239805069,5.4675493,3.3414328,0.34147367,287.02826,-129.18796,35.534637
10427772749000.0,1.3503184680161262,9.547681180329246,-3.556704317856543,4.9855766,5.940359,0.33475417,286.19608,-129.51472,35.495
10427777825000.0,1.1543358389551486,9.604842670334286,-2.1317467972114903,3.9965858,7.8813834,0.31642818,284.72937,-129.77324,35.63031
10427782729000.0,0.4300291611997086,9.675118757386867,0.4684929701772848,2.7663033,8.863655,0.25686884,282.7234,-129.97226,35.96471
10427787711000.0,-0.9256568451307374,9.763952661053995,4.527826287865295,1.5894713,9.084482,0.2144137,280.32214,-130.03508,36.3803
10427793113000.0,-2.36254628028169,9.854534,8.772816342475908,0.6976081,8.617476,0.23854288,277.49738,-129.96762,36.872753
10427797802000.0,-3.156705322334004,9.854534,10.313580130890609,0.22204952,8.046622,0.36132678,274.61005,-129.81613,37.31525
10427802783000.0,-3.957037979542952,9.78649704873348,11.746251916299558,0.21777347,6.2070017,0.45906523,271.48694,-129.26448,37.522316
10427807727000.0,-4.404616584388767,9.17379270071586,11.533325960352425,0.27488935,4.13739,0.6114761,268.6252,-128.76845,37.63209
10427812711000.0,-4.85581637535793,8.556131197779003,11.31867730249633,0.2770274,2.1010711,0.627664,266.10992,-128.25989,37.578766
10427817787000.0,-5.202144615421048,7.7648983317325,9.914960331817753,0.13255776,0.26145032,0.4831944,264.27405,-127.797966,37.40223
10427822716000.0,-5.528553341792176,6.982411200985128,8.448356154778821,-0.06627888,-1.1258247,0.20616703,263.0207,-127.348274,37.125698
10427827754000.0,-5.953350740448996,6.283684671711304,6.5141981423788895,-0.27397305,-2.0015,-0.15027285,262.27927,-126.906876,36.78249
10427832721000.0,-6.393621786136274,5.61859442172115,4.504876445844822,-0.48655418,-2.2919664,-0.5537493,261.83917,-126.3987,36.337166
10427837887000.0,-6.837781927885102,5.0335557983008,3.0442881887933653,-0.6737844,-2.01555,-0.97341377,261.7747,-125.851944,35.820034
10427842815000.0,-7.257840221806413,4.503709519672297,1.8175271606958636,-0.8020661,-1.396438,-1.396438,261.69525,-125.209564,35.198788
10427847779000.0,-7.540116288850575,4.1119074164367815,1.853459718659004,-0.90377516,-0.7699956,-1.7931949,261.849,-124.51052,34.506935
10427852868000.0,-7.796869207586207,3.7431169455172415,2.1849043388505747,-0.9236283,-0.41050145,-2.105958,261.8758,-123.73972,33.73968
10427857730000.0,-8.34302379507238,3.2467413131435143,2.890712762736076,-0.8539896,-0.36896262,-2.356718,261.9972,-57.14374,32.855602
10427862729000.0,-9.017699781018118,2.6822164782571183,3.762742904314064,-0.6808093,-0.50610185,-2.6093109,262.05243,-58.098442,31.897972
10427867785000.0,-9.977422663581113,1.9234042221056569,4.499855252332866,-0.44990227,-0.6426302,-2.9089403,262.0481,-59.18137,30.809317
10427873611000.0,-11.271207576905097,0.9217642721645628,5.251085295137915,-0.2919936,-0.46609017,-3.2937853,261.98895,-60.35118,29.630653
10427877744000.0,-11.51752881277271,0.6088205055414518,5.414884574771916,-0.47158796,-0.013744468,-3.6795468,261.7705,-61.683617,28.276304
10427882730000.0,-11.257091402023008,0.561468324107497,5.305974641035304,-1.0332786,0.22479841,-3.9730675,261.58353,-63.087807,26.835985
10427887723000.0,-10.557302458242358,0.7628904236626638,4.925557826828603,-1.6548339,0.10140363,-4.127922,261.2942,-64.6365,25.216068
10427892813000.0,-9.337767260826055,1.2551393133096798,4.224879086562956,-2.1600194,-0.24037547,-4.1734314,261.03384,-66.19825,23.534601
10427897714000.0,-8.097742588926346,1.7608146228317498,3.52882775954643,-2.5329528,-0.42180246,-4.1572433,260.81238,-67.69774,21.84453
10427902764000.0,-6.640285453366023,2.368500174471345,2.753164164695066,-2.708271,-0.75686204,-4.0494256,260.7738,-69.10321,20.171276
10427907697000.0,-5.393602735770235,2.9270622602610965,2.040640007603133,-3.0341678,-0.9611965,-3.8673878,260.8526,-70.2497,18.672445
10427912721000.0,-4.522611663185379,3.4169946948651,1.4167089491383813,-3.3121114,-1.0372492,-3.6380079,261.0047,-71.23997,17.226307
10427918122000.0,-3.658720546387213,4.075803723813407,0.713590810443647,-3.5298848,-1.0338894,-3.376863,261.21402,-71.82774,16.145086
10427922765000.0,-3.5680642106671017,5.830910204632197,-0.1820936668178112,-3.6877935,-0.98807454,-3.1471777,261.42822,-72.23224,15.136527
10427927757000.0,-3.4705935175990867,7.717942630272386,-1.1451039856825966,-3.794084,-0.8943067,-2.973692,261.4771,-72.11461,14.763742
10427932725000.0,-3.5877410937488268,9.571814596020277,-1.6166286079782242,-3.8386772,-0.7699956,-2.833804,261.49225,-71.904724,14.4457
10427937712000.0,-3.870156205030974,11.414237265064765,-1.715249739374883,-3.7485745,-0.6728681,-2.7794368,261.4812,-71.65485,14.150354
10427943292000.0,-4.196092096342604,13.288065407501914,-1.7028990677383686,-3.5048394,-0.68477994,-2.8506026,261.78528,-71.82172,13.388402
10427947807000.0,-4.468245520557966,14.645154130390406,-1.5888888852938674,-3.147483,-0.788627,-3.037833,262.0874,-71.984825,12.62685
10427952764000.0,-4.761309545226545,16.06694661985034,-1.4734421981909382,-2.7705793,-1.0048733,-3.335935,262.46558,-72.30283,11.726676
10427957724000.0,-4.995670055053038,16.789557970890552,-1.4578181777978785,-2.4217753,-1.3267993,-3.723529,262.91394,-72.68079,10.78588
10427962691000.0,-5.230361315599046,17.513189136337473,-1.442172107376038,-2.0943515,-1.6765196,-4.1657953,263.45642,-73.201546,9.694372
10427967795000.0,-4.884501171150236,18.03519575359728,-1.6971634873536507,-1.8359555,-1.9526308,-4.5958447,264.08334,-73.764,8.545493
10427972859000.0,-4.225681152632049,18.43395554339083,-2.095922869818572,-1.5919148,-1.9889772,-4.875621,264.7482,-74.35408,7.3531957
10427977702000.0,-2.8233469280344554,18.743071147611587,-2.361312693657009,-1.3219124,-1.743104,-4.8710394,265.41315,-74.970406,6.093118
10427982726000.0,-0.2565826724353957,18.95971541072827,-2.4696348743931087,-0.95814216,-1.3790283,-4.4419065,266.03137,-75.54991,4.9029264
10427987687000.0,2.421967252183568,19.13277585334937,-2.814913041774611,-0.55833083,-0.95905846,-3.5824192,266.59283,-76.1084,3.9119253
10427992835000.0,5.464531658105107,19.237692074296817,-3.6086256135362698,-0.24556783,-0.6658431,-2.3900104,267.02518,-76.611725,3.1444216
10427997810000.0,8.045079281318682,19.32812257802198,-4.352451930695971,-0.12339478,0.03390302,-1.767844,267.30704,-77.078896,2.7551491
10428002904000.0,9.407643113186811,19.38173133021978,-5.031500136959707,-0.10293079,0.7690793,-0.6985244,267.38574,-77.48094,2.8024251
10428007959000.0,10.649229426426428,19.425176697211494,-5.673062226898328,-0.15515977,1.4486669,0.07666359,267.31253,-77.846985,3.60743
10428012927000.0,10.367560237237235,19.33536949412269,-5.8649235736164735,-0.30940324,2.0402899,0.5363397,267.02222,-78.02142,4.5179176
10428017775000.0,10.092694651651652,19.247731547147147,-6.052150588288288,-0.46303585,2.4834726,0.7254025,266.65848,-77.99381,5.6275244
10428022841000.0,10.094997158850228,18.655243428139183,-5.4218198443267775,-0.5717699,2.6743681,0.5861252,266.20117,-77.80133,6.676055
10428027731000.0,10.214552942700454,17.880342106278366,-4.478654713653556,-0.59864795,2.649017,0.18875736,265.6917,-77.51579,7.622354
10428032722000.0,10.518784718626678,16.71135859510655,-3.8882712841850826,-0.535118,2.3976462,-0.28924468,265.24728,-77.24445,8.392209
10428037720000.0,10.957955862273089,15.261623014996054,-3.5718795904005525,-0.3659083,1.9889772,-0.8341365,264.88342,-77.04547,8.993555
10428042775000.0,11.330129467066447,13.912032131734213,-3.45950862551504,-0.062002823,1.6875153,-1.3261884,264.58624,-76.883705,9.433468
