timestamp,acc_x,acc_y,acc_z,gyro_x,gyro_y,gyro_z,ori_azimuth,ori_pitch,ori_roll
649476186000.0,-0.3336101326489257,9.860217624668048,-0.6511197073119945,-7.0258665,5.4440312,2.658791,276.20023,-107.53586,16.917435
649481183000.0,-0.33577635894047,9.86118038610027,-0.6600253020822436,-7.0258665,-5.1718907,-5.2699347,279.11945,-105.17896,14.251686
649486198000.0,-0.3379503883285217,9.86214661555446,-0.6689629762412989,-7.5353284,0.73945236,0.029626964,276.20355,-106.808876,16.668554
649491540000.0,-0.3402661739697924,9.863175847407756,-0.6784834259636664,-1.1801916,0.7486154,0.03359759,277.8183,-105.11939,14.93781
649496843000.0,-0.3425650529019635,9.864197565213455,-0.6879343703436205,-1.1756102,0.75747293,0.032986723,277.76407,-104.82679,14.826102
649501239000.0,-0.3444707424712308,9.865044533245484,-0.6957688699653966,-1.1826351,0.763887,0.035430185,277.70663,-75.27587,14.722044
649506212000.0,-0.3466265646340985,9.866002670648411,-0.7046316922172373,-1.2024882,0.7651087,0.04184427,277.6466,-75.36511,14.621101
649511192000.0,-0.3487854213344968,9.866962156726553,-0.7135069897869473,-1.2156218,0.7483099,0.028099801,277.58875,-75.447296,14.517247
649516214000.0,-0.3509624852600793,9.867929734855952,-0.7224571392638716,-1.1808025,0.71929383,0.03145956,277.5328,-75.51178,14.422327
649521271000.0,-0.3531547218733151,9.868904056361403,-0.7314696653301412,-1.1475104,0.70829827,0.028710667,277.47534,-75.57053,14.323848
649526207000.0,-0.3552945043378063,9.869855065052509,-0.7402665466161027,-1.1230757,0.79351395,0.05681047,277.39658,-75.60991,14.236592
649531260000.0,-0.357485006929596,9.870828615886412,-0.7492719439293043,-1.2519683,0.7770206,0.05131268,277.35037,-75.64411,14.141946
649536131000.0,-0.3595966115455881,9.87176710116485,-0.7579529829779101,-1.2412782,0.7626653,0.06291912,277.2771,-75.66343,14.061322
649541431000.0,-0.3618941899616746,9.872788240966884,-0.7673985807930632,-1.2406673,0.7657196,0.061086524,277.20282,-75.67136,13.977018
649546417000.0,-0.3640556476942421,9.873748883052349,-0.7762845714923752,-1.2363913,0.7498371,0.061391957,277.13733,-75.66705,13.898885
649551280000.0,-0.366163784267342,9.874685826987688,-0.7849513530348449,-1.2311989,0.7452556,0.06688975,277.06677,-75.65328,13.823231
649556253000.0,-0.3683196064302096,9.875643964390616,-0.7938141752866857,-1.2266175,0.73639804,0.07360926,277.0334,-75.61487,13.773859
649561244000.0,-0.3704832316895847,9.876605569815515,-0.8027090769273327,-1.2339478,0.7284568,0.09621128,277.0003,-75.56406,13.7322
649566231000.0,-0.3726451229275138,9.877566404568864,-0.8115968498149116,-1.2205088,0.6768387,0.1001819,276.98267,-75.51341,13.689819
649571259000.0,-0.3748247878852653,9.878535138705589,-0.8205576924214381,-1.1368202,0.6206391,0.10170906,276.96808,-75.45893,13.654928
649576225000.0,-0.3769775755106023,9.879491927433309,-0.8294080393554099,-1.0201449,0.559858,0.099571034,276.96976,-75.40582,13.622839
649581217000.0,-0.379141634275339,9.880453725526094,-0.8383047231843238,-0.8866709,0.50732356,0.09437868,276.98544,-75.36118,13.592842
649586247000.0,-0.3813221662438136,9.88142284499859,-0.8472691301673843,-0.74464476,0.45906523,0.09132435,277.01773,-75.328476,13.565609
649591467000.0,-0.3835850642309781,9.882428571369651,-0.8565721529211765,-0.6123924,0.38515055,0.079107046,277.07355,-75.312355,13.537644
649596187000.0,-0.3856312095373798,9.883337963797128,-0.8649840815414638,-0.43401974,0.13439035,0.021685716,277.19714,-75.329575,13.503492
649601213000.0,-0.3878100074844083,9.884306312598076,-0.8739413597714561,0.06078109,0.09407325,0.015271631,277.28,-75.3861,13.477588
649606203000.0,-0.3899731992384219,9.885267725355089,-0.8828344792238362,0.129198,0.12767084,0.021685716,277.41626,-75.42678,13.445046
649612208000.0,-0.3925763989343842,9.886424696017585,-0.8935365197672314,0.0888809,0.129198,0.01740966,277.5752,-75.512726,13.410287
649616172000.0,-0.3942948141874723,9.88718843152235,-0.900601114057659,0.07849618,0.13500121,0.009773844,277.724,-75.60618,13.3758135
649621266000.0,-0.3965030904990846,9.888169881739628,-0.909679581089808,0.08002335,0.12767084,0.009468411,277.87708,-75.69352,13.343023
649627681000.0,-0.3992840273932724,9.889405846235867,-0.9211123188226772,0.08002335,0.13408493,0.008552114,278.02557,-75.77962,13.307935
649631245000.0,-0.4008290405017503,9.890092514585763,-0.927464037806301,0.08002335,0.13561209,0.007330383,278.1786,-75.86387,13.273527
649636237000.0,-0.4029930992664869,9.891054312678548,-0.936360721635215,0.07727446,0.13561209,0.0070249503,278.33105,-75.94573,13.239522
649641268000.0,-0.4051740647403231,9.892023624818934,-0.9453269108065424,0.095294975,0.14630222,0.0076358155,278.48077,-76.02749,13.205671
649646238000.0,-0.4073285863871062,9.892981184218202,-0.9541843864935822,0.09315695,0.14049901,0.009162978,278.63623,-76.104866,13.172868
649651438000.0,-0.4095828142670402,9.89398305723152,-0.9634517654820344,0.0842994,0.14508049,0.004581489,278.78644,-76.18269,13.138496
649656264000.0,-0.4116749111417636,9.894912872455034,-0.9720526060586246,0.09040806,0.14935656,0.0076358155,278.93906,-76.25709,13.107319
649661236000.0,-0.4138302997992697,9.895870817190078,-0.9809136461221986,0.09315695,0.1386664,0.008857546,279.09567,-76.33014,13.074984
649666183000.0,-0.4159748508227376,9.89682394522794,-0.989730131479097,0.09254608,0.14355333,0.013439035,279.24713,-76.3997,13.044495
649671205000.0,-0.4181519147483201,9.89779152335734,-0.9986802809560212,0.081855945,0.14538592,0.019547688,279.40326,-76.46598,13.015445
649676230000.0,-0.4203302791899871,9.898759679490404,-1.0076357769977466,0.080634214,0.13927728,0.015882496,279.5612,-76.53255,12.985281
649682002000.0,-0.4228324721367139,9.899871758535186,-1.0179225676749286,0.071776666,0.13439035,0.013133603,279.71875,-76.59408,12.957326
649686359000.0,-0.4247212549968816,9.900711212519616,-1.0256875619542911,0.070249505,0.14355333,0.018936822,279.87457,-76.652985,12.930932
649691247000.0,-0.4268402292040196,9.901652973152132,-1.0343988982034362,0.061086524,0.13775012,0.0070249503,280.03717,-76.7148,12.899281
649696196000.0,-0.4289856472382106,9.902606486525771,-1.0432189479368688,0.053450707,0.13836098,0.006414085,280.19556,-76.770325,12.872518
649701220000.0,-0.4311635781745161,9.903574449990948,-1.052172661790327,0.04886922,0.1518,0.003970624,280.3526,-76.827736,12.842028
649706251000.0,-0.4333445436483523,9.90454376213133,-1.0611388509616546,0.035124753,0.1572978,0.0021380284,280.51233,-76.88264,12.811965
649711191000.0,-0.4354860601342896,9.905495541493984,-1.069942861000684,0.03573562,0.15699236,-0.0012217305,280.67038,-76.937805,12.780981
649716315000.0,-0.4377073416067477,9.906482771747877,-1.0790747936808434,0.03940081,0.16187929,0.0018325958,280.82568,-76.989655,12.751514
649721203000.0,-0.4398263158138856,9.907424532380396,-1.0877861299299882,0.025045475,0.16126843,-0.0036651916,280.98328,-77.042534,12.71907
649726247000.0,-0.4420129168574216,9.908396349203317,-1.0967754875487867,0.021685716,0.16676621,-0.008246681,281.13806,-77.093796,12.687954
649731230000.0,-0.4441730740739045,9.909356413285115,-1.1056561316832978,0.010079277,0.17501289,-0.00580322,281.29257,-77.14219,12.657602
649736179000.0,-0.4463184921080956,9.910309926658751,-1.1144761814167303,0.008246681,0.17073683,-0.0061086523,281.4496,-77.19172,12.62562
649741251000.0,-0.4485172313017543,9.911287138182512,-1.1235154403070051,0.0021380284,0.16462818,-0.018325957,281.60522,-77.24198,12.591221
649746217000.0,-0.4527172467188082,9.911449284171322,-1.129214306108007,0.00030543262,0.1695151,-0.026267206,281.7591,-77.29011,12.558247
649751226000.0,-0.4628256441216798,9.909333579383514,-1.125923199679996,-0.007941248,0.17012598,-0.026267206,281.91635,-77.33772,12.524574
649756456000.0,-0.4733800299106635,9.907124528467117,-1.122486887717828,-0.00580322,0.16035213,-0.031154128,282.1239,-77.38458,12.49522
649761212000.0,-0.4829778614235518,9.905115685989417,-1.1193620120596883,-0.01160644,0.15882497,-0.030543262,282.32892,-77.42801,12.467406
649766207000.0,-0.4930580061684798,9.90300589453102,-1.1160801041723023,-0.002443461,0.15882497,-0.034208454,282.5365,-77.47343,12.437087
649771215000.0,-0.5031643855243556,9.900890612123884,-1.112789654782907,-0.016187929,0.1563815,-0.0290161,282.74524,-77.51399,12.409551
649776242000.0,-0.513309107773155,9.898767304483975,-1.109486721659806,-0.016493361,0.15821409,-0.025961773,282.95282,-77.55575,12.380364
649781212000.0,-0.5233388013431833,9.896668072542388,-1.1062212397378222,-0.021991149,0.14844026,-0.029626964,283.1645,-77.59628,12.350829
649786202000.0,-0.5334088558531315,9.894560392987357,-1.1029426170435166,-0.018020526,0.13897185,-0.027488936,283.37543,-77.63347,12.323785
649791250000.0,-0.5435959570888464,9.892428215353329,-1.0996258861094776,-0.026572637,0.1386664,-0.017104227,283.5865,-77.66788,12.298036
649796268000.0,-0.553722516914682,9.890308709139468,-1.0963288663339217,-0.029321533,0.14202617,-0.021380283,283.79913,-77.70511,12.268669
649801166000.0,-0.5636069111009997,9.888239888606291,-1.0931106911922963,-0.024129177,0.13713925,-0.0067195175,284.01404,-77.733025,12.247592
649806095000.0,-0.5735538647441929,9.886157974272272,-1.0898721478535724,-0.032070424,0.13194689,0.0036651916,284.22787,-77.76225,12.223936
649811090000.0,-0.5836340094891208,9.884048182813878,-1.0865902399661864,-0.027488936,0.13805555,0.0061086523,284.4396,-77.789024,12.201961
649816196000.0,-0.5939381574506027,9.881891507100852,-1.083235400792414,-0.0290161,0.15393804,0.010995574,284.64975,-77.81129,12.183337
649821103000.0,-0.6038407140598844,9.879818885141624,-1.0800113123032442,-0.03359759,0.16646078,0.0076358155,284.85883,-77.8346,12.162727
649827197000.0,-0.616138692453396,9.877244897324315,-1.0760073189767716,-0.02565634,0.17654006,0.010079277,285.06372,-77.8543,12.144821
649831150000.0,-0.6241160322285112,9.87557522652651,-1.0734100453273547,-0.020158553,0.17989981,0.017104227,285.2667,-77.87298,12.126952
649836106000.0,-0.6341174731405959,9.87348190791434,-1.0701537619459962,-0.019242255,0.1863139,0.025045475,285.46558,-102.10991,12.109736
649841086000.0,-0.6441673471805842,9.871378452166027,-1.0668817096378516,0.00030543262,0.1908954,0.02321288,285.66376,-102.09267,12.091379
649846169000.0,-0.6544250800611585,9.869231491208469,-1.0635419823522494,0.0015271631,0.1872302,0.028099801,285.86227,-102.0801,12.076804
649851096000.0,-0.6643679976103597,9.867150421635792,-1.0603047530907577,0.0061086523,0.18753563,0.018020526,286.058,-102.06342,12.057013
649856090000.0,-0.6744461243082918,9.865041052558071,-1.0570235022419876,0.0018325958,0.18784106,0.015577064,286.25458,-102.050804,12.0403595
649861100000.0,-0.6845565397581594,9.86292492538959,-1.0537317387753602,0.004276057,0.17287487,0.011301007,286.45523,-102.035515,12.019881
649866096000.0,-0.6946387025500833,9.860814711550525,-1.050449173849358,0.0036651916,0.17287487,0.015271631,286.6511,-102.02241,12.000764
649871097000.0,-0.7047309555769872,9.858702385808096,-1.047163323730275,0.009468411,0.16768251,0.008857546,286.85242,-102.00591,11.977061
649876077000.0,-0.7147808296169754,9.856598930059786,-1.043891271422131,-0.002443461,0.15271631,0.005497787,287.05627,-101.99165,11.954973
649881100000.0,-0.7249174796777909,9.854477311942563,-1.040590966453494,0.0012217305,0.1563815,0.00061086525,287.25574,-101.976204,11.930352
649886115000.0,-0.7350379853626385,9.852359072870724,-1.0372959177937862,0.0009162979,0.15699236,-0.010995574,287.45993,-101.95816,11.902487
649891086000.0,-0.7450696969796629,9.850259418548466,-1.0340297788331865,-0.0061086523,0.14508049,-0.0030543262,287.6663,-101.944855,11.878518
649896105000.0,-0.7551982748524944,9.848139489953937,-1.030732102019014,-0.015577064,0.13988814,-0.016493361,287.8698,-101.92277,11.844987
649901224000.0,-0.765528657424924,9.84597732329217,-1.0273687213432323,-0.019547688,0.12950343,-0.014049901,288.07788,-101.90806,11.817956
649906261000.0,-0.7756935601436833,9.843849791845535,-1.0240592178339705,-0.03390302,0.13805555,-0.019242255,288.2812,-101.88735,11.784888
649911241000.0,-0.7857434341836715,9.841746336097223,-1.0207871655258258,-0.028405234,0.14110987,-0.023518313,288.48853,-101.868866,11.752549
649916344000.0,-0.7960415280041655,9.839590927526215,-1.0174342974679016,-0.03481932,0.13561209,-0.02076942,288.69516,-101.850555,11.720662
649921260000.0,-0.805962247036411,9.83751450414094,-1.014204295631187,-0.04520403,0.13530666,-0.015271631,288.89874,-101.83254,11.688384
649926197000.0,-0.8159253450555719,9.83542921076154,-1.0109604959835343,-0.04795292,0.13072516,-0.011911872,289.10446,-101.81541,11.656142
649931299000.0,-0.8262214208290699,9.833274224571204,-1.0076082849642265,-0.0571159,0.13591751,-0.009162978,289.30673,-101.799446,11.625301
649936133000.0,-0.8359766600076448,9.831232436401056,-1.0044321602940312,-0.06169739,0.13561209,-0.014660766,289.5111,-101.782715,11.592852
649941238000.0,-0.8462787899221308,9.829076183068706,-1.0010779781588748,-0.059864793,0.1301143,-0.008857546,289.7149,-101.77032,11.564301
649946160000.0,-0.8562116172363521,9.826997225399392,-0.9978440340904636,-0.06383542,0.11636983,-0.0067195175,289.9203,-101.755325,11.532964
649951249000.0,-0.8604991284409743,9.823846880293662,-0.994465699946844,-0.06780604,0.12156218,-0.004886922,290.12097,-101.74243,11.503233
649956263000.0,-0.8573687634246514,9.81951251712777,-0.991094537814987,-0.059864793,0.100792766,-0.002443461,290.33246,-101.73124,11.473675
649961382000.0,-0.8541728442945044,9.81508738648433,-0.987652778949216,-0.059253927,0.08827003,-0.009773844,290.5503,-101.6882,11.414543
649966278000.0,-0.8511161496156219,9.810855028674158,-0.9843609540992816,-0.059253927,0.08460484,-0.010079277,290.77115,-101.64928,11.358382
649971257000.0,-0.8480076359705736,9.806550921334116,-0.9810133242120624,-0.040011674,0.06963864,-0.009773844,290.99817,-101.61082,11.300421
649976209000.0,-0.8449159790976516,9.802270154202583,-0.977683847770707,-0.02321288,0.062002823,-0.0070249503,291.2235,-101.57393,11.243537
649981252000.0,-0.8417675086594154,9.797910721923849,-0.9742931874932927,-0.031154128,0.053145275,-0.01282817,291.45276,-101.535416,11.184432
649986260000.0,-0.8386408895924539,9.793581545470955,-0.9709260594605168,-0.02321288,0.04184427,-0.0125227375,291.68436,-101.502655,11.127998
649991264000.0,-0.8355167678250666,9.789255826826736,-0.9675616208271276,-0.017715093,0.044593163,-0.018020526,291.91348,-101.46706,11.0686655
649996181000.0,-0.8324469623234192,9.785005315521056,-0.9642556766304102,-0.011911872,0.041233405,-0.01160644,292.1471,-101.436554,11.012871
650001216000.0,-0.8293034864843315,9.780652798859652,-0.9608703951517704,-0.009773844,0.03268129,-0.018020526,292.38034,-101.40224,10.952108
650006978000.0,-0.8257061264476238,9.775671825472765,-0.9569963153345068,-0.010079277,0.02076942,-0.007330383,292.6151,-101.37573,10.898219
650011198000.0,-0.8230714753967896,9.772023837327556,-0.9541589989810092,-0.01985312,0.009162978,-0.009468411,292.85114,-101.344406,10.83897
650016186000.0,-0.8199573428276993,9.76771194991801,-0.9508053179451692,-0.015882496,0.00030543262,-0.011911872,293.0891,-101.31806,10.782718
650021203000.0,-0.8168251048366957,9.763374993395615,-0.9474321387637716,-0.008857546,-0.0033597588,-0.013439035,293.32803,-101.291855,10.726197
650026192000.0,-0.8137103479427119,9.759062241533902,-0.9440777853780848,-0.013439035,-0.020463986,-0.0125227375,293.57245,-101.26599,10.669482
650031199000.0,-0.8105843532006439,9.75473392953318,-0.9407113296951554,-0.025350908,-0.03481932,-0.009468411,293.81613,-101.241234,10.613103
650036231000.0,-0.8074427503362369,9.75038400622828,-0.937328065266056,-0.029321533,-0.04550946,-0.0061086523,294.06274,-101.218094,10.55697
650041311000.0,-0.8042711798769389,9.74599258921936,-0.93391252804431,-0.036651913,-0.044898596,-0.015271631,294.30893,-101.191895,10.498218
650046249000.0,-0.8011882635525267,9.741723924418167,-0.93059246450081,-0.02687807,-0.054061573,-0.01740966,294.56015,-101.17074,10.442144
650051398000.0,-0.7979736146755728,9.737272860209716,-0.9271305351396348,-0.03940081,-0.06047566,-0.0125227375,294.80917,-101.14699,10.385696
650056264000.0,-0.7949356497434972,9.733066435964556,-0.9238588807851044,-0.04062254,-0.07452556,-0.01985312,295.0616,-101.122536,10.324971
650061186000.0,-0.791862722617382,9.728811602398038,-0.920549574839153,-0.040011674,-0.07422013,-0.015271631,295.31088,-101.102394,10.269349
650066213000.0,-0.7887242413774428,9.724466001353974,-0.9171696721592876,-0.046120327,-0.07727446,-0.023518313,295.5635,-101.07703,10.207784
650071200000.0,-0.785610733133246,9.720154978396591,-0.9138166634732942,-0.049785517,-0.08032878,-0.017104227,295.8152,-101.05801,10.1518545
650077137000.0,-0.7819041162401649,9.71502272588046,-0.9098249224328404,-0.04917465,-0.0842994,-0.016187929,296.0664,-101.036156,10.092116
650081178000.0,-0.7793812193452784,9.711529474673164,-0.90710795670192,-0.036957346,-0.09010262,-0.01985312,296.3178,-101.01667,10.032931
650086275000.0,-0.7761990353627898,9.707123361977404,-0.9036809895327788,-0.03726278,-0.10293079,-0.02321288,296.57108,-100.99706,9.973982
650091328000.0,-0.773044321675618,9.702755285176996,-0.9002836057568965,-0.026267206,-0.10903945,-0.021380283,296.82278,-100.98161,9.915618
650096210000.0,-0.7699963675452453,9.698535029697162,-0.8970011938048171,-0.028099801,-0.11636983,-0.018936822,297.07712,-100.96482,9.856282
650101329000.0,-0.7668004484150983,9.694109899053725,-0.8935594349390461,-0.029321533,-0.12736541,-0.016493361,297.33295,-100.95084,9.797335
650106229000.0,-0.7637412564366415,9.689874083434882,-0.8902649206897244,-0.0125227375,-0.13836098,-0.008246681,297.5897,-100.942,9.7406435
650111222000.0,-0.7606240022430835,9.685557873764498,-0.8869078779046502,0.005497787,-0.1414153,0.0009162979,297.84592,-100.93495,9.684881
650121255000.0,-0.7543601505859698,9.67688482517188,-0.8801621918917022,0.039095376,-0.11636983,0.005497787,298.09586,-100.93401,9.630572
650126201000.0,-0.7512722396624092,9.672609244753351,-0.8768367495494276,0.043676864,-0.1160644,0.010079277,298.35257,-100.93466,9.57803
650131234000.0,-0.7481300124731085,9.668258456996284,-0.8734528127704814,0.069027774,-0.11056661,0.018936822,298.5994,-100.945656,9.5286045
650136195000.0,-0.7450327366761444,9.663969909795249,-0.8701172851805048,0.08827003,-0.112399206,0.02107485,298.8468,-100.95661,9.47816
650141319000.0,-0.7418336959215297,9.659540456890976,-0.8666721645654998,0.10781772,-0.1337795,0.014660766,299.0969,-100.9719,9.427085
650147564000.0,-0.7379347869612312,9.65414195310737,-0.8624733397722315,0.11453723,-0.16829337,0.01740966,299.35025,-100.99144,9.378439
650151216000.0,-0.7360432183377188,9.65739656412106,-0.8568403394241652,0.13133603,-0.17684549,0.010995574,299.60043,-101.01215,9.325144
650156259000.0,-0.7335899336596194,9.66451110275218,-0.8477631889330597,0.13927728,-0.19272798,-0.0018325958,299.86108,-101.03227,9.269187
650161188000.0,-0.7311921069337911,9.671464813026384,-0.838891232801658,0.1441642,-0.21533,-0.0070249503,300.1312,-101.06078,9.230516
650166184000.0,-0.728761686499172,9.678513045229652,-0.8298986799851673,0.13958271,-0.23609942,-0.005497787,300.40344,-101.08755,9.188906
650171203000.0,-0.7263200771794455,9.685593725259318,-0.820864728306631,0.14721853,-0.25289822,-0.0061086523,300.67908,-101.11533,9.143902
650176209000.0,-0.7238847920121709,9.692656065213194,-0.8118541759849032,0.13133603,-0.2406809,-0.007330383,300.9505,-101.138824,9.098714
650181193000.0,-0.7214602092567381,9.699687368115736,-0.802883222574697,0.11759156,-0.23060162,-0.008552114,301.22552,-101.16375,9.052039
650186187000.0,-0.7190307617686501,9.706732778768885,-0.7938942696592537,0.11301007,-0.20586158,-0.013744468,301.49075,-101.18639,9.004124
650191365000.0,-0.7165118031997033,9.7140377720332,-0.7845741258474465,0.084910266,-0.16218472,-0.007941248,301.74612,-101.20503,8.9594
650196221000.0,-0.7141494890222593,9.720888495727973,-0.7758335661042761,0.07086037,-0.11759156,-0.0018325958,301.9922,-101.22417,8.913684
650201218000.0,-0.7117185821143746,9.727938138706302,-0.7668392133372617,0.06047566,-0.06963864,0.005497787,302.22327,-101.240746,8.871171
650206191000.0,-0.7092993505648627,9.734953923083175,-0.7578880593828164,0.05222898,-0.03481932,0.01985312,302.4442,-101.25823,8.833101
650211192000.0,-0.7068664977639159,9.742009209161749,-0.748886506813707,0.032986723,-0.01740966,0.035124753,302.6552,-101.273735,8.798077
650216555000.0,-0.7042575416408449,9.749575195812294,-0.7392333721550122,0.013744468,-0.011911872,0.05375614,302.85886,-101.291534,8.768465
650221202000.0,-0.7019969003758978,9.756131067519378,-0.7308690020712987,0.018020526,-0.0076358155,0.058643065,303.05655,-101.310265,8.739388
650228757000.0,-0.6983215948547714,9.766789473102984,-0.7172703758646158,0.006414085,-0.007330383,0.0580322,303.2529,-101.32531,8.713531
650231527000.0,-0.6969740639092359,9.770697320021132,-0.7122845129139195,0.008552114,-0.005192355,0.059864793,303.44635,-101.34495,8.689398
650236212000.0,-0.6946949366601985,9.777306801180522,-0.7038517447103048,0.008857546,-0.015577064,0.054061573,303.64163,-101.36008,8.661923
650241242000.0,-0.6922479761345511,9.784402999735857,-0.6947979935760076,0.011301007,-0.030543262,0.049480084,303.83636,-101.37642,8.634684
650246188000.0,-0.6898418793632087,9.79138069318609,-0.6858954382857028,0.024129177,-0.052534413,0.04734206,304.03458,-101.39383,8.605349
650251212000.0,-0.6873978376771546,9.79846842709106,-0.6768524868545479,0.03145956,-0.06963864,0.0290161,304.23346,-101.40604,8.569288
650256207000.0,-0.684967903715801,9.805515248519267,-0.6678617339885808,0.04642576,-0.07849618,0.014966198,304.4349,-101.42245,8.53287
650261190000.0,-0.6825438074336337,9.812545140646748,-0.6588925805288984,0.07819075,-0.09132435,0.00061086525,304.6402,-101.43946,8.490053
650266309000.0,-0.6800535507873536,9.819766898182484,-0.6496786337979905,0.1020145,-0.10598512,-0.0143553335,304.84653,-101.45481,8.442435
650271261000.0,-0.677644535176418,9.82675305628308,-0.6407652788045433,0.12950343,-0.10995574,-0.025961773,305.05157,-101.4748,8.3914585
650276191000.0,-0.6752462219773242,9.833708177332344,-0.631891522722618,0.15332718,-0.1255328,-0.029321533,305.26242,-101.49749,8.337479
650281230000.0,-0.672794883192287,9.840817072863224,-0.6228215720336073,0.17470746,-0.12492194,-0.03145956,305.46796,-101.52312,8.28101
650286265000.0,-0.6703454903003119,9.84792032529386,-0.6137588211466916,0.18997909,-0.11362094,-0.03176499,305.67334,-101.552124,8.223905
650291364000.0,-0.6678649631193425,9.855113867328384,-0.6045808734262581,0.22449298,-0.1001819,-0.024129177,305.87674,-101.59059,8.168534
650296189000.0,-0.66551772961313,9.86192085699627,-0.5958961121493229,0.23915374,-0.090713486,-0.020463986,306.0765,-101.62736,8.112232
650301296000.0,-0.6630333106460363,9.869125685231278,-0.5867037648246995,0.23671028,-0.08979719,-0.0030543262,306.27444,-101.67178,8.062094
650306251000.0,-0.6606228356153041,9.87611607565706,-0.5777850099796813,0.24923302,-0.09162979,0.01740966,306.46945,-101.72337,8.014007
650311220000.0,-0.6582055499588545,9.88312621693369,-0.5688410558273309,0.25320363,-0.099265605,0.028405234,306.6649,-101.77387,7.9677296
650316225000.0,-0.6557707512648454,9.890187146112504,-0.5598323034561267,0.25259277,-0.13103059,0.039095376,306.8673,-101.82938,7.925638
650321211000.0,-0.6533451955628816,9.897221270565169,-0.550857750144873,0.25473082,-0.15118915,0.042455133,307.06735,-101.886314,7.8842845
650326186000.0,-0.6509249910668388,9.90423987649216,-0.5419029962893804,0.25320363,-0.15821409,0.03848451,307.2714,-101.94225,7.8425264
650331234000.0,-0.6484692740224117,9.911361468998589,-0.5328168460456564,0.23426682,-0.18936823,0.044593163,307.48718,-101.99667,7.8020434
650336209000.0,-0.6460490695263688,9.91838007492558,-0.5238620921901638,0.24251351,-0.204029,0.048258353,307.6984,-102.05471,7.7596583
650341240000.0,-0.6436016225274558,9.925477684255975,-0.5148065411053429,0.24770586,-0.23854288,0.048563786,307.92264,-102.10787,7.715208
650346193000.0,-0.638369966479463,9.931326081856016,-0.5071723035588367,0.23365596,-0.26847526,0.05009095,308.1483,-102.158775,7.671115
650351221000.0,-0.6207152006260219,9.932280387935393,-0.505025102673339,0.2171626,-0.28221974,0.03970624,308.37683,-102.20749,7.6223564
650356214000.0,-0.6031833299207254,9.933228051072684,-0.5028928484924937,0.21594086,-0.27855456,0.04795292,308.59912,-102.2317,7.5917377
650361254000.0,-0.5854864285879205,9.9341846347322,-0.5007405230225438,0.20433442,-0.23823744,0.022907447,308.8109,-102.24204,7.5494566
650366241000.0,-0.567975625622306,9.935131159079424,-0.4986108311339246,0.19333886,-0.21013765,0.016187929,309.0246,-102.25691,7.51381
650371275000.0,-0.550299792029183,9.936086603948867,-0.4964610679562007,0.17867808,-0.17287487,0.023823744,309.222,-102.266525,7.4773154
650376208000.0,-0.5329785987207056,9.937022879185452,-0.4943544366976168,0.1572978,-0.13347405,0.027488936,309.40872,-102.27041,7.4391303
650381241000.0,-0.5153062764175297,9.937978134256552,-0.4922051005685973,0.14019357,-0.11209377,0.017715093,309.58817,-102.271095,7.400085
650386227000.0,-0.497798984741862,9.93892446880543,-0.4900758357286826,0.12980886,-0.08155051,0.022296581,309.75327,-102.27184,7.3683677
650391392000.0,-0.479663172165684,9.939904777258088,-0.4878701291706882,0.11148291,-0.06627888,0.028710667,309.91495,-102.265854,7.3346815
650396189000.0,-0.4628195142899965,9.940815239919734,-0.4858215765358966,0.10293079,-0.062002823,0.03359759,310.06995,-102.260635,7.3027797
650402120000.0,-0.441994053614428,9.941940933904773,-0.4832887506703661,0.0888809,-0.06872234,0.032375857,310.22256,-102.25044,7.2711143
650406205000.0,-0.4276504341809939,9.942716260144676,-0.4815442567130754,0.08979719,-0.05589417,0.03848451,310.3678,-102.24427,7.244011
650411191000.0,-0.4101431425053263,9.943662594693553,-0.4794149918731606,0.08277224,-0.053450707,0.048563786,310.51678,-102.23403,7.2168097
650416181000.0,-0.3926218056698707,9.944609688435811,-0.4772840188384284,0.084910266,-0.036957346,0.051923547,310.65686,-102.22647,7.190681
650421205000.0,-0.3749810849762177,9.945563235321805,-0.4751385261477481,0.086132,-0.023518313,0.04795292,310.79608,-102.21802,7.165174
650426177000.0,-0.3575229513598078,9.94650691269385,-0.4730152399896943,0.113926366,0.00580322,0.058337633,310.92578,-102.2196,7.1461124
650431215000.0,-0.3398330726068969,9.947463116756676,-0.470863768617153,0.13836098,0.013133603,0.05589417,311.05594,-102.21827,7.1217866
650436206000.0,-0.3223082244814944,9.94841040029728,-0.4687323685337165,0.14874569,0.024129177,0.057726767,311.17642,-102.222755,7.1030335
650441305000.0,-0.3044041570418174,9.949378182059158,-0.4665548471902096,0.16157386,0.020158553,0.060170226,311.298,-102.23319,7.0831876
650446177000.0,-0.287297152420106,9.95030287959669,-0.4644742659025913,0.18997909,0.032070424,0.06169739,311.41104,-102.249794,7.064736
650451236000.0,-0.2695335365783085,9.951263069424762,-0.4623138265072586,0.21655174,0.027488936,0.06414085,311.52914,-102.26941,7.0460076
650456215000.0,-0.2520508239322698,9.952208075385224,-0.4601875510082743,0.23976462,0.01740966,0.06078109,311.6443,-102.29389,7.0261416
650461206000.0,-0.2345259758068672,9.953155358925828,-0.4580561509248377,0.26145032,0.0021380284,0.065973446,311.7619,-102.3256,7.0086102
650466211000.0,-0.2169519696222068,9.954105299643263,-0.4559187721595402,0.2855795,-0.013439035,0.059253927,311.8808,-102.360306,6.985982
650471955000.0,-0.1967831201667245,9.95519550133776,-0.4534658044017242,0.30970868,-0.014049901,0.057421334,311.9994,-102.40113,6.9658675
650476214000.0,-0.181828536282515,9.95600385248972,-0.4516470039698756,0.32650748,-0.018936822,0.0571159,312.1224,-102.44436,6.943009
650481317000.0,-0.1639104236830501,9.956972393444978,-0.4494677744315513,0.321926,-0.01038471,0.054367006,312.24066,-102.486725,6.9193397
650486219000.0,-0.1466980803629292,9.957902784932864,-0.4473743816828023,0.3277292,-0.008857546,0.049785517,312.36133,-102.53433,6.8941875
650491211000.0,-0.1291697209475797,9.958850258271813,-0.4452425545506615,0.312763,0.010079277,0.04550946,312.47357,-102.57468,6.869478
650496198000.0,-0.111658917981965,9.959796782619035,-0.4431128626620423,0.3005457,0.036651913,0.04642576,312.58246,-102.61632,6.8452587
650501256000.0,-0.0938988134301145,9.960756782648764,-0.440952850315414,0.2782491,0.064446285,0.04550946,312.68448,-102.65027,6.820271
650506207000.0,-0.0765144169025913,9.96169647425556,-0.4388385321801516,0.2519819,0.09773844,0.05100725,312.7771,-102.68079,6.798965
650511184000.0,-0.0590387268364465,9.962641100619331,-0.436713110778576,0.22937989,0.11789699,0.05497787,312.8648,-102.705894,6.7777133
650516263000.0,-0.0412048851957093,9.963605086414308,-0.4345441304091562,0.19853121,0.1459968,0.064446285,312.9408,-102.72391,6.7617073
650521266000.0,-0.0236379015909429,9.964554647535053,-0.4324076057412674,0.16829337,0.18203785,0.07391469,313.0085,-102.736855,6.748278
650526198000.0,-0.0063202195724124,9.965490732973294,-0.4303014015313878,0.14202617,0.1957823,0.089491755,313.07492,-102.745476,6.7394667
650531417000.0,0.0120052026609026,9.96648129053659,-0.4280726343433583,0.116675265,0.2180789,0.10048734,313.1285,-102.74766,6.7343063
650536235000.0,0.0289225976254768,9.967395738963484,-0.4260151136857751,0.09987647,0.25289822,0.10445796,313.17468,-102.746864,6.7327566
650541759000.0,0.0483189632926224,9.968444185022047,-0.4236560966429173,0.07666359,0.301462,0.13072516,313.21194,-102.74355,6.7422447
650546181000.0,0.0638458874381905,9.969283473304266,-0.4217676872722589,0.046731193,0.31123585,0.14080444,313.24933,-102.732895,6.747809
650551209000.0,0.0393940172203176,9.95553473525082,-0.4327153784068566,0.034513887,0.3381139,0.16554448,313.27002,-102.727394,6.767977
650556260000.0,0.0054955007915301,9.93846352664482,-0.4466162091504915,0.018325957,0.35185838,0.1777618,313.2912,-102.71371,6.786774
650561254000.0,-0.0280204744698764,9.921584964819765,-0.4603601704915553,0.026267206,0.36560285,0.18845193,313.28134,-102.721085,6.8843803
650566333000.0,-0.0621069058580791,9.904419122707337,-0.4743380598890849,0.0290161,0.37873647,0.19364429,313.26746,-102.72508,6.982088
650571245000.0,-0.0950725587383413,9.887817701865387,-0.4878563494580287,0.015882496,0.37293324,0.19608775,313.25485,-102.72905,7.0792723
650576220000.0,-0.1284610202772876,9.87100335563398,-0.5015480209982355,0.02687807,0.3640757,0.20280726,313.23938,-102.741455,7.177201
650581322000.0,-0.1627018103821527,9.853759778855558,-0.51558920857575,0.029626964,0.3463606,0.19822577,313.22702,-102.74792,7.269463
650586262000.0,-0.19585537822183,9.837063724507184,-0.5291845567985883,0.025045475,0.30634892,0.20250183,313.2238,-102.75818,7.3620925
650591284000.0,-0.2295592684426519,9.8200905291757,-0.5430055767935468,0.018936822,0.27763826,0.20677789,313.22156,-102.76836,7.4508286
650596208000.0,-0.2626054563055205,9.803448551116713,-0.556556891499874,0.009468411,0.27672195,0.19058995,313.22128,-102.77427,7.5321054
650601259000.0,-0.296503972734308,9.786377342510711,-0.570457722243509,-0.0125227375,0.2910773,0.18203785,313.2247,-102.77821,7.6138296
650606266000.0,-0.3301071942268717,9.76945484370053,-0.5842374608167381,-0.024740042,0.3182608,0.17195857,313.22318,-102.77963,7.689133
650611372000.0,-0.364374829325939,9.75219774784976,-0.5982896567733804,-0.028099801,0.3555236,0.15821409,313.21344,-102.77646,7.7602997
650616181000.0,-0.3966492236054953,9.735944443120744,-0.6115244805797833,-0.029626964,0.3827071,0.14294247,313.19778,-102.76952,7.8272734
650621277000.0,-0.4308497462190572,9.718721144950845,-0.625549155588606,-0.043676864,0.3839288,0.12767084,313.17792,-102.75724,7.889285
650626194000.0,-0.4638489553420721,9.702102825268463,-0.6390812056314595,-0.03573562,0.37720928,0.096516706,313.15088,-102.744644,7.9419847
650631255000.0,-0.497814584256365,9.684997818981598,-0.653009557322914,-0.031154128,0.42577308,0.09437868,313.10834,-102.73136,8.000012
650636261000.0,-0.531411094500378,9.6680786999395,-0.6667865438013613,-0.03359759,0.4841107,0.083383106,313.0629,-102.71187,8.045793
650641293000.0,-0.5651820972067054,9.65107170692715,-0.6806350847441391,-0.052534413,0.535118,0.08460484,313.00635,-102.69229,8.095369
650646246000.0,-0.5984229112775397,9.634331715593648,-0.6942662101991429,-0.070554934,0.5983425,0.09010262,312.9297,-102.67194,8.145518
650651242000.0,-0.6319523090360475,9.617446394232417,-0.7080156757297706,-0.09162979,0.6808093,0.09162979,312.83337,-102.64716,8.197306
650657126000.0,-0.6714412955074365,9.597559838810184,-0.7242090014267708,-0.106595986,0.73823065,0.09193522,312.72705,-102.62155,8.251113
650661282000.0,-0.6993332444834888,9.583513522641796,-0.7356467073405597,-0.12339478,0.8396343,0.11178834,312.58655,-102.59609,8.315857
650666260000.0,-0.7327418397680867,9.566689037106126,-0.7493466351651121,-0.14446963,0.94959,0.14049901,312.42865,-102.569534,8.385219
650671257000.0,-0.766277948775145,9.549800335976808,-0.7630988527905218,-0.19211712,1.0793989,0.16982053,312.23834,-102.53911,8.464768
650676190000.0,-0.7993845378749684,9.53312794000504,-0.7766749363498866,-0.24801129,1.2110404,0.18661933,312.0183,-102.50718,8.552535
650681318000.0,-0.8337998204421477,9.515796489256363,-0.7907876783917318,-0.28008172,1.3185526,0.19547687,311.7708,-102.47631,8.649386
650686219000.0,-0.8666916495883539,9.499232245863372,-0.804275694918074,-0.3173445,1.366811,0.20525073,311.50537,-102.43864,8.752505
650691409000.0,-0.9015230295656668,9.48169124949332,-0.8185590668364003,-0.3484986,1.3866642,0.20189096,311.21942,-102.39747,8.855864
650696213000.0,-0.9337638676024704,9.46545484360474,-0.8317801301688934,-0.36560285,1.3799446,0.19608775,310.9299,-102.355965,8.960088
650701385000.0,-0.9684744451058735,9.447974683060249,-0.8460139643811444,-0.37720928,1.3478742,0.18387043,310.64392,-102.310425,9.059197
650706265000.0,-1.0012253380325182,9.431481414797076,-0.8594441869170658,-0.3915646,1.3170254,0.17623462,310.36185,-102.26395,9.155699
650711251000.0,-1.0346876233055204,9.414629891116713,-0.873166131499874,-0.4098906,1.284955,0.16523905,310.09094,-102.214424,9.2445345
650716277000.0,-1.0684183585205445,9.39764317671288,-0.8869981598739602,-0.42058071,1.2479976,0.15302174,309.83212,-102.16496,9.327665
650721252000.0,-1.1018068200594908,9.380828830481471,-0.9006898314141669,-0.42271876,1.2235631,0.14630222,309.5808,-102.1158,9.406843
650727150000.0,-1.1413897640105872,9.360894958306025,-0.9169216864381144,-0.42424592,1.2052372,0.13530666,309.3397,-102.06444,9.4786625
650731251000.0,-1.16891259431636,9.347034529382404,-0.928208027138896,-0.4202753,1.1954633,0.13439035,309.10522,-102.01765,9.54946
650736305000.0,-1.2028312444907991,9.329953181472144,-0.9421171141668768,-0.42577308,1.1829406,0.12889257,308.87814,-101.96858,9.613805
650741416000.0,-1.237132435832619,9.312679186780944,-0.9561830705974288,-0.4089743,1.1850786,0.12797627,308.65164,-101.92784,9.678201
650746223000.0,-1.284166515342764,9.296853696804828,-0.9012392047126324,-0.40133846,1.1673635,0.1301143,308.43622,-101.88696,9.739631
650751210000.0,-1.411726812295974,9.28268053328717,-0.4807625270649916,-0.4025602,1.1392636,0.129198,308.22485,-101.84921,9.79862
650756193000.0,-1.5306231061667488,9.27339168554514,-0.1021425252530833,-0.3998113,1.1004738,0.13927728,308.18784,-101.766685,9.746725
650761209000.0,-1.5922397293537247,9.297090615194868,-0.0026079907646768,-0.38453966,1.071763,0.15210545,308.1564,-101.688866,9.696289
650766255000.0,-1.6595249737802131,9.3182335,0.0833179304799579,-0.36896262,1.056186,0.16371189,308.08984,-101.55638,9.634922
650771208000.0,-1.766342133208227,9.3182335,0.0583939355364059,-0.3463606,1.0616838,0.18509217,308.02698,-101.436226,9.580818
650776223000.0,-1.8744963941675423,9.3182335,0.0331579503472451,-0.31245756,1.0684034,0.19425514,307.983,-101.306725,9.521618
650781176000.0,-1.986823356371264,9.3029767045097,0.019153614,-0.28527406,1.0800097,0.21227567,307.9377,-101.19024,9.472105
650786227000.0,-2.108578890026219,9.267464228002098,0.019153614,-0.2660318,1.0793989,0.23304509,307.8951,-101.08358,9.426524
650791231000.0,-2.180092728941628,9.221974197277724,0.0214013766856295,-0.20891592,1.0592403,0.25778514,307.9117,-100.97385,9.361487
650796992000.0,-2.213789929325539,9.159393883343512,0.0262152654707268,-0.17287487,1.0280862,0.28313604,307.93246,-100.871605,9.303003
650801175000.0,-2.226790938755432,9.120249875789128,0.0416246011019103,-0.1414153,0.9767735,0.30573806,308.01468,-100.76254,9.2287035
650806262000.0,-2.2068199698286466,9.09229035246372,0.0975433558038861,-0.08155051,0.91690874,0.3268129,308.10846,-100.670845,9.160769
650811166000.0,-2.1875674375666145,9.065336646470444,0.1514504863441829,-0.03176499,0.8524625,0.36102137,308.25555,-100.57939,9.093392
650816215000.0,-2.12208508410372,9.088565597519729,0.2495260256895903,0.0143553335,0.7699956,0.37995818,308.42383,-100.49901,9.025819
650821149000.0,-2.046616856257046,9.12407982863585,0.356069349462608,0.04520403,0.74128497,0.4025602,308.59457,-100.43391,8.9686985
650826209000.0,-1.9611541482172543,9.186892341954554,0.3747834613559948,0.069027774,0.68661255,0.41538838,308.8166,-100.365005,8.913352
650831186000.0,-1.8730999112229816,9.26173858821356,0.3483671856604471,0.11942416,0.6585127,0.4373795,309.03754,-100.31272,8.866422
650836161000.0,-1.7769482107221006,9.360626297593,0.2811012846389497,0.15577064,0.6411031,0.45937067,309.2694,-100.249954,8.8290825
650841459000.0,-1.665924306470772,9.491476049859331,0.1661122439074711,0.19761491,0.6221663,0.4718934,309.50708,-100.198616,8.793591
650846939000.0,-1.5591062349405715,9.61932318233162,0.0570781874675883,0.23182335,0.60048056,0.49938235,309.77936,-100.15902,8.774821
650851214000.0,-1.541850521588131,9.657285744499704,0.0536270491214701,0.28527406,0.59895337,0.49541172,310.04645,-100.12321,8.74936
650856135000.0,-1.5219872782179886,9.700984871617637,0.0496544054252718,0.30390546,0.59864795,0.49541172,310.38443,-100.10295,8.742706
650861221000.0,-1.5030767003194887,9.768740716453674,0.0519075156533546,0.34025195,0.59956425,0.48716503,310.71478,-100.08888,8.730856
650866744000.0,-1.4838737282021492,9.86091490241069,0.0595887117188498,0.38240165,0.61086524,0.47952923,311.03513,-100.07746,8.717772
650871169000.0,-1.4684884029044438,9.934764399578857,0.0657428476214057,0.40439278,0.6301075,0.4578435,311.33887,-100.06111,8.697038
650876199000.0,-1.461677537727604,10.12184761298252,0.1099240271230881,0.43218717,0.6728681,0.4297437,311.62592,-100.047165,8.67174
650881338000.0,-1.4571969136198106,10.336917850874,0.1636915538455935,0.44684792,0.70738196,0.39645153,311.90326,-100.02694,8.637796
650886207000.0,-1.4485750014163634,10.689240997863584,0.3476173230218389,0.46670106,0.73639804,0.3643811,312.14633,-100.00117,8.594111
650891235000.0,-1.4371447158965025,11.138834031887956,0.614325100451812,0.48075095,0.7498371,0.344528,312.3791,-99.97132,8.544391
650896211000.0,-1.4147289513857189,11.566009603847409,0.8721857401695468,0.50243664,0.77488256,0.3191771,312.57422,-99.92773,8.480666
650901187000.0,-1.290427162623628,11.830150783284424,1.0741761333876754,0.5119051,0.77366084,0.3100141,312.77005,-99.8841,8.415787
650906198000.0,-1.179952927780216,12.049903951285875,1.2729882152110945,0.5112942,0.7806858,0.29993483,312.86685,-99.80522,8.34315
650911171000.0,-1.1130691114280695,12.133508667164048,1.456918677442289,0.5158757,0.76174897,0.3182608,312.97217,-99.73505,8.276242
650916247000.0,-1.0448000079083646,12.218844990871588,1.6446586787062232,0.50823987,0.7125743,0.3304781,313.028,-99.65786,8.224988
650921209000.0,-0.9666180892921176,12.14757952488408,1.8596589115919628,0.51068336,0.68508536,0.35338554,313.08502,-99.5919,8.182563
650926502000.0,-0.8910070328824273,12.061794084702909,2.0816932389696587,0.50579643,0.6072,0.3827071,313.17218,-99.53011,8.143417
650931204000.0,-0.8945650380657396,11.919473877370416,2.209781574178255,0.48166725,0.5876524,0.39584067,313.19788,-99.466,8.125917
650936484000.0,-0.898560416068268,11.75965875726928,2.35361534914665,0.46853364,0.5540548,0.42271876,313.1996,-99.41528,8.139667
650941223000.0,-0.9232984619725508,11.596351056791292,2.4525890310648366,0.44806966,0.5164866,0.44929138,313.21036,-99.36577,8.155482
650946183000.0,-0.9682591319583532,11.407516603407478,2.5290221850638903,0.42821655,0.4999932,0.4810564,313.22717,-99.32495,8.179019
650951201000.0,-1.022550435712501,11.247305707004246,2.5730360650870328,0.39003745,0.48899764,0.5103779,313.21512,-99.28326,8.215915
650956211000.0,-1.0904821886066465,11.135417515116185,2.5650440156158907,0.35827246,0.48349985,0.5363397,313.2083,-99.24999,8.25908
650961690000.0,-1.170174382423505,11.001243823452713,2.543790912578234,0.3231477,0.4792238,0.5671884,313.19272,-99.21946,8.309831
650966190000.0,-1.2863048153164118,10.780221613786509,2.4089298164377606,0.30787608,0.48472157,0.5833763,313.17712,-99.19375,8.362087
650971136000.0,-1.413945064447149,10.537293647340055,2.260702487213144,0.29779682,0.50426924,0.59040123,313.16614,-99.166214,8.407377
650976207000.0,-1.4668563010732698,10.38239640099721,2.231810376878222,0.30115658,0.5204572,0.59712076,313.15543,-99.145645,8.455514
650982304000.0,-1.48659423721795,10.24916512591904,2.266351765131412,0.30482176,0.52106804,0.6001751,313.14423,-99.127846,8.5029745
650986324000.0,-1.4955398341102686,10.163464199194983,2.321346937246092,0.3210097,0.5152648,0.59223384,313.17014,-99.1015,8.520789
650991240000.0,-1.4999467936534685,10.06210408368436,2.440334890929514,0.3408628,0.5183192,0.5858198,313.1935,-99.07834,8.538925
650996227000.0,-1.5140695768739771,9.970023105810148,2.564881945286416,0.35216382,0.5122105,0.5815437,313.21393,-99.05524,8.55511
651001213000.0,-1.5687749325040916,9.92313287675941,2.705552958854337,0.3631594,0.51923543,0.5644395,313.2296,-99.029686,8.564958
651006138000.0,-1.6228110088134209,9.876816314770869,2.8445029672422257,0.35430184,0.54367006,0.54611355,313.21484,-99.004974,8.58079
651011206000.0,-1.7077001687224669,9.834082698659667,2.9993959984065985,0.3378085,0.55771995,0.51923543,313.20123,-98.97474,8.588103
651016255000.0,-1.8028749308370045,9.793293650107788,3.1580204441840847,0.2846632,0.59315014,0.4859433,313.1746,-98.935356,8.587928
651021203000.0,-1.9302789641214528,9.7480319527897,3.361643156492217,0.22388211,0.6206391,0.46303585,313.1214,-98.882805,8.579814
651029258000.0,-2.172410582019089,9.668968497854078,3.742135846326309,0.1908954,0.71929383,0.35735616,313.03705,-98.79912,8.538978
651031497000.0,-2.239714454455192,9.64699170386266,3.847899115418615,0.1908954,0.71929383,0.35735616,312.95966,-98.7263,8.511771
651036212000.0,-2.3513945521994435,9.511409993509838,4.095014758916246,0.0033597588,0.7107417,0.32559118,312.8565,-98.60759,8.446184
651041207000.0,-2.440098743659215,9.27979369084166,4.38083908424848,-0.12736541,0.61361414,0.31948254,312.781,-98.50666,8.38752
651046179000.0,-2.4756928228688158,8.974824514843394,4.576478209904676,-0.30818152,0.45875978,0.31581733,312.69586,-98.364395,8.29616
651052295000.0,-2.465057867880163,8.522841287607807,4.7253669689786655,-0.5552765,0.15607607,0.2938262,312.68283,-98.22537,8.197752
651056133000.0,-2.415641645621496,8.176642334235453,4.816824732089696,-0.9428705,0.049480084,0.2843578,312.61945,-98.107574,8.106197
651061197000.0,-2.2750164801082544,7.609453776725305,4.934012329228687,-1.0732902,-0.15821409,0.269697,312.67285,-81.98482,8.007646
651066144000.0,-2.12912424616059,7.113051600803683,5.020990215898298,-1.2968669,-0.3622431,0.2434298,312.72406,-82.0117,7.926241
651071219000.0,-1.9551260895155984,6.768606267275517,5.031643118104771,-1.5360206,-0.5384777,0.22204952,312.82562,-81.980156,7.84516
651076172000.0,-1.7853107457002997,6.432441195952364,5.042039930839483,-1.8115209,-0.6988298,0.20525073,312.92862,-81.82035,7.8119736
651081188000.0,-1.5692709315370483,6.108765526883038,4.797006495407226,-2.1111503,-0.86254174,0.18448131,313.08008,-81.57489,7.7763515
651086177000.0,-1.3156996346295162,5.801554231169626,4.3288747959277405,-2.4129176,-1.0329732,0.14538592,313.2761,-81.23473,7.7368913
651091213000.0,-1.130998034481968,5.627968179525615,3.6784081996649327,-2.6316075,-1.1994339,0.08368854,313.47305,-80.74422,7.751481
651096193000.0,-1.0006332007636012,5.5564776689886255,2.9046300621109253,-2.7220156,-1.3561208,0.049480084,313.71085,-80.167076,7.770812
651101172000.0,-1.0468633736152386,5.598041821798925,2.058213482251818,-2.676506,-1.4468343,0.0015271631,314.00696,-79.55928,7.8098655
651106203000.0,-1.5038432518115714,5.902695116345242,1.033816806180841,-2.5066855,-1.5070046,-0.105374254,314.3374,-78.94502,7.8306274
651111191000.0,-1.9569173190831488,6.204744536579197,0.01817565725577,-2.2699752,-1.432479,-0.27275133,314.78207,-78.46788,7.821583
651116159000.0,-2.2880130434431742,6.814361795998655,-0.1983113881876261,-2.031127,-1.348485,-0.43401974,315.2427,-78.036644,7.789059
651121204000.0,-2.588560182145259,7.525115145065568,-0.1820655933532279,-1.9321668,-1.072374,-0.5039638,315.62848,-77.63267,7.7260857
651126206000.0,-2.913056063087707,8.40932529949564,0.0154409435108565,-1.7327193,-0.77854776,-0.6068946,316.33072,-77.66419,7.529456
651131211000.0,-3.2777288003077447,9.564804936826809,0.4866471765293212,-1.5796975,-0.53969944,-0.68477994,316.96643,-77.71547,7.3105903
651136302000.0,-3.640482523673997,10.758797694437256,0.9727706464941784,-1.5238034,-0.42332962,-0.74464476,317.6265,-77.87668,6.979761
651141224000.0,-3.8965958965071152,12.128800630875377,1.521584874342389,-1.5570955,-0.3484986,-0.79473567,318.2275,-78.053894,6.62526
651146172000.0,-4.154062164036223,13.50604047839586,2.073298161500647,-1.6380352,-0.25289822,-0.8481864,318.78137,-78.221146,6.135603
651151220000.0,-3.9422445817100376,14.667256997397768,2.784073898438661,-1.7617353,-0.19242255,-0.95478237,319.32236,-78.35822,5.627955
651156172000.0,-3.5676097659479558,15.720641743122677,3.5333433458736057,-1.8793269,-0.2602286,-1.0934488,319.8706,-78.45938,5.1112533
651161196000.0,-2.2857749160395686,16.64360441048035,3.862388287354068,-1.9456058,-0.5012149,-1.2351695,320.43347,-78.48685,4.514405
651166178000.0,-0.3766285344942517,17.455735676855895,3.883648254201943,-1.9761491,-0.8750645,-1.3274102,321.05093,-78.45906,3.9255576
651171201000.0,1.1847449701279784,18.00678914909999,3.7831974118405993,-1.9181169,-1.2104294,-1.3710871,321.62274,-78.27274,3.3985295
651176691000.0,2.1256654168660907,18.04508205618562,3.4166759637082507,-1.8634444,-1.4049901,-1.3662001,322.2607,-78.05065,2.8929021
651181174000.0,2.700147740063742,18.005893584926884,3.110609223415823,-1.8698585,-1.4810427,-1.3478742,322.85602,-77.750694,2.7124271
651186210000.0,3.0934647688226478,17.870267137232847,2.757980223378328,-1.9428569,-1.4993688,-1.3045027,323.48407,-77.44578,2.5508869
651191752000.0,3.420431659378725,17.7531928384405,2.3662763761938157,-2.046704,-1.3594806,-1.2586879,324.0987,-77.16201,2.5094128
651196227000.0,3.531621586803169,17.705110985835496,2.04472708845102,-2.1343632,-1.063211,-1.2403619,324.6634,-76.864746,2.4590578
651201219000.0,3.655657367295421,17.65147420187925,1.6860289779678843,-2.1792617,-0.5867361,-1.1948525,325.16785,-76.59633,2.4705482
651206202000.0,3.6791295501863353,17.61022539068323,1.602800536521739,-2.1395555,-0.0870483,-1.1777482,325.5693,-76.330345,2.4516783
651211220000.0,3.5725270157054125,17.584640714729368,1.875703063975155,-2.083356,0.3042109,-1.153619,325.85315,-76.05632,2.4183202
651216205000.0,3.429683175334821,17.5645586875,2.2182065957589283,-2.08977,0.41416663,-1.1163563,326.13855,-75.85176,2.4182756
651221215000.0,3.1198646395408165,17.568383285714287,2.883742680102041,-2.1062634,0.38240165,-0.9935723,326.33154,-75.65177,2.4277098
651227989000.0,2.668391016771324,17.567927454212455,3.794505176609105,-2.155438,-0.09712757,-0.80848014,326.5971,-75.37913,2.4616947
651231191000.0,1.7751337041165185,17.45025297680098,4.452413213291471,-2.2342396,-0.32162055,-0.75594574,326.79077,-75.09595,2.475141
651236218000.0,0.3727587788461539,17.265509192307693,5.485300065384616,-2.293188,-0.79229224,-0.67256266,327.11963,-74.673615,2.5273929
651241238000.0,-0.7924527416290289,17.144460155101623,6.096776646253336,-2.4339926,-1.2541064,-0.5439755,327.49417,-74.211685,2.6220224
651246189000.0,-1.571180219205502,17.124992083145145,6.038372125456785,-2.6028967,-1.7916678,-0.4633413,328.008,-73.73508,2.7656057
651251218000.0,-2.2155698006276148,17.12593303748954,5.9385433377154815,-2.7375927,-2.2617285,-0.42546764,328.58856,-73.09325,2.7742445
651256209000.0,-2.663549639748954,17.153931921004183,5.786550347313808,-2.8002062,-2.574797,-0.4092797,329.2604,-72.437874,2.8342388
651261655000.0,-3.1271703164153237,17.18406894037095,5.601416206794939,-2.8429668,-2.6875017,-0.41538838,330.02475,-71.775185,2.84549
651266186000.0,-3.360342024588317,17.20663401152713,5.330635981244583,-2.8506026,-2.8787024,-0.46700647,330.88568,-71.123024,2.888197
651271151000.0,-3.615847990396949,17.231360468885423,5.033919181452592,-2.8115072,-2.8506026,-0.5109888,331.73727,-70.51161,2.8754451
651276234000.0,-3.6546359058764777,16.975826284251706,5.0485132671050446,-2.7601945,-2.6896396,-0.5131268,332.59146,-69.917435,2.8703904
651281235000.0,-3.610784620309639,16.621028769935076,5.180067373564175,-2.68628,-2.5631905,-0.50854534,333.43787,-69.35684,2.8606377
651286405000.0,-3.567419661706314,16.24126534859596,5.284729206367376,-2.6832256,-2.8060095,-0.49388456,334.36267,-68.84618,2.8551552
651291221000.0,-3.5302976994097657,15.865921847969952,5.3301003021999644,-2.6218336,-3.1554244,-0.50518554,335.27228,-68.38551,2.8477075
651296222000.0,-3.466560075174585,15.43104531007805,5.354560129501575,-2.5130997,-3.3857207,-0.505491,336.19827,-67.90205,2.8689268
651301211000.0,-3.17215497017664,14.58381261960838,5.171374713378064,-2.4040601,-3.4465017,-0.50243664,337.15906,-67.44994,2.908974
651306184000.0,-2.878694038696426,13.739297051417225,4.9887767830549095,-2.2996023,-3.590055,-0.46914452,338.18094,-67.00171,2.9950144
651311274000.0,-2.5870494919303533,12.91534929424075,4.824268800385066,-2.212554,-3.663359,-0.47739118,339.18982,-66.5938,3.0699534
651316173000.0,-2.343550327540599,12.294819546626488,4.761430369847648,-2.0952678,-3.811799,-0.4990769,340.2402,-66.23588,3.1730363
651321138000.0,-2.096770709007199,11.665929937133768,4.697745371354428,-2.025629,-3.9871175,-0.49968776,341.2977,-65.85178,3.336306
651326985000.0,-1.99010276839779,10.927641285422864,4.166350624504887,-1.8692477,-4.2256603,-0.4822781,342.39484,-65.53821,3.518415
651331422000.0,-1.9431499931491716,10.367818980110496,3.678763697458564,-1.6368134,-4.21833,-0.5140431,343.46323,-65.27977,3.6735601
651336199000.0,-1.8398073330987312,9.709772987311656,3.1635274206185566,-1.5460999,-4.201531,-0.5510005,344.5764,-64.99018,3.8895211
651341231000.0,-1.66305788416931,8.945451693100715,2.63327912371134,-1.3570372,-4.181678,-0.5681047,345.67108,-64.805046,4.091628
651346194000.0,-1.562840029687789,8.154662976778127,2.070469142933678,-1.180497,-4.1862597,-0.54305923,346.77783,-64.69422,4.300913
651351182000.0,-1.5672524699612045,7.307473661019768,1.4483146497136523,-0.97433007,-4.2601743,-0.602924,347.89093,-64.65772,4.4761863
651356137000.0,-1.4952119180009926,6.516550215300637,0.8456096314035233,-0.73914695,-4.142583,-0.70921457,348.95047,-64.722855,4.6337595
651361301000.0,-1.1639055787304606,5.862117661268712,0.2688911729931353,-0.49602258,-3.8783834,-0.7910705,349.9727,-64.85402,4.7548037
651366168000.0,-0.8516538449524439,5.245323850177819,-0.2746581564188241,-0.26053402,-3.5228598,-0.8503244,351.00803,-65.04074,4.8383207
651371200000.0,-0.0548034658507607,3.927724120961836,-0.8033186433574742,-0.009468411,-3.136182,-0.9059132,351.95706,-65.30557,4.8488874
651377309000.0,1.0354055572617789,2.151968958906339,-1.4364968027813492,0.22968534,-2.7727172,-0.94897914,352.81003,-65.63469,4.7923307
651381256000.0,1.611881038580565,1.2263370730142356,-1.7001548344955644,0.44776422,-2.46759,-0.97097033,353.69724,-65.97123,4.769699
651386215000.0,2.1654736885393024,0.3592053303693006,-1.8373282738704355,0.64751714,-2.2024746,-0.97402465,354.49298,-66.37134,4.6924224
651391209000.0,2.660578622800557,-0.4447401221536624,-1.863583922432325,0.8216137,-1.9376645,-0.9593639,355.23013,-66.72758,4.7538285
651396216000.0,3.0757601291799364,-1.1605702024681528,-1.7442788924363055,1.0005972,-1.7076738,-0.94134337,355.90274,-67.14381,4.7862144
651401227000.0,3.4767373762970246,-1.7404866867060078,-1.6254787050733546,1.1450669,-1.4905112,-0.9108001,356.47504,-67.548096,4.8803163
651406201000.0,3.8554439406933856,-2.134809964109499,-1.5083529702319485,1.2669345,-1.2666291,-0.86406887,356.97647,-67.995094,4.958045
651411588000.0,4.266748598870611,-2.5506776399950897,-1.382225030002455,1.3713925,-0.9966267,-0.8008443,357.3551,-68.40169,5.091649
651416183000.0,4.634090776462886,-2.745152901636795,-1.2849873991816023,1.4566082,-0.840856,-0.7510588,357.69595,-68.83291,5.226155
651421185000.0,5.033970117554628,-2.9568537196415416,-1.179136990179229,1.4874569,-0.5012149,-0.64996064,357.85565,-69.19747,5.427569
651426245000.0,5.35212562788434,-3.1602118345834525,-1.0949930218055155,1.543351,-0.115453534,-0.52412236,357.9477,-69.58045,5.636358
651431176000.0,5.590968134669339,-3.3494833216432864,-1.0319025261189043,1.5836681,0.29565877,-0.4071417,357.92648,-69.95292,5.842571
651436210000.0,5.678300311688312,-3.4255118454545457,-0.9050704296103896,1.5928311,0.70371675,-0.30207285,357.74478,-70.249,6.135816
651441221000.0,5.568876703816794,-3.3541487374045804,-0.7004959149618322,1.5894713,1.065349,-0.21533,357.44928,-70.53009,6.4329743
651447507000.0,5.347667902686927,-3.078393706752541,-0.3655657282898259,1.5561792,1.4923438,-0.09407325,356.98492,-70.73537,6.7846494
651451221000.0,5.175857746905504,-2.824257996155781,-0.1293268960257622,1.4483615,1.5925257,-0.06352998,356.50748,-70.901924,7.1446934
651456242000.0,4.892253213832177,-2.409899635293543,0.3029693104976067,1.4068227,1.7122552,-0.013744468,355.88574,-71.02117,7.498947
651466192000.0,4.214354967048242,-1.095988370400654,2.171535064186427,1.1569787,1.6670512,-0.00061086525,355.28003,-71.03987,7.868753
651471270000.0,3.891274690801308,0.2410665721586262,4.661737684791496,0.9605856,1.541213,-0.014660766,354.6595,-71.02721,8.208154
651476192000.0,3.8795138707272057,1.175341093827981,6.473242545035068,0.700357,1.3539828,-0.032375857,354.0579,-70.87417,8.500888
651481274000.0,4.263981897083795,1.6640106057659652,7.551190273717238,0.35338554,1.0888673,-0.03481932,353.5131,-70.63888,8.817873
651486243000.0,4.639901145994832,2.141814384754522,8.605169467700257,-0.065973446,0.7449502,0.011911872,352.94293,-69.946884,9.13044
651491293000.0,5.022986142316259,2.6092979397327394,9.417298954565702,-0.5513059,0.36957347,0.09621128,352.46964,-69.16984,9.472992
651496248000.0,5.399228672605791,3.061634614699332,10.123282498886416,-1.0839803,0.071776666,0.19486602,352.07755,-68.291855,9.849569
651501207000.0,5.494263001999131,3.6303026898305086,10.137354313124728,-1.6584991,-0.08460484,0.28771752,351.63422,-67.09303,10.32723
651506260000.0,5.287461272693032,4.334830775141243,9.404785335216571,-2.257758,-0.08552113,0.37323865,351.2364,-65.78394,10.82547
651511236000.0,5.083810885788788,5.028622928813559,8.683379589308997,-2.7299569,0.13713925,0.40378192,350.77844,-64.29606,11.361193
651516904000.0,3.172470112352106,7.815295437766209,4.836709040227165,-2.8460212,0.6001751,0.43493605,350.26633,-62.794266,11.8636
651521231000.0,1.3054669319678185,10.427530935257929,1.1654588867534308,-2.7284296,0.6814202,0.4361578,349.81635,-61.290764,12.357566
651526214000.0,-0.1401641778119139,12.21735827998571,-1.9399042456193625,-2.547919,0.76083267,0.37690386,349.3933,-60.064926,12.698208
651531177000.0,-1.1334612760846656,13.227634839778512,-4.321270457100116,-2.0958786,0.8313876,0.08368854,348.99814,-59.008663,12.953672
651536166000.0,-1.4551876298305086,14.34914045762712,-5.578733508474577,-1.5989398,0.9950995,-0.14202617,349.0645,-59.0231,12.727263
651541241000.0,-0.5627726472693033,15.680897872881356,-4.809883719868173,-1.0781772,1.0693196,-0.25167647,349.1506,-59.175587,12.466199
651546139000.0,0.7139980881174446,16.831336501366813,-3.62429552171712,-0.5155703,0.9275989,-0.2660318,349.44797,-59.93709,11.997525
651551174000.0,3.4137276383614457,17.563632060240963,-0.9245657349397592,-0.02076942,0.66339964,-0.16768251,349.71558,-60.784744,11.551857
651556179000.0,5.314446815537034,17.963411132568012,1.0048915704859254,0.27030787,0.3277292,0.040927973,349.97885,-61.632214,11.2780285
651561254000.0,5.016366981836767,17.436039702311685,0.8176362970938826,0.36651915,-0.05955936,0.3032946,350.2734,-62.497837,11.094375
651568023000.0,4.464948178899693,16.47889459945411,0.3354218891743433,0.3408628,-0.047647487,0.44104472,350.41922,-62.963345,11.301029
651571216000.0,3.166055853620778,14.314073825827364,-1.461640054686114,0.34147367,0.24831672,0.36346483,350.56775,-63.415962,11.516204
651576223000.0,1.1292397331473905,10.919379928693278,-4.279644800351416,0.41233405,1.2486086,0.11301007,350.5015,-63.85452,11.593397
651581231000.0,-0.4585260709014925,8.198467067462685,-6.353768081791045,0.6954701,2.2879958,-0.13897185,350.3413,-64.332184,11.606184
651586176000.0,-1.3161410177124375,6.577480322189055,-7.225519671592039,1.0769554,3.0784554,-0.28588495,349.98486,-64.848885,11.497949
651591508000.0,-1.8758462108980212,5.4098606642313545,-7.612289421106038,1.4504995,3.561039,-0.2947425,349.46008,-65.70936,11.075988
651596185000.0,-1.8940261441400303,5.137162377473364,-7.235056506341959,1.8707749,3.8176024,-0.29810223,348.784,-66.695564,10.5703335
651601143000.0,-1.680617306429192,5.278879483550536,-6.553243660295395,2.2660046,3.780645,-0.28955013,348.04712,-67.83619,9.976782
651606097000.0,-1.1035460325803648,6.094107169794381,-5.431160508253693,2.552195,3.6920695,-0.25350907,347.23544,-69.05728,9.384473
651611082000.0,-0.4187106133758639,7.123027396640085,-4.278079013312069,2.6514606,3.4089334,-0.13194689,346.4474,-70.26429,8.854259
651616103000.0,0.5118047568421052,8.641505550526317,-3.061251488421053,2.7681358,3.1004465,0.056505036,345.66983,-71.53713,8.378677
651621037000.0,1.21225509877547,10.185236993534485,-2.028705141820141,2.8026497,2.8127291,0.25320363,344.92194,-72.64403,8.051034
651627341000.0,1.7267907530074451,12.24929430387931,-0.9996336480897334,2.8060095,2.4123068,0.55924714,344.2644,-73.71975,7.8541164
651631067000.0,1.8225867946595595,13.485711218948005,-0.5956190179573569,2.831055,2.2763894,0.6365216,343.60956,-74.615105,7.788231
651636092000.0,1.6773888056220456,15.174847558583927,-0.319742833732274,2.8799243,2.0179935,0.77824235,343.07718,-75.42538,7.8723426
651641037000.0,1.2733947073850986,16.50893769038971,-0.1819884737498772,2.9810224,1.8020525,0.86406887,342.58304,-76.09824,8.014164
651646132000.0,0.4303875387800138,17.347154966820458,-0.2586254911691371,3.0735686,1.6163495,0.88056225,342.15192,-76.71509,8.193736
651651099000.0,-0.4680374074726093,18.002514892213444,-0.3748338186113824,3.1441233,1.6307048,0.7693848,341.7413,-77.33554,8.296225
651656140000.0,-1.5181827686619904,18.37542446728225,-0.5677176512918405,3.20521,1.8075503,0.63529986,341.3388,-77.91588,8.402636
651661117000.0,-2.5171130023722825,18.674295786935893,-0.7528777433410571,3.3237178,2.1209242,0.56505036,340.90448,-78.60503,8.334805
651666148000.0,-3.213538017565927,18.40316746419508,-0.8964157316230829,3.4480288,2.486527,0.50488013,340.41174,-79.27167,8.2389965
651671131000.0,-3.8484192559663866,17.714238977001326,-0.8733056599955772,3.5882225,2.7568347,0.4560109,339.87302,-80.08345,7.9511604
651676165000.0,-4.360153698655462,16.02551565900044,-0.4596536866651924,3.7314703,2.840829,0.41080686,339.28757,-80.85909,7.6695743
651681319000.0,-4.849727582858793,14.360264092019476,-0.0646602433950647,3.8719695,2.8909197,0.39370266,338.64035,-81.66743,7.313236
651686141000.0,-4.899272130585128,13.559928692333086,-0.034171268264752,4.0112467,2.8518243,0.376293,338.00018,-82.410706,6.974462
651691092000.0,-4.95014211312206,12.738182411983164,-0.0028666403364694,4.1276164,2.7577512,0.3747658,337.36462,-83.0865,6.598769
651696151000.0,-5.006814391975372,11.943743494202156,0.0338780152322216,4.2510114,2.6493225,0.3811799,336.75443,-83.660934,6.2423916
651701240000.0,-5.066828193483838,11.173563424320164,0.0738873483586454,4.3661594,2.5744915,0.364992,336.17102,-84.09877,5.899893
651706168000.0,-5.360159678169666,11.00625984,0.5498367585624678,4.499328,2.409558,0.35277468,335.65137,-95.64521,5.577554
651711187000.0,-5.770388946303342,11.11005276,1.2417894071753213,4.5707994,2.13925,0.34025195,335.19345,-95.58657,5.263387
651716198000.0,-6.290075448655063,12.02713571954114,1.934128620767405,4.598899,1.7137824,0.35308012,334.83612,-95.73263,4.956494
651721157000.0,-6.844266747804588,13.229449487045096,2.619823017355617,4.5020766,1.2000448,0.3839288,334.5916,-96.04838,4.653483
651726169000.0,-7.184299474365337,14.592043630845582,3.1571939135712923,4.353026,0.73914695,0.441961,334.50983,-96.33735,4.303196
651731229000.0,-7.434038628402367,16.030355633136097,3.6335482437869824,4.1551056,0.45998153,0.52290064,334.53217,-96.69349,3.966148
651736656000.0,-7.498104455924717,17.071894212598426,4.322091949836758,3.9431353,0.3640757,0.59498274,334.70218,-96.848976,3.5503812
651741196000.0,-7.460529351257922,17.719022952755907,4.977570819819474,3.760181,0.3585779,0.6017023,334.92688,-97.02263,3.146107
651746152000.0,-7.1248043405067,17.8683413635919,5.768843559229189,3.5989125,0.3585779,0.4978552,335.20654,-97.016045,2.6938496
651751244000.0,-6.50945683625159,17.51058141837034,6.651318588868239,3.449556,0.31856623,0.36346483,335.4932,-97.0254,2.2553816
651756229000.0,-5.765736248266855,16.839278494926152,7.396050347533407,3.274543,0.28405234,0.22479841,335.74576,-96.94354,1.8181411
651761290000.0,-4.864839857279213,15.826379321310158,8.02911214035969,3.0155363,0.13164146,0.09101892,336.03787,-96.85351,1.3632134
651766203000.0,-3.673582500623819,14.94488088147448,8.42659906342155,2.769663,-0.10293079,0.028405234,336.20605,-96.89172,0.9938714
651771241000.0,-2.136762124026465,14.142268434971646,8.618132109357278,2.5234842,-0.39400807,0.055283304,336.43893,-96.88993,0.6192831
651776157000.0,-0.7542406153467258,13.435489094166506,8.675334871064322,2.313652,-0.46853364,0.1591304,336.574,-96.89863,0.38562772
651781259000.0,0.4821461044717021,12.831452995847016,8.514887959532548,2.0152445,-0.3182608,0.24037547,336.73386,-96.82486,0.1564841
651786127000.0,1.4026670226183844,12.13794450204271,8.388656368709377,1.6627752,-0.004276057,0.3839288,336.76636,-96.697014,0.21497814
651791323000.0,1.7538129920891363,11.112228532126275,8.319350798792943,1.2962561,0.31978795,0.49968776,336.75726,-96.48352,0.29200292
651796211000.0,1.966216995838914,10.19627797964104,8.266828629877669,0.9502009,0.38453966,0.5149594,336.663,-96.20746,0.5638899
651801190000.0,1.565985333708367,9.519290031877846,8.279601794445933,0.6017023,0.34025195,0.5674938,336.51138,-95.85101,0.88021123
651807142000.0,1.061731367427835,8.713600161065292,8.248684867560138,0.42913285,0.22021692,0.6020077,336.33502,-95.51376,1.2476617
651811195000.0,0.538198442257732,8.190067187147767,7.90522083395189,-0.119729586,0.22968534,0.6065892,336.131,-95.02055,1.6181964
651816233000.0,-0.1125686135051546,7.539300070790378,7.478284786254295,-0.28863382,0.33383787,0.6270532,335.94656,-94.65509,1.9320637
651821187000.0,-1.00705467968035,6.521828954201207,6.803983093441209,-0.59742624,0.5299256,0.59895337,335.72653,-94.17039,2.2308266
651829726000.0,-2.850940902192453,4.3200118734664095,5.339720651210293,-0.82650065,0.906524,0.54550266,335.41962,-93.76327,2.5275164
651831182000.0,-3.1653452048013797,3.94457614685324,5.090046671132038,-1.1530081,1.0231993,0.5149594,335.1765,-93.3774,2.6949956
651836166000.0,-3.682485536309765,3.03768474494683,4.5715513371052845,-1.2519683,1.181108,0.43768495,334.8089,-93.11156,2.8354354
651841240000.0,-3.777154374007631,2.4065592564006817,4.303322826333306,-1.423316,1.2486086,0.35063666,334.43008,-92.98925,2.9597883
651846184000.0,-3.83205989916318,1.7873279538420956,4.052035278233582,-1.5482379,1.1896601,0.28680122,334.17856,-87.18953,2.798195
651851222000.0,-3.57313410251046,1.1202651254302347,3.880881073994906,-1.6398678,0.93676186,0.20891592,333.96335,-87.21509,2.608987
651856226000.0,-3.315955720920502,0.4577041104693471,3.7108819398126247,-1.6829338,0.5198463,0.15363261,333.8234,-87.09418,2.4049556
651861188000.0,-2.9017475984829573,0.3437425389495919,3.52955219593855,-1.679574,-0.015882496,0.12614368,333.7906,-86.83191,2.1971612
651866190000.0,-2.469400172731637,0.2793503593470955,3.3455746016802688,-1.6939293,-0.5852089,0.11636983,333.88626,-86.45546,1.9915018
651871179000.0,-2.1405832409057024,0.5217691015234811,2.5931516453503543,-1.7119498,-1.1377366,0.11911872,334.1005,-86.01222,1.8409371
651877987000.0,-1.7445347819036072,0.9363092105183388,1.425388216126099,-1.724778,-1.6584991,0.11148291,334.46423,-85.53499,1.6993697
651881245000.0,-1.9305378764777208,1.059260458563201,1.239385088632919,-1.7079792,-2.0894647,0.100792766,334.916,-85.05143,1.6403491
651886185000.0,-2.212568351369101,1.2456874583611195,0.9573545638274223,-1.733941,-2.3689353,0.08552113,335.46564,-84.67308,1.6245097
651891236000.0,-2.6120924308710136,1.5287975459114709,0.4996257827015706,-1.861001,-2.4929411,0.07666359,336.08618,-84.279976,1.6131296
651896193000.0,-3.0504367557448835,1.8451284183341263,-0.0200606990994764,-2.0839667,-2.4895813,0.064751714,336.7421,-83.86373,1.5987791
651901207000.0,-3.3369513724368995,2.5915562530489167,-0.5005394905427741,-2.4077253,-2.346028,0.058337633,337.39096,-83.521805,1.5382265
651906196000.0,-3.51837590612017,3.6160714175564,-0.9487648457627876,-2.610227,-2.081218,0.063224554,337.99582,-83.16217,1.4697709
651911192000.0,-3.7000549941702032,4.642024065758321,-1.3976191000580744,-3.042109,-1.8023579,0.13591751,338.65915,-82.6144,1.3150892
651916219000.0,-3.5439966971187333,6.295755392179419,-0.4799885264591028,-3.4761286,-1.715615,0.2611449,339.29297,-82.007996,1.176879
651921413000.0,-3.3291250854553494,8.077856895853227,0.6250877652166225,-3.8594465,-2.0295997,0.28985557,339.9548,-81.29947,1.0425509
651926219000.0,-2.8326451011052165,9.913205278187444,1.98837285285588,-4.067446,-2.5876253,0.0888809,340.7111,-80.66332,0.8410357
651931200000.0,-2.31808688178603,11.81538386587091,3.4012989913351017,-4.1963387,-2.8286116,-0.3100141,341.42,-79.87175,0.6419547
651936266000.0,-1.9868878542946296,13.426733899655115,4.0841565950730825,-4.341114,-2.5857925,-0.65668017,342.14935,-79.035095,0.41258457
651941133000.0,-1.7266233307603875,14.877325704795531,4.512827711364756,-4.2769732,-2.2177463,-0.6606508,342.90518,-78.23886,0.18198214
651946212000.0,-0.7012101231673369,16.249832803588,4.50083570027838,-3.971235,-1.7397442,-0.41691554,343.508,-77.22612,0.028335039
651951215000.0,1.8885690343411687,17.305751700355707,3.526426590975874,-3.5537086,-1.1178834,-0.04795292,343.95413,-76.289635,-0.11116738
651956203000.0,4.470583513184349,18.358504739947417,2.55493895611661,-3.1569517,-0.45723262,0.37415496,344.20944,-75.453674,-0.14198186
651961154000.0,5.454492404326161,18.59705298444696,2.1618000934918835,-2.9006937,0.10476339,0.63346726,344.30096,-74.72056,-0.14842956
651966213000.0,5.875152436738392,18.54218355553039,1.9715886450811624,-2.8512135,0.4098906,0.5992588,344.2689,-74.06006,-0.14712329
651971197000.0,6.280918114332785,18.480203830971995,1.829747569258649,-2.903137,0.53023106,0.38331795,343.96033,-73.883286,0.25204414
651976211000.0,6.597346945963756,18.333855744151567,2.16990881107084,-2.9620855,0.61575216,0.09407325,343.57736,-73.68936,0.57871634
651981212000.0,6.912955359802306,18.187887099917628,2.509188103113674,-3.0925052,0.65484756,-0.17684549,343.2127,-73.365814,0.89280754
651986362000.0,6.7270458265905,18.423453077783865,2.5929562305579466,-3.265991,0.5705481,-0.42455134,342.8773,-73.00919,1.120786
651991207000.0,6.316751026136631,18.82285525361922,2.549385049636122,-3.3869424,0.42730024,-0.7263188,342.57245,-72.63424,1.2496053
651996224000.0,5.928913818181818,19.199756590909093,2.423802660454545,-3.4180965,0.35369098,-1.0064005,342.29163,-72.16829,1.358211
652001239000.0,5.848059185185185,19.27252601388889,1.6314267209722222,-3.3374622,0.31795537,-1.1102476,342.05005,-71.71172,1.4325979
652006130000.0,5.769203749494949,19.343496153030305,0.8586429283484847,-3.2989779,0.5928447,-1.2089024,341.8057,-71.26385,1.3487419
652011240000.0,5.102851955790416,19.392681798119124,0.2410850531724138,-3.2290337,0.947452,-1.25319,341.55334,-70.85513,1.2443167
652016261000.0,4.224269775709807,19.43144265893417,-0.2929550860689656,-3.079677,0.7840455,-1.3771957,341.38412,-70.489174,1.1146104
652021211000.0,3.037974800426752,19.45841979082483,-0.2765019643662066,-2.8273897,0.43249258,-1.3393221,341.23853,-70.13031,0.98308307
652029760000.0,0.4393798424284862,19.48571593778756,0.6843230927785556,-2.728735,-0.8775079,-1.0955868,341.3886,-69.77672,0.98615646
652031570000.0,-0.1107964207574845,19.491495096285924,0.8877496167500166,-2.728735,-0.8775079,-1.0955868,341.3421,-69.480286,0.7505405
652036200000.0,-1.6628175151381797,18.952034139764127,1.6242759897201196,-3.4755177,-1.244638,-1.1203269,341.72305,-69.00206,0.73831266
652041200000.0,-3.4750103509065307,17.847861018834713,2.623089226826263,-3.9376373,-1.3610078,-1.1786644,342.0365,-68.61049,0.6921403
652046150000.0,-4.974380765779703,16.71653032549505,3.586478574009901,-4.1431937,-1.4828753,-1.2223413,342.42084,-68.12496,0.4948072
652051218000.0,-5.404870934302806,15.415048481435644,4.47749297879538,-4.114483,-1.4853189,-1.1954633,342.80145,-67.58473,0.3078057
652056184000.0,-5.569078420689655,14.224530689655172,5.210113117241379,-3.9397755,-1.6872098,-1.2324207,343.2972,-66.87053,-0.044380862
652061983000.0,-4.994569091103449,13.086454943448276,5.647834549300493,-3.6034942,-1.853976,-1.2617421,343.78198,-66.227295,-0.37590382
652066330000.0,-4.569524867469648,12.208441169782231,5.826782851146656,-3.181997,-1.9398025,-1.2024882,344.32867,-65.4772,-0.7065694
652071179000.0,-4.108635640865292,11.170321572557333,5.674644611755637,-2.7727172,-2.1661282,-1.0488557,344.9454,-64.83941,-0.9735242
652076207000.0,-3.605989162102033,10.123731263521288,5.4246382602991945,-2.3903158,-2.6056457,-0.9877691,345.6674,-64.195076,-1.1591524
652081456000.0,-2.961964204418872,9.17504790287687,4.718910270701956,-2.0100522,-3.0402763,-0.93126404,346.4221,-63.68604,-1.2733742
652086149000.0,-2.386157550502493,8.326853768469505,4.087936474706559,-1.6566665,-3.3258557,-0.90408057,347.25043,-63.224293,-1.2988454
652091193000.0,-1.6636296428396111,7.507627051656755,3.203202670820353,-1.3151928,-3.5075881,-0.9034697,348.14807,-62.882744,-1.2774578
652096275000.0,-0.8550010216558104,6.754132253525913,2.151066658982347,-0.9596693,-3.6025777,-0.9789116,349.09113,-62.65752,-1.2488155
652101168000.0,0.0550632313809232,6.018352070998576,1.108967711551759,-0.6041457,-3.6957347,-1.0073168,350.0571,-62.565422,-1.1221143
652106101000.0,1.1311558473154362,5.264126418456376,0.0232671325503357,-0.44501534,-3.7617083,-1.0421361,351.0349,-62.524666,-1.02019
652111075000.0,1.894107404038584,4.411633051801993,-1.0508844816726732,-0.13713925,-3.8331795,-1.0207558,352.01282,-62.689404,-0.83828485
652116094000.0,2.286420459783761,3.443587814076744,-2.110639202713589,0.14813483,-3.8154643,-0.95630956,352.9634,-62.894295,-0.6761408
652121096000.0,2.3449495,2.3709437,-2.9592332142857143,0.40775254,-3.6890152,-0.8536842,354.0075,-63.086052,-0.35619944
652126082000.0,2.160714382963989,1.2230173343490305,-3.653657871013059,0.6563747,-3.4605515,-0.8023715,355.01437,-63.361702,-0.055583872
652131454000.0,2.227903010104634,-0.0160386351868461,-4.1684389399701045,0.8949176,-3.1004465,-0.7974846,355.9781,-63.742573,0.2727212
652136092000.0,2.449214550852018,-1.087186560807175,-4.469422585470852,1.1291844,-2.5995371,-0.8023715,356.8418,-64.19997,0.5604695
652141092000.0,2.9221665596586424,-2.243400028778611,-4.667816378601026,1.3723087,-2.0146337,-0.7901542,357.60126,-64.74606,0.7769924
652146243000.0,3.6083888677584848,-3.435772017008682,-4.765152949368587,1.5696182,-1.400714,-0.7703011,358.22287,-65.35315,0.9260333
652151101000.0,4.2958422055473005,-4.418120701650983,-4.892284197473997,1.6820174,-0.763887,-0.7058548,358.66992,-65.98408,1.0495609
652156168000.0,5.048923637493809,-5.315409062349348,-5.056520123105497,1.7635679,-0.10720685,-0.57787853,358.93903,-66.66806,1.1214958
652161160000.0,5.793910942489944,-6.191286529598744,-5.238021182988325,1.8628336,0.57360244,-0.4156938,358.99582,-67.33519,1.2442061
652166179000.0,6.5672673957225545,-7.007083495173158,-5.5775433613754535,2.0069978,1.2623531,-0.24648413,358.85803,-68.04115,1.3367335
652171170000.0,7.284692375431413,-7.776873242234571,-5.903076503461051,2.2064452,1.9327776,-0.096516706,358.49268,-68.747185,1.5391579
652176142000.0,7.368253386721263,-8.036840639017257,-6.0794833736960125,2.4233024,2.5399778,0.04153884,357.9392,-69.496735,1.7331574
652181520000.0,7.358542688057198,-8.1822844418757,-6.197322596237418,2.6456573,3.0384438,0.13744467,357.1916,-70.28824,2.0364966
652186173000.0,6.443688361255791,-7.078763900399425,-5.6384426928103535,2.8072312,3.4009922,0.19639318,356.30215,-71.114624,2.341866
652191113000.0,5.472405237593865,-5.907177509921713,-5.045090721409171,2.9217684,3.5170567,0.20372356,355.33447,-71.98995,2.6735177
652196138000.0,4.610087788579795,-4.830006701034651,-4.430703901805759,2.9495628,3.5983016,0.16035213,354.27206,-72.87414,3.0023346
652201094000.0,3.878111259736457,-3.875657620741825,-3.814546359785261,2.9492574,3.5143077,0.0693332,353.2219,-73.76869,3.3501372
652206261000.0,3.1442859749804533,-2.822820987343628,-2.85341664286552,2.9226847,3.3420436,-0.03726278,352.22134,-74.66569,3.5034893
652211238000.0,2.4688319724784984,-1.7467526798279904,-1.586357954652072,2.8790078,3.143818,-0.14477506,351.25336,-75.55483,3.663967
652216169000.0,1.9112999341549293,-0.6305555336463223,-0.0905075303599374,2.83808,2.9752192,-0.2611449,350.3496,-76.4267,3.6956043
652221237000.0,1.490094787804097,0.5847247656850194,1.7738429714468629,2.7088819,2.8625145,-0.36957347,349.4876,-77.26388,3.7293818
652229157000.0,0.8596427657654456,2.608158805084746,5.031457503772553,2.4165828,2.716823,-0.4269948,348.67142,-77.92438,3.658102
652231447000.0,0.7297441267368325,3.427519511299435,6.622216124512484,1.7012597,2.6340508,-0.398895,347.8684,-78.431885,3.5968778
652236212000.0,0.459452853823583,5.132433819209039,9.932244433606709,1.349096,2.4165828,-0.28680122,347.09714,-78.291885,3.5033646
652241202000.0,0.0020538155678458,6.588489669972346,12.69510594717269,0.4297437,2.0619757,-0.25411993,346.41367,-77.81392,3.4069924
652246193000.0,-0.6907345918336989,7.600324851625822,14.50911814036426,-0.78038037,1.5436565,-0.36010507,345.85886,-77.16798,3.3253205
652251204000.0,-1.2226338962776304,8.528195677365163,15.716652102475685,-2.1493294,1.2281445,-0.42730024,345.24765,-75.77061,3.2302258
652256203000.0,-1.417348747462423,9.273192094783376,15.661623764633068,-3.3377676,1.3326025,-0.45356745,344.69818,-74.14623,3.1063848
652261225000.0,-1.5290742073313783,10.153037611178195,15.226552782042434,-4.0527854,1.8194622,-0.48258355,344.15762,-72.164154,2.8097787
652266175000.0,-0.5355032395894428,12.749406112126962,9.80075569949974,-4.3408084,2.3765712,-0.3640757,343.59857,-70.05722,2.5103056
652271673000.0,0.5680630595307916,15.633210964291871,3.774284515697774,-4.1728206,2.556471,0.13805555,343.03912,-68.02738,2.231715
652276797000.0,-0.6323008747028347,16.81712169216702,3.537626536208473,-3.278819,1.484708,0.50885075,342.69504,-66.222176,2.023107
652281231000.0,-2.025751121152088,17.602285654983238,4.189053707314844,-2.4333818,-0.8542951,0.36041048,342.66022,-64.539246,1.9510036
652286213000.0,-1.847716948530001,18.066051988384203,2.115241467363614,-2.4840834,-2.8099802,0.6178902,342.84958,-63.816246,2.268525
652291226000.0,-1.1823739428342546,18.41603030849956,-0.753809631843307,-2.3561072,-3.3001995,1.1184943,343.24817,-63.39083,2.7095056
652296230000.0,-0.0201159107456736,17.4437050293558,-3.3430482278698923,-2.0696115,-3.3066137,1.1921035,344.12466,-63.01295,3.061132
652301192000.0,2.360841141714234,13.219981574069038,-5.233175093159373,-1.5372424,-2.6392434,0.9419542,344.9118,-62.74962,3.4204342
652306226000.0,4.70511124684774,9.059019405908009,-6.957631618596352,-1.2247849,-1.8866574,0.5992588,345.67996,-62.896114,3.8142548
652311207000.0,6.1946192068695485,6.387362786181601,-6.41384318871927,-0.9859365,-1.1600331,0.46273044,346.2832,-63.16073,4.107833
652316351000.0,7.541642095512483,3.699091432627903,-6.010665315610267,-0.7874053,-0.68844515,0.462425,346.67786,-63.40581,4.693952
652321260000.0,6.831569431639602,1.8726043884756416,-7.278944938187533,-0.46914452,-0.37568212,0.5317582,346.9426,-63.751255,5.1875052
652326157000.0,6.123232533088878,0.0505821731133231,-8.54412426427449,0.034513887,0.30543262,0.5696318,346.88638,-63.929916,5.8308353
652331230000.0,3.869943154898864,-1.554674906576767,-10.494739430167598,0.7266242,1.5598444,0.4728097,346.61578,-64.24024,6.3543386
652336214000.0,1.1850279152764402,-3.044251138023502,-12.6095703575419,1.4895949,2.8484647,0.2947425,346.16846,-64.69781,6.7890444
652341211000.0,-0.5188102164186508,-2.75669520109127,-12.9618856359127,2.1105394,3.8347065,0.19730948,345.50946,-65.38552,7.03534
652346235000.0,-1.788482005688492,-1.6684051928373018,-12.522751153373015,2.5418103,4.488943,0.16737708,344.6069,-66.23277,7.161966
652351225000.0,-2.338252035937175,0.2718203085604327,-10.85015807665904,2.8732047,4.7833805,0.18081611,343.6736,-67.57437,6.8096385
652356099000.0,-2.547023240409819,2.563448417006449,-8.645922248283753,3.1080823,4.7143526,0.20708331,342.648,-69.02085,6.441924
652361073000.0,-1.688918764670504,5.919023645146884,-6.0686987003771335,3.2925637,4.3924265,0.344528,341.63406,-70.63403,5.889326
652366099000.0,-0.4182372941306074,9.692852060688766,-3.341032733525209,3.4162638,3.856087,0.6273586,340.66394,-72.29198,5.4315667
652371089000.0,0.1338783933707165,12.15533666542056,-2.1201258606853584,3.5686748,3.3001995,0.8173377,339.74762,-73.858246,4.9669466
652376311000.0,0.414308782554517,14.19402080373832,-1.465788391277259,3.8679988,2.9049697,0.79443026,338.9184,-75.49447,4.572659
652381104000.0,-0.0550842101480394,15.73118463317889,-0.5958669724375636,4.1755695,2.615725,0.68019843,338.12613,-76.79322,4.4489746
652386402000.0,-1.4139821142727995,17.04421271793423,0.677024735981467,4.0784416,2.4055874,0.55833083,337.4229,-78.02944,4.3584476
652391091000.0,-2.504231841564599,17.722275405077045,0.9376217912583958,3.8832703,1.8655825,0.49754974,336.89175,-79.19655,4.325029
652396193000.0,-3.648051055946267,18.277293280027656,0.8941855987850652,3.510337,1.4199562,0.38453966,336.40332,-80.25648,4.2637715
652401181000.0,-4.422165379789236,18.36106618949944,0.946293572130222,3.3374622,1.0433578,0.2910773,336.08588,-81.1975,3.9993372
652406165000.0,-5.041929437598796,18.23980792679714,1.0406055021264584,3.3441818,0.840856,0.20647246,335.85156,-82.06796,3.7391043
652411182000.0,-4.832911016042781,17.146040287138582,0.8031298081990392,3.4568865,0.98624194,0.22052236,335.65463,-82.997925,3.3044605
652416162000.0,-3.981336342245989,15.308887006979065,0.3103404567207468,3.6596937,1.3286319,0.3585779,335.45758,-83.91443,2.9152205
652421184000.0,-3.2876654912777425,13.845504082016625,-0.092510777347703,3.8747182,1.7531832,0.6197228,335.20837,-84.84105,2.4786644
652430459000.0,-2.5702899242505355,12.454119791297034,-0.51714754,4.1221185,2.2681427,1.1612549,334.83023,-85.73537,2.1860518
652431431000.0,-2.6016130405246254,12.40927079252065,-0.51714754,4.1221185,2.2681427,1.1612549,334.45276,-86.62322,1.98213
652436167000.0,-2.75423266879015,12.190747275848883,-0.51714754,4.612949,2.2580633,1.3344351,333.90488,-87.415504,2.0535848
652441129000.0,-2.914135243843683,11.961795905552156,-0.51714754,4.722294,2.0347922,1.4071281,333.4304,-87.8268,2.1062856
652446173000.0,-3.185925768971233,12.043765358946857,-0.2574830041725987,4.751004,1.7214183,1.3933836,332.99536,-92.26914,2.190896
652451274000.0,-3.5527272632764504,12.391512292832765,0.2236462356587031,4.7061057,1.3680327,1.3206906,332.64612,-92.84859,2.2836704
652456993000.0,-3.9889410401244167,13.576501576982892,0.6576660078289269,4.5882087,0.9789116,1.1899655,332.41278,-93.61135,2.317144
652461271000.0,-4.3287612755832034,14.89330501710731,0.9252744770730948,4.4171667,0.7657196,1.0885619,332.23795,-94.44949,2.3373024
652466197000.0,-4.540751005745721,16.068109523133344,1.2892279051156668,4.2497897,0.84940815,1.0348058,332.12622,-95.09646,2.2493703
652471206000.0,-4.626460629339853,17.015424283430505,1.6997310464171524,4.1263947,1.0888673,0.981355,332.03485,-95.72108,2.136556
652476202000.0,-4.584469197692307,17.752489526153845,2.568727962153846,4.056756,1.3335189,0.8151997,331.93478,-96.17386,1.8998212
652481385000.0,-4.379240837211539,18.25362781576923,4.053052845269231,3.9779544,1.4278975,0.56779927,331.81082,-96.60509,1.6415626
652486159000.0,-4.159771054347826,18.24771188071113,5.295033709745763,3.7662897,1.3860532,0.48716503,331.67615,-96.8159,1.3531023
652491206000.0,-3.874824017391304,17.4284897770818,6.390299005084746,3.6004398,1.1878275,0.45356745,331.56332,-97.04318,1.030182
652496233000.0,-3.388757001631913,16.385326418857662,7.373880792384406,3.1658092,0.9502009,0.4914411,331.412,-97.0545,0.7753791
652501340000.0,-2.0907582954092145,14.422203700486278,7.946290088090332,2.7669141,0.689056,0.47983465,331.33224,-97.06117,0.5097231
652506178000.0,-0.8611288180829146,12.56248415643287,8.488548982279733,2.489276,0.56077427,0.52839845,331.19934,-97.02899,0.3650445
652511258000.0,-0.1569602774817869,11.591407518432373,8.530272028701834,2.2983804,0.52748215,0.6215554,331.1218,-96.92748,0.23368189
652516218000.0,0.3600342971517599,10.928487388528044,8.417700969279382,2.026851,0.56016344,0.70738196,331.0682,-96.742805,0.12022848
652521197000.0,0.5727298198320933,10.13223674346471,8.069086150040217,1.7229455,0.57451874,0.75869465,330.90054,-96.5511,0.2880166
652526903000.0,0.4573517403448622,9.066362999949728,7.393299946923386,1.4721853,0.6059783,0.81336707,330.72125,-96.30466,0.47936878
652531197000.0,0.1180872600688637,8.473406166748648,6.976461327102803,1.248914,0.6789767,0.84574294,330.48438,-96.01769,0.75552964
652536206000.0,-0.4859647597383179,7.9542988336448595,6.565894662990655,1.0079277,0.72112644,0.9016371,330.24564,-95.6763,1.049535
652541201000.0,-1.104230853633761,7.414128699861483,6.193287955766922,0.72692966,0.7330383,0.96852684,329.99478,-95.39833,1.336674
652546186000.0,-1.739064660670422,6.849831993748269,5.862645136947086,0.42760566,0.79259765,1.0088439,329.71375,-95.074585,1.6309508
652551257000.0,-2.3606786085958595,6.315078665571557,5.590277460958595,0.09254608,0.82924956,1.0122037,329.46167,-94.77429,1.8421426
652556210000.0,-2.915711000990099,5.877457041584158,5.46219325990099,-0.20769419,0.8555168,0.9505063,329.18973,-94.42606,2.0442653
652561216000.0,-3.476682564956496,5.435152609990999,5.332738482898289,-0.49541172,0.89888823,0.86254174,328.94003,-94.06088,2.136691
652566280000.0,-4.184256844889207,4.823253762115797,5.096011303573981,-0.7666359,0.93370754,0.73761976,328.67917,-93.63844,2.1985993
652571202000.0,-4.946569713759828,4.14096266545747,4.80961739807005,-0.9993755,0.9502009,0.5571091,328.4049,-93.17672,2.217596
652576155000.0,-5.710144916849015,3.3940663995623632,4.414300051641138,-1.1768318,0.9737192,0.3735441,328.1565,-92.65535,2.077128
652581208000.0,-6.483600045666445,2.537740820835316,3.84341638056322,-1.3041973,0.97249746,0.15149458,327.90677,-92.118195,1.8744355
652586159000.0,-7.144412778398185,1.7880220976094925,3.232298412842436,-1.3891076,1.0051788,0.035430185,327.69116,-91.539764,1.4960974
652591203000.0,-7.5784955810504275,1.2443649298900716,2.482135827743849,-1.4095715,1.0598512,-0.19914207,327.47043,-88.937645,1.0289396
652596206000.0,-8.001309449361976,0.7102406467695042,1.7433871793975124,-1.4266758,1.033584,-0.42119157,327.31604,-89.13251,0.4029076
652601215000.0,-7.257465263123889,0.9465662942981748,1.8053742218866096,-1.4333953,0.7275405,-0.5919284,327.23358,-88.71734,-0.25202283
652606162000.0,-6.522828172023905,1.179966769108383,1.8665940061137132,-1.4547756,0.32253686,-0.6918049,327.25833,-88.06963,-1.0322902
652611200000.0,-5.624477859964429,1.4019404017598054,2.0242481068613687,-1.5476271,-0.18081611,-0.73456544,327.40167,-87.27207,-1.829249
652616235000.0,-4.59085396012356,1.6095678149396238,2.2679847603762986,-1.6377298,-0.7504479,-0.68539083,327.68152,-86.43916,-2.6108084
652621200000.0,-3.708999369422222,1.6146325770666667,2.5451152394666665,-1.7314975,-1.3206906,-0.59681535,328.01657,-85.77082,-3.180929
652626172000.0,-3.036498533116049,1.3136531831703704,2.8790142821925926,-1.815186,-1.9230038,-0.46028697,328.52335,-85.12608,-3.6991372
652631191000.0,-2.4457577627212066,1.1289509715888213,3.0188205548689684,-1.9456058,-2.532342,-0.32436943,329.10608,-84.61502,-3.9776545
652636209000.0,-2.00892346640557,1.1521868688714825,2.81434489170293,-2.1627684,-3.0644054,-0.15790866,329.8296,-84.11539,-4.1919093
652641145000.0,-1.636333176200101,1.2785487774835775,2.422284638716524,-2.4422393,-3.5115588,0.043982297,330.62683,-83.667656,-4.2233095
652646179000.0,-1.3975992237998989,1.6634463825164223,1.5501748412834766,-2.7064385,-3.8227947,0.26267207,331.51804,-83.20296,-4.1916256
652651139000.0,-1.2441194394368968,2.04254115353416,0.4887207277613704,-2.971554,-3.9767327,0.4981606,332.4566,-82.73742,-4.025508
652656167000.0,-1.2725613970269738,2.426507160267769,-1.0424031296515062,-3.2476652,-3.9403863,0.6817256,333.40414,-82.21171,-3.809717
652661205000.0,-1.2541374753924686,2.8088406078108448,-2.315929841702784,-3.4761286,-3.6209037,0.7510588,334.37363,-81.57564,-3.5719118
652666163000.0,-1.1215194512183375,3.179256307069248,-2.9332893245497447,-3.5769215,-3.1062498,0.67256266,335.26147,-80.88765,-3.3293238
652671199000.0,-0.8257300531862493,3.879140342893792,-3.02157440145921,-3.5756998,-2.567161,0.40775254,336.1281,-80.29462,-3.1723075
652676923000.0,0.1980575970138531,6.056095605900461,-0.8221184909327861,-3.556763,-2.1395555,0.06566802,336.88028,-79.67143,-3.074562
652681227000.0,0.8068580457281821,7.943327390428558,0.9729682358539048,-3.6224308,-2.0668626,-0.13103059,337.63068,-79.053986,-3.0049694
652686205000.0,1.0999767284665505,10.765141523180692,3.409790545630908,-3.8127155,-2.1960607,-0.15393804,338.32025,-78.40464,-2.9877899
652691156000.0,1.344026679077013,13.472283213319054,5.511524563586798,-3.951382,-2.3994787,0.019242255,338.73392,-77.98724,-2.7786105
652696190000.0,1.0013819380975564,14.988368057832734,3.6434066734689914,-4.1993933,-2.1346686,0.3408628,339.0367,-77.498985,-2.559891
652701326000.0,0.7177648020084912,16.487320218403006,1.7757759550293926,-4.174653,-1.484708,0.7583892,339.24313,-76.62392,-2.166516
652706201000.0,1.563984480731548,17.101020547028085,0.6512947948399739,-3.6813793,-0.8170323,1.2147056,339.33545,-75.83812,-1.7061456
652711204000.0,2.4324228505062053,17.730834443256043,-0.5027112040169823,-3.0301971,-0.28863382,1.5421293,339.31885,-75.56632,-1.2967536
652716218000.0,3.730484920539357,18.219994751119515,-0.2413890966762861,-2.4966063,-0.06383542,1.706452,339.17374,-75.38675,-0.8466497
652721208000.0,5.328341118170962,18.6051925598567,1.033091464374565,-2.2009475,-0.39614612,1.6331482,339.02646,-75.29659,-0.3833899
652726199000.0,6.472591970331074,18.8777600104136,1.9607973168582375,-2.0454822,-0.890947,1.3420709,338.92236,-75.43852,0.16446519
652731363000.0,7.303395050987326,19.07209971058061,2.6507037597701157,-2.0363193,-1.0662653,0.8790351,338.835,-75.574265,0.6215125
652736406000.0,7.727992698523839,19.218862942848123,1.9395952056283552,-2.166739,-0.88025683,0.30207285,338.73166,-75.48362,1.1495304
652741207000.0,7.855024285806757,19.327747257972845,0.2700345321913486,-2.3426683,-0.36560285,-0.35643986,338.61237,-75.367874,1.487657
652746423000.0,7.968059092819864,19.44177374758817,-1.4510459811007437,-2.5537221,0.37934732,-1.3017539,338.4209,-75.09531,1.6345432
652751266000.0,7.560955501787126,19.46011173683378,-1.1466351681401237,-2.9022207,0.91538155,-2.3096814,338.19196,-74.75689,1.5452496
652756150000.0,7.150405442195161,19.478604972323264,-0.8396472659101692,-3.4132094,0.8249735,-2.83808,338.1579,-74.35502,1.3375014
652761233000.0,6.635089675918824,19.494288153723232,-0.6027129418983701,-3.8783834,0.19730948,-2.8341093,338.15924,-73.87768,1.0062453
652766197000.0,6.034961549584532,19.505682826142536,-0.4621765810546501,-4.255593,-0.087659165,-2.3851233,338.0981,-73.28113,0.6429382
652771564000.0,5.281062752103484,19.488354263112367,-0.3155714812015412,-4.7024407,-0.77671516,-1.7880026,338.31653,-72.51461,0.36796275
652776642000.0,2.064998201769285,18.76560037084218,-0.3040991942816702,-4.6486845,-1.4462235,-1.246776,338.57553,-71.79488,0.23257285
652781911000.0,-1.2720329356294728,18.015661367618147,-0.2921953975544546,-4.3056836,-1.6261233,-1.119716,338.88318,-71.044075,0.10341424
652786383000.0,-2.9466713195608585,17.186960671144977,0.2841990056747543,-4.148691,-1.7088956,-1.2067643,339.3147,-70.277405,0.11436562
652791205000.0,-3.5809777658211357,16.098916546420693,1.4787323640465209,-4.182289,-1.6074919,-1.359786,339.73428,-69.573265,0.13926427
652796191000.0,-3.9535578651415593,14.999548566561208,2.4978824966658557,-4.297437,-1.5482379,-1.3805555,340.13046,-68.97502,-0.16965106
652801217000.0,-3.949653184619129,13.925760607447067,3.23586760467267,-4.067446,-1.6053538,-1.3860532,340.54672,-68.472824,-0.50090855
652806667000.0,-3.926168776427223,12.773156818484225,4.012005279528904,-3.6031888,-1.6771306,-1.416902,340.99078,-67.835976,-0.879283
652811208000.0,-3.621207374206599,11.98729477964578,4.301327727600468,-3.1031954,-1.7571539,-1.4718798,341.4578,-67.28954,-1.244828
652816273000.0,-3.281055534909646,11.110749695585724,4.624035985579431,-2.6667323,-1.9758437,-1.4923438,342.03662,-66.6692,-1.5613174
652821198000.0,-2.919146537460362,10.449198414206188,4.599892723409203,-2.2837198,-2.2623394,-1.4804319,342.656,-66.19052,-1.8579973
652826193000.0,-2.541608063180889,9.842440195969276,4.461686588993024,-1.9285016,-2.634662,-1.464244,343.35593,-65.83929,-2.1176507
652831977000.0,-2.0698597207862512,9.119566304189044,4.266316159720731,-1.6206255,-2.9959886,-1.4437801,344.1564,-65.44988,-2.3017235
652836180000.0,-1.2440807447883997,8.311081106659506,3.630769062889366,-1.2999213,-3.3658676,-1.3775011,345.04245,-65.178024,-2.4243624
652841414000.0,-0.2098279821891137,7.188183490874461,2.7504341407009227,-1.01312,-3.6969564,-1.2724323,346.028,-64.94748,-2.4371884
652846175000.0,0.7937059476356554,4.934091970422417,1.0058289866503003,-0.73945236,-3.969097,-1.1774428,347.07507,-64.81566,-2.4049017
652851176000.0,1.8478275991907216,2.566372648057225,-0.826720976678236,-0.50946164,-4.1584654,-1.0592403,348.17236,-64.82613,-2.2216039
652856196000.0,2.1703553032387446,0.7840930116614862,-1.9628056342023463,-0.28496864,-4.174653,-0.8762862,349.2518,-64.92201,-2.0046718
652861210000.0,2.1366516507369897,-0.708498419482603,-2.757249374501153,0.0012217305,-4.05248,-0.6899723,350.30606,-65.10612,-1.7721747
652866187000.0,2.180705495023697,-1.875594166113744,-3.318968704028436,0.31948254,-3.800498,-0.49021935,351.40128,-65.22289,-1.3668731
652871188000.0,2.261095533086493,-2.901750630065166,-3.777665430953792,0.65484756,-3.5934148,-0.30726522,352.4553,-65.43444,-0.9275345
652876241000.0,2.6372750263719094,-3.879753752587554,-4.205433060648957,0.8604037,-3.487735,-0.18936823,353.46347,-65.7072,-0.47742343
652881197000.0,3.1564455692159203,-4.809025437080614,-4.606808653846861,0.9459248,-3.1517591,-0.11301007,354.34256,-66.04705,-0.0438844
652886175000.0,3.677267594110793,-5.803176806439996,-4.983786194831056,0.9786061,-2.6569583,0.062002823,355.1293,-66.432304,0.42432788
652891208000.0,4.203123707827561,-6.875310454030293,-5.33605855794937,1.0665708,-2.1041253,0.24281894,355.80545,-66.85917,0.86897105
652896181000.0,4.504491773367731,-7.794215082675134,-5.749484063206986,1.1884383,-1.4795157,0.36071593,356.3138,-67.297714,1.3559108
652901178000.0,4.656443611629292,-8.620452719785671,-6.21008781882318,1.3219124,-0.8359691,0.4529566,356.65552,-67.76012,1.8254601
652906199000.0,4.804933762951018,-9.14338917617416,-6.707727908405563,1.496009,-0.1441642,0.5305365,356.79742,-68.24295,2.327637
652911214000.0,4.950149400927232,-9.438661074480953,-7.230504660018141,1.7256943,0.62125,0.60048056,356.74023,-68.7694,2.7861173
652916172000.0,4.98759903956363,-9.236321162749322,-7.530730519973781,2.0091357,1.423316,0.68783426,356.47922,-69.36172,3.2347212
652921684000.0,4.948054220385804,-8.633263250959828,-7.69879588534507,2.3041837,2.209805,0.7302894,356.01443,-70.01099,3.6289508
652926203000.0,4.844583762985256,-8.120937458406601,-7.674870949905316,2.6297748,2.8686233,0.7281514,355.37405,-70.78388,4.0080595
652931290000.0,4.6501893871905855,-7.524574955092655,-7.470592119572569,2.9141326,3.3402112,0.6805039,354.57068,-71.61524,4.3497386
652936209000.0,4.4622149553969965,-6.947907537400243,-7.273059670898147,3.1517591,3.616933,0.552833,353.6659,-72.56414,4.635014
652941206000.0,4.139120083486605,-6.315224643522591,-6.7939883597560975,3.3429601,3.6975672,0.3921755,352.68973,-73.56875,4.8998075
652946182000.0,3.686586209356258,-5.638805637205119,-6.04135318902439,3.5069773,3.630372,0.21991149,351.68597,-74.6229,5.1423545
652951170000.0,3.4094593734223304,-4.959211199939321,-5.026969459951457,3.6538904,3.4440582,0.076358154,350.7129,-75.724785,5.322972
652956207000.0,3.311889810376213,-4.271345938379854,-3.734173080703884,3.7403278,3.2305608,-0.0106901415,349.7701,-76.83725,5.505019
652961213000.0,3.224668772014997,-3.3085925104691407,-2.10854731839454,3.7204747,2.9865203,-0.13194689,348.8902,-77.9033,5.6022
652966177000.0,3.146975395548933,-2.102058523582004,-0.1890613559796197,3.5659258,2.7769935,-0.3222314,348.0646,-78.93963,5.6902323
652971177000.0,3.1325760981537587,-0.3762157019030487,2.072010409850407,3.2494977,2.5415049,-0.46578476,347.2622,-79.74823,5.7862782
652976713000.0,3.2078702581992045,2.264103287682257,5.043624007638705,2.765387,2.3362541,-0.45234573,346.50912,-80.43867,5.9014354
652981359000.0,3.060053282038377,4.577801081472161,7.795415036929852,2.0635028,2.198504,-0.41141775,345.72028,-80.70177,6.013657
652986212000.0,2.5581079551011845,7.15575366016567,11.094609158571878,1.6206255,1.8503108,-0.34391713,345.04886,-80.88115,6.1650085
652991237000.0,1.7051010335506438,9.195481444426775,13.392731962951183,0.5012149,1.4193454,-0.41233405,344.36066,-80.15742,6.3641543
652996232000.0,0.4120265440849098,10.38206756145651,14.18378937430434,-0.8167268,1.0790935,-0.5849035,343.76675,-79.31071,6.5529976
653001187000.0,-0.8706929945142319,11.55915148735888,14.968511991572589,-2.1013765,0.9776898,-0.6722572,343.13947,-78.0287,6.6224475
653006208000.0,-1.4413599449301575,11.412144175962217,12.255038397146016,-3.1105258,1.031446,-0.66706485,342.60468,-76.537346,6.6487603
653011189000.0,-1.9303169993267009,11.124522084815595,9.191866555220582,-3.7531562,1.0989466,-0.6047566,342.1324,-74.85489,6.6431623
653016190000.0,-1.1876335077068083,10.652092950065176,2.749351192218992,-4.0155225,1.3261884,-0.5109888,341.71985,-73.1358,6.2877965
653021190000.0,-0.3281887919743307,10.16235340328888,-4.010973684949363,-3.8093557,1.967597,-0.38820487,341.20697,-71.39685,5.9089293
653026530000.0,1.7345143928548972,12.246897128086562,-3.999096717053547,-3.0812044,2.9177978,-0.082161374,340.73553,-70.11987,5.4601355
653031169000.0,3.608057652730048,14.243700042310182,-3.473189894441876,-1.8613064,3.0060678,0.49021935,340.31207,-69.04279,5.1381
653036180000.0,3.3505125973436,15.642730564966314,-1.7890397696631375,-0.9071349,1.1921035,0.9599747,340.18958,-68.96482,5.012917
653041141000.0,2.353660143849856,16.781337362367662,0.2412470213233883,-1.0415252,-1.0076222,1.3231341,340.0917,-68.89126,5.052276
653046231000.0,1.843795049913904,17.60037739507103,3.636729483055317,-1.318858,-2.606562,1.6542231,340.19086,-68.92631,5.6566453
653051170000.0,1.5892759207920792,18.231584465346533,7.54614441089109,-1.097114,-2.8689287,1.8096883,340.51538,-69.021996,6.379292
653056096000.0,-2.0534532807896104,17.404492925402597,2.6063520529662343,-1.4978416,-1.8506162,1.8689423,340.93512,-68.66757,7.0137153
653061102000.0,-6.546256156384417,16.224011552103896,-4.47653681095065,-2.482251,-0.7812967,1.2846496,341.45697,-68.25733,7.5111585
653066101000.0,-5.118403288943393,12.0945915427254,-7.029287801373491,-2.3154848,-0.72082096,0.21533,341.95233,-67.675285,7.861446
653071075000.0,-2.875215124968115,7.575502222505641,-8.940671029196507,-1.6820174,-0.7987063,-0.029321533,342.15863,-66.98299,8.17132
653076339000.0,0.578032218748119,4.520079892536865,-6.587577746554318,-1.4330899,-0.6976081,-0.39614612,342.7107,-67.2766,7.556964
653081081000.0,3.871617929491423,2.0601402553014347,-3.7267591616210254,-0.6563747,-0.6988298,-0.3998113,343.2629,-67.83988,7.016165
653086094000.0,4.217842559047353,0.0466731639594379,-6.440098530542376,-0.4260785,-0.6239988,-0.15302174,343.69016,-68.23436,6.80921
653091090000.0,3.973027729500419,-1.8495292382361157,-10.22360135439576,0.086437434,0.35338554,0.106901415,343.8616,-68.920456,6.512865
653096097000.0,2.914418057964419,-2.559724560684733,-12.012586995242035,1.0088439,1.8799378,0.09590584,343.6351,-69.17353,6.6897616
653101146000.0,1.4840246598262312,-2.744775371948697,-12.922836883740176,1.9065105,3.0931163,-0.04184427,343.21524,-69.54147,6.8470263
653106488000.0,1.3343439747889143,-1.2188667037747094,-11.50197132770438,2.4156666,3.6914587,-0.065973446,342.6408,-70.418236,6.9623337
653111131000.0,1.5286883691963844,0.5169820550412236,-9.699868845236912,2.5393667,3.8857138,0.040317107,341.84042,-71.426445,7.0183287
653116113000.0,1.9116829420122363,3.4404760234534333,-7.31017652467709,2.3845124,3.8927388,0.1740966,340.9894,-72.67507,6.8466654
653121146000.0,2.3563761815771587,6.745249156220258,-4.744998513936098,2.314874,3.6942077,0.43218717,340.11316,-73.94666,6.759592
653126160000.0,2.661133217902532,9.805446583208246,-3.5347194989292503,2.532342,3.30753,0.816116,339.21848,-75.03993,6.778201
653131124000.0,2.9037533500750525,12.735916885619933,-2.9115187809066345,3.116329,2.8707612,1.0369438,338.3868,-76.16917,6.859185
653136145000.0,2.7346546279470862,14.50024122371065,-2.069860240396852,3.9718459,2.437047,1.0180069,337.59717,-77.106026,7.035681
653141237000.0,2.3794500689048896,15.757746946416612,-1.122648033213329,4.7262645,1.8591684,0.945314,336.9655,-78.051956,7.3043227
653146145000.0,1.382566062263952,16.828191928578963,-0.4384862057759257,4.972443,1.323745,0.80909103,336.4606,-78.95696,7.542485
653151200000.0,-1.1046202727397405,17.614694253718746,-0.244414175419348,4.6660943,1.2443326,0.5696318,335.99902,-79.79184,7.744333
653156191000.0,-3.069433317416613,18.206097014044165,-0.1958922926739351,4.338365,1.4825699,0.40530908,335.59842,-80.5029,7.825194
653161196000.0,-4.3714738243463,18.54710847851797,-0.342039693870461,4.347528,1.6887369,0.30024028,335.23523,-81.11047,7.868982
653166200000.0,-5.342560860555126,18.52466967643481,-0.3466162364701979,4.434576,1.7577647,0.20586158,334.91357,-81.940125,7.4692397
653171202000.0,-5.374344330775185,17.47051324936415,0.0506788172796638,4.495052,1.7415768,0.14996742,334.55856,-82.65393,7.0802984
653176278000.0,-4.85505038140681,16.089286531063323,0.5808027226403824,4.532009,1.6716328,0.15577064,334.24097,-83.45126,6.4914846
653181233000.0,-3.71762225047043,14.384916009856632,1.2434166095878136,4.5879035,1.484708,0.24678956,333.96164,-95.95913,5.954602
653186135000.0,-2.592360353830645,12.698775889784947,1.8989430018817204,4.660902,1.1951579,0.4801401,333.7298,-95.6303,5.489553
653191209000.0,-2.158268227258099,12.13967349892727,2.3019748254559107,4.7006083,0.82650065,0.7867944,333.58197,-95.57657,5.0968285
653196118000.0,-1.9565410293499248,11.953075152327829,2.6096089852606736,4.619363,0.45662177,1.0369438,333.525,-95.77267,4.772965
653201271000.0,-1.9301991302489017,13.48641546237189,2.5525653450951684,4.490776,0.14019357,1.1505647,333.5395,-96.138664,4.7211194
653206132000.0,-1.925655174680332,15.122240890483162,2.457142183260127,4.322788,-0.05589417,1.1438452,333.63123,-96.546524,4.700688
653211241000.0,-1.8162836524726604,16.25361253556566,2.5225706138294783,4.1926737,0.043676864,1.0607675,333.73682,-96.848946,4.689501
653216169000.0,-1.6929649951224233,17.244729053130744,2.613917839843221,4.1615195,0.4654793,0.958753,333.80383,-97.14178,4.6734986
653221232000.0,-1.7090533437236328,17.79088260741861,3.319694275730319,4.226271,1.0500773,0.8536842,333.76294,-97.51028,4.640527
653226466000.0,-1.7649118265860066,18.22578038772586,4.217419848523442,4.2073345,1.4422529,0.71868294,333.65656,-97.84368,4.5808177
653231233000.0,-1.7960186771000537,18.23565600321027,5.103768902568219,4.034154,1.5531249,0.643852,333.4521,-98.147415,4.5263424
653236240000.0,-1.7806250319957198,17.306909743178167,6.201845794542536,3.7626245,1.4587462,0.61819565,333.20154,-98.42213,4.4614563
653241138000.0,-1.546173377425743,16.310700987270156,7.02548582970297,3.4532213,1.1585059,0.5662721,332.9623,-98.46527,4.3421245
653246736000.0,-0.9142667033663366,15.026666005657708,7.551232253465346,3.140458,0.782213,0.5580254,332.78415,-98.46872,4.2332797
653251133000.0,-0.4503571158082498,14.037820870251265,7.858906211645656,2.7543914,0.6218608,0.66645396,332.54938,-98.53506,4.217149
653256238000.0,0.006633378283166,12.939366362061572,7.951142717734328,2.2782218,0.73975784,0.8176431,332.3502,-98.512535,4.2112374
653261713000.0,0.4677369988958116,11.77927059743856,8.052658964131187,1.8527542,0.93523467,0.8399397,332.10144,-98.50373,4.3220024
653266260000.0,0.4451275804569055,11.06707409761163,8.173242799325026,1.5280794,1.03786,0.8332202,331.85104,-98.423,4.465249
653271134000.0,0.4208921932848736,10.303659595707858,8.3024984871928,1.3170254,1.0528263,0.8414669,331.5205,-98.36604,4.7203026
653277270000.0,0.2584171147913374,9.52650628422716,8.07871648621619,1.1969905,1.0980303,0.96974856,331.15402,-98.28522,5.007018
653281195000.0,0.1186681957003438,9.079309827772098,7.830662031341203,0.7519751,1.099252,1.0198395,330.79102,-98.09143,5.2672863
653286208000.0,-0.4697474958192956,8.205898639280244,7.553495103854007,0.5870415,1.0635164,1.0919216,330.40665,-98.018265,5.581166
653291200000.0,-1.470311129019908,7.03043948338438,7.317589891807044,0.24587326,0.9437868,1.1215485,330.04013,-97.85335,5.889124
653296201000.0,-2.467921964555102,5.941513303102041,7.076972757697959,-0.09682214,0.82344633,1.1172725,329.68823,-97.73485,6.1750793
653301190000.0,-3.435196737510204,5.375969630204082,6.811752141795918,-0.42210788,0.7296785,1.073901,329.35538,-97.60652,6.451239
653306132000.0,-4.393359080253061,4.815753789061224,6.549030096538775,-0.7330383,0.6789767,0.9611965,329.10474,-97.37645,6.539083
653311212000.0,-5.397393452052955,4.164245182118189,5.990211684142364,-1.0106765,0.69058317,0.79320854,328.85452,-97.131836,6.5953016
653316202000.0,-6.39221821509977,3.4903317039907904,5.311713619579816,-1.2257011,0.8206975,0.5919284,328.57623,-96.8873,6.607786
653321207000.0,-7.252771016204427,2.8031954596905604,4.584225999374537,-1.4025466,0.9841039,0.37384954,328.35913,-96.48246,6.373767
653326210000.0,-8.025621165377334,2.109207635338655,3.827148413982388,-1.5204436,1.1322387,0.12614368,328.1051,-96.08757,6.0756726
653331211000.0,-8.64126156134148,1.5394701438006315,3.08484426236441,-1.5757269,1.2770138,-0.16065755,327.8816,-84.4712,5.5190573
653336254000.0,-8.55173896347659,1.526207462336949,2.4018192483180005,-1.5775595,1.3912456,-0.4373795,327.62863,-84.982056,4.9089937
653341129000.0,-8.465198677021831,1.5133866072634905,1.7415481907181103,-1.5882497,1.3720033,-0.655153,327.46878,-85.59984,4.1000433
653346173000.0,-8.084861552609752,1.5301471788994538,1.3139076887113088,-1.6261233,1.1606439,-0.8185594,327.33752,-86.108795,3.2436445
653351261000.0,-6.862501873710298,1.6336534447299211,1.6194975183694114,-1.6676621,0.73761976,-0.9245446,327.2796,-86.420135,2.360652
653356162000.0,-5.691628422720045,1.644045068618464,1.9024271768871013,-1.709201,0.113926366,-0.9425651,327.37097,-86.558426,1.4682568
653361212000.0,-4.501895422532972,1.4269074916845943,2.1648018139650174,-1.7470746,-0.65240407,-0.8604037,327.62454,-86.412025,0.59426105
653366215000.0,-3.400395288653268,1.2104695973255262,2.388720026902991,-1.8225164,-1.0467176,-0.75655663,327.8556,-86.019936,-0.033788938
653371257000.0,-2.7164864479664503,0.98504711535053,2.4154650083082765,-1.8723019,-1.7724255,-0.7165449,328.4011,-85.54107,-0.62334216
653376186000.0,-2.0479051953394523,0.7646767437410982,2.441610588107295,-1.9764545,-2.4104743,-0.6282749,328.92047,-85.08084,-0.89280665
653381269000.0,-1.4855542943580953,0.6770456011047619,2.157984699047619,-2.1163425,-2.9254336,-0.50335294,329.605,-84.61049,-1.1204623
653386215000.0,-1.0118854224933331,0.6725344722666667,1.7023603566666663,-2.293799,-3.3099732,-0.34269542,330.42337,-84.12269,-1.2965592
653391202000.0,-0.5916564263861138,0.8180283234522662,1.232670751702025,-2.5231788,-3.6102135,-0.14080444,331.28925,-83.62978,-1.2740357
653396210000.0,-0.2216610612513019,1.10014977780135,0.7516768121841853,-2.7724118,-3.859141,0.086132,332.22977,-83.108696,-1.1919684
653401205000.0,0.0223747982209218,1.313393611470942,0.2669322892785571,-3.0586023,-4.061643,0.3145956,333.24432,-82.466354,-1.0136735
653406201000.0,0.1144226897274549,1.4437947781563127,-0.2239897888777554,-3.3918293,-4.1657953,0.49235737,334.28055,-81.75716,-0.778061
653411385000.0,0.209934352972024,1.5791029543166335,-0.7333853159318635,-3.7210855,-4.1190643,0.58246,335.33444,-80.96272,-0.4635196
653416175000.0,0.0779370218520478,1.883015266204506,-1.600306880178783,-4.014301,-3.8261545,0.57879484,336.33157,-80.09312,-0.12678632
653421370000.0,-0.0672831134877314,2.214298705545928,-2.5442378115388125,-4.286747,-3.297756,0.5021312,337.2348,-79.14722,0.20504525
653426183000.0,0.4163826292027101,3.674253996293124,-1.843737088513356,-4.5356746,-2.6282477,0.40561453,338.04355,-78.17924,0.5150962
653431990000.0,1.2002674672175064,5.809365750767075,-0.4881792453391482,-4.6599855,-2.0308216,0.18203785,338.727,-77.188,0.74646
653436235000.0,1.8560474247012757,7.633658296756703,0.9040624780500052,-4.6718974,-1.709201,-0.12858713,339.41827,-76.20306,0.8724921
653441205000.0,2.9361620692439,10.764079294648058,4.048820720745055,-4.641965,-1.7702875,-0.41874814,340.0609,-75.211914,0.9385936
653446192000.0,3.8439908849911713,13.537560763474312,6.107706024131843,-4.7122145,-1.856114,-0.5494733,340.34558,-74.655785,1.0592526
653451195000.0,4.053480835550324,14.85492979105356,3.803316862448499,-4.7314568,-1.5848899,-0.37232238,340.5426,-74.13092,1.158403
653456207000.0,4.263347641907004,16.174668660977044,1.4947822875220729,-4.263534,-0.70952,0.15668693,340.52502,-73.09865,1.4736828
653461180000.0,3.919492352866598,17.005079546751187,0.8283371101183928,-3.1923819,-0.15668693,0.61758476,340.50858,-72.26703,1.8067667
653466247000.0,3.4490278978092666,17.746965435816165,0.502631030316025,-2.2134702,0.6038403,0.57543504,340.19092,-71.57079,2.0417519
653471170000.0,4.5018612425264255,18.206240817768848,0.8689987882833929,-1.9596558,0.87689704,0.42241332,339.88776,-71.601395,2.3305569
653476267000.0,6.318436049951952,18.55591051314755,1.5768659449392854,-2.019826,0.94989544,-0.02443461,339.45474,-71.784584,2.470342
653481221000.0,7.882231489002932,18.54022097214076,1.975420012316716,-2.5445592,1.0567969,-0.5714644,339.03845,-71.90875,2.4476964
653486182000.0,9.1408194884653,17.982912513000976,1.9336219142521995,-2.993545,1.2596041,-1.1899655,338.6145,-72.01517,2.2736373
653491172000.0,9.842704939147447,17.733112571252057,2.017174116824547,-3.2650747,1.6313156,-1.6514742,338.15073,-71.739075,2.206054
653496196000.0,9.4364714482084,18.094758838138382,2.349096378109555,-3.5976908,1.6255124,-2.043955,337.78207,-71.33622,2.0005698
653501174000.0,9.096447786401326,18.41127871111111,2.5191861032504144,-3.7250562,1.2000448,-2.2821925,337.48523,-70.75902,1.8591715
653506204000.0,8.848801200165838,18.66691448888889,2.447288676301824,-3.6780195,0.70432764,-2.300213,337.23602,-70.15645,1.6762906
653511216000.0,8.60204082437811,18.921635466666668,2.375648536368159,-3.6798522,0.2565634,-2.3228152,337.12375,-69.52447,1.422081
653516171000.0,6.392146643303612,19.127178288840856,1.858052409087634,-3.722002,0.00580322,-2.2644775,337.09125,-68.90554,1.2140689
653521173000.0,4.144325060524182,19.334271360443125,1.3316911336665769,-3.709479,0.08155051,-1.9837849,337.07394,-68.311844,1.0700258
653526214000.0,1.8370538256951596,19.408791500085822,1.7196976397356676,-3.4168746,-0.099265605,-1.8133535,337.21875,-67.796715,0.9291734
653531234000.0,-0.4734782062306903,19.441799335650533,2.388101506196361,-3.116329,-0.62796944,-2.0305161,337.4487,-67.300964,0.7898315
653536204000.0,-2.225730263312548,18.967181780302383,3.003669209062953,-3.4196236,-0.915687,-2.1499403,337.61963,-66.84652,0.492817
653541203000.0,-3.3053286849918853,17.842600215597507,3.563915213812249,-3.9736784,-1.2605205,-2.071444,337.94647,-66.40465,0.2614452
653546190000.0,-4.338004671004685,16.653060418532014,4.12825164544508,-4.2610908,-1.6688838,-1.9834795,338.35318,-65.9554,-0.17777814
653551182000.0,-4.945240802186361,14.811441714940136,4.745442827704321,-4.2342124,-1.8790215,-2.0109684,338.80948,-65.436,-0.59252685
653556219000.0,-5.428181444313494,13.04843028049499,5.353525364172068,-3.9782598,-2.0109684,-2.0925188,339.41245,-64.681816,-1.0673736
653561181000.0,-5.311504756040071,11.746317562168532,5.8855714525633465,-3.5198054,-2.0683897,-2.1444426,340.05038,-64.007065,-1.5085386
653566233000.0,-5.160753327102803,10.468738704672898,6.367144573644859,-3.2501085,-2.2085834,-2.1346686,340.7955,-63.153805,-1.9707596
653571889000.0,-4.778781109600679,9.359638431435854,6.505206860883603,-2.6988027,-2.425746,-1.9431623,341.55615,-62.52815,-2.3688986
653576214000.0,-4.486696625743415,8.511537532965166,6.610779596440103,-1.9801197,-2.547308,-1.8784106,342.36813,-61.86325,-2.776757
653581181000.0,-3.774140706375477,7.991861413083929,6.248605276926844,-1.7507398,-2.9407053,-1.8148806,343.2754,-61.233753,-3.0611258
653586190000.0,-2.9520086946528257,7.592540459994124,5.750628019351679,-1.3029755,-3.2717943,-1.6584991,344.17255,-60.88416,-3.293537
653591203000.0,-1.921406671889424,7.055826069822253,4.838963865187076,-0.9379836,-3.5439348,-1.4822645,345.1578,-60.471924,-3.423827
653596176000.0,-0.8269985911912012,6.475883336639497,3.791325401492684,-0.6032294,-3.7797287,-1.3811663,346.19824,-60.189316,-3.4935796
653601165000.0,0.2449255748805257,5.901761705117483,2.6468428618080444,-0.3491095,-4.0787473,-1.2858714,347.30795,-60.012367,-3.3944557
653606192000.0,1.313802636006571,5.326581263968539,1.4533433726005571,-0.13775012,-4.3863177,-1.1181889,348.4422,-59.931286,-3.2256076
653611270000.0,1.703870381218198,4.586764628120323,0.4828899210191559,0.09437868,-4.5503354,-0.9266826,349.55832,-60.050774,-2.9175808
653616159000.0,1.7949618458246035,3.808983627327148,-0.3544507991319965,0.38606682,-4.470923,-0.7699956,350.65002,-60.254242,-2.5881693
653621331000.0,1.880561327161927,2.899743662275102,-1.2339852219965175,0.75991637,-4.233296,-0.623388,351.7668,-60.53536,-2.1037538
653627354000.0,1.735493719210679,-0.124357737792609,-2.1155497909847165,1.1737776,-3.9507709,-0.49235737,352.81912,-60.916203,-1.6177598
653631516000.0,1.6462585555484284,-2.173922921103271,-2.716483645670301,1.543351,-3.730554,-0.38820487,353.88226,-61.38376,-1.0992613
653636198000.0,2.0541437805761267,-2.626257141361012,-3.011938922724357,1.7296649,-3.470631,-0.33475417,354.85437,-61.92183,-0.6142338
653641507000.0,2.5166518240772056,-3.139166661939472,-3.3469607223569886,1.7760907,-3.0396655,-0.27366763,355.72357,-62.455208,-0.16972958
653646203000.0,2.9257566973642777,-3.5928534407370694,-3.643299462435128,1.8188512,-2.499355,-0.16493362,356.48767,-63.044487,0.24667801
653651225000.0,3.513574905990437,-4.289045745570451,-4.1505020351082775,1.9165897,-1.8442022,0.017715093,357.0968,-63.66491,0.6230332
653656074000.0,4.2101221869410335,-5.142316097684447,-4.803515233167714,2.043955,-1.466382,0.23304509,357.6224,-64.30666,0.99976903
653661071000.0,4.859743110376734,-6.163558093522802,-5.678782826701917,2.1163425,-0.57635134,0.32895094,357.83,-64.96758,1.350289
653666121000.0,5.397818440846001,-7.442153508261732,-6.914758310839392,2.312125,0.44104472,0.5112942,357.86914,-65.694145,1.7248906
653671117000.0,5.670415013496933,-7.829154593290486,-8.149456813789074,2.5662448,1.4743233,0.61117065,357.659,-66.476616,2.1183221
653676089000.0,5.73996810797546,-7.532395817752459,-9.387497596026876,2.8964176,2.3952026,0.6792821,357.19208,-67.32791,2.4625793
653681119000.0,5.592460182553779,-6.673495761495954,-9.691042417604104,3.2244523,3.1477885,0.7467828,356.48465,-68.31387,2.8333333
653686106000.0,5.234287090862443,-5.278506276100257,-9.068952797908032,3.520722,3.67466,0.77946407,355.586,-69.37633,3.1625493
653691100000.0,4.782111546365423,-3.963136466561886,-8.225116964833006,3.7259727,3.9516873,0.7538077,354.595,-70.68597,3.4689646
653696101000.0,4.226959772003929,-2.735215882436149,-7.138336292632612,3.8563924,4.012163,0.7263188,353.51328,-72.04373,3.7853541
653701063000.0,3.763023368014817,-1.8845538046114303,-6.112108593831267,3.8954878,3.8887682,0.6942484,352.42203,-73.41131,4.048514
653706142000.0,3.4026681260356817,-1.498458960084669,-5.13032453208346,3.887241,3.6767979,0.6719518,351.33688,-74.778435,4.343939
653711108000.0,3.0503302383277893,-1.1209541367100089,-4.170383667614152,3.8386772,3.4428365,0.6365216,350.2948,-76.0461,4.5730963
653716160000.0,2.9265248541857947,-0.1961267567854746,-2.3746296737814,3.7836993,3.200323,0.6026186,349.31427,-77.270485,4.843247
653721568000.0,2.857067215809563,0.9392388388817252,-0.2321280287615414,3.6829066,3.0289752,0.4700608,348.38684,-78.42839,5.1161523
653726135000.0,2.798410959436736,1.8980433276783415,1.5771924247898077,3.5188892,2.9352076,0.26236662,347.4853,-79.378105,5.324031
653731086000.0,2.734822799747253,2.9374654919069485,3.5386431726620926,3.2623258,2.8283062,0.05131268,346.64194,-80.23391,5.5272255
653736128000.0,2.9595745115680976,5.0536654634444105,6.760595982167517,2.8469374,2.6847527,-0.032375857,345.83847,-80.95145,5.7353716
653741102000.0,3.207450190403282,7.2368784010007,10.049715974482138,2.2479842,2.324953,-0.0076358155,345.1313,-81.510475,5.945441
653746100000.0,2.767616121898222,8.083460823553757,12.310690246355,1.4984524,1.7901406,-0.025045475,344.35965,-80.88062,6.1875505
653751181000.0,2.259551728567397,8.824960198081083,14.516879946383218,0.60994893,1.2721269,-0.20769419,343.71304,-80.14944,6.393193
653756958000.0,1.4622582083666114,9.179921951105484,15.24978745875134,-0.39522982,0.9651671,-0.4654793,343.03326,-79.15376,6.629919
653761182000.0,0.8476113255770918,9.369044176487776,15.529530467614688,-1.3817772,0.9447031,-0.56321776,342.4394,-77.99852,6.8426843
653766332000.0,-0.0199018744766101,9.653670699589302,13.82603276820595,-1.8069394,1.0671816,-0.6282749,341.8722,-76.65535,6.8818407
653771134000.0,-0.8629122392367022,9.934674042271862,11.647104223680255,-2.4330764,1.3469579,-0.54305923,341.294,-75.05657,6.894935
653776221000.0,-1.228950698421753,9.417182448564366,7.676663490473475,-2.7189612,1.8368717,-0.3830125,340.69073,-73.54034,6.709382
653781328000.0,-1.4242508658109907,8.631331777334095,3.147558850256704,-2.6520715,2.5534167,-0.17073683,339.96756,-71.97739,6.499199
653786330000.0,-0.2989343022633244,8.527809926746167,0.5191332566561206,-2.243097,3.4336736,0.06811147,339.2317,-70.82585,6.0674543
653791262000.0,1.4061521606230227,8.727056005110732,-1.2549230272085663,-1.4902058,3.8566978,0.5329799,338.40823,-69.76792,5.7246027
653796143000.0,3.0788252769769566,9.381856652827125,-1.9867816101411029,-0.711658,2.357329,0.9605856,338.03534,-69.38436,5.4852643
653801203000.0,4.746420316871384,12.116909159171655,1.8550822288600133,-0.7669413,-0.355829,1.475545,337.83112,-68.939064,5.488652
653806152000.0,5.446768055728688,14.5909212738769,4.58352010882561,-1.3267993,-2.8136454,2.244319,337.7347,-68.752365,6.1234794
653811218000.0,2.722349532449593,16.380027916430844,3.5709801941103643,-1.4504995,-4.7723846,2.3930645,338.25925,-68.6631,6.938803
653816576000.0,-0.2076154938437576,18.069154145831625,2.366926653414214,-1.4541647,-5.0255885,1.8964312,338.84473,-67.94671,8.11434
653821201000.0,-3.882034933142061,14.732403746208709,-1.815811920444299,-2.5042422,-3.026532,1.788308,339.28433,-66.86899,9.336376
653826934000.0,-8.436726099736044,10.596276169768014,-7.000599000213132,-3.2888985,-0.36651915,0.8078693,340.02078,-66.54207,9.52024
653831229000.0,-8.492460540213816,7.013258190699013,-8.179795296258224,-2.601675,0.27305678,-0.28496864,340.77454,-66.36362,9.642267
653836191000.0,-6.1330634091282885,2.5240528529194077,-7.588724590254935,-1.8451185,-0.29993483,-0.6032294,341.1466,-66.026024,9.578693
653841202000.0,-3.2135018555864745,-0.5114631662669703,-6.997661839109537,-1.4666874,-0.6035349,-0.43218717,341.68307,-66.48125,8.689031
653846184000.0,0.0815348861961373,-2.4345738294324986,-6.414291442448773,-0.9682214,-0.47983465,-0.23793201,342.23538,-67.15384,7.7584386
653851202000.0,2.6088868822004354,-4.095320052418301,-6.397342353594771,-0.3839288,0.07727446,0.055588737,342.49384,-67.49919,7.328401
653856201000.0,2.0699950815395787,-4.682885957995643,-8.584200101525054,0.50976706,0.6835582,0.35643986,342.67758,-68.04839,6.928965
653861204000.0,1.530672081198257,-5.270922010326798,-10.772807685620917,1.0516045,1.8839084,0.4007276,342.31885,-68.252045,7.083062
653866193000.0,1.0766997713922564,-4.504368722135315,-10.99628614822057,1.9110919,2.499355,0.3594942,341.9328,-68.7577,7.3039684
653871233000.0,0.7211931153109111,-2.0661594597184205,-8.81290920023465,2.28036,2.5079072,0.29138273,341.38565,-69.27125,7.4796233
653876215000.0,0.3697776072558987,0.3439910453135182,-6.654658415539043,2.3350325,2.2336287,0.310625,340.86316,-70.29789,7.5420337
653881228000.0,0.1891913734513274,3.2960599769911503,-4.495675178761061,2.332589,2.047315,0.4083634,340.31323,-71.40017,7.609772
653886444000.0,0.2857329119804699,7.233938308635947,-2.2701386573085136,2.4538457,1.9343048,0.6065892,339.8097,-72.520546,7.7402596
653891194000.0,0.657054853607363,10.206125407291571,-1.3363423661871143,2.6572638,1.7614299,0.93309665,339.33716,-73.43286,7.7771115
653896858000.0,1.5343659698114558,12.808977104548298,-1.8985970328299528,3.0314188,1.4544702,1.2858714,338.921,-74.36829,7.902317
653901222000.0,1.8895685571352905,14.57229960434322,-2.231690202542373,3.728416,1.0027353,1.4208726,338.56686,-75.248634,7.9880347
653906491000.0,0.8586778071307506,15.599372266949151,-2.1782366440677965,4.39487,0.4886922,1.1597277,338.32315,-76.16834,8.0861435
653911201000.0,-0.0628434364679177,16.517480492584745,-2.130454093220339,4.711298,0.17256944,0.6383542,338.17416,-77.18872,8.250703
653916259000.0,-0.872941095252644,17.274579254994126,-1.9922909931844888,4.665178,0.17806722,0.32375857,338.08057,-78.16654,8.408887
653921273000.0,-1.5249691968742658,17.832564984723856,-1.782262657448753,4.510018,0.52106804,0.11362094,337.99615,-79.13183,8.451973
653926201000.0,-2.1658137291421857,18.38098015746181,-1.5758367223658445,4.4990225,0.77396625,-0.17592919,338.00366,-80.28343,8.117707
653931226000.0,-2.155836180176212,18.075527281938324,-1.2707198801321586,4.5365906,0.8689558,-0.47219884,337.94977,-81.32373,7.736197
653936188000.0,-1.420821216417034,16.82879260058737,-0.8659964413127754,4.5934014,0.89461213,-0.57451874,337.83255,-82.22124,7.345327
653941197000.0,-0.677432463205856,15.536422806792151,-0.4217409615317199,4.7015243,0.9636399,-0.37415496,337.691,-83.08898,6.7945485
653946211000.0,0.0685913387959367,14.1974056686585,0.0708260343113236,4.7522264,1.0100657,-0.034513887,337.54077,-83.70763,6.2923746
653951245000.0,0.6886373668976067,13.084265244736368,0.3987636325607342,4.731151,1.0839803,0.2947425,337.31915,-96.1204,6.0085335
