timestamp,acc_x,acc_y,acc_z,gyro_x,gyro_y,gyro_z,ori_azimuth,ori_pitch,ori_roll
805138761000.0,0.9799137736183878,10.147082462380874,-0.0359496919565336,-3.082426,-9.666637,-8.182235,233.83807,-79.193695,0.017889973
805143759000.0,0.9756171690648952,10.144218076958754,-0.0407236958251173,-3.082426,0.75533485,0.035124753,230.59077,-79.5491,2.3290544
805148788000.0,0.9712939149033276,10.141335925240496,-0.0455273103619535,-1.1887437,0.75961095,0.03359759,233.81787,-79.53541,0.78923786
805153682000.0,0.9670867154866024,10.13853114287638,-0.0502019752144642,-1.1951579,0.7440339,0.035430185,233.70905,-78.66724,1.0545399
805158649000.0,0.9628167605411848,10.135684523750394,-0.0549463684147953,-1.1792754,0.7339546,0.031154128,233.60042,-78.35162,1.3073176
805163682000.0,0.9584900677205108,10.13280007960683,-0.0597538036830189,-1.1603385,0.74006325,0.026267206,233.49411,-78.040726,1.5500203
805168656000.0,0.9542140951216568,10.129949448736555,-0.064504883163278,-1.1585059,0.74036866,0.030848695,233.39435,-77.73522,1.7853023
805173648000.0,0.949922648556824,10.127088501952397,-0.0692731559347805,-1.1630874,0.73853606,0.03268129,233.29628,-77.43964,2.0089583
805178842000.0,0.9454575497071158,10.124111787690191,-0.0742343756413479,-1.1716396,0.72204274,0.03634648,233.20406,-77.14939,2.2264488
805183655000.0,0.941319983137296,10.121353426938557,-0.0788316706832633,-1.1453724,0.7110472,0.03726278,233.11298,-76.87411,2.4350204
805188651000.0,0.9370250979133564,10.118490187729089,-0.0836037641861532,-1.1276573,0.79259765,0.053145275,233.00146,-76.59949,2.635779
805193647000.0,0.9327302126894172,10.115626948519624,-0.0883758576890431,-1.2421945,0.7678576,0.055283304,232.92548,-76.302246,2.8326516
805198665000.0,0.9284164148403924,10.11275110097096,-0.0931689652145639,-1.2428054,0.7602218,0.057421334,232.823,-76.04704,3.0201077
805203722000.0,0.9240690900650798,10.10985290227555,-0.097999324871112,-1.235475,0.75136423,0.06047566,232.7294,-75.768906,3.2027075
805208694000.0,0.919794836795779,10.10700341761793,-0.1027484939856774,-1.2275337,0.7302894,0.06291912,232.64293,-75.497734,3.3800297
805213761000.0,0.9154389153727004,10.104099487859248,-0.1075884054706941,-1.2266175,0.70463306,0.07849618,232.5607,-75.23243,3.5560312
805218716000.0,0.911179276404602,10.101259746009186,-0.112321336476863,-1.2299771,0.68508536,0.099265605,232.48361,-74.97429,3.7287343
805223694000.0,0.9068998651466416,10.098406822713605,-0.1170762366885095,-1.2281445,0.634689,0.10598512,232.42354,-74.7244,3.8995662
805229103000.0,0.9022499383699626,10.095306890591104,-0.1222428207071508,-1.1777482,0.5534439,0.1133155,232.37729,-74.49202,4.0738225
805233738000.0,0.898265392130379,10.092650542765668,-0.1266700932023259,-1.072374,0.47494772,0.111177474,232.34561,-74.28197,4.244871
805238709000.0,0.8939919985258549,10.089801631214376,-0.1314183071340445,-0.95539325,0.39064834,0.09987647,232.33923,-74.09514,4.4161515
805243694000.0,0.8897065696144582,10.086944696174504,-0.136179893625619,-0.8042041,0.29810223,0.099571034,232.35715,-73.95099,4.5909944
805248722000.0,0.8853841751176673,10.084063117562572,-0.1409825529796083,-0.6808093,0.23609942,0.092240654,232.39214,-73.83674,4.759778
805253747000.0,0.8810643596152062,10.081183258269624,-0.145782346785057,-0.55771995,0.011911872,0.046731193,232.50145,-73.769844,4.932469
805258745000.0,0.8767677550617137,10.078318872847504,-0.1505563506536407,-0.13836098,-0.13041973,0.0143553335,232.60559,-73.81826,5.1006308
805263821000.0,0.8724040966556454,10.07540978513188,-0.1554048587842791,0.1301143,-0.111177474,0.011911872,232.72842,-73.86076,5.265077
805268748000.0,0.8681685283012921,10.072586090258971,-0.160111044670736,0.09560041,-0.09712757,0.0125227375,232.8948,-73.93461,5.4286904
805273741000.0,0.8638762220716826,10.069724570368487,-0.1648802726250854,0.06261369,-0.08827003,0.013439035,233.0583,-74.07618,5.5868163
805280149000.0,0.858367490183171,10.066052105025358,-0.1710010843077352,0.06719518,-0.0888809,0.0143553335,233.22125,-74.213394,5.74107
805283787000.0,0.8552400297258669,10.063967144207895,-0.1744760395045955,0.106901415,-0.087964594,0.01282817,233.38205,-74.346664,5.890541
805288743000.0,0.8509795310929918,10.061126829251508,-0.1792099256936112,0.102319926,-0.08827003,0.016187929,233.54352,-74.46424,6.038264
805293790000.0,0.8466408029654454,10.058234361619366,-0.1840307335216908,0.09865474,-0.08307768,0.0143553335,233.70422,-74.58859,6.180299
805298807000.0,0.8423278647811971,10.055359087177033,-0.1888228858643647,0.10781772,-0.0729984,0.014966198,233.86374,-74.7099,6.32032
805303811000.0,0.838026102239045,10.052491263116949,-0.1936026208300295,0.112399206,-0.07147124,0.0143553335,234.02484,-74.82504,6.4565377
805308796000.0,0.8337406733276482,10.04963432807708,-0.198364207321604,0.102319926,-0.05467244,0.016493361,234.17899,-74.93404,6.588881
805313852000.0,0.8293942082171123,10.046736702487994,-0.2031936117953053,0.09162979,-0.063224554,0.022907447,234.3399,-75.03939,6.7208505
805318744000.0,0.8251887281299403,10.04393306633653,-0.2078663662821222,0.0852157,-0.067500606,0.025045475,234.49542,-75.13955,6.8478804
805323768000.0,0.8208697722922558,10.041053780149907,-0.2126652049047241,0.07391469,-0.070554934,0.025350908,234.6529,-75.23143,6.9737754
805329006000.0,0.8163668481923769,10.038051849209316,-0.2176684526565531,0.059253927,-0.06658431,0.021380283,234.8099,-75.317635,7.0960627
805333968000.0,0.8121011915708423,10.035208095614967,-0.2224080699426499,0.05009095,-0.07422013,0.021991149,234.97078,-75.39843,7.2178793
805338803000.0,0.8079447123759369,10.03243712652414,-0.2270263790071962,0.037873644,-0.074830994,0.018020526,235.12912,-75.473015,7.3339467
805343736000.0,0.8037039860329239,10.02960999301327,-0.2317382959907342,0.040927973,-0.08307768,0.01863139,235.2915,-75.55337,7.4426856
805349553000.0,0.7987033160273884,10.026276233509371,-0.2372945946108925,0.040011674,-0.09712757,0.013439035,235.45604,-75.628334,7.546743
805353773000.0,0.7950755306700977,10.023857724809623,-0.2413254662246226,0.05131268,-0.110872045,0.0012217305,235.6229,-75.70527,7.647187
805358766000.0,0.7907832244404881,10.020996204919136,-0.2460946941789719,0.058337633,-0.10995574,-0.0070249503,235.78922,-75.77849,7.74507
805363821000.0,0.7864376189947287,10.01809915243638,-0.2509231434698264,0.059864793,-0.109650314,-0.004276057,235.95917,-75.85059,7.841428
805368761000.0,0.7821908749982796,10.015268007181222,-0.2556417467332924,0.06261369,-0.106595986,-0.003970624,236.12816,-75.92369,7.9326463
805373841000.0,0.777823777933105,10.01235662704029,-0.2604940755953182,0.06811147,-0.09896017,-0.01038471,236.29541,-75.99585,8.0205765
805379224000.0,0.7731962024406178,10.009271595682293,-0.2656358248599412,0.06536258,-0.087659165,-0.008552114,236.45964,-76.06278,8.108686
805383808000.0,0.7692554991046414,10.00664447627953,-0.2700143830299267,0.086132,-0.095294975,-0.0061086523,236.62683,-76.13485,8.194058
805388746000.0,0.7650104744377453,10.003814477237023,-0.2747310759276991,0.0852157,-0.09590584,-0.0012217305,236.78796,-76.198074,8.277899
805393737000.0,0.7607198875376889,10.000954103559192,-0.2794983935163547,0.09193522,-0.0870483,-0.004886922,236.94832,-76.26633,8.35824
805398774000.0,0.7563897560579086,9.99806736699032,-0.2843096495159657,0.09315695,-0.070554934,-0.0030543262,237.10547,-76.32886,8.439448
805403788000.0,0.7520793968679902,9.995193811866969,-0.2890989363100991,0.09590584,-0.07666359,-0.008246681,237.26648,-76.39271,8.516779
805408955000.0,0.7476375089672507,9.992232571475592,-0.2940343660798013,0.087659165,-0.054367006,-0.009162978,237.41382,-76.45093,8.591889
805413828000.0,0.7434483625108342,9.98943982434434,-0.298688972092528,0.089186326,-0.038789943,-0.009162978,237.56436,-76.51035,8.665003
805419100000.0,0.7389162098085507,9.986418407788632,-0.3037246960611501,0.08155051,-0.026267206,-0.0076358155,237.70877,-76.56365,8.735873
805423747000.0,0.7349213475916478,9.983755182687272,-0.3081634307504874,0.07544186,-0.01863139,-0.008857546,237.8497,-76.61601,8.804052
805429103000.0,0.7303169830481292,9.9806856252001,-0.3132793900782453,0.06505715,-0.010079277,-0.011301007,237.9862,-76.66377,8.870303
805433809000.0,0.7262714006094064,9.97798858682545,-0.3177744805555472,0.049785517,0.0027488936,-0.005192355,238.11838,-76.70593,8.936741
805438748000.0,0.7220255162777338,9.97515801467662,-0.3224921286361664,0.05589417,0.022907447,0.0012217305,238.2455,-76.74907,9.000569
805443739000.0,0.7177349293776774,9.972297640998788,-0.327259446224822,0.040317107,0.02443461,0.008857546,238.37335,-76.7815,9.065503
805448764000.0,0.7134151138752164,9.96941778170584,-0.3320592400302708,0.038179077,0.015577064,0.016798794,238.49759,-76.81518,9.130594
805453772000.0,0.7091099126739576,9.966547665220448,-0.336842795727323,0.028099801,0.0021380284,0.023823744,238.62186,-76.84137,9.196417
805458734000.0,0.704844256052423,9.963703911626098,-0.3415824130134199,0.034513887,-0.009468411,0.028099801,238.74733,-76.868256,9.262697
805463812000.0,0.7004788783168016,9.96079367769782,-0.346432831509752,0.046120327,-0.020463986,0.024129177,238.87593,-76.893326,9.327849
805468748000.0,0.6962355729794587,9.95796482486797,-0.3511476140418306,0.048563786,-0.02687807,0.022296581,239.00562,-76.91553,9.39376
805473806000.0,0.6918873885393696,9.955066053066233,-0.3559789288812255,0.046120327,-0.029932396,0.029626964,239.13654,-76.93688,9.460172
805479247000.0,0.6872099524898391,9.95194778154127,-0.3611760787509662,0.048563786,-0.03023783,0.025350908,239.26845,-76.96139,9.5216675
805483926000.0,0.6831875810000848,9.949266217037447,-0.3656453792914029,0.04795292,-0.025045475,0.021991149,239.39854,-76.98212,9.584085
805489340000.0,0.6785333558995228,9.946163419383312,-0.3708167392242785,0.046120327,-0.027794369,0.022602014,239.5303,-77.00216,9.645541
805493798000.0,0.6747009703253991,9.943608511377748,-0.3750749443555602,0.040011674,-0.047036625,0.016187929,239.66501,-77.022514,9.7033615
805498765000.0,0.6704310153799814,9.94076189225176,-0.3798193375558913,0.036957346,-0.05375614,0.009468411,239.79613,-77.04216,9.759683
805503754000.0,0.6661421478094782,9.937902664786582,-0.3845847447788533,0.036651913,-0.05681047,0.00580322,239.931,-77.06105,9.81463
805508797000.0,0.6618068583410383,9.935012489579748,-0.3894017318755454,0.028405234,-0.06352998,0.0076358155,240.068,-77.07733,9.868666
805513834000.0,0.6574767268612578,9.932125753010876,-0.3942129878751564,0.021991149,-0.06169739,-0.008246681,240.20337,-77.09782,9.91546
805518763000.0,0.6532394391773513,9.929300911925315,-0.3989210841273071,0.024740042,-0.06078109,-0.005497787,240.33911,-77.11326,9.967418
805523741000.0,0.6489600279193908,9.926447988629732,-0.4036759843389536,0.03573562,-0.064751714,-0.009773844,240.47563,-77.13336,10.012211
805529195000.0,0.6442714162277644,9.92332226672252,-0.4088855515857034,0.035124753,-0.07238753,-0.017715093,240.61197,-77.151405,10.056048
805533887000.0,0.6428196709885079,9.91758152172742,-0.4085164028907344,0.046120327,-0.0693332,-0.01863139,240.74527,-77.17205,10.099644
805538794000.0,0.6463356682660463,9.905627140235628,-0.398671615482208,0.041233405,-0.08124508,-0.0125227375,240.88403,-77.18919,10.143206
805543788000.0,0.6499140033799705,9.89346081026416,-0.3886522822198928,0.04184427,-0.09132435,-0.016187929,241.01608,-77.23338,10.170582
805548787000.0,0.6534959211281699,9.881282299345584,-0.3786229175866702,0.05589417,-0.09712757,-0.014049901,241.14903,-77.27472,10.201359
805553754000.0,0.6570549100170089,9.869181746488495,-0.368657753727255,0.059864793,-0.09865474,-0.0061086523,241.28271,-77.31234,10.232724
805558800000.0,0.6606705045273937,9.856888734667104,-0.3585340942075028,0.082161374,-0.0983493,0.0018325958,241.41656,-77.353264,10.264581
805563836000.0,0.6642789337692285,9.844620084739928,-0.3484304974295654,0.079107046,-0.10476339,0.005497787,241.55185,-77.38818,10.297444
805568759000.0,0.667806395476447,9.832626724217391,-0.3385536096341354,0.08032878,-0.103847094,0.01038471,241.68378,-77.42372,10.332231
805573873000.0,0.6714707138129726,9.820168051515331,-0.3282935234700425,0.08002335,-0.11453723,0.004581489,241.82036,-77.4586,10.3652315
805579258000.0,0.6753292109272062,9.807049171480015,-0.3174897370027683,0.08002335,-0.12583824,0.0070249503,241.95557,-77.48912,10.401483
805583779000.0,0.6785686288387104,9.796035159104964,-0.3084193714282935,0.083383106,-0.13133603,0.016798794,242.09128,-77.518234,10.437922
805588760000.0,0.6821376491035195,9.783900499595978,-0.2984261197303375,0.07696902,-0.12492194,0.014966198,242.22623,-77.546616,10.471294
805593733000.0,0.6857009371534886,9.77178532960236,-0.2884489182258334,0.077579886,-0.12705997,0.01863139,242.36383,-77.571594,10.5089655
805598750000.0,0.6892957523850781,9.759562967274196,-0.2783834406573442,0.06627888,-0.12370021,0.009468411,242.4976,-77.59607,10.541583
805603746000.0,0.6928755205527125,9.747391764923885,-0.268360094846666,0.06383542,-0.12370021,0.009162978,242.63162,-77.61776,10.577428
805608739000.0,0.6964531391397818,9.735227871141836,-0.2583427678585324,0.064446285,-0.122783914,-0.0018325958,242.76416,-77.641945,10.607045
805613781000.0,0.7000658675427466,9.72294460407813,-0.248227133435506,0.06658431,-0.12370021,-0.0070249503,242.8961,-77.663574,10.637861
805618845000.0,0.7036943595365217,9.710607740847149,-0.2380673609804872,0.06688975,-0.10048734,-0.010079277,243.0201,-77.68611,10.665048
805623742000.0,0.7072031915455099,9.698677721249576,-0.2282426363137756,0.064751714,-0.09468412,-0.0143553335,243.14862,-77.709076,10.690707
805629241000.0,0.7111433727212146,9.685281115620198,-0.2172101345898126,0.06383542,-0.093462385,-0.015577064,243.27086,-77.73117,10.715543
805633919000.0,0.7144952853489556,9.673884621505955,-0.2078247839688454,0.042760566,-0.09407325,-0.013439035,243.39107,-77.74936,10.739783
805638747000.0,0.7179546770049481,9.662122698978472,-0.198138492220656,0.05497787,-0.100792766,-0.017104227,243.51201,-77.77272,10.761956
805643730000.0,0.7215251303234672,9.64998316709064,-0.1881412279743371,0.06383542,-0.10720685,-0.01740966,243.63196,-77.79048,10.785483
805648744000.0,0.7251177959744918,9.63776811333074,-0.1780817692283923,0.052534413,-0.112704635,-0.01863139,243.75278,-77.80744,10.807674
805653766000.0,0.7287161938403564,9.625533570055463,-0.1680062602889956,0.054061573,-0.12339478,-0.019242255,243.87599,-77.82624,10.830092
805658738000.0,0.7322787653634705,9.61342083625127,-0.158031065058673,0.040317107,-0.11881329,-0.023518313,243.99554,-77.84198,10.850661
805663786000.0,0.7358957929275654,9.601122952051035,-0.1479033929905578,0.03940081,-0.119729586,-0.025350908,244.11871,-77.85828,10.872026
805668960000.0,0.7396031028753915,9.58851810798368,-0.1375229303755761,0.036651913,-0.124005646,-0.017715093,244.24037,-77.870476,10.894692
805674546000.0,0.7436056218874824,9.574909553874624,-0.1263158827978243,0.021991149,-0.12797627,-0.019547688,244.36148,-77.883255,10.914016
805678982000.0,0.7467841350163106,9.564102617600406,-0.1174160505287753,0.014660766,-0.12339478,-0.015882496,244.47995,-77.8926,10.936774
805683835000.0,0.7502614398436783,9.552279790337384,-0.1076796019260489,0.0070249503,-0.1255328,-0.03176499,244.60104,-77.9051,10.953531
805688794000.0,0.7538146965176773,9.54019872699567,-0.0977304882600856,0.007330383,-0.12583824,-0.03268129,244.71869,-77.91239,10.975215
805693794000.0,0.7573973307927316,9.528017779887673,-0.0876991173526815,-0.005497787,-0.14874569,-0.041233405,244.84308,-77.92281,10.99073
805698888000.0,0.761047318592157,9.515607830974044,-0.0774791566722182,-0.01863139,-0.16279559,-0.043066,244.96371,-77.93125,11.0076
805703802000.0,0.7645683315576804,9.5036363961563,-0.0676203253444215,-0.015882496,-0.18417588,-0.04520403,245.0922,-77.94188,11.022675
805708803000.0,0.7681516823595899,9.49145301285888,-0.0575869481628359,-0.023518313,-0.21105394,-0.057421334,245.22537,-77.95249,11.03482
805713790000.0,0.771725001785529,9.479303736213364,-0.0475816588197911,-0.020158553,-0.23976462,-0.06994407,245.36401,-77.9649,11.04683
805718789000.0,0.7753069195337284,9.467125225294788,-0.0375522941865685,-0.021380283,-0.25809056,-0.059864793,245.50578,-77.97268,11.06231
805723783000.0,0.7788852546476527,9.454958895323315,-0.0275329609242533,-0.013133603,-0.2874121,-0.03940081,245.65762,-77.981865,11.078306
805728897000.0,0.7825495729841783,9.442500222621256,-0.0172728747601604,0.010995574,-0.30573806,-0.038789943,245.81026,-77.99472,11.09177
805733815000.0,0.7864787265017485,9.435310799700808,-0.0099874353901465,0.03268129,-0.34300083,-0.03390302,245.97473,-78.00122,11.113316
805738797000.0,0.7919145236290235,9.445237041946124,-0.0118781476264773,0.05589417,-0.36010507,-0.034208454,246.13718,-78.011154,11.133384
805744727000.0,0.7983846715545032,9.457052099456106,-0.0141286340900345,0.06627888,-0.35735616,-0.029321533,246.2732,-77.9934,11.168139
805748834000.0,0.8028657672593844,9.465234973181822,-0.0156872762326702,0.06719518,-0.35033122,-0.026267206,246.41135,-77.97816,11.201866
805753867000.0,0.8083572098409931,9.475262828906567,-0.017597343411605,0.08277224,-0.3381139,-0.034513887,246.5457,-77.96767,11.232866
805758788000.0,0.8137264506405354,9.485067533460802,-0.0194649056185468,0.099265605,-0.3277292,-0.03634648,246.67679,-77.95523,11.265732
805763777000.0,0.8191698853791894,9.495007722654275,-0.0213582744156272,0.11759156,-0.3005457,-0.040011674,246.79819,-77.94753,11.29444
805768779000.0,0.8246275042532619,9.504973813322897,-0.0232565768255282,0.12308934,-0.2501493,-0.03481932,246.90828,-77.93873,11.323607
805773802000.0,0.8301080359614719,9.514981744835987,-0.025162848917678,0.13316862,-0.19150625,-0.0143553335,247.00659,-77.92932,11.354579
805778864000.0,0.835631120075937,9.525067380774528,-0.0270839218482895,0.13408493,-0.12705997,-0.009162978,247.08777,-77.92257,11.380705
805783824000.0,0.8410429132817345,9.534949789754208,-0.0289662848936932,0.10567969,-0.07849618,0.008246681,247.15509,-77.90562,11.414321
805788796000.0,0.8464677995356107,9.544856107787872,-0.0308532020432389,0.08368854,-0.028099801,0.023518313,247.20258,-77.88905,11.446462
805793804000.0,0.8519319649337224,9.554834152983483,-0.032753781505211,0.080634214,0.043676864,0.031154128,247.22919,-77.86971,11.478855
805798762000.0,0.8573415759648402,9.564712577120837,-0.0346353855332577,0.086132,0.1160644,0.038179077,247.24051,-77.84614,11.5131445
805803736000.0,0.8627686443933961,9.574622879996827,-0.0365230617001604,0.08277224,0.16676621,0.044593163,247.23721,-77.82062,11.547117
805808728000.0,0.8682153523940698,9.5845690464538,-0.0384175690232764,0.0693332,0.20922135,0.04062254,247.2157,-77.7967,11.577492
805813759000.0,0.8737046128009986,9.594592917336213,-0.0403268771848542,0.038789943,0.24220806,0.04917465,247.1824,-77.766975,11.611029
805818798000.0,0.8792026019066467,9.60463272758795,-0.04223922141586,0.0018325958,0.2648101,0.04550946,247.14078,-77.74105,11.637934
805823747000.0,0.8846023931517055,9.614493219934811,-0.0441174098658001,-0.027794369,0.29810223,0.049480084,247.08688,-77.70995,11.667163
805828883000.0,0.8902062177293217,9.624726295039578,-0.0460665664386213,-0.067500606,0.3323107,0.040011674,247.02722,-77.68069,11.689614
805833779000.0,0.8955481813453671,9.634481189064685,-0.0479246409286004,-0.10323623,0.3659083,0.027794369,246.95886,-77.65023,11.710305
805838745000.0,0.900966521075204,9.644375552571354,-0.0498092810260751,-0.13439035,0.38789943,0.0143553335,246.88498,-77.62092,11.726106
805843724000.0,0.9063990449404592,9.654295817553177,-0.0516988547363704,-0.13988814,0.39522982,-0.0106901415,246.80696,-77.59849,11.733442
805848825000.0,0.9119646814611796,9.664459157917156,-0.0536347285054438,-0.15088372,0.3930918,-0.026267206,246.72629,-77.575,11.738233
805853811000.0,0.917404842937814,9.674393369847134,-0.0555269587764887,-0.14477506,0.3979787,-0.04428773,246.64288,-77.561,11.7339735
805858782000.0,0.9228286381043502,9.684297695459634,-0.057413496417356,-0.14660765,0.38087448,-0.06414085,246.56775,-77.55074,11.724498
805863795000.0,0.9282982589391612,9.694285702761071,-0.0593159734227206,-0.13469578,0.36163223,-0.06963864,246.49274,-77.54395,11.713402
805868739000.0,0.9336925947475208,9.70413623300211,-0.0611922643292681,-0.12156218,0.32925636,-0.07788532,246.42776,-77.54363,11.696178
805873926000.0,0.9393520647794708,9.714470921586305,-0.0631607758446933,-0.09407325,0.29046643,-0.087659165,246.37112,-77.54812,11.677286
805879004000.0,0.944892606291374,9.724588436263486,-0.065087920914161,-0.073303826,0.24709499,-0.099265605,246.32605,-77.55619,11.656221
805884131000.0,0.9504866110829312,9.734803579577765,-0.0670336619088756,-0.04795292,0.20250183,-0.10903945,246.29326,-77.56964,11.633825
805888809000.0,0.9555907176588831,9.744124125788842,-0.0688090035069398,-0.006414085,0.15210545,-0.10629055,246.27509,-77.58649,11.612977
805893790000.0,0.9610254236988182,9.754048375612994,-0.0706993362345921,0.026572637,0.1001819,-0.10476339,246.27075,-77.607735,11.590337
805898804000.0,0.9664961356209693,9.764038375335598,-0.0726021927486353,0.05497787,0.03756821,-0.09621128,246.284,-77.629745,11.572188
805903741000.0,0.9718828338179496,9.77387495862848,-0.0744758270944332,0.08155051,-0.02076942,-0.083383106,246.3109,-77.652885,11.5571
805908797000.0,0.9773993714083754,9.783948640040023,-0.0763946229729737,0.1151481,-0.06505715,-0.059864793,246.35123,-77.67392,11.548879
805913784000.0,0.9828406239723496,9.793884844391169,-0.0782872327526971,0.13316862,-0.092240654,-0.047647487,246.4031,-77.69514,11.542207
805918741000.0,0.9882491439161276,9.803761276107352,-0.0801684572720653,0.14202617,-0.112704635,-0.03268129,246.46481,-77.71127,11.543859
805923815000.0,0.9937853210786712,9.813870821099872,-0.0820940843068189,0.1572978,-0.11056661,-0.01740966,246.52701,-77.72599,11.549094
805929956000.0,1.0004856884328654,9.826106279475724,-0.0844246471015415,0.16157386,-0.10415252,-0.0012217305,246.59302,-77.735855,11.558997
805933781000.0,1.0046590975079008,9.833727290432837,-0.0858762677968376,0.16493362,-0.08307768,0.0027488936,246.6535,-77.745995,11.569083
805938808000.0,0.9852155652674052,9.846686066981682,-0.0810525895414378,0.16554448,-0.06078109,0.0027488936,246.71106,-77.75282,11.582022
805943791000.0,0.9610555132367832,9.860108308766224,-0.0749515662164401,0.15943582,-0.037873644,-0.0018325958,246.76187,-77.7594,11.593841
805948816000.0,0.9366918244039766,9.87364368202878,-0.0687991194558313,0.15607607,-0.0009162979,0.007330383,246.80673,-77.76673,11.61061
805953795000.0,0.9125511663545152,9.887055149386844,-0.0627029936008918,0.14844026,0.018936822,0.018936822,246.84969,-77.7729,11.626493
805958793000.0,0.8883183868945415,9.900517795270678,-0.0565836047631759,0.13958271,0.062002823,0.021380283,246.87498,-77.77806,11.640957
805963771000.0,0.8641825773403701,9.913926569022122,-0.0504887032757509,0.13439035,0.099571034,0.02687807,246.8958,-77.77843,11.658986
805968975000.0,0.8389510078506337,9.927944097869554,-0.0441170947300379,0.11484267,0.13439035,0.022602014,246.90509,-77.77852,11.67377
805973784000.0,0.815634594000491,9.940897652102318,-0.0382291113525717,0.10720685,0.16126843,0.028405234,246.90573,-77.77474,11.691992
805978910000.0,0.7907812071433832,9.954705079633436,-0.0319530034729935,0.09040806,0.17256944,0.028405234,246.9013,-77.771255,11.706546
805983844000.0,0.7668587313819767,9.967995334693628,-0.0259119741562087,0.08246681,0.16371189,0.01985312,246.89539,-77.76867,11.719677
805988797000.0,0.742844134210058,9.981336768279586,-0.0198476818566475,0.09437868,0.14172074,0.015882496,246.89035,-77.76515,11.733653
805993791000.0,0.7186307487312449,9.994788639736942,-0.0137331904889898,0.08093964,0.122478485,0.009162978,246.88765,-77.76214,11.744086
806003780000.0,0.6701991292783285,10.021695076258272,-0.0015029833861597,0.084910266,0.04734206,-0.0067195175,246.90819,-77.76505,11.751783
806008792000.0,0.6458984708842932,10.035195432634776,0.0046335465967598,0.09468412,0.023518313,-0.016187929,246.91946,-77.76739,11.758569
806013756000.0,0.6218305402641834,10.04856649589355,0.010711306938981,0.080634214,-0.002443461,-0.0290161,246.95346,-77.77325,11.761108
806018784000.0,0.5974523059455065,10.062109949975964,0.0168674268021334,0.076052725,-0.019242255,-0.036957346,246.99147,-77.781525,11.762628
806023747000.0,0.5733892238206867,10.075478319628118,0.0229439627768402,0.058643065,-0.03848451,-0.04734206,247.03757,-77.791534,11.760417
806029081000.0,0.5475273499432358,10.089846017336074,0.0294747390994446,0.056199603,-0.06169739,-0.04337143,247.08908,-77.800125,11.760612
806033806000.0,0.5246182096974625,10.102573308612808,0.0352598756056886,0.06352998,-0.06414085,-0.055283304,247.1399,-77.8149,11.753598
806038809000.0,0.5003611877610383,10.116049422529738,0.0413853862809773,0.06383542,-0.06505715,-0.05497787,247.19601,-77.82406,11.751855
806043822000.0,0.476055680871713,10.12955247251286,0.0475231406314115,0.0720821,-0.07391469,-0.058643065,247.25465,-77.838196,11.746119
806048779000.0,0.452021689718634,10.142904680525298,0.0535923304010309,0.07574729,-0.084910266,-0.06505715,247.31348,-77.85216,11.740099
806053759000.0,0.4278761831738823,10.156318841489982,0.0596896806234849,0.08979719,-0.07819075,-0.076358154,247.36908,-77.86928,11.731885
806058746000.0,0.4036967371621,10.169751857701002,0.0657956014185408,0.08979719,-0.055283304,-0.07696902,247.4223,-77.883835,11.725257
806063783000.0,0.379274866385812,10.183319554242992,0.0719627405893242,0.08735373,-0.02443461,-0.09987647,247.47101,-77.90778,11.709339
806068859000.0,0.3546639042932097,10.19699230144314,0.0781776300931749,0.099571034,0.013133603,-0.115453534,247.51028,-77.93019,11.695405
806073757000.0,0.3309159743622472,10.21018558666503,0.084174582179436,0.1133155,0.03604105,-0.1328632,247.54468,-77.9585,11.674839
806078781000.0,0.3065571340247307,10.223718266320969,0.0903258045725302,0.12614368,0.06994407,-0.14477506,247.56464,-77.989395,11.651464
806083742000.0,0.2825037488904912,10.237081248759882,0.0963998918122078,0.13103059,0.108123146,-0.15699236,247.57663,-78.02443,11.623554
806088850000.0,0.2577376349486053,10.25084019137185,0.1026539610765241,0.1469131,0.14385876,-0.15699236,247.57925,-78.05976,11.596263
806093785000.0,0.2338103106919087,10.26413314003866,0.1086962147608235,0.13530666,0.16493362,-0.15790866,247.57523,-78.09588,11.565942
806098815000.0,0.2094223793826516,10.277681981334316,0.114854783359005,0.12339478,0.18784106,-0.14569137,247.56021,-78.128105,11.539846
806103657000.0,0.1859459651879352,10.29072442458552,0.1207831708644513,0.12797627,0.20708331,-0.1423316,247.5405,-78.16215,11.511681
806108640000.0,0.1617859131573132,10.30414666637006,0.126884194189449,0.1142318,0.21685717,-0.118507855,247.51672,-78.184074,11.493461
806113652000.0,0.1374852547632781,10.317647022746566,0.1330207241723686,0.11362094,0.23732115,-0.09162979,247.48453,-78.20444,11.477395
806118637000.0,0.1133155057420759,10.331074651744348,0.1391241962323954,0.12095132,0.26725355,-0.055588737,247.44672,-78.21457,11.470966
806123624000.0,0.0891360597302936,10.344507667955366,0.1452301170274513,0.11911872,0.3036,-0.030543262,247.4014,-78.21928,11.468884
806128648000.0,0.064777219392777,10.358040347611304,0.1513813394205455,0.12644911,0.3662137,-0.0061086523,247.33994,-78.21514,11.4760065
806133728000.0,0.0477899598346455,10.346326196163062,0.1508536060960078,0.121256754,0.410196,0.0125227375,247.27393,-78.20494,11.487956
806138817000.0,0.0340080754433017,10.323839964651953,0.1474685818542221,0.13103059,0.44043383,0.031154128,247.19449,-78.189835,11.505543
806143647000.0,0.0209276074515173,10.302498149325038,0.1442558353248795,0.13500121,0.46639562,0.04550946,247.04333,-78.24677,11.44226
806148652000.0,0.0073732094600306,10.280383079819613,0.1409266849357781,0.13927728,0.46822822,0.057421334,246.892,-78.29855,11.384632
806153751000.0,-0.0064357566455818,10.257852662355443,0.1375350090448635,0.13500121,0.47433686,0.06291912,246.73364,-78.34668,11.329804
806158693000.0,-0.0198195398371757,10.236015964354284,0.1342477640452752,0.14966199,0.47891834,0.074830994,246.57686,-78.39022,11.281052
806163794000.0,-0.033633922285642,10.213476709699504,0.1308547578245347,0.15454891,0.5039638,0.08032878,246.41425,-78.43214,11.232425
806168841000.0,-0.0473020634770572,10.191176059191235,0.1274976705090912,0.1572978,0.5119051,0.07360926,246.2572,-78.474106,11.184554
806173693000.0,-0.0604421112402328,10.169737034767596,0.1242702903516647,0.1572978,0.5357288,0.086132,246.08986,-78.50855,11.143768
806178769000.0,-0.0741887894030273,10.14730824499546,0.1208939132537468,0.1731803,0.5687156,0.07360926,245.91998,-78.55227,11.094297
806183750000.0,-0.0876781912802691,10.125299221777372,0.1175807268225552,0.18845193,0.5858198,0.061391957,245.7497,-78.59169,11.048865
806188713000.0,-0.1011188460718272,10.103369733274793,0.114279513359796,0.20738874,0.5867361,0.05100725,245.57681,-78.634636,11.000729
806193695000.0,-0.1146109561204959,10.0813562914614,0.1109656617636914,0.23426682,0.5852089,0.04153884,245.40204,-78.681465,10.94984
806198782000.0,-0.128387424168986,10.0588788971409,0.1075819678517316,0.25809056,0.55771995,0.03023783,245.23694,-78.73179,10.896612
806203790000.0,-0.1419499466747533,10.03675057184956,0.1042508219678915,0.29077184,0.5177083,0.023823744,245.07817,-78.78481,10.843162
806208771000.0,-0.1554393485519951,10.014741548631472,0.1009376355366999,0.3295618,0.4636467,0.014049901,244.93384,-78.84278,10.787144
806213779000.0,-0.1690018710577625,9.99261322334013,0.0976064896528598,0.35094208,0.40500367,0.0076358155,244.80447,-78.90127,10.732006
806218872000.0,-0.1827945881348137,9.970109317447797,0.0942188047514226,0.36010507,0.34055737,0.00580322,244.6944,-78.96147,10.677502
806223791000.0,-0.1961160833835896,9.948374247138668,0.0909468585448312,0.3830125,0.26847526,0.00061086525,244.60535,-79.02515,10.62247
806228970000.0,-0.2101417032033517,9.925490342050038,0.0875019694608839,0.40194935,0.20616703,0.014660766,244.53325,-79.08254,10.574553
806233778000.0,-0.223162591423745,9.904245735819853,0.0843038565596253,0.42058071,0.14996742,0.02687807,244.48154,-79.14153,10.526964
806238800000.0,-0.2367630283294884,9.882055550194227,0.0809633983670045,0.44135013,0.092240654,0.049785517,244.44891,-79.1932,10.488644
806243733000.0,-0.2501224379782405,9.86025861955082,0.0776821398516324,0.45448375,0.03970624,0.08093964,244.43158,-79.23804,10.458072
806248797000.0,-0.2638366180839125,9.837882852922354,0.0743137447326695,0.46517387,0.02107485,0.10170906,244.42154,-79.27883,10.432441
806253801000.0,-0.2773883079039724,9.815772202012234,0.070985259508481,0.47433686,-0.013133603,0.11362094,244.4314,-79.31256,10.414836
806258794000.0,-0.2909102078383366,9.793710155650478,0.0676640910983345,0.47708577,-0.053145275,0.12980886,244.44843,-79.338135,10.405271
806263772000.0,-0.3043914852012979,9.77171438821831,0.0643529001618816,0.4841107,-0.06872234,0.1414153,244.46844,-79.361115,10.398412
806268886000.0,-0.3182410738783134,9.749117691824557,0.0609512467972733,0.49021935,-0.07727446,0.1572978,244.49794,-79.37721,10.398163
806273788000.0,-0.3315165302128325,9.727457737635625,0.0576906083942014,0.5027421,-0.061391957,0.1704314,244.52486,-79.39044,10.400607
806278996000.0,-0.3456206870039739,9.704445693283128,0.0542264295277798,0.49327368,-0.05009095,0.17104226,244.55562,-79.4008,10.404305
806283763000.0,-0.3585305401958654,9.683382249460475,0.0510555883879504,0.4896085,-0.03268129,0.17745635,244.57993,-79.40598,10.413193
806288806000.0,-0.3721878487015732,9.661099273333432,0.0477011617321585,0.48899764,-0.019242255,0.17440203,244.60234,-79.41251,10.419466
806293783000.0,-0.3856664178931075,9.63910792449657,0.0443906359606185,0.48380527,0.005192355,0.17654006,244.61658,-79.41471,10.428703
806298767000.0,-0.39916394428463,9.617085645492566,0.0410754540346882,0.48258355,0.03176499,0.18295415,244.6265,-79.416084,10.438102
806303815000.0,-0.4128347936474721,9.594780576388994,0.0377177015543318,0.46609017,0.050396383,0.18051068,244.63199,-79.4179,10.445337
806308744000.0,-0.4261833706105166,9.573001320126806,0.0344391036986113,0.45356745,0.06169739,0.16920967,244.63226,-79.42018,10.451521
806313810000.0,-0.4399029670590424,9.55061671630773,0.0310693782498226,0.45234573,0.06841691,0.1600467,244.62885,-79.42201,10.457341
806318760000.0,-0.4533084156220513,9.528744669544125,0.0277768119309311,0.45937067,0.09560041,0.15332718,244.61664,-79.42585,10.460281
806324686000.0,-0.4693570394976856,9.502560073762076,0.023835044657042,0.464563,0.106901415,0.14782938,244.60756,-79.431435,10.461024
806329127000.0,-0.4813840288044175,9.48293709200911,0.0208810472788204,0.46944994,0.12095132,0.13927728,244.5903,-79.4397,10.458756
806333797000.0,-0.4914930145298748,9.481681806597196,0.0228248069767748,0.4783075,0.12522738,0.13164146,244.57315,-79.44919,10.455243
806338822000.0,-0.4989489813714671,9.506454854426869,0.0317238637583926,0.49602258,0.119729586,0.12308934,244.55536,-79.46141,10.449118
806343785000.0,-0.5063129541943174,9.53092224475098,0.0405131212324562,0.52564955,0.09712757,0.118507855,244.51593,-79.51001,10.409768
806348803000.0,-0.5137585346144389,9.555660782862285,0.0493997813180598,0.5491679,0.09162979,0.12675454,244.47379,-79.55636,10.372254
806353739000.0,-0.5210824455259015,9.579995064272683,0.05814122296464,0.56107974,0.06780604,0.12797627,244.44423,-79.60498,10.3324995
806358773000.0,-0.5285517663379564,9.60481248174026,0.0670562183554189,0.5726862,0.05497787,0.14080444,244.41357,-79.64706,10.299146
806363795000.0,-0.5360032818560612,9.629570739690632,0.0759499622673164,0.57360244,0.06169739,0.14813483,244.38474,-79.688774,10.265335
806368753000.0,-0.5433598358064323,9.654013480215909,0.0847303649585126,0.5821546,0.06719518,0.16554448,244.3605,-79.723206,10.238549
806373773000.0,-0.5508083837755454,9.678761878246746,0.0936205669572631,0.589485,0.08399397,0.17959438,244.33163,-79.75532,10.21315
806378943000.0,-0.5584794979190344,9.704249770242647,0.1027764124420321,0.5821546,0.11056661,0.18234327,244.29892,-79.78455,10.189639
806383775000.0,-0.5656490962829298,9.728071335837267,0.1113336746049729,0.58459806,0.13347405,0.17592919,244.2631,-79.81191,10.167572
806388753000.0,-0.5730353257232177,9.752612675557888,0.1201494964276382,0.59742624,0.14966199,0.17959438,244.22223,-79.834885,10.149155
806394705000.0,-0.5818667515224529,9.781955796091662,0.13069022995285,0.61636305,0.16065755,0.18295415,244.17706,-79.85915,10.128837
806398824000.0,-0.5879784186708149,9.802262300372345,0.1379848000789164,0.6423248,0.18661933,0.18600847,244.12372,-79.88201,10.10945
806403777000.0,-0.5953275537487068,9.826680391098783,0.1467563479872454,0.6560693,0.21197024,0.19242255,244.06825,-79.9023,10.092016
806408790000.0,-0.602765715296349,9.85139427941125,0.1556341532899817,0.6649268,0.24923302,0.19425514,244.0028,-79.92253,10.0741
806413783000.0,-0.6101742013540745,9.876009568528376,0.1644765394612489,0.6795876,0.29535335,0.20830505,243.92856,-79.936935,10.06144
806418921000.0,-0.6177978347136968,9.90133970181173,0.1735757143356673,0.6969972,0.33567044,0.21563543,243.84637,-79.95219,10.047292
806423796000.0,-0.6250312353809131,9.925373255676336,0.1822091276312667,0.7104363,0.38240165,0.22571471,243.7503,-79.96226,10.037706
806429078000.0,-0.6328685322679362,9.951413303166154,0.1915633202522628,0.72112644,0.41141775,0.23457226,243.64925,-100.02972,10.029587
806433778000.0,-0.6398422723983808,9.97458411407152,0.1998868161475073,0.7272351,0.4538729,0.24648413,243.53236,-100.0256,10.024829
806438758000.0,-0.6472314693876603,9.999135313711673,0.2087061798833195,0.7498371,0.49418998,0.25870144,243.40948,-100.02427,10.022258
806443795000.0,-0.6547052415232026,10.02396752105855,0.2176264881438189,0.7489208,0.5186246,0.27672195,243.28079,-100.02777,10.02417
806448823000.0,-0.6621656596882824,10.048755358767524,0.226530857795157,0.7312057,0.5626069,0.28313604,243.13675,-100.03111,10.025611
806453802000.0,-0.6695533729030663,10.07330162844791,0.2353484505743959,0.72509706,0.61941737,0.28344148,242.98401,-100.03741,10.029671
806458784000.0,-0.6769455374413375,10.097862688007597,0.244171356223355,0.6899723,0.6921103,0.2941316,242.81604,-100.04715,10.03765
806464565000.0,-0.6855232378017843,10.126362785421197,0.2544092561745058,0.66675943,0.8017606,0.30757064,242.62314,-100.05682,10.045651
806468778000.0,-0.6917743797527551,10.147132705919985,0.2618702962184772,0.63346726,0.8368854,0.30818152,242.4332,-100.063995,10.051767
806473728000.0,-0.6991190635071595,10.171536006767123,0.2706365312570857,0.61758476,0.9080512,0.3100141,242.20361,-100.0736,10.060836
806478773000.0,-0.7066047058386686,10.196407653792138,0.2795710071701727,0.6047566,0.9728029,0.29932398,241.96838,-100.077644,10.064931
806483766000.0,-0.714013191896394,10.221022942909263,0.2884133933414399,0.59650993,1.0054842,0.28955013,241.72469,-100.080475,10.068158
806488754000.0,-0.7214142590816404,10.245613582227552,0.2972469247298398,0.5900958,1.0253373,0.28619036,241.4689,-100.08009,10.068522
806493733000.0,-0.7288019722964241,10.27015985190794,0.3060645175090786,0.6017023,1.0412198,0.2764165,241.2078,-100.07349,10.062627
806498769000.0,-0.7362742606574706,10.294987129295048,0.3149830548130045,0.60231316,1.0491611,0.27366763,240.94632,-100.06599,10.056132
806503818000.0,-0.7437658380869631,10.319878496159133,0.3239246145523852,0.60994893,1.0369438,0.2669481,240.68918,-100.05326,10.044177
806508780000.0,-0.7511283271353175,10.344340956523476,0.3327121010698753,0.63194007,1.0137309,0.25778514,240.436,-100.03773,10.029247
806513771000.0,-0.7585338456440514,10.368946385721069,0.3415509453279956,0.65240407,0.97097033,0.24251351,240.19507,-100.01721,10.009238
806519116000.0,-0.7664646203243122,10.395297020676212,0.3510167082131194,0.66798115,0.93554014,0.2406809,239.96167,-99.99694,9.989291
806523790000.0,-0.7733997823178649,10.418339652627632,0.3592941592374541,0.6795876,0.90133166,0.22968534,239.74312,-99.96896,9.961414
806528912000.0,-0.7809996752855537,10.443590906554714,0.3683649988066971,0.6924158,0.88178396,0.23090707,239.53325,-99.94335,9.935731
806534385000.0,-0.7165634162600606,10.533271436975712,0.3670785707460671,0.69974613,0.87017757,0.21930063,239.3335,-99.910385,9.902631
806538824000.0,-0.5981187066903434,10.663199100692792,0.3560208955138433,0.6963864,0.84635377,0.21135938,239.14539,-99.87831,9.870386
806543783000.0,-0.4657989691917565,10.808346945786958,0.3436678854943351,0.7031059,0.84482664,0.19792034,238.88017,-99.80891,9.801883
806548829000.0,-0.3311578327896856,10.95604124430383,0.3310981560008003,0.69913524,0.8350528,0.19547687,238.62726,-99.74107,9.735009
806553794000.0,-0.1986779988149963,11.101364706875422,0.3187301998106695,0.6881397,0.8240572,0.19120082,238.37802,-99.66984,9.664678
806558797000.0,-0.0651842204916589,11.247800413470724,0.3062675845399294,0.67103547,0.7959574,0.19792034,238.1395,-99.60189,9.597638
806563772000.0,0.0675624409432008,11.393416571838031,0.2938747180654278,0.6588182,0.77854776,0.1863139,237.90375,-99.528404,9.525029
806568779000.0,0.2011629502506065,11.53996935675162,0.2814021386809394,0.64873886,0.7489208,0.16462818,237.68233,-99.45476,9.452216
806573794000.0,0.3349769215261485,11.68675629830178,0.2689096310689542,0.64751714,0.71685034,0.14996742,237.46915,-99.38079,9.37898
806578920000.0,0.471752677609584,11.836792163184352,0.2561406193004527,0.6426302,0.68386364,0.15851954,237.26717,-99.3084,9.307244
806583860000.0,0.6035654429338467,11.981383886266665,0.243834938821249,0.62980205,0.62949663,0.15302174,237.08286,-99.22915,9.228498
806588802000.0,0.7354315737501437,12.126034148508117,0.2315242762851712,0.6096435,0.58062744,0.14721853,236.90854,-99.15356,9.15329
806593785000.0,0.8683916971531399,12.271884463511991,0.2191114815831728,0.61117065,0.5375614,0.13255776,236.75009,-99.07532,9.07525
806598833000.0,1.003086199047245,12.419637301188004,0.2065367700327639,0.6010914,0.47891834,0.11362094,236.61191,-81.00434,8.99566
806603986000.0,1.140582389273141,12.570463444719008,0.1937005004964609,0.5907067,0.4279111,0.09987647,236.48532,-81.08501,8.914892
806608792000.0,1.2688196666311184,12.71113304413876,0.1817286178278268,0.5635232,0.36743546,0.08552113,236.37967,-81.16931,8.8302765
806613774000.0,1.401753107288097,12.856954089563065,0.1693183141542655,0.5332854,0.3109304,0.0711658,236.28851,-81.25542,8.74363
806618764000.0,1.5349000099132133,13.00300929162394,0.1568880822532076,0.48349985,0.26419923,0.050396383,236.21268,-81.34498,8.653093
806623791000.0,1.6690341741409598,13.150147468128957,0.1443656822999774,0.43066,0.21991149,0.029932396,236.15291,-81.43582,8.560728
806628937000.0,1.8063435851447367,13.300768724602955,0.1315468499627341,0.35827246,0.17623462,-0.004581489,236.10664,-81.53322,8.460734
806633779000.0,1.9355414413593277,13.442492028887278,0.1194852902703649,0.2770274,0.14538592,-0.043982297,236.06943,-81.633934,8.355948
806638789000.0,2.0692219989047844,13.58913262253958,0.1070052378005652,0.17134771,0.14080444,-0.07971791,236.03694,-81.738144,8.245004
806643789000.0,2.202635728990071,13.73548052039617,0.0945500956151364,0.049785517,0.11911872,-0.10842858,236.01782,-81.84492,8.12779
806649908000.0,2.365907451868444,13.914581077793065,0.0793074926086086,-0.024129177,0.11362094,-0.14874569,235.99474,-81.95815,8.000008
806653751000.0,2.4684492448119952,14.027064072085636,0.069734470324888,-0.16310102,0.1142318,-0.20799962,235.97546,-82.07235,7.861717
806658791000.0,2.602930284737964,14.17458275312508,0.0571796870019758,-0.31245756,0.10720685,-0.28985557,235.95932,-82.19211,7.708779
806663771000.0,2.7358103599029087,14.320345259390242,0.0447743653852887,-0.44043383,0.113926366,-0.39095375,235.93849,-82.31759,7.5368586
806668856000.0,2.8714921233996447,14.469181071510391,0.0321074857827076,-0.5653558,0.15302174,-0.47219884,235.9096,-82.43831,7.3509846
806673764000.0,3.0024510408513616,14.61283616804642,0.0198815182134907,-0.7098254,0.21135938,-0.537256,235.87267,-82.55478,7.1451244
806678937000.0,3.140480885997599,14.764247703168849,0.006995428108446,-0.84665924,0.30634892,-0.5861252,235.81334,-82.65789,6.9247003
806683839000.0,3.271279706973213,14.907727182227449,-0.0052155932901483,-1.0030408,0.40378192,-0.6337727,235.73624,-82.7367,6.690168
806688800000.0,3.403652809963835,15.052933566480757,-0.0175735853665308,-1.1591167,0.47158796,-0.68111473,235.64035,-82.782745,6.4456935
806693792000.0,3.536853078080984,15.199047307700774,-0.0300087993244629,-1.3112222,0.50488013,-0.72387534,235.5267,-82.785934,6.192657
806698834000.0,3.671387483498987,15.346624527899358,-0.0425685647042493,-1.4468343,0.5488624,-0.7498371,235.3909,-82.7387,5.9341135
806703869000.0,3.8057351096948704,15.493996861040944,-0.0551108928849761,-1.6209309,0.6160576,-0.75319684,235.2392,-82.62486,5.6730504
806708737000.0,3.935626717305905,15.63648117439412,-0.0672372193167096,-1.842675,0.70188415,-0.73761976,235.06964,-82.43765,5.41266
806713813000.0,4.071068336088487,15.785053560298127,-0.0798816796633569,-2.0885482,0.72418076,-0.6908886,234.89844,-82.16505,5.1638007
806719842000.0,4.231938611825326,15.961519855533602,-0.094900090110547,-2.3038783,0.6310238,-0.6072,234.73427,-81.80558,4.934189
806723756000.0,4.336374879736088,16.076080989975743,-0.1046499754133006,-2.4517076,0.4813618,-0.49205196,234.57712,-81.36331,4.7308135
806728770000.0,4.470162168265613,16.22283866194633,-0.1171399919968486,-2.5118778,0.35246924,-0.35643986,234.43594,-80.85497,4.561538
806733729000.0,4.560395004457463,16.584819288758705,-0.2239458788648327,-2.5668557,0.2874121,-0.20708331,234.31238,-80.283104,4.4329777
806739293000.0,4.592064028298522,17.349399717014773,-0.4999185829266429,-2.6038132,0.2837469,-0.047036625,234.19922,-79.67982,4.348424
806743777000.0,4.6055370674091645,17.946518730329466,-0.7082375883713052,-2.6111436,0.28619036,0.022907447,234.3941,-79.11455,4.687283
806748803000.0,4.413934385949013,18.288958027187263,-0.7000842900228679,-2.598926,0.32620203,0.16401732,234.55684,-78.5355,5.067748
806753789000.0,4.223856596502076,18.62867198145168,-0.6919958806386043,-2.53112,0.37965274,0.2678644,234.7079,-78.048195,5.4399195
806758734000.0,3.959617912747944,18.84331552128689,-0.5572910902636672,-2.437047,0.40103304,0.3408628,234.83664,-77.568184,5.818719
806763816000.0,3.653521578495404,19.00813631228834,-0.3610754267658442,-2.3423629,0.45051312,0.39370266,234.92445,-77.10538,6.193497
806768774000.0,3.358609764947888,19.104304969939665,-0.1135232489204607,-2.271808,0.514654,0.42332962,234.913,-76.69886,6.5221453
806773742000.0,3.076745938288535,18.963373465386724,0.3405907467174986,-2.2412646,0.6087272,0.42332962,234.86829,-76.31022,6.8322988
806778720000.0,2.8246409233386074,18.804136391218357,0.8018681409355222,-2.2427917,0.6743952,0.4071417,234.70349,-75.94863,7.0650916
806783777000.0,2.618698799169304,18.612561508109177,1.280803183280261,-2.2540927,0.7263188,0.38362336,234.51233,-75.60011,7.2757816
806789626000.0,2.306176226012071,18.515550401442663,1.871968934064478,-2.2837198,0.72387534,0.3707952,234.20813,-75.24176,7.421829
806793800000.0,2.020776687163256,18.550857660974533,2.3250774948476374,-2.2782218,0.68508536,0.34697145,233.90239,-74.90194,7.546528
806798723000.0,1.6841638625938464,18.59250060267923,2.859493748976888,-2.2434027,0.66523224,0.30818152,233.4931,-74.54815,7.61375
806803752000.0,1.532948397374938,18.54393710004953,3.057553189351164,-2.1856759,0.6270532,0.27947086,233.10503,-74.2116,7.6730647
806808735000.0,1.4896155893263991,18.445453538880635,3.061492490663695,-2.0809124,0.6123924,0.2507602,232.72247,-73.90842,7.7144575
806813786000.0,1.4499373728641718,18.29537027210377,3.0793308868942897,-1.964848,0.6267477,0.2519819,232.21785,-73.58727,7.6764336
806818811000.0,1.4248245101833903,17.97607823579842,3.1439068944237363,-1.822211,0.6774496,0.23426682,231.71881,-73.31145,7.620908
806823713000.0,1.4003263504100194,17.664601706053375,3.206902235500224,-1.6728544,0.70829827,0.22357668,231.197,-73.07207,7.567845
806828757000.0,1.3726362316244594,17.198250026912554,3.275819656648725,-1.5213599,0.65087694,0.23273966,230.69469,-72.87326,7.5165744
806833798000.0,1.3428174244595428,16.60613291255625,3.3482368487249623,-1.3503176,0.52931476,0.2284636,230.21262,-72.723595,7.460322
806838736000.0,1.2345505082089552,15.925657567164178,3.323723697014925,-1.1826351,0.44409904,0.2321288,229.70853,-72.59553,7.4158425
806843735000.0,0.9124502787023432,14.966761920423789,3.04234881009976,-1.094976,0.24831672,0.24587326,229.27797,-72.49201,7.3904877
806848770000.0,0.5880304636261697,14.000960843940916,2.7589476187379165,-0.9202685,0.041233405,0.24190263,228.85362,-72.4271,7.382171
806853742000.0,0.3582058772852688,13.158763443163563,2.374303321770764,-0.73975784,-0.129198,0.25625798,228.47993,-72.3843,7.3945074
806858728000.0,0.1687040075375602,12.36465990598129,1.9411561734196352,-0.5335908,-0.27763826,0.26725355,228.16634,-72.394714,7.418891
806863805000.0,-0.0488355564455226,11.540427574939352,1.7055897542664276,-0.30482176,-0.37384954,0.3463606,227.85286,-72.44167,7.462278
806868761000.0,-0.2791152888281826,10.724436628414724,1.6254924619554898,-0.04917465,-0.46914452,0.45142943,227.58575,-72.54268,7.527196
806873738000.0,-0.4495292598672527,9.999242907973809,1.6454781616736929,0.16523905,-0.6646214,0.48838675,227.37782,-72.69814,7.6192055
806878947000.0,-0.5971859501318504,9.287806294107096,1.7170692765808593,0.3145956,-0.8906415,0.48838675,227.20937,-72.88837,7.7381196
806883760000.0,-0.6854806088264997,8.59639710088871,1.7978679715411028,0.46883908,-1.0897835,0.47342056,227.06023,-73.10294,7.876916
806888808000.0,-0.7196561092102606,7.829888735709957,1.9003945746515856,0.57879484,-1.3069462,0.44623706,226.9896,-73.33706,8.028312
806893737000.0,-0.8449317204868549,7.147755629211295,1.9321650714118797,0.66981375,-1.4929546,0.45540005,226.93141,-73.55461,8.204937
806898988000.0,-1.089760439123661,6.501408147419669,1.8831993174586168,0.75319684,-1.6099354,0.47311515,226.92435,-73.78938,8.384349
806903736000.0,-1.1819633575268818,5.927425903225807,1.8102739010752689,0.81306165,-1.6734654,0.46181414,226.9461,-73.98821,8.58256
806908744000.0,-1.097575130742913,5.336708070967742,1.693068000625611,0.8304713,-1.6786577,0.44868052,226.99022,-74.18324,8.785974
806913809000.0,-1.0137042090198365,4.775844389410735,1.5935590948220535,0.840856,-1.6716328,0.46303585,227.04283,-74.348656,8.991984
806918866000.0,-0.9324696408693116,4.277841341088098,1.5264523138929404,0.81031275,-1.636508,0.4822781,227.09534,-74.499176,9.191099
806923746000.0,-0.8540783629229871,3.797268891846557,1.4616943366467328,0.7495316,-1.5974126,0.49602258,227.17015,-74.604904,9.4238825
806929513000.0,-0.8339879169894481,3.1155546444859463,1.2496351078998973,0.6814202,-1.5922203,0.5015204,227.24954,-74.69024,9.656018
806933845000.0,-0.8456099420225978,2.5615718180035483,1.040438806975441,0.57604593,-1.5873333,0.52290064,227.3214,-74.73963,9.89034
806938785000.0,-0.8365696801319462,1.3225956591727988,0.645436925912205,0.35246924,-1.6701056,0.5311473,227.44322,-74.71062,10.161165
806943791000.0,-0.8041302242916349,-0.5670039984437114,0.081800986913643,0.21502456,-1.7024814,0.50976706,227.55455,-74.67385,10.422267
806948786000.0,-0.7761874618454799,-2.288466301346077,-0.4626036153341298,0.15882497,-1.7058412,0.4560109,227.71219,-74.59322,10.706232
806953821000.0,-0.7800280860549582,-2.8376776847789724,-0.8812332542986858,0.15302174,-1.6823229,0.4016439,227.87633,-74.49711,10.98062
806958750000.0,-0.7837878550179211,-3.375326723297491,-1.2910496377060932,0.12644911,-1.642922,0.34269542,228.3086,-74.4526,11.162342
806963842000.0,-0.7032738528210201,-3.6887064602563,-1.7478862075341877,0.08093964,-1.6172657,0.25717425,228.74359,-74.419044,11.320226
806968758000.0,-0.5737007348094951,-3.842574511997936,-2.2094904050399933,0.055283304,-1.5180001,0.15974127,229.1509,-74.39852,11.451597
806974416000.0,-0.4014295353060314,-3.839104989900072,-2.7075301502944327,0.027183503,-1.3408492,0.047036625,229.58669,-74.4054,11.584832
806979177000.0,-0.2224334747144896,-3.57061092662384,-3.0777265733404717,-0.00030543262,-1.0806206,-0.0852157,229.97787,-74.43238,11.675809
806983862000.0,-0.0386232356992146,-3.276974862296331,-3.4154192051928263,-0.035124753,-0.7367035,-0.22479841,230.3702,-74.497444,11.770267
806988758000.0,0.2719118170167623,-2.515751743787364,-3.357709133220021,-0.06994407,-0.32803464,-0.36865717,230.67744,-74.587395,11.810431
806993752000.0,0.5886626448892276,-1.739291724621967,-3.298843916832728,-0.09560041,0.08552113,-0.4972443,230.95197,-74.72044,11.843143
806998777000.0,0.9073796873520104,-0.9580118695346388,-3.2396132976204437,-0.105374254,0.4896085,-0.60994893,231.11786,-74.878975,11.821198
807003765000.0,1.2709401032988357,-0.2913244929560155,-2.83875507076326,-0.14752395,0.87872964,-0.6969972,231.17305,-75.05142,11.752172
807008652000.0,1.654396429851229,0.2989964625646832,-2.248434236416559,-0.22204952,1.1997393,-0.7761043,231.13495,-75.24181,11.6387615
807013669000.0,1.9113106593837532,0.7279312349439776,-1.6318798955182072,-0.31337386,1.5060883,-0.84574294,231.00528,-75.40213,11.55708
807018640000.0,2.1208622791916767,1.0946465049589835,-1.0175127324329734,-0.43493605,1.7837266,-0.9254609,230.79399,-75.56429,11.439957
807023626000.0,2.233679952339001,1.495681134772267,-0.6103558485532552,-0.5647449,2.0146337,-0.9941832,230.45709,-75.631485,11.350918
807028625000.0,2.3138151862919565,1.9090100901858864,-0.2729444719816757,-0.6994407,2.1111503,-1.087951,230.08417,-75.69878,11.228941
807033737000.0,2.2651814769799485,2.518251796482581,0.2243957469967514,-0.7693848,2.2403483,-1.1285735,229.57205,-75.67382,11.118517
807038627000.0,2.0868191241178446,3.2894061659236025,0.8539096335162988,-0.8744536,2.237294,-1.2000448,229.07922,-75.64303,10.975761
807043995000.0,1.9893529002985075,3.844228403097015,1.2546885637126866,-0.9306532,2.149024,-1.241889,228.51677,-75.54475,10.856596
807048647000.0,1.939482071641791,4.222415780783583,1.499886934794776,-0.95722586,1.9654589,-1.2596041,227.99074,-75.439476,10.727708
807053714000.0,2.0173570947069943,4.399664605387524,0.87051178536862,-1.0045679,1.8145752,-1.31672,227.35973,-75.26306,10.578752
807058642000.0,2.195786197836589,4.389751934940138,-0.4379684560596517,-1.2232577,1.8463402,-1.4340062,226.7429,-75.061676,10.400674
807063733000.0,2.314653557065544,4.07537261078086,-1.4032675268121295,-1.5470163,2.2186625,-1.5543466,226.04163,-74.817856,10.168711
807068654000.0,2.3956216137702944,3.613854548062881,-2.1360285816046733,-1.8402315,2.673757,-1.7406605,225.32925,-74.56321,9.870219
807073671000.0,2.633423864003427,3.415044874028061,-2.421780302966692,-1.8961257,2.7568347,-1.9101756,224.73929,-74.394516,9.66974
807078685000.0,3.199129313483988,3.7904676541501554,-1.7326481845774877,-1.7953329,2.5286767,-2.0295997,224.13104,-74.22069,9.413185
807083709000.0,3.5820781787547284,4.810736179000102,-0.4928966958184234,-1.8133535,2.400395,-2.0179935,223.57512,-74.08242,9.195746
807088669000.0,3.747197648747572,6.563915497270218,1.367124551906758,-2.0622811,2.2434027,-1.7589865,223.09312,-73.889275,9.026325
807093666000.0,3.6598294152816297,7.940649961595104,2.344467577613082,-2.2470677,1.6129897,-1.328021,222.84,-73.61229,8.940903
807098710000.0,3.3133719263268624,8.933828080520225,2.418378553610022,-2.1087067,0.74067414,-0.9410379,222.69026,-73.32251,8.943466
807103917000.0,2.712567074362102,10.542831583104606,2.034684419717393,-1.8332067,0.12889257,-0.74128497,222.5027,-72.8268,8.953604
807108740000.0,1.8673897416488765,12.72620618359256,1.1331619886906574,-1.6878207,-0.2003638,-0.6270532,222.46312,-72.305115,9.082428
807113746000.0,0.5004050155516432,14.582829603286385,0.2156523600058685,-1.6126842,0.03145956,-0.34422258,222.32652,-71.832855,9.262597
807118727000.0,-1.4451901975254302,15.940547699139278,-0.675495568156299,-0.93462384,0.07147124,-0.21227567,222.33852,-71.57161,9.45741
807123689000.0,-2.951658772474819,17.01215705017415,-1.370179363833192,-0.4550946,-0.017104227,-0.07971791,222.37262,-71.52537,9.464279
807129084000.0,-3.890348905441024,17.722253420314413,-1.8127741838934388,0.14110987,-0.12095132,0.18387043,222.37689,-71.6307,9.539449
807133687000.0,-4.561678868363862,18.188721897547342,-2.053762661471593,0.47403142,-0.42271876,0.32895094,222.36237,-72.06729,9.248119
807138712000.0,-4.960093297112698,18.338127113318848,-1.964119532008693,1.0167851,-0.75900006,0.46211955,222.36913,-72.6384,9.051447
807143668000.0,-5.100378388036411,18.21558632145644,-1.7868030465019509,1.4419475,-1.0280862,0.43768495,222.39261,-73.358894,8.725966
807148731000.0,-4.743080700390117,17.555637548938016,-1.429505534425661,1.8438967,-1.1927143,0.30207285,222.48561,-74.16673,8.443101
807153815000.0,-4.285603722419197,16.947168535912507,-1.0158200204048318,2.1743748,-1.3057245,0.23273966,222.6056,-75.02881,8.137813
807158788000.0,-2.287604556616063,17.203720865083252,0.2513934914299705,2.3176227,-1.3603969,0.23640485,222.76878,-75.912605,7.843328
807163794000.0,-0.2763470010137121,17.461975632794644,1.5270160211394057,2.2660046,-1.4511104,0.27458394,222.9868,-76.71497,7.6203833
807168965000.0,0.991193767505686,17.905309506335968,2.026967993739846,2.180789,-1.4712689,0.30543262,223.20741,-77.51054,7.4069705
807173786000.0,1.7062678797725552,18.42036231798982,2.0219674789775803,2.141999,-1.3530666,0.34300083,223.4182,-78.26464,7.2144203
807179118000.0,1.7892932595390525,18.737739843790013,1.9558144522407168,2.1270328,-1.1136073,0.41141775,223.66914,-78.62066,7.381088
807183758000.0,1.679563752313883,18.949071601609656,1.8826614615694164,2.1474967,-0.7852673,0.49266282,223.85545,-78.93548,7.547194
807188834000.0,1.2691485393501412,19.12668669289285,1.8000670870680286,2.2275202,-0.42730024,0.5656612,224.02017,-79.16245,7.806031
807193821000.0,0.6515236283905672,19.26162942838513,1.7170250826885458,2.3240368,-0.109650314,0.5888741,224.09737,-79.35557,8.051927
807198780000.0,0.1522446321070713,19.34053555969081,1.6851094849126824,2.3875668,0.18936823,0.56199604,224.07849,-79.54567,8.259884
807203883000.0,-0.3187845712997424,19.40116284225594,1.6711185286000572,2.4694228,0.4089743,0.5195409,223.99033,-79.71936,8.454794
807208800000.0,-0.7463346987910755,19.438838156366693,1.6265247810492904,2.577546,0.50243664,0.48716503,223.82953,-79.94981,8.555598
807213783000.0,-1.1650982363424198,19.465567820575057,1.5641556886109036,2.733622,0.48563787,0.43554693,223.64221,-80.17786,8.634766
807218782000.0,-1.5731103397401027,19.486324540948928,1.596183608310668,2.8490756,0.45662177,0.39400807,223.41524,-80.43745,8.64514
807223751000.0,-1.966194579963735,19.500705959202172,1.7256138197642792,2.8631253,0.4297437,0.38056904,223.19812,-80.66932,8.652442
807229088000.0,-2.2585302939814813,19.458253962962964,1.8405647458333332,2.7592783,0.4251622,0.37384954,222.97427,-80.91779,8.604413
807233747000.0,-2.413455030584491,19.37648779398148,1.9223306002604168,2.6746736,0.37293324,0.38362336,222.77771,-81.12649,8.563729
807238785000.0,-2.413884932135105,19.133722164886688,1.997979527376921,2.5054638,0.2941316,0.42058071,222.56558,-81.31478,8.491837
807243725000.0,-2.1961720504818967,18.694188270643394,2.055488642250586,2.331978,0.22937989,0.48075095,222.37035,-81.45613,8.435424
807248749000.0,-1.9046014477301536,18.161792499409174,2.0993916966376625,2.1621575,0.129198,0.5546656,222.2007,-81.56548,8.380494
807254138000.0,-1.0452761852594263,16.925473463744762,2.0328632209474704,1.9501873,-0.04428773,0.63438356,222.0757,-81.62822,8.349219
807258767000.0,-0.3508367002102637,15.847636741625088,1.927923662232716,1.7079792,-0.2489276,0.7147123,221.98787,-81.617966,8.374907
807263825000.0,0.2878878462259444,14.626291972558802,1.6819284360923024,1.498147,-0.44073927,0.8011498,221.94939,-81.57302,8.426009
807269017000.0,0.9130539694690574,13.337844378427404,1.4527441334403126,1.3432927,-0.57635134,0.86926126,221.97449,-98.58107,8.580962
807273834000.0,1.0932927604674527,11.68672814777088,1.5460820532128654,1.2644911,-0.6640105,0.91721416,222.04276,-98.7533,8.7514715
807278760000.0,1.2776100294020791,9.998250142328892,1.6415320413381709,1.2278391,-0.72082096,0.9233228,222.17711,-99.02748,9.02212
807283828000.0,1.4093283563982213,8.404606424711792,1.729004754059618,1.2089024,-0.7281514,0.9282097,222.32474,-99.31004,9.300361
807288937000.0,1.2401112843379447,7.546433971426219,1.7612365953392624,1.2064588,-0.69974613,0.92149025,222.48024,-99.58603,9.571316
807293705000.0,1.082188598962451,6.745540204100791,1.791317123666008,1.1753048,-0.67103547,0.91996306,222.63829,-99.95989,9.94547
807298752000.0,0.8764443659487351,5.988919362433423,1.8004397,1.1429288,-0.65270954,0.92271197,222.79408,-100.32537,10.311288
807303748000.0,0.6574434586118509,5.276171026281625,1.8004397,1.0732902,-0.6310238,0.9242391,222.94316,-100.68146,10.668683
807308911000.0,0.4491822713233288,4.579059468076399,1.7847744965893588,0.98532563,-0.6123924,0.9434814,223.0779,-101.02926,11.017848
807313770000.0,0.2865047659907913,3.995801067206685,1.7411292997015688,0.8872818,-0.59406644,0.9550878,223.20781,-101.36758,11.358372
807318914000.0,0.1146978192004631,3.3784664698074973,1.6935277743812418,0.79290307,-0.59712076,0.95539325,223.32414,-101.682465,11.675016
807324046000.0,0.0542318390308293,2.79870437781155,1.270265907251411,0.72143185,-0.6072,0.9584476,223.43771,-101.99481,11.989568
807328789000.0,-0.0016508858219713,2.262887619756839,0.8790868277898393,0.65118235,-0.6239988,0.95172805,223.52896,-102.27254,12.267761
807333731000.0,-0.0395762441712824,1.7957084045164038,0.479646233297827,0.6197228,-0.625526,0.9611965,223.61894,-102.55126,12.547231
807338789000.0,0.0017015464354495,1.677034729314018,0.1029863802726885,0.58123827,-0.59589905,0.95814216,223.70444,-102.819756,12.816927
807343707000.0,0.1293413686234357,1.5818291412021237,-0.1961447687808115,0.54458636,-0.5519168,0.9285152,223.87407,-103.115524,13.11303
807348773000.0,0.4467106498976109,1.5266344756541523,-0.361728741410694,0.52595496,-0.49663344,0.86926126,224.03331,-103.3969,13.394821
807353735000.0,0.7343112115343214,1.471487382048522,-0.5116688758011095,0.49205196,-0.46303585,0.82863873,224.20808,-103.65788,13.653447
807358798000.0,0.9430835574811628,1.411264638320775,-0.6200698773950485,0.441961,-0.3921755,0.77946407,224.35811,-103.89766,13.890589
807363767000.0,1.1479798219508155,1.3521599941210567,-0.7264582986710276,0.38056904,-0.2846632,0.7058548,224.5297,-104.1838,14.174929
807368854000.0,1.3232634003849757,1.2996198487358237,-0.8004639837581937,0.2947425,-0.1554652,0.6017023,224.67911,-104.44283,14.432916
807373714000.0,1.4830727511289148,1.251192737509104,-0.8634192131828113,0.18600847,-0.029321533,0.49113566,224.80219,-104.67465,14.6647005
807378812000.0,1.5322277234231652,1.1999334447725536,-0.9697834763570335,0.09040806,0.11881329,0.36743546,224.89873,-104.8902,14.8777895
807383759000.0,1.5639207186353212,1.150130193597095,-1.0784451066896024,-0.038789943,0.2764165,0.258396,224.95836,-105.07602,15.063027
807388780000.0,1.548128049105739,1.0610012000737028,-1.082609290172956,-0.13500121,0.43676865,0.15210545,224.97899,-105.248604,15.234589
807393706000.0,1.5203123657920596,0.9636464052918632,-1.059429594418239,-0.22082779,0.552833,0.050396383,224.96837,-105.3904,15.377069
807398825000.0,1.391990725066204,0.8644941618619304,-0.9255737970231028,-0.30390546,0.6407976,-0.04184427,224.93594,-105.51498,15.50257
807404548000.0,1.2118163553556751,0.7543875561409917,-0.7353896384896357,-0.39095375,0.68477994,-0.13041973,224.88448,-105.61152,15.601076
807408791000.0,0.9833221298886844,0.6557405408975371,-0.6222397881584714,-0.47250426,0.70280045,-0.19914207,224.81137,-105.684586,15.676573
807413768000.0,0.6616365769567885,0.5304085220177053,-0.5052632313875012,-0.52290064,0.71776664,-0.25228736,224.72815,-105.7379,15.732438
807418722000.0,0.3008432488844008,0.4150207380025005,-0.3907646637382189,-0.5757405,0.68752885,-0.3118467,224.61334,-105.74541,15.743062
807423851000.0,-0.1809977902288901,0.3205421064608579,-0.2773902989824967,-0.61666846,0.66828656,-0.36713,224.49257,-105.740974,15.74053
807428715000.0,-0.5959115774998754,0.2686363208743959,-0.184989680685068,-0.6563747,0.61941737,-0.38881573,224.34752,-74.31225,15.68742
807433777000.0,-0.8543503216880075,0.3700795801868368,-0.1511752659583478,-0.6750061,0.53786683,-0.44501534,224.21863,-74.388435,15.608257
807438764000.0,-1.1089599655572715,0.4700198279527677,-0.1178618550057296,-0.7305948,0.45845437,-0.4999932,224.04842,-74.53568,15.45275
807443926000.0,-1.3725041768372277,0.5734671026605551,-0.0833794352468735,-0.8026769,0.35888332,-0.54153204,223.90593,-74.69025,15.284817
807448811000.0,-1.5798955204216074,0.6960282187088275,-0.1039569332806324,-0.8875872,0.2660318,-0.5888741,223.78036,-74.856705,15.099148
807453973000.0,-1.6276592774527887,0.9261626019675012,-0.3427756730961792,-0.958753,0.17348573,-0.6267477,223.68079,-75.02505,14.905263
807458798000.0,-1.6723047884321476,1.1412727141765482,-0.5660031856126483,-0.9801333,0.048258353,-0.6719518,223.57144,-75.30548,14.589733
807463761000.0,-1.6227810695124067,1.709381022609752,-1.5904312649175776,-0.9550878,-0.06261369,-0.72387534,223.48094,-75.59035,14.261618
807468771000.0,-1.5645026770085024,2.312979050459829,-2.69355874518827,-0.92485,-0.15088372,-0.782213,223.41628,-75.880974,13.919694
807474596000.0,-1.3331180373214704,3.1127895277452584,-3.087247672886912,-0.89827734,-0.20708331,-0.86834496,223.37387,-76.17775,13.572865
807478809000.0,-1.10639590100679,3.726828605830016,-3.0494606501677985,-0.86467975,-0.28893927,-0.9691377,223.3547,-76.48579,13.21171
807483803000.0,-0.8338502183569017,4.494368415417897,-2.975112411777121,-0.8384125,-0.43860126,-1.0830641,223.5867,-76.858116,12.842762
807488799000.0,-0.4955573030128746,5.948523123944702,-2.389411233896159,-0.8258898,-0.72784597,-1.1893547,223.87439,-77.25269,12.454729
807493786000.0,-0.1911630455729825,7.447662132684037,-1.8621934384265115,-0.8906415,-1.0714576,-1.2782356,224.23697,-77.65164,12.061838
807498856000.0,-0.0642394667973691,9.23278074513028,-1.6411007381988365,-1.0467176,-1.3154984,-1.3130548,224.64595,-78.05456,11.66175
807503821000.0,0.0600555171515304,10.980929445484442,-1.4245868808752846,-1.3399329,-1.3356569,-1.2718215,225.01071,-78.427345,11.255976
807508789000.0,0.4240442873990829,12.794527109952352,-1.3621674969612514,-1.7993035,-1.0726794,-1.1972959,225.35626,-78.764275,10.859295
807513761000.0,0.8521292140627529,14.626730789535198,-1.340763311867302,-2.3991733,-0.43554693,-1.1609493,225.59192,-79.0477,10.468347
807518802000.0,1.7293322283701815,16.011576353355508,-1.5684509071414596,-3.0057623,0.22999077,-1.1441506,225.68277,-79.269806,10.056181
807523811000.0,2.949470922011348,17.01584410174134,-1.9908066314028563,-3.3411274,0.42638394,-1.1276573,225.7241,-79.40013,9.663895
807528820000.0,4.174280183340986,17.74244212452934,-1.98649573488842,-3.339295,0.50426924,-1.1154399,225.63463,-79.413734,9.31245
807533775000.0,5.390131976618607,18.20873633795573,-1.5942855289007256,-3.123354,0.21991149,-1.087951,225.59755,-79.349236,8.985586
807538775000.0,6.649012883301636,18.61922834355268,-1.2676814914416128,-2.7009406,-0.172264,-0.9801333,225.73666,-79.13123,8.923684
807544285000.0,8.10621024427539,18.940374365614304,-1.0589369543552682,-2.211332,-0.1554652,-0.7858781,225.83032,-78.92552,8.887215
807548821000.0,9.305819541802968,19.20475156272347,-0.887092086801065,-1.8383989,0.12461651,-0.5323691,226.00232,-78.53257,9.1278105
807553826000.0,9.257270392214686,19.33152680684164,-0.438649389147744,-1.6313156,0.34391713,-0.27488935,226.16339,-78.1716,9.397564
807558843000.0,8.662175186670598,19.392925260198567,0.11393886100462,-1.6007724,0.39553526,-0.033292156,226.26915,-77.80973,9.702903
807563759000.0,7.665130696462561,19.432302711258757,0.6551195950799067,-1.6111571,0.33750305,0.22143865,226.49545,-77.2436,10.287838
807568826000.0,6.436522222786856,19.46279979143473,1.2127858448913629,-1.6307048,0.19639318,0.45051312,226.69336,-76.66266,10.884945
807573764000.0,5.287118645329577,19.484643953125,1.733501746943306,-1.6484199,0.009773844,0.6059783,226.81677,-76.103264,11.390976
807578831000.0,4.168442591769126,19.4970739375,2.2389776545765026,-1.6859881,-0.2501493,0.6954701,226.97896,-75.52879,11.916673
807583793000.0,3.1067577855065025,19.50881799555099,2.705210396115674,-1.7128662,-0.47433686,0.75441855,227.01381,-75.04292,12.269201
807588741000.0,2.3323965898528405,19.516926653319643,2.9281939550136893,-1.7058412,-0.61941737,0.7965683,227.09056,-74.56133,12.630532
807593709000.0,1.5549053974503766,19.525068086584533,3.1520788217488023,-1.6542231,-0.6072,0.8063421,227.083,-74.17126,12.810223
807598772000.0,1.0404737429032258,19.53050793548387,3.238814238709677,-1.593442,-0.4596761,0.7348709,227.07605,-73.80288,12.972644
807603820000.0,0.6180223248721762,19.535001720739984,3.279261637873013,-1.5335772,-0.2602286,0.6395759,227.048,-73.45575,13.121713
807608729000.0,0.5061181202776538,19.536686,3.278944278885814,-1.4630222,-0.045814894,0.49510628,226.92409,-73.20865,13.1078415
807614124000.0,0.5891467416061066,19.536686,3.251268087831444,-1.3756685,0.17654006,0.3436117,226.74742,-72.99758,13.055548
807618796000.0,0.8029192543321187,19.249432536595524,3.113047417771994,-1.2968669,0.2883284,0.20341812,226.54729,-72.8457,12.910533
807623752000.0,1.2525914373326392,18.49338996376887,2.7869116072982822,-1.2235631,0.5018258,0.13133603,226.26332,-72.72065,12.729294
807628735000.0,1.7880086479524773,17.076753449949443,2.3490653542467137,-1.2012665,0.6731735,0.00061086525,226.00357,-72.62243,12.506778
807633763000.0,2.4331213412790698,14.820887953488372,1.768869656976744,-1.1368202,0.77366084,-0.115453534,225.71194,-72.55121,12.265581
807638814000.0,3.023772459317311,12.641438496691048,1.2100667544409611,-1.0806206,0.7996226,-0.21166481,225.47519,-72.45759,12.067847
807643739000.0,2.9950228790316964,11.4298481840822,0.9184636542580982,-0.9975429,0.74189585,-0.2687807,225.24184,-72.39393,11.851477
807648815000.0,2.965391839533264,10.18111063549286,0.6179200326280042,-0.8979719,0.5925393,-0.28008172,225.1561,-72.25431,11.793555
807653867000.0,2.697968939749168,8.984286071367631,0.3072536424161761,-0.7452556,0.36926803,-0.24984388,225.10849,-72.14878,11.740695
807658791000.0,2.376111118914769,7.829621094488525,0.0014886937189659,-0.5296202,0.12339478,-0.18478674,225.10753,-72.07585,11.706849
807663820000.0,1.9351477340381995,6.6197032516078735,-0.2514289766088482,-0.2761111,-0.09621128,-0.06566802,225.20349,-72.00172,11.744607
807668804000.0,1.3583966022510232,5.3824789187292925,-0.4281752932254922,0.023823744,-0.30848694,0.07666359,225.3595,-71.96972,11.823507
807673743000.0,0.7713866125000001,4.23830296228105,-0.5471094193073248,0.33841935,-0.52412236,0.19486602,225.58566,-71.97947,11.93357
807678743000.0,0.1518678624999999,3.2137142381568475,-0.5757025920780254,0.61483586,-0.7312057,0.28893927,225.86208,-72.0216,12.089622
807683773000.0,-0.3702176394639175,2.3405319092783508,-0.5738580764536082,0.86009824,-0.86376345,0.38515055,226.14566,-72.10972,12.242874
807688776000.0,-0.719779439516257,1.736398036478985,-0.5206638832791435,1.0852021,-0.93645644,0.46303585,226.469,-72.23068,12.425391
807693746000.0,-1.0670355151229185,1.13624905630452,-0.4678205612569389,1.2574661,-0.97005403,0.50823987,226.75949,-72.39669,12.569064
807698797000.0,-1.2850762914661733,0.6134060300123381,-0.3204183335184042,1.378112,-0.95417154,0.528093,227.05763,-72.57888,12.726322
807703719000.0,-1.4740896945918158,0.1190631685379396,-0.1604838847357598,1.4483615,-0.88147855,0.5522222,227.351,-72.76456,12.893387
807708744000.0,-1.520587903724903,-0.5258979478029235,0.1908243717330046,1.4883732,-0.8063421,0.56016344,227.6423,-72.943054,13.021257
807713762000.0,-1.5502105858841142,-1.1860601021794643,0.5632235142127509,1.4828753,-0.77549344,0.54611355,227.93092,-73.11583,13.146073
807718786000.0,-1.6252798312018413,-1.662565557009907,0.7786673184278995,1.4376713,-0.70463306,0.52381694,228.11537,-73.30079,13.2369
807723769000.0,-1.7255645886020214,-2.030276400630441,0.9028294120784548,1.4019357,-0.6215554,0.5015204,228.2926,-73.48201,13.319099
807729552000.0,-1.7732144037930364,-2.330587994028399,0.9665738113207548,1.3231341,-0.52503866,0.46639562,228.37126,-73.620285,13.386031
807733768000.0,-1.784994970608831,-2.5072960042209687,0.986208041509434,1.2061534,-0.4465425,0.40194935,228.43552,-73.754326,13.433297
807738752000.0,-1.7460986835366374,-2.5434824817282267,0.9394436395206004,1.074512,-0.4089743,0.3191771,228.46759,-73.87302,13.454364
807743791000.0,-1.6678854773095624,-2.452919878444084,0.8406480332252837,0.9233228,-0.37995818,0.20586158,228.48497,-73.9915,13.443547
807748816000.0,-1.5663268737126042,-2.293718116478666,0.7235678713094654,0.77824235,-0.3549127,0.08979719,228.49355,-74.102455,13.409593
807753673000.0,-1.3975148950367828,-1.933281599529181,0.5547558831054438,0.61666846,-0.33505958,-0.04184427,228.50157,-74.21907,13.336306
807758642000.0,-1.227013262077393,-1.538733390167006,0.3600450139551934,0.43127087,-0.2770274,-0.172264,228.51337,-74.33968,13.239441
807763923000.0,-1.0570561351272914,-0.9876603625641548,0.0407316560315682,0.28221974,-0.16279559,-0.310625,228.50935,-74.47569,13.098017
807768640000.0,-0.8912865265935851,-0.5168987290316688,-0.2704096725680065,0.16218472,0.00580322,-0.4364632,228.5067,-74.62286,12.936556
807773631000.0,-0.6632619111956963,-0.0996621779263093,-0.6973493821975233,0.061391957,0.22602014,-0.56138515,228.46184,-74.78332,12.727554
807778624000.0,-0.4094638541658704,0.2896174191668259,-0.9628359883737816,-0.046120327,0.48563787,-0.6731735,228.4078,-74.97109,12.492686
807783807000.0,-0.0585076515000955,0.5978897646999809,-0.6877622137951461,-0.10751228,0.75961095,-0.7635816,228.29018,-75.17412,12.217463
807788629000.0,0.3018612622106535,0.9130559872641072,-0.3707222141433485,-0.14996742,0.9437868,-0.8570439,228.2442,-75.36756,11.948725
807793618000.0,0.879274055429023,1.4105193482011713,0.3266147715571255,-0.2846632,1.0216721,-0.9324858,228.152,-75.54813,11.653967
807799042000.0,1.4911086819340569,2.0042230349942063,1.0823677811756032,-0.42546764,0.9428705,-0.9621128,228.18886,-75.54928,11.425087
807803659000.0,1.8218097087748868,3.1407165772885284,1.6971920720004212,-0.52534413,0.7483099,-0.956615,228.2266,-75.534775,11.191043
807808668000.0,2.126853259631491,4.343860071356784,2.3363878165829144,-0.6337727,0.4978552,-0.95142263,228.13,-75.49022,10.991904
807813728000.0,1.938879991889271,5.283726097804814,2.7251506544564927,-0.7602218,0.398895,-0.9593639,228.04749,-75.4153,10.795009
807818669000.0,1.7553274393370362,6.201488555646654,3.104770650886009,-0.852157,0.3295618,-0.96883225,228.0207,-75.23056,10.62688
807823657000.0,1.4660639283562684,6.414847891786759,3.04963444544371,-1.0592403,0.4083634,-0.99082345,227.98145,-74.991844,10.45251
807829000000.0,1.1356773846126225,6.463625631959781,2.857660208950534,-1.2547172,0.52870387,-1.0732902,227.95451,-74.73968,10.261803
807833683000.0,0.88605107650597,6.097238625926924,2.044361551530658,-1.3625349,0.6356053,-1.244638,227.89734,-74.452805,9.962792
807838661000.0,0.6206998568273634,5.70777150740641,1.1798301151360089,-1.3716979,0.7663304,-1.5372424,227.84392,-74.18818,9.548631
807843656000.0,1.1770976588714603,5.957774462996537,0.7502342530026481,-1.3811663,0.8723156,-1.8680259,227.77267,-73.91648,9.078202
807848665000.0,2.002822686738643,6.417053489183133,0.4619633847423099,-1.6065756,1.0329732,-2.1612413,227.66046,-73.60772,8.534672
807853734000.0,2.939847563589602,7.115029801276751,-0.7005460421438412,-2.0299053,1.2177598,-2.4040601,227.57323,-73.42741,7.884364
807858730000.0,3.88911528090383,7.862138533893634,-2.0673157079911824,-2.2782218,1.294118,-2.4801128,227.4765,-73.212135,7.210759
807863807000.0,4.902888648684091,9.798159336348014,-2.762845992855205,-2.0299053,1.3991868,-2.2470677,227.42787,-72.97342,6.723851
807869608000.0,6.093676974893732,12.787691858777244,-3.099482319697929,-1.575116,1.2944235,-1.666135,227.38678,-72.68572,6.3371525
807873765000.0,6.028084962440328,14.415585188657628,-2.720107473801795,-1.4300356,0.46944994,-0.9639453,227.704,-72.58863,6.3152633
807878789000.0,4.879672718483865,15.78449280141302,-1.5395397591560056,-1.2134838,-0.35308012,-0.39003745,228.0084,-72.58061,6.428082
807883804000.0,3.3423695671041607,16.522840518011726,-0.5690297081541469,-0.59864795,-0.5656612,-0.021380283,228.48544,-72.77375,6.8480716
807888896000.0,0.995580428241646,16.00990553150889,-0.0016242093549287,0.016493361,-0.4343252,0.17654006,229.04993,-72.94968,7.3838916
807893759000.0,-1.0925623741451276,15.368703051051533,0.3620998346283512,0.44348818,-0.28069258,0.27885997,229.47354,-73.14131,7.6993904
807898780000.0,-2.547699641611816,14.0139197262803,-0.0779151658532669,0.6936375,-0.21746802,0.32711834,229.87088,-73.39936,8.031344
807903744000.0,-3.9863177248033392,12.674516335687912,-0.5129349751324451,0.88422745,-0.16065755,0.3555236,229.94492,-73.794426,7.9345284
807908792000.0,-4.419948493188119,11.974986493861389,-0.8354768766336633,1.1392636,-0.057421334,0.27885997,229.99713,-74.258545,7.822243
807913841000.0,-4.385478800221782,11.576670583920793,-1.1035743775049505,1.393689,-0.005497787,0.15271631,230.05406,-74.75485,7.711061
807918803000.0,-4.26933894251785,11.36858233175498,-1.2975699230514843,1.6022996,0.08674286,0.13133603,229.9479,-75.402,7.3566117
807923868000.0,-3.747998625757234,12.053980568132282,-1.155386160499812,1.6780468,0.15485434,0.20433442,229.84558,-76.06753,7.005222
807928706000.0,-3.250023413025178,12.708661055317547,-1.019574700830515,1.7922786,0.15943582,0.42119157,229.77356,-76.77996,6.7169056
807933758000.0,-2.6642056574196165,13.659320761639112,-0.9748808501724312,1.9092593,0.10934488,0.7476991,229.69786,-77.468666,6.4896693
807939192000.0,-1.9621700614971092,14.973658694898065,-1.032943986220712,2.0494528,0.053145275,1.1133019,229.6205,-78.13471,6.343666
807943773000.0,-1.1484514619709565,16.168925015161204,-1.1186435115900994,2.2208006,0.0021380284,1.4789047,229.60634,-78.71657,6.3862553
807948760000.0,-0.088485522845922,17.538592791122475,-1.24077950959905,2.4248295,-0.025350908,1.8121318,229.59904,-79.24824,6.5276027
807953754000.0,0.7237416918659929,18.531465404454423,-1.0179663961295151,2.6050348,-0.021685716,2.111761,229.67441,-79.6746,6.8469887
807958767000.0,1.0517056812427474,18.78754685813213,-0.1194349625977915,2.773023,0.0421497,2.3341162,229.74586,-80.0163,7.2330246
807963711000.0,1.2496430873696052,19.00782054141952,0.6750444360830435,2.9003882,-0.044898596,2.434298,229.99199,-80.17329,7.8069477
807968841000.0,0.9180297197075066,19.09826026938024,1.1071467074882388,2.968805,-0.258396,2.346028,230.26892,-80.22347,8.373158
807973709000.0,0.5445082810946977,19.0832552465271,1.3907225744472704,2.9458976,-0.4633413,2.0384574,230.55058,-80.11813,8.904345
807978732000.0,-0.0296185796321659,18.744426329485425,1.277779569340638,2.9449813,-0.53969944,1.5741998,230.87088,-80.013885,9.3481245
807983828000.0,-0.5248792102509627,18.453709017660337,1.207475032054176,2.9816332,-0.42913285,1.0940597,231.14424,-79.96569,9.635284
807988748000.0,-0.6906771182313106,18.362989208870005,1.2981946121896164,2.977968,-0.20219639,0.7452556,231.41766,-79.95309,9.820973
807993756000.0,-0.8594405172487054,18.270646769353338,1.3905368189616254,2.924212,0.044593163,0.5308419,231.60992,-80.04558,9.850934
807998777000.0,-0.9730836253980892,18.16194509649681,1.5236203648248408,2.7940977,0.24953845,0.41050145,231.7578,-80.15781,9.81034
808003791000.0,-0.8545675956210191,17.986083038535032,1.8256451219267515,2.5836546,0.37965274,0.34574974,231.86328,-80.26902,9.728693
808008745000.0,-0.7374697871815287,17.81232543280255,2.124055701640128,2.3142629,0.41691554,0.33933565,231.92499,-99.610435,9.606346
808013760000.0,-0.2063393265896163,16.781597381489842,2.2511505514040637,2.0372355,0.42424592,0.3539964,231.96393,-99.50372,9.478256
808018907000.0,0.5413831676153499,15.30395525959368,2.295657764162528,1.9226984,0.3744604,0.42424592,232.01416,-99.43172,9.37047
808023732000.0,0.8414167975995648,14.157669644940151,2.190368780696409,1.7098118,0.32375857,0.5180137,232.0441,-99.381294,9.292662
808028732000.0,0.6920505625614799,13.244103993870148,1.9124781749655424,1.5225816,0.3115413,0.6270532,232.0813,-99.3599,9.243449
808033728000.0,0.5428038205114254,12.331269195321,1.63480988171926,1.3393221,0.3817908,0.7067711,232.2261,-99.438774,9.309376
808038744000.0,0.150142174120425,11.139533704840613,1.322854394781582,1.1725558,0.4654793,0.7357872,232.36545,-99.52473,9.390506
808043729000.0,-0.3430435775177095,9.838463173307751,0.9987609074340812,1.0216721,0.50518554,0.73792523,232.49197,-99.615326,9.484533
808048748000.0,-0.7367213321711156,8.666671764524825,0.8151910320476481,0.91232723,0.4792238,0.72326446,232.60918,-99.71391,9.579714
808054628000.0,-1.138212834544822,7.374064784610034,0.6829926040500827,0.8338311,0.37965274,0.71929383,232.7312,-99.80729,9.675368
808058707000.0,-1.3902264388555698,6.48330147813391,0.63206923,0.7867944,0.21227567,0.72082096,232.81708,-99.88697,9.7457285
808063813000.0,-1.6642656245206962,5.377529280532888,0.63206923,0.7687739,0.015577064,0.7370089,232.93805,-99.963974,9.815167
808068780000.0,-1.8977218946478007,4.390401997539219,0.6539742207228545,0.7742717,-0.20830505,0.7467828,233.0737,-100.03167,9.867117
808073903000.0,-2.0737876857787345,3.545286116066851,0.7193700642386958,0.7819075,-0.43799037,0.75533485,233.2662,-100.09962,9.918361
808078733000.0,-2.1739352,2.874717449007619,0.7582937040259617,0.8032878,-0.6417139,0.76144356,233.48618,-100.16589,9.961328
808083767000.0,-2.1739352,2.3758875879973664,0.7628285183613959,0.8167268,-0.8017606,0.7498371,233.75742,-100.22706,9.996658
808088767000.0,-2.108975509103212,1.9450300783471672,0.7627255720317575,0.8173377,-0.9282097,0.7287622,234.08813,-100.277565,10.020862
808093746000.0,-1.8637637570371703,1.6955164145795742,0.7498197021652833,0.8127562,-1.0192287,0.6939429,234.44879,-100.32027,10.034577
808099008000.0,-1.5710015186351445,1.452504847581206,0.7401310339545047,0.8023715,-1.0534371,0.65393126,234.8789,-100.35473,10.044492
808103780000.0,-0.9990073289857953,1.4207274136684216,0.7673688676328598,0.7733554,-1.0885619,0.59528816,235.32114,-100.3746,10.03959
808109066000.0,-0.3231181522755431,1.42779377931775,0.7926585475757826,0.71776664,-1.0891727,0.528093,235.72508,-100.42408,10.0605345
808113790000.0,0.6708574508300984,1.8238893371272813,0.770238034659288,0.6401868,-1.0592403,0.5036584,236.11934,-100.466866,10.0780525
808118916000.0,1.7494177686792765,2.2536915871974887,0.745909594945073,0.5687156,-0.97005403,0.43982297,236.42923,-100.5635,10.146708
808124841000.0,2.119871896262776,2.521185371007256,0.5860210616524928,0.41722095,-0.75319684,0.32253686,236.68811,-100.62566,10.194757
808128738000.0,2.11404825740813,2.6318345092455333,0.4433418184988686,0.13958271,-0.6740898,0.2724459,236.95697,-100.67226,10.242666
808133849000.0,2.0893107406061566,2.768687810837829,0.2555177857426214,0.04550946,-0.49266282,0.124005646,237.09305,-100.81977,10.383292
808138796000.0,1.8224328466756583,2.783723213337036,0.0638167669351,-0.12583824,-0.28893927,-0.057726767,237.19815,-100.91754,10.503107
808143788000.0,1.5531273187797523,2.798895384203428,-0.1296280452515074,-0.28069258,-0.089491755,-0.23701571,237.2798,-100.97885,10.581541
808148768000.0,1.289793967804208,2.7639449190224856,-0.2513539536664015,-0.40500367,0.045814894,-0.3744604,237.31927,-100.99308,10.623394
808153863000.0,1.0252044401489409,2.682804235160148,-0.3113275703571687,-0.50854534,0.10262536,-0.49480084,237.32214,-100.95584,10.62223
808159154000.0,0.7504363948449136,2.5985421432434386,-0.3736083173465404,-0.6230826,0.12492194,-0.5900958,237.32025,-100.84918,10.547666
808163786000.0,0.2675391013752456,2.204613032023576,-0.3650663645383104,-0.72356987,0.12492194,-0.6743952,237.30646,-100.71005,10.444134
808168792000.0,-0.3093600262933856,1.7062035258349706,-0.3415194698984937,-0.8335256,0.10293079,-0.7510588,237.29095,-100.54363,10.317746
808173743000.0,-0.7312464634793236,1.323569742452638,-0.2108272929354246,-0.9108001,0.06811147,-0.8356637,237.25732,-100.314964,10.12319
808178791000.0,-0.8346502343165614,1.1758500845182318,0.1584718621837442,-0.9401216,0.005497787,-0.91690874,237.23279,-100.0696,9.91163
808183721000.0,-0.8695108447329377,1.1052109582436942,0.4463898470975519,-0.97035944,-0.07971791,-0.97310835,237.20836,-99.71672,9.593999
808188817000.0,-0.779000062893175,1.1730940351724777,0.6047836869640209,-1.0125091,-0.14966199,-1.0143417,237.19257,-99.34972,9.259772
808194006000.0,-0.6757275411270983,1.3117527115707437,0.6854650978417266,-1.0891727,-0.1685988,-1.0390818,237.06966,-98.96832,8.913328
808198767000.0,-0.5481630920263789,1.64433144367506,0.5214536714388489,-1.1676689,-0.1423316,-1.0677924,236.94498,-98.58619,8.559255
808203784000.0,-0.4568227087830524,2.020454521323643,0.2890368138889748,-1.2498302,-0.13561209,-1.087951,236.83592,-98.20652,8.200869
808208912000.0,-0.5403558226225452,2.510262217071285,-0.1931769537683624,-1.3139712,-0.12980886,-1.0900891,236.71376,-82.15684,7.8426933
808213778000.0,-0.6196210589608784,2.9750446366321324,-0.6507534345446111,-1.3744467,-0.07941248,-1.0961977,236.55429,-82.47422,7.5130906
808218960000.0,-0.6570976371050142,3.6185760702365184,-1.3912826237086091,-1.5045611,0.048563786,-1.0790935,236.36539,-82.759384,7.1934485
808223736000.0,-0.6657520925070955,4.293623998259224,-2.213456474304636,-1.6346754,0.16401732,-1.0934488,236.1609,-83.02479,6.8663993
808228789000.0,-0.2939052057896206,5.280295130115327,-2.815393301990328,-1.7681495,0.2125811,-1.1496484,236.07681,-83.31116,6.4986796
808233794000.0,0.459488967550223,6.532980250558036,-3.140823969308036,-1.8961257,0.14935656,-1.2131784,235.98808,-83.56227,6.128582
808238720000.0,1.2798108197721283,8.440293381026198,-2.919166991210665,-2.044566,-0.021380283,-1.2464706,236.02159,-83.817276,5.7733197
808243733000.0,2.269600724217176,11.707344200124012,-1.627974821233917,-2.2366831,-0.19975294,-1.2125676,236.06927,-84.02626,5.4265056
808248787000.0,3.267485858281661,15.001115363044493,-0.3262223322926676,-2.4388795,-0.3200934,-1.1496484,236.17232,-84.117386,5.2392263
808253769000.0,3.690162192913386,16.418266338582676,-0.4515426779527559,-2.733622,-0.36682457,-1.0387764,236.29988,-84.13245,5.083694
808258744000.0,3.943173238051639,17.281994117377767,-1.0011875651529023,-3.167947,-0.27580565,-0.8564331,236.41605,-84.04332,4.9726577
808264978000.0,4.907242811239827,18.023486856582096,-1.589980112312111,-3.4263432,-0.1142318,-0.7370089,236.41434,-83.69724,4.964549
808268798000.0,5.702305902862614,18.3702320418382,-1.9192132399329824,-3.25469,0.15974127,-0.63804877,236.34863,-83.30083,4.9878197
808273810000.0,6.68352565525276,18.71705494711782,-2.0118784642589405,-2.9046643,0.20280726,-0.5635232,236.38681,-82.91408,5.067861
808278773000.0,7.593576449822713,18.952994790598726,-1.7663091136460338,-2.613587,0.17654006,-0.5222898,236.35672,-82.54188,5.145879
808283787000.0,8.235327209519365,19.125674790947272,-1.4468244077573496,-2.32984,0.52412236,-0.42455134,236.32668,-82.18916,5.384378
808288844000.0,8.624031874475035,19.23867030564629,-1.0581195823369107,-2.1572707,0.88361657,-0.25473082,236.27979,-81.86307,5.6270146
808293787000.0,8.72821305754433,19.325028892606223,-0.7008498604536634,-2.0561724,1.0888673,-0.083383106,236.27832,-81.44948,5.9840117
808298817000.0,8.381714801438608,19.37337722231516,-0.3744967089113415,-1.983174,1.2284501,0.03359759,236.16808,-81.05485,6.3331847
808303999000.0,8.01270022180499,19.422535358548757,-0.033999616622585,-1.9211712,1.3234396,0.16249016,236.03412,-80.579666,6.740081
808308882000.0,7.278904816897959,19.44798497877551,0.4240922772146939,-1.8536706,1.3582588,0.3032946,235.854,-80.1085,7.150749
808313747000.0,6.547814371501134,19.47334078512472,0.8804955259385034,-1.8304577,1.359786,0.36957347,235.59348,-79.654396,7.485979
808318779000.0,5.53050384784153,19.48943785,2.1336314425956284,-1.7876972,1.2812898,0.44806966,235.33063,-79.20097,7.8423524
808323763000.0,4.44808394787796,19.502479316666665,3.598593314872496,-1.7479908,1.0839803,0.47861293,235.09229,-78.762535,8.185988
808328794000.0,2.8039604653337027,19.515747815748178,4.325479274439213,-1.7052304,0.763887,0.5112942,234.82224,-78.374855,8.42364
808333825000.0,0.7669569665909721,19.52909043829041,4.51672623996123,-1.6649132,0.43188173,0.53786683,234.60922,-78.0015,8.662608
808338786000.0,-0.5380469098085121,19.415747743352053,4.631032971107652,-1.5885551,0.20189096,0.56321776,234.32642,-77.63126,8.743647
808343957000.0,-0.8965839522213952,19.117525652209217,4.644436319270587,-1.4822645,0.15943582,0.5723807,234.08562,-77.28015,8.828698
808348818000.0,-1.2336267994789902,18.83718189180594,4.657036140469585,-1.3988814,0.16707164,0.5375614,233.76678,-77.09328,8.655852
808353653000.0,-1.393135622276029,18.3429016779661,4.538339773607748,-1.3219124,0.1386664,0.43493605,233.48073,-76.92886,8.477879
808358649000.0,-1.33772946158543,17.562178193809874,4.251235027129171,-1.2495248,0.14782938,0.2837469,233.19342,-76.78799,8.281835
808363690000.0,-1.0712469232777253,16.652727708739903,3.855362423051096,-1.1667526,0.17654006,0.12217305,232.91183,-76.68589,8.012861
808368655000.0,-0.6322270059343196,15.654955453467633,3.3764317821949428,-1.0668762,0.2003638,-0.03481932,232.64346,-76.61655,7.712453
808373645000.0,-0.2217516476985507,14.623581430724638,2.814282112608696,-0.9831876,0.17379116,-0.1695151,232.42404,-76.55793,7.4076166
808378638000.0,0.1709483136618357,13.57484109758454,2.2044421579710143,-0.9074403,0.13103059,-0.2660318,232.2129,-76.527275,7.0784416
808383647000.0,0.4806954716105477,12.51255421673428,1.6354680232048682,-0.788627,0.04062254,-0.33933565,232.08505,-76.517426,6.794016
808388627000.0,0.7225438279594321,11.448421654868154,1.103401590750507,-0.6432411,-0.122478485,-0.3830125,231.99434,-76.53397,6.504892
808393623000.0,0.8336274031340872,10.399923217734695,0.6455482716379465,-0.47494772,-0.3323107,-0.37812558,231.99725,-76.57802,6.29668
808398669000.0,0.8509760239418417,9.35466936205349,0.23785583029492,-0.29077184,-0.44623706,-0.33169982,232.01784,-76.658844,6.0973577
808403744000.0,0.7676573927707337,8.14906071382249,-0.1963534029611307,-0.17073683,-0.634689,-0.28099802,232.16344,-76.75741,5.973313
808408694000.0,0.5213198659571815,6.720302838120973,-0.6594679517243817,0.083383106,-0.7501425,-0.116980694,232.30963,-76.914345,5.900219
808413757000.0,0.2569454414656237,5.496842652037876,-0.9590133082750104,0.3747658,-0.75533485,0.12797627,232.49475,-77.09173,5.899592
808418760000.0,-0.0192088137324001,4.573698401860848,-1.0458046478592014,0.655153,-0.7247916,0.37232238,232.69344,-77.30645,5.951335
808423982000.0,-0.3125844378861452,3.6218772804215313,-1.1192288128732306,0.88056225,-0.68477994,0.573297,232.90536,-77.544075,6.0641274
808428694000.0,-0.6389419198574233,2.9038908687674345,-0.9793613275544996,1.0564915,-0.6713409,0.7122689,233.11197,-77.80548,6.2270107
808433758000.0,-0.9757569800380048,2.1728187144133018,-0.8175362844845606,1.2018774,-0.6872234,0.7840455,233.31021,-78.064705,6.4106646
808438701000.0,-1.1691575259857483,1.853482880095012,-0.5476750663182899,1.3200798,-0.7247916,0.80573124,233.51328,-78.333374,6.616889
808444037000.0,-1.3773743735764794,1.480947772013398,-0.2388962517305545,1.3820826,-0.7425067,0.8445212,233.69194,-78.5746,6.8168035
808449458000.0,-1.575415890975065,0.4327766418496463,0.4953066277540008,1.3747523,-0.72387534,0.8604037,233.87752,-78.81243,7.0133276
808453712000.0,-1.7308242316896167,-0.3897505648864905,1.0714547645050243,1.3304645,-0.6774496,0.8518516,234.04251,-79.0094,7.189022
808458732000.0,-1.76864684878268,-1.158038574477124,1.2950119777369282,1.2486086,-0.6041457,0.8170323,234.20068,-79.1851,7.356815
808463801000.0,-1.7765790469281046,-1.8917635691503265,1.4258926052287582,1.1175779,-0.5412266,0.73548174,234.35614,-79.339714,7.5045056
808468905000.0,-1.768732624244319,-2.569864283677298,1.4366068239733167,0.93737274,-0.4905248,0.63255095,234.41338,-79.4191,7.6041737
808473739000.0,-1.7397805718574109,-3.129603392120075,1.2821960962476546,0.73823065,-0.42363504,0.5225952,234.45236,-79.483765,7.672843
808478725000.0,-1.7106592262877445,-3.549984468206039,0.9184209136660746,0.49693888,-0.36102137,0.40439278,234.46371,-79.49699,7.7151113
808483856000.0,-1.6815659398460627,-3.797277605486481,0.3026125545448983,0.2556471,-0.26267207,0.26206118,234.45053,-79.49938,7.7132626
808488743000.0,-1.6089102824458286,-3.893130328414773,-0.3712917654971489,0.03573562,-0.11148291,0.0842994,234.41971,-79.48948,7.6775784
808493734000.0,-1.4789222948153349,-3.817653395648741,-1.1679923612008072,-0.14782938,0.13988814,-0.08399397,234.33644,-79.46603,7.5946746
808498787000.0,-1.3172140928738674,-3.7109652809325056,-1.905950291163596,-0.29016098,0.31612277,-0.25778514,234.2823,-79.49174,7.475951
808503756000.0,-1.0120129329329126,-3.4590532188333505,-2.298351760836812,-0.32895094,0.64904433,-0.35124752,234.11423,-79.51751,7.3145394
808508770000.0,-0.6013248177434087,-3.2088792914573383,-2.5541684044737387,-0.3387248,0.9407325,-0.5519168,233.98964,-79.65554,7.107007
808514288000.0,0.2982548130101723,-2.9510729360286487,-2.225053841156321,-0.28527406,1.2507466,-0.8344419,233.77063,-79.83316,6.8342795
808518737000.0,1.0475918376096631,-2.661055407438017,-1.7499620099936426,-0.15210545,1.3045027,-0.9111055,233.58133,-80.04569,6.6120477
808523785000.0,1.960814391012624,-2.116634269303424,-0.6611197153864317,-0.13225232,1.3720033,-1.0415252,233.31058,-80.31093,6.2805524
808528785000.0,2.840496173918919,-1.5260285261824325,0.4470548908243243,-0.13988814,1.2886202,-1.1209377,233.08047,-80.50388,6.064452
808533767000.0,3.416743243378378,-0.3171184548986487,1.9098361359864864,-0.19700404,1.0586295,-1.1548407,232.87497,-80.70587,5.8281584
808538746000.0,3.992643315405406,0.891063649662162,3.3717365413783784,-0.3203988,0.7703011,-1.142318,232.67609,-80.66632,5.7277303
808543734000.0,4.101349568984631,2.0321031877802973,4.097884116183757,-0.50854534,0.6215554,-1.1417072,232.5058,-80.60103,5.621933
808548787000.0,4.007874670697909,3.1578674106324014,4.512425454715713,-0.7467828,0.68233645,-1.1548407,232.35939,-80.48922,5.5229025
808553748000.0,3.6508330009423857,4.040002356939388,4.570570596433926,-1.103528,0.84329945,-1.2046263,232.1565,-80.02649,5.489198
808558796000.0,2.718955767102164,4.459347198661384,3.882016747215678,-1.4724907,1.1276573,-1.3176364,231.91086,-79.49951,5.428826
808563815000.0,2.158853602529857,4.642131027948555,2.644188688530846,-1.6172657,1.3930782,-1.566564,231.61755,-78.915596,5.2642617
808568766000.0,2.0248283776482228,4.555014560052293,0.7912901111087551,-1.543351,1.4669929,-1.8881844,231.32004,-78.30096,5.0428452
808573760000.0,1.8896391283937533,4.467141475690764,-1.077701101907993,-1.5241088,1.4428637,-2.1700988,231.00424,-77.796585,4.607862
808578733000.0,2.5021174506920416,5.501718039071511,-1.5278955978806228,-1.6044376,1.3399329,-2.3484714,230.71251,-77.27936,4.116059
808583780000.0,3.584571756978085,7.243865647443291,-1.114425871337947,-1.6331482,1.2119566,-2.3732114,230.45256,-76.76467,3.5975475
808588991000.0,4.399263325794372,9.840056732106556,-0.0140552665668127,-1.8277088,1.3148874,-2.1084013,230.2624,-76.58816,3.195829
808593732000.0,4.92873766813951,12.759452131806995,1.4577863067133845,-2.05098,1.3942999,-1.4844025,230.091,-76.3611,2.9088042
808598804000.0,4.197545705471198,14.571446405479232,1.124628880179963,-2.2369885,1.14018,-0.74464476,230.02075,-76.06697,2.9097073
808603792000.0,2.858153134152808,15.726624246244077,-0.11498092915562,-2.2666154,0.2996294,-0.42302418,230.08247,-75.749176,2.9962
808608787000.0,1.1793193498077112,16.79807337461789,-0.9313876680465438,-1.7079792,-0.08246681,0.0720821,230.00687,-75.37805,3.34732
808613790000.0,-1.9436800395621736,17.506772177793117,0.065515341398284,-0.5729916,-0.08246681,0.49846604,230.03809,-75.15836,3.7668743
808618779000.0,-4.804862148260212,17.95962693494705,1.029166277549168,0.23609942,-0.24037547,0.82344633,230.17831,-75.30367,4.04062
808623746000.0,-6.334090611270802,17.087067432299545,1.829762347507564,0.64904433,-0.28130344,0.8695667,230.28622,-75.607285,4.3310537
808628954000.0,-7.80695609961156,16.05168167479801,2.5570974902035424,0.86101454,-0.116980694,0.8552113,230.15135,-75.98528,4.1513114
808633773000.0,-7.713736827501554,13.749886624300808,1.9798560535891856,1.1074986,-0.04062254,0.7293731,230.06642,-76.46365,3.9829495
808638748000.0,-7.617499874036668,11.373578183499069,1.3839282372047856,1.3665055,-0.023518313,0.5314528,229.82063,-76.87653,3.5434246
808643728000.0,-7.262416738618154,10.13341932745782,1.1128766381185786,1.6132951,0.022296581,0.30695978,229.56898,-77.33703,3.0882244
808648760000.0,-6.599224372136865,10.21972507616175,1.2218946406447355,1.733941,0.05467244,0.18112154,229.33534,-77.812035,2.6373858
808653714000.0,-5.914679243087445,10.519277266536394,1.297579269780166,1.8176296,0.01282817,0.21319197,229.14676,-78.33881,2.2115767
808658762000.0,-5.154215921934538,11.251400518905715,1.311749378153395,1.9559906,-0.09712757,0.36987892,228.9768,-78.89132,1.8037838
808663784000.0,-4.465120334912718,12.074896824189526,1.266335722244389,2.1084013,-0.19914207,0.61391956,228.84926,-79.43162,1.5362507
808668854000.0,-3.927368036834384,13.12903401430248,1.0811494392166645,2.2522602,-0.33200526,0.9166033,228.75755,-79.983376,1.3469945
808673716000.0,-3.411677371497726,14.13992455046208,0.9035605421593076,2.4178047,-0.5128214,1.2666291,228.75139,-80.57327,1.3590771
808678729000.0,-3.0093737099885627,15.260092542127335,0.8648480712619138,2.5720482,-0.7153232,1.6010778,228.78418,-81.1712,1.4621385
808683759000.0,-2.706351494776973,16.444633571483035,0.93830799960732,2.6603181,-0.9804387,1.824349,228.8851,-81.764084,1.642853
808688767000.0,-2.3912531611618992,17.353682306104393,0.8875900990563256,2.7235427,-1.2770138,1.9236146,229.12616,-82.404625,1.9847103
808693765000.0,-2.0618968997640814,17.96063838454733,0.6993865056738425,2.7889054,-1.4370605,1.8240436,229.41315,-83.01777,2.3285878
808698745000.0,-1.8124040175824176,18.414851555406425,0.4155375116466739,2.871983,-1.7327193,1.6969837,229.85127,-83.57668,2.7358365
808703765000.0,-1.663188654945055,18.67698685110309,0.0041871059760086,2.9425378,-1.9569068,1.3139712,230.3329,-84.11807,3.031281
808708818000.0,-1.5104395730644236,18.913892018256547,-0.4067195216115465,3.107166,-2.0522017,0.840856,230.9094,-84.666245,3.2951071
808713792000.0,-1.3237605321544637,18.76363794733321,-0.7664182349321353,3.277292,-1.928807,0.4343252,231.49623,-85.18837,3.4592166
808719237000.0,-1.071286083734332,18.569529921481056,-1.094381619247947,3.3441818,-1.5848899,0.20861048,232.0925,-85.69703,3.5559032
808723844000.0,-0.1178136378331651,17.949773594943093,-0.3602078159919321,3.3044755,-1.1456778,0.1441642,232.62762,-86.115555,3.577643
808728705000.0,0.888227074023916,17.295847937617058,0.4144435531479613,3.1752775,-0.75716746,0.14721853,233.11115,-86.38059,3.5722523
808733794000.0,1.891927193010055,16.64567765293545,1.1537792770677913,2.9513955,-0.52015173,0.19730948,233.51025,-93.57124,3.5603971
808738794000.0,2.668509012666234,16.15254758481998,1.5770163837820306,2.641992,-0.40103304,0.27305678,233.83133,-93.7082,3.5569932
808743705000.0,3.431267675932533,15.668195231916965,1.9927198699967563,2.3338106,-0.32253686,0.39645153,234.09091,-94.05035,3.7394848
808748755000.0,4.13293052703139,14.929224940627805,2.0610027615426008,2.0702224,-0.28863382,0.53878313,234.33244,-94.411514,3.943919
808753746000.0,4.793097840914799,14.101872018295964,1.9838402900986547,1.8933768,-0.22449298,0.7031059,234.5469,-94.78678,4.184433
808758774000.0,5.141695929328622,13.221576890459364,1.929168213074205,1.750129,-0.08032878,0.8491027,234.6802,-95.21847,4.5461245
808763802000.0,5.159147467246535,12.29230117423213,1.8986286139440065,1.6203201,0.13775012,0.9465357,234.77893,-95.64466,4.930837
808768772000.0,4.989589362824299,11.324321276207552,1.889227612054419,1.4468343,0.3484986,1.0161743,234.78722,-96.1582,5.4033275
808774433000.0,4.263453782392955,10.080742802731493,1.9378272254113056,1.2837334,0.5128214,1.0714576,234.75096,-96.665146,5.8918705
808778703000.0,3.715741553380089,9.142731836163255,1.974485121372073,1.1682798,0.58551437,1.1404854,234.6555,-97.1935,6.4084535
808783783000.0,3.064130751650496,8.026784363056318,2.018096857081839,1.0855075,0.57879484,1.1924089,234.53967,-97.70676,6.92913
808788748000.0,2.476540467564243,7.169311755604156,2.023955190924002,1.0228939,0.49357912,1.2498302,234.43039,-98.219986,7.4620643
808793792000.0,1.9318170451749592,6.545355993985785,1.9909416731547291,0.9981538,0.4343252,1.289842,234.31984,-98.7297,7.995686
808799575000.0,1.3072858097115911,5.829984033351559,1.953091321596501,0.9941832,0.15699236,1.3179418,234.29086,-99.15433,8.4335985
808803785000.0,0.4096354375186105,4.840669592307693,1.5937660241687346,0.9669997,0.061086524,1.3286319,234.22859,-99.5734,8.873314
808808866000.0,-0.9330356819057068,3.372424747692308,0.9658982051215882,0.96852684,-0.10170906,1.3081679,234.26688,-99.98817,9.299474
808813776000.0,-1.4964445288568855,2.516150360756076,0.6398229317128713,0.9966267,-0.18570304,1.2373075,234.3332,-100.316696,9.631431
808818770000.0,-1.4835300718271829,2.094277828082808,0.5322023800495049,1.0247264,-0.21777347,1.1478158,234.43045,-100.62806,9.943692
808823761000.0,-1.3170902792990276,1.7201058812803889,0.4581093518800648,1.0118983,-0.19914207,1.0522153,234.62065,-100.82321,10.0969715
808828728000.0,-0.8352426457678281,1.4454527181928687,0.4532908788654781,0.95539325,-0.14080444,0.96944314,234.80554,-100.99211,10.224611
808833791000.0,-0.3937517922905488,1.2235941917044986,0.4166167970326042,0.8546005,-0.06627888,0.9007208,234.9758,-101.15795,10.343938
808838798000.0,-0.0474275160678909,1.1098019542406108,0.3226144894273628,0.72021013,0.018325957,0.8219192,235.12297,-101.28639,10.435356
808844587000.0,0.1153760565817518,1.01106617770073,0.1798272728102189,0.5439755,0.12583824,0.713796,235.26552,-101.42091,10.554279
808848751000.0,0.0607987429967153,0.9637658161861312,0.0524802041058394,0.36774087,0.24190263,0.5366451,235.37479,-101.499214,10.630777
808853792000.0,-0.0428501124185425,0.908888063759095,-0.0565522660776489,0.16890424,0.36468655,0.34697145,235.38806,-101.60741,10.742106
808858728000.0,-0.2712519431775238,0.8632076873379946,-0.0108718997575034,-0.004886922,0.48930305,0.15821409,235.36371,-101.650154,10.803353
808863771000.0,-0.5046049481446112,0.8165370758526603,0.0357987014079126,-0.17165314,0.61544675,0.003970624,235.31186,-101.63684,10.813854
808869277000.0,-0.7593821929093906,0.7655816154445202,0.0867541505486584,-0.33628133,0.7244862,-0.14844026,235.22392,-101.55519,10.7722
808873739000.0,-0.9642790679281392,0.6841931012458247,0.3098763276063916,-0.46914452,0.7867944,-0.2782491,235.10889,-101.42486,10.693806
808878727000.0,-1.1928394497932653,0.5806941050916313,0.6160609660435136,-0.5861252,0.7892379,-0.39614612,234.97502,-101.24337,10.57573
808883755000.0,-1.4305062095893046,0.5155466959170915,0.9187959562373762,-0.6649268,0.71593404,-0.49968776,234.80792,-100.9785,10.38048
808888770000.0,-1.6753332809079542,0.4924497919303645,1.2144362115033185,-0.72326446,0.6612616,-0.59223384,234.62921,-100.67882,10.155053
808893737000.0,-1.8656836027254275,0.4732536446506234,1.415173830356625,-0.76144356,0.5500842,-0.63316184,234.39792,-100.33499,9.896302
808898795000.0,-1.9815507752826904,0.4592091338866338,1.4818852060742245,-0.77640975,0.4196644,-0.6930266,234.18558,-99.96054,9.602002
808903762000.0,-2.0953333466729487,0.4454173021419252,1.5473963573572052,-0.8151997,0.2938262,-0.75991637,233.95215,-99.522804,9.253396
808908726000.0,-2.039898317100339,0.6073762265371592,0.9716021061397256,-0.88300574,0.16707164,-0.8200866,233.75635,-99.073494,8.884404
808914252000.0,-1.8748430198449475,0.8950439698271253,-0.0611722824006415,-0.95172805,0.106595986,-0.88086766,233.57735,-98.61127,8.492201
808918916000.0,-1.742012800260704,1.168698822219994,-0.9252791823724056,-1.0326678,0.029626964,-0.9257663,233.42297,-98.11725,8.058479
808923740000.0,-1.6123066960994683,1.488331606016244,-1.810059794505164,-1.105666,-0.041233405,-0.96669424,233.2845,-97.62177,7.6048865
808928727000.0,-1.4035182284175804,1.9533612380226444,-2.5825311625746634,-1.1878275,-0.121256754,-1.0036516,233.26212,-97.193665,7.1898556
808933773000.0,-1.0804066852028171,2.6254333310421685,-3.151207490148881,-1.2345587,-0.18448131,-1.0506883,233.24646,-83.23423,6.7656074
808938767000.0,-0.6815966796522859,3.376219086123632,-3.578889109642627,-1.280679,-0.29138273,-1.104139,233.36096,-83.63491,6.362997
808943732000.0,0.106801744719897,4.547335104233741,-3.333949762371217,-1.3295482,-0.47800204,-1.1869112,233.509,-84.049065,5.943906
808948742000.0,0.9023457741468128,5.7290654669188665,-3.086790421015776,-1.3429873,-0.75991637,-1.2892311,233.78006,-84.42209,5.571022
808953759000.0,1.4681546225426412,7.284428443467558,-2.3712085746439246,-1.3973542,-1.0961977,-1.3530666,234.11191,-84.79921,5.1929693
808958739000.0,1.9210111458413928,9.003605750483558,-1.4403368955512574,-1.505172,-1.5286902,-1.3720033,234.54291,-85.18359,4.806806
808963800000.0,2.1537276162693684,11.012650200337704,-0.7806952205323798,-1.6853772,-1.8310685,-1.3457361,235.012,-85.39708,4.586864
808968936000.0,2.056019042252682,13.435822448251889,-0.5315384537147398,-2.0314324,-1.5485435,-1.3313808,235.42867,-85.59787,4.368357
808973746000.0,2.3656237422649444,15.249613776509465,-0.7119114452988885,-2.612976,-0.870483,-1.2528846,235.69934,-85.63703,4.2460356
808978764000.0,3.3039437175528183,16.44296421848403,-1.534745831056373,-3.1358767,-0.19303341,-1.0732902,235.88219,-85.56586,4.160026
808983839000.0,4.448685300718629,17.38625424461028,-1.818346529019716,-3.2119296,0.2742785,-0.8597928,235.88626,-85.412445,4.0581083
808988769000.0,5.840648589828635,17.92563957628524,-1.309409947464529,-2.889698,0.36193767,-0.6768387,235.80275,-85.1465,3.9928606
808993749000.0,7.122351081956931,18.417996789985363,-0.7787868230890654,-2.7119362,0.17104226,-0.6056729,235.79321,-84.75325,4.099897
808998847000.0,7.989990605686808,18.73443038542756,-0.1765432265408738,-2.3716843,0.065973446,-0.5109888,235.72849,-84.40475,4.2437453
809003748000.0,8.65174848573201,18.99025552419355,0.2675980725992556,-2.1157317,0.26419923,-0.3827071,235.7682,-83.8722,4.566232
809008743000.0,8.94355264671216,19.14357651209677,0.4209190553380893,-1.9819523,0.52503866,-0.21594086,235.80489,-83.373184,4.9002824
809013731000.0,8.952265540522308,19.267166794063797,0.5427992170241881,-1.9569068,0.7706065,-0.06047566,235.82507,-82.78314,5.321761
809018769000.0,8.478015301532235,19.341558978895637,0.6125418769528765,-1.9868392,0.98807454,0.09560041,235.75937,-82.19474,5.7553434
809023704000.0,7.881176979323638,19.40276009830033,0.7057831648852286,-2.019215,1.1707232,0.28893927,235.63477,-81.55817,6.236927
809028729000.0,6.949401804100228,19.43648932118451,0.8617817232346241,-2.0124955,1.3087788,0.44532076,235.44418,-80.92006,6.7180486
809034141000.0,5.918839696727199,19.471503070893608,1.0865602863342567,-1.9862283,1.3539828,0.5439755,235.18927,-80.31037,7.142382
809038764000.0,4.796897311070073,19.489672547040115,1.786070983841182,-1.9333885,1.2287555,0.5729916,234.93387,-79.70884,7.568312
809043824000.0,3.5763958662533217,19.50872510067907,2.56187918001181,-1.8704693,0.88453287,0.58246,234.66295,-79.1944,7.8686557
809048761000.0,2.468945284617656,19.518031595905917,3.4320191378998133,-1.8008307,0.43004912,0.58093286,234.45673,-78.703224,8.167315
809054016000.0,1.2792546605239463,19.527488453727045,4.311868798199496,-1.7165314,0.09040806,0.5726862,234.23093,-78.28945,8.308701
809058741000.0,0.1019618267554913,19.531561788260717,4.645910134173569,-1.5943583,-0.022907447,0.59315014,234.06755,-77.90124,8.459461
809063773000.0,-1.1518238958948508,19.535899781778895,5.001655319913576,-1.4721853,0.042455133,0.6078109,233.87413,-77.55959,8.464448
809068772000.0,-1.4632330339698925,19.402009418150534,5.23110948307957,-1.3414601,0.13225232,0.58246,233.7061,-77.25173,8.467119
809073761000.0,-1.5659829159311829,19.237609744344088,5.432499169324731,-1.237613,0.14019357,0.50488013,233.54462,-76.97422,8.459647
809078742000.0,-1.5086993030314233,18.81996585212569,5.477274751792976,-1.1545353,0.11484267,0.40622538,233.30688,-76.793846,8.273524
809083780000.0,-1.281282912107209,18.128798348428838,5.356878052587801,-1.0693196,0.09560041,0.29138273,233.07344,-76.644966,8.068572
809088742000.0,-1.0516028811065363,17.456670886001028,5.188428675295934,-0.9960158,0.06994407,0.23640485,232.86356,-76.48263,7.8510017
809093726000.0,-0.8090183715748842,16.79954311914565,4.915137204374679,-0.97097033,-0.0009162979,0.13744467,232.68344,-76.34598,7.6016593
809099578000.0,-0.5241859980236747,16.02797175244467,4.5942500278435405,-0.92149025,-0.06536258,0.06169739,232.54126,-76.19894,7.3888307
809103738000.0,-0.3310382838166666,15.3449177,4.306051525,-0.84971356,-0.15668693,0.0033597588,232.43158,-76.07024,7.1654882
809108741000.0,-0.1314017683606359,14.052534182236842,3.749170721875,-0.7742717,-0.33322698,-0.06872234,232.36948,-75.96185,6.933259
809113774000.0,-0.0014946544660794,12.599794411167151,3.0335230950060383,-0.6774496,-0.5717699,-0.14721853,232.3927,-75.858025,6.7616076
809118787000.0,0.0189678862675285,10.918455506713078,2.082014920089508,-0.5329799,-0.83108217,-0.20463985,232.47183,-75.790085,6.592426
809123752000.0,0.0392344960306173,9.253215598351922,1.1396175355970732,-0.37873647,-1.0577132,-0.21166481,232.63974,-75.74157,6.4787846
809128731000.0,0.1060415638020679,7.907836335672083,0.466855169239291,-0.183565,-1.2431108,-0.18387043,232.86551,-75.74313,6.3756666
809133932000.0,0.2118028655162481,6.75365866778065,-0.025164760441285,0.017715093,-1.3350459,-0.12064589,233.12183,-75.78178,6.292034
809138867000.0,0.2987567786597748,5.637557152039874,-0.4690284070149529,0.22418754,-1.3713925,-0.003970624,233.47073,-75.89414,6.2978396
809143731000.0,0.3675499639652945,4.511068579915082,-0.8774879924681558,0.4166101,-1.3203852,0.15882497,233.81161,-76.040886,6.334123
809148810000.0,0.4299972700691172,3.4524667008089853,-1.2315719942742696,0.634689,-1.1670581,0.36346483,234.15356,-76.22811,6.4445696
809153853000.0,0.4641366372792962,2.750712852246308,-1.3681295185673892,0.86437434,-1.0228939,0.5534439,234.47559,-76.4439,6.5923057
809158765000.0,0.4973891797612315,2.06718818356896,-1.5011397425070687,1.040609,-0.9120218,0.6939429,234.77962,-76.67129,6.808874
809163817000.0,0.5629793574081535,1.616710114618705,-1.5157913140719423,1.1872166,-0.84940815,0.7678576,235.0553,-76.919426,7.051815
809168767000.0,0.6402828117966427,1.2802128182158272,-1.479413158676259,1.2617421,-0.8045095,0.806953,235.30603,-77.16219,7.3160195
809173746000.0,0.7691752551251599,1.066439455581948,-1.3023669462817469,1.3090842,-0.7987063,0.8200866,235.56186,-77.39178,7.6141267
809178729000.0,0.9304839696692856,0.9312888961995248,-1.0364255200438517,1.3005321,-0.7858781,0.81061816,235.81296,-77.60143,7.910845
809183779000.0,1.0990213748325892,0.7284973207254464,-0.7629433467633929,1.251052,-0.7657196,0.79412484,236.06345,-77.77467,8.219276
809188825000.0,1.2743057673549103,0.4363566164620535,-0.4842860688616072,1.185384,-0.68752885,0.77366084,236.30112,-77.92282,8.518466
809193756000.0,1.3720934136572684,-0.0600920175084983,-0.1958831350689862,1.144456,-0.6081163,0.73945236,236.52072,-78.0072,8.828145
809198771000.0,1.2760573168766247,-1.1260934238172364,0.1402434343071384,1.0345002,-0.48991394,0.6786713,236.71255,-78.055176,9.118785
809203799000.0,1.152922937602095,-1.9242796411621093,0.2821327666672585,0.86620694,-0.34483343,0.605062,236.85532,-78.02957,9.418681
809208727000.0,0.9643795432270952,-2.0227412255371093,-0.0719098120827414,0.6417139,-0.1554652,0.54000485,236.95465,-77.97153,9.698921
809213774000.0,0.7712832543856534,-2.1235804333984376,-0.4345017144673295,0.36713,0.06994407,0.47067168,236.97049,-77.83801,9.957291
809218772000.0,0.5800616867950994,-2.2234406198242187,-0.7935733071200282,0.06963864,0.2883284,0.40225476,236.93587,-77.67217,10.19391
809223714000.0,0.3909826577769886,-2.322181924609375,-1.148621688650568,-0.2180789,0.50793445,0.321926,236.83835,-77.4786,10.402343
809228733000.0,0.0464405761681487,-2.2610822330369174,-1.6878121735830414,-0.4111123,0.7501425,0.19211712,236.6749,-77.27716,10.5718
809233726000.0,-0.3444106565561842,-2.1494104445701967,-2.280531548917632,-0.5103779,0.9990701,0.015577064,236.45026,-77.07227,10.6992235
809239307000.0,-0.7108106665116279,-1.8890920258139532,-2.569078585348837,-0.5537493,1.2391402,-0.1731803,236.21921,-76.990326,10.732671
809243813000.0,-0.9658822276744188,-1.6005683922093024,-2.585804665232558,-0.48533243,1.4077389,-0.35979962,235.94394,-76.95115,10.710911
809248785000.0,-1.1536857103789129,-1.2725458109555188,-2.262611371128501,-0.3231477,1.5012014,-0.5369505,235.67493,-77.080864,10.56981
809253791000.0,-1.2425393238879736,-0.9319400863261944,-1.5715271950576606,-0.24129178,1.5482379,-0.7461719,235.3788,-77.26228,10.361386
809258770000.0,-1.2102157197522936,-0.3466927404862385,-0.7312410485045872,-0.21563543,1.5522085,-0.93554014,235.07083,-77.54968,10.047203
809263776000.0,-1.0738683999908256,0.4537983029449542,0.2451820530183486,-0.28710666,1.5100589,-1.1004738,234.7683,-77.87908,9.679212
809268747000.0,-1.035912364526956,1.3402848664778686,1.1525858782882314,-0.3921755,1.4972308,-1.2318097,234.40627,-78.19253,9.228686
809273741000.0,-1.1763722026221943,2.398750018858821,1.9501971354310883,-0.55680364,1.5439619,-1.3561208,234.04474,-78.51057,8.73079
809278735000.0,-1.2825070060363764,3.1668137948071347,2.425873127387751,-0.72326446,1.5839735,-1.4990633,233.67319,-78.618965,8.214224
809283775000.0,-1.346122336850892,3.573952222010368,2.4979704580265354,-0.89461213,1.7119498,-1.6829338,233.26672,-78.687485,7.649803
809288789000.0,-1.3797471313043477,3.88040677125,2.3838831043894926,-0.9896017,1.9016235,-1.8038851,232.77933,-78.64983,6.995966
809293729000.0,-1.2769006269565215,3.73042219625,1.4196964907300724,-1.1267409,2.1178699,-2.1413882,232.26547,-78.56366,6.2275934
809299122000.0,-1.1081742078107184,3.667070770239453,0.4449775315393386,-1.1304061,2.1374176,-2.5460863,231.77087,-78.396576,5.4197197
809303734000.0,0.4341885676168757,6.09917746104143,1.5403698476472825,-0.9651671,1.971873,-2.9092457,231.27995,-78.19363,4.539748
809308944000.0,2.1765368026510834,8.846635366305588,2.777792650535918,-0.9981538,1.7910569,-3.0607402,230.8614,-78.1404,3.5914862
809313784000.0,3.795148214851768,11.39897629941087,3.927337058593691,-1.2202033,1.5717562,-2.9205468,230.50435,-78.00269,2.6472383
809318912000.0,5.510073694555302,14.10319206489928,5.145284109114405,-1.3683381,1.1511755,-2.482251,230.24487,-77.792435,1.7802558
809323779000.0,4.595181838578978,15.441778674272292,4.856458066554819,-1.6835446,0.44318274,-1.6053538,230.0913,-77.39543,1.119312
809328724000.0,2.9306643497357605,16.446845257612615,4.145363499152756,-1.9865338,-0.40194935,-0.623388,230.05618,-76.91944,0.65704614
809333757000.0,0.7720461738477158,16.965374377664975,3.197090062213198,-1.7660115,-0.94806284,0.08277224,230.23817,-76.3182,1.0319744
809338765000.0,-2.17376014542132,16.614799124873095,1.867825417989848,-1.094976,-0.94959,0.5653558,230.44531,-75.76463,1.6007228
809343719000.0,-4.279431650796793,15.718341859645648,1.0317699117885777,-0.32620203,-0.605062,0.72387534,230.58473,-75.46996,1.9752312
809348816000.0,-5.17326544390775,13.930674172523013,0.9254761465109372,0.32986724,-0.2828306,0.66248333,230.7085,-75.33507,2.3893664
809353625000.0,-5.798975095194368,12.385012210590755,0.7001651134836242,0.78954333,-0.03634648,0.6261369,230.69487,-75.57954,2.3106987
809358649000.0,-6.059156373023161,11.025197742679318,0.2387117504749515,1.0732902,0.19883664,0.5345071,230.60785,-75.95008,2.1877902
809363647000.0,-6.020484330449516,10.169146510714642,-0.117766180482109,1.3005321,0.31612277,0.3576616,230.44743,-76.37945,1.8878918
809368636000.0,-5.529982389285358,10.069141252367189,-0.3177766340251171,1.6087136,0.36682457,0.22968534,230.2492,-76.896736,1.5776042
809373608000.0,-4.945952956812057,10.416719945802974,-0.2963027032338556,1.9230038,0.38637227,0.24037547,230.03464,-77.48713,1.2251562
809378623000.0,-4.202935432158898,11.49049957051602,0.0823964798981934,2.1908681,0.37018433,0.3051272,229.82768,-78.13478,0.8632372
809383634000.0,-3.4955137217908394,12.605890658492235,0.4441524141576567,2.3185391,0.23426682,0.5375614,229.68521,-78.842415,0.63785213
809388625000.0,-2.847184440652644,13.785098785531748,0.7777131395832515,2.561358,-0.0012217305,0.84421575,229.57704,-79.64,0.4662713
809393629000.0,-2.3512846875837004,14.969117257891716,0.956183776449206,2.8194485,-0.26511553,1.1640037,229.53938,-80.42954,0.4925344
809398657000.0,-2.1440101250813086,16.162097793380525,0.8410312256935144,2.978579,-0.50671273,1.4294246,229.56033,-81.2361,0.60223395
809403655000.0,-1.9817937097088365,17.203871622197425,0.6623833026093131,3.0509665,-0.7199047,1.6679676,229.67184,-82.023766,0.9062672
809408677000.0,-1.94275977273004,17.843051932636705,0.3013191471161611,3.1102204,-0.8390234,1.8451185,229.82848,-82.80257,1.2666985
809413699000.0,-1.879480330422692,18.37808056340378,0.0598443887107897,3.2336152,-0.84482664,1.9468275,230.04964,-83.589485,1.6973933
809418669000.0,-1.760356138172043,18.66486172580645,0.0995524534086021,3.32891,-0.8750645,1.9611828,230.32005,-84.29066,2.145307
809423669000.0,-1.6983115551625896,18.93527535239218,0.113632735919049,3.385415,-1.0231993,1.8298469,230.66763,-84.96513,2.571502
809428650000.0,-2.002922483976815,19.089923682680027,-0.0363295787896649,3.419929,-1.210735,1.5070046,231.04985,-85.53356,2.9331086
809433744000.0,-2.2835968441940224,19.23886167711906,-0.1874914453797158,3.454443,-1.3203852,1.0198395,231.46667,-85.98405,3.2095895
809438657000.0,-2.3204814624987757,19.31263081744243,-0.3165873591024008,3.5155294,-1.2705997,0.5681047,231.90057,-86.30396,3.393673
809443749000.0,-2.315215844263256,19.37048191211796,-0.4058158907430915,3.5811975,-1.0876455,0.29718593,232.32828,-86.52073,3.444034
809448679000.0,-1.780425802177522,19.199902756762032,0.0505996869543989,3.6016614,-0.8594874,0.17165314,232.73215,-93.43696,3.4067283
809453994000.0,-1.192932021705887,19.01703736819586,0.5415057639790825,3.4871242,-0.66981375,0.14721853,233.10248,-93.59168,3.3158288
809458812000.0,-0.5312149567427303,18.86348895650107,0.9729013986260994,3.2348368,-0.5513059,0.18570304,233.42816,-93.918526,3.2113028
809463759000.0,0.1482193148165755,18.70582934822914,1.4158474767910625,2.8927524,-0.46700647,0.28191432,233.68999,-94.345795,3.1840606
809468724000.0,0.9586380555537584,18.277434676156584,1.7198583424889464,2.568383,-0.34269542,0.39584067,233.9093,-94.789185,3.177044
809473702000.0,1.8994578577429095,17.578247117437723,1.8843733242855605,2.2763894,-0.26908615,0.50610185,234.12283,-95.20608,3.1985173
809478734000.0,2.726909026673985,16.68594621597146,1.8875875697585072,2.0454822,-0.16920967,0.56505036,234.2965,-95.55971,3.340425
809483815000.0,3.492503435272594,15.679990482436883,1.7985649360043907,1.9504927,-0.06566802,0.7012733,234.45544,-95.9056,3.5329921
809488886000.0,4.036988185631193,14.48920323028867,1.797953645777682,1.7650951,0.055283304,0.84574294,234.61789,-96.2118,3.8422408
809494461000.0,4.376286985178803,12.959483039638087,1.9014686172339508,1.6239853,0.18967366,1.054048,234.75562,-96.5413,4.200371
809498740000.0,3.845742620972418,11.349877552886609,1.7336082928518182,1.4355333,0.24740042,1.1154399,234.76498,-96.94211,4.6287394
809503782000.0,2.8298634385322616,9.238128336188188,1.4136463055081587,1.3787229,0.31887165,1.2174544,234.74522,-97.38626,5.1199136
809508741000.0,1.9069024238600565,7.399620221488973,1.1228555666639033,1.2776246,0.32925636,1.2867876,234.67404,-97.840614,5.646315
809513766000.0,1.3004719094345878,6.56577833705853,0.931351200265296,1.2217305,0.27488935,1.3200798,234.60783,-98.306915,6.182395
809518895000.0,0.6814903953075773,5.7146788295473385,0.7358833604128667,1.2000448,0.18234327,1.3255776,234.6276,-98.73948,6.618815
809523741000.0,0.3079464022227403,4.999937204398849,0.5951173826113313,1.212262,0.032070424,1.3277156,234.68399,-99.169426,7.054
809528752000.0,-0.0239922543250175,4.283844780601538,0.4608500619118675,1.2174544,-0.14019357,1.3298537,234.7766,-99.590225,7.4806695
809533788000.0,-0.292069771112327,3.585542064003752,0.3503705501868209,1.2226468,-0.31245756,1.3405437,235.01286,-99.96227,7.8247375
809538759000.0,-0.3143974374642382,2.975252553318221,0.3317641589697491,1.2153164,-0.44806966,1.3295482,235.28786,-100.32272,8.152542
809543709000.0,-0.3366307805424842,2.367541211959665,0.3132363704916751,1.2012665,-0.5519168,1.2999213,235.5835,-100.691925,8.437193
809548767000.0,-0.0598132916426177,1.8241024351432675,0.2724337298153593,1.135293,-0.6261369,1.2739595,235.91043,-101.04359,8.711136
809553858000.0,0.3869650732749778,1.3206431990836354,0.2190870580783696,1.035722,-0.6640105,1.2434162,236.25592,-101.37393,8.968181
809558710000.0,0.812769164137318,0.8408191540313203,0.1682447773343363,0.93370754,-0.66981375,1.210735,236.59818,-101.712395,9.228864
809564391000.0,0.9974115818007664,0.6783241070498084,0.1289823423371647,0.8237518,-0.627664,1.1508701,236.93567,-102.01505,9.469437
809568805000.0,1.0585971569816943,0.6567291804767986,0.1037882863899531,0.72295904,-0.5143485,1.0607675,237.25146,-102.2837,9.6908045
809573819000.0,1.0464723503533724,0.6384189217633714,0.0990996032737108,0.61850107,-0.376293,0.9456194,237.43297,-102.6619,10.011519
809578792000.0,0.9051875155047552,0.6301080672471862,0.1323430994415845,0.51251596,-0.30787608,0.86193085,237.60081,-103.00881,10.317053
809583781000.0,0.7573606355555556,0.6301705675163398,0.1738221776906318,0.45081854,-0.14202617,0.68325275,237.69025,-103.31355,10.585241
809588801000.0,0.5440017524279835,0.7193933692108448,0.3018374962252884,0.32284227,0.0030543262,0.50762904,237.76328,-103.570564,10.833078
809593770000.0,0.3328104595473251,0.8077097241152263,0.4285522607270233,0.16768251,0.103847094,0.34116822,237.79294,-103.751976,11.015435
809598788000.0,0.1428850469134389,0.8781296362411587,0.4061340309996632,0.021685716,0.19150625,0.19120082,237.77835,-103.87663,11.158342
