timestamp,acc_x,acc_y,acc_z,gyro_x,gyro_y,gyro_z,ori_azimuth,ori_pitch,ori_roll
2225065704000.0,0.1265928986878133,10.041336588115897,1.850228676215872,-1.1731668,0.7415904,0.03634648,226.9951,-78.95525,8.063439
2225070730000.0,0.1344950222370253,10.0398998344245,1.84208709530168,-1.1731668,0.7483099,0.027183503,226.60492,-79.34736,7.850898
2225075728000.0,0.1423531228138183,10.038471084931944,1.8339908713842237,-1.1859949,0.7641924,0.029626964,226.39632,-78.9732,7.798026
2225080808000.0,0.1503401478098384,10.03701889457136,1.8257618162620397,-1.1896601,0.75594574,0.03604105,226.19109,-78.59658,7.74062
2225085721000.0,0.1580646072203593,10.03561444353956,1.8178032832275333,-1.1930199,0.7461719,0.03268129,225.98053,-78.21554,7.6769457
2225090740000.0,0.1659557250264665,10.034179690897876,1.8096730415625248,-1.1707232,0.7632761,0.028405234,225.76321,-77.83684,7.6104317
2225095753000.0,0.173837409338484,10.032746653441654,1.80155251925396,-1.1856894,0.766025,0.036651913,225.55125,-77.44754,7.544208
2225100976000.0,0.182049265943644,10.03125358449415,1.793091819469872,-1.1957687,0.77213365,0.03604105,225.33333,-77.06766,7.4701276
2225105606000.0,0.1893287788829299,10.029930033043462,1.785591716080952,-1.212873,0.7687739,0.038179077,225.11615,-76.682884,7.396359
2225110646000.0,0.1972529139183514,10.028489277252648,1.7774274566683914,-1.2147056,0.7458665,0.040011674,224.90242,-76.302376,7.3201356
2225115554000.0,0.2049695120837976,10.027086255542068,1.7694770230975885,-1.1902709,0.7797695,0.08246681,224.67072,-75.92137,7.2499332
2225120550000.0,0.2128244681625606,10.025658077778,1.7613840389656132,-1.2501358,0.7498371,0.06536258,224.46677,-75.53207,7.165871
2225125575000.0,0.2207250194627577,10.024221609950848,1.7532440779441614,-1.2339478,0.73884153,0.06994407,224.24406,-75.16293,7.093805
2225130568000.0,0.2285752587944758,10.022794289779512,1.7451559534904084,-1.2483032,0.71685034,0.084910266,224.03326,-74.77763,7.0197296
2225135575000.0,0.2364475096124034,10.021362967508756,1.7370451505382871,-1.235475,0.69974613,0.09773844,223.8241,-74.40853,6.944283
2225140556000.0,0.244278881955942,10.01993907770835,1.728976464797421,-1.2315043,0.66920286,0.110872045,223.62392,-74.037544,6.873071
2225145587000.0,0.2521888667502288,10.018500894695734,1.7208267844195255,-1.2330315,0.6246097,0.1386664,223.43065,-73.67123,6.809428
2225150892000.0,0.2605296477746159,10.016984384880203,1.7122332534307092,-1.2272283,0.54153204,0.17012598,223.25546,-73.31233,6.753354
2225155714000.0,0.2681110325247751,10.015605947494628,1.7044221306355969,-1.1615603,0.40958515,0.1966986,223.1046,-72.97291,6.708663
2225160646000.0,0.2758653646665804,10.014196065042189,1.6964328196390193,-1.0326678,0.26450464,0.2180789,222.97726,-72.62396,6.7621512
2225165619000.0,0.2836841590179992,10.012774462155736,1.688377093040078,-0.8961393,0.118507855,0.23945917,222.8855,-72.29997,6.8305597
2225170620000.0,0.2915469763418371,10.011344855070446,1.6802760094444005,-0.7556403,0.061086524,0.2706133,222.80736,-72.015396,6.909275
2225175703000.0,0.299538718084902,10.00989180711713,1.6720420946439942,-0.6933321,-0.035124753,0.28863382,222.77986,-71.75232,7.002586
2225180691000.0,0.3073810961715454,10.008465916267015,1.663962069653944,-0.56382865,-0.18661933,0.30818152,222.78096,-71.54644,7.1116014
2225185637000.0,0.3151574397995602,10.007052031715157,1.6559500801589986,-0.3491095,-0.46700647,0.2782491,222.84686,-71.38854,7.2283173
2225190623000.0,0.3229966733881736,10.005626712593529,1.6478732949544297,0.10354166,-0.52626044,0.27214047,222.8897,-71.32704,7.348273
2225195614000.0,0.3308437682218618,10.00419996415068,1.6397884102861575,0.14630222,-0.5439755,0.24404067,223.00206,-71.22312,7.471756
2225200770000.0,0.3389502841430192,10.002726048107538,1.6314362433156888,0.11453723,-0.59681535,0.18692477,223.14305,-71.22248,7.5909443
2225205915000.0,0.3470395053250119,10.001255276571085,1.6231018951653666,0.12797627,-0.6056729,0.099265605,223.2812,-71.251305,7.68944
2225210674000.0,0.3545218383872284,9.999894848632891,1.6153928256129109,0.15088372,-0.59040123,0.03359759,223.42935,-71.278206,7.778799
2225215651000.0,0.362346921734707,9.998472102289462,1.6073306194430073,0.15821409,-0.5384777,0.006414085,223.57292,-71.30994,7.8510265
2225220656000.0,0.3702160280546048,9.997041351747194,1.5992230562763672,0.1459968,-0.4728097,-0.00580322,223.71158,-71.3479,7.9060907
2225225930000.0,0.3785080693595279,9.995533703723236,1.590679741962509,0.13713925,-0.41691554,-0.03268129,223.84094,-71.39293,7.9455476
2225230848000.0,0.3862403900151238,9.994127823370215,1.5827131094643,0.13744467,-0.36163223,-0.057726767,223.95212,-71.43764,7.9762897
2225235668000.0,0.393818630267253,9.992749957713126,1.5749052264546683,0.14110987,-0.30268374,-0.10415252,224.04985,-71.486115,7.988642
2225240663000.0,0.4016720140970011,9.991322065813302,1.5668138622154342,0.14905111,-0.22235495,-0.17928895,224.12991,-71.54161,7.9799137
2225245654000.0,0.4095191089306893,9.989895317370454,1.5587289775471622,0.13622294,-0.16187929,-0.20952678,224.1984,-71.59178,7.9679265
2225251673000.0,0.4189824757517611,9.988174700484558,1.5489788431415663,0.106901415,-0.1133155,-0.21624629,224.25137,-71.6448,7.9370756
2225255691000.0,0.4252997722938888,9.987026097951324,1.5424701141098862,0.082161374,-0.06872234,-0.21655174,224.28995,-71.69718,7.8962107
2225260809000.0,0.4333465427524775,9.985563044749464,1.5341795030635597,0.064446285,-0.051618114,-0.21655174,224.32257,-71.74328,7.8530655
2225265654000.0,0.4409640892299808,9.98417803248627,1.5263311227354135,0.0720821,-0.04886922,-0.2134974,224.34607,-71.78799,7.809401
2225270649000.0,0.4488174730597289,9.982750140586443,1.518239758496179,0.09590584,-0.062308256,-0.20158553,224.36816,-71.830154,7.7692547
2225275685000.0,0.4567353190990906,9.981310528252608,1.510081978654581,0.10629055,-0.087964594,-0.19150625,224.39233,-71.86959,7.731337
2225280754000.0,0.464705049355946,9.97986148239871,1.501870742352543,0.13805555,-0.13133603,-0.1731803,224.42307,-71.91709,7.7024803
2225285658000.0,0.4724153585253323,9.97845960414511,1.4939267883527023,0.1695151,-0.17867808,-0.13194689,224.45886,-71.96202,7.6859827
2225290658000.0,0.4802766036001552,9.977030282924064,1.485827324649765,0.20311269,-0.20005837,-0.108123146,224.49887,-72.014435,7.6718655
2225295655000.0,0.4881331319279332,9.97560181929575,1.4777327206250497,0.22999077,-0.18906279,-0.062308256,224.53738,-72.064224,7.676753
2225300761000.0,0.4961610353983423,9.974142196464818,1.4694615482916102,0.24678956,-0.15027285,-0.02687807,224.5725,-72.11711,7.6850743
2225305896000.0,0.5042345340901855,9.972674283570804,1.4611433990686935,0.2828306,-0.1133155,0.013439035,224.60059,-72.17423,7.706554
2225310729000.0,0.5118332135795093,9.97129270167854,1.453314457453435,0.27397305,-0.07880162,0.047036625,224.61609,-72.21914,7.732792
2225315722000.0,0.5196834529112274,9.969865381507203,1.4452263329996815,0.27366763,-0.04550946,0.07880162,224.61862,-72.269165,7.7663126
2225321628000.0,0.5289691555936082,9.968177067280903,1.435659246473772,0.25809056,-0.0030543262,0.105374254,224.6069,-72.30802,7.8035583
2225325699000.0,0.535369781333529,9.96701331394273,1.4290646631268409,0.2443461,0.045814894,0.12644911,224.5824,-72.34267,7.8440943
2225330971000.0,0.5436586781404222,9.965506237647258,1.4205245885984636,0.23762658,0.12675454,0.14080444,224.53604,-72.37148,7.8833165
2225335744000.0,0.5511630226888482,9.964141807609648,1.4127928405476398,0.21624629,0.19639318,0.15699236,224.47809,-72.38917,7.924878
2225340721000.0,0.5589881060363269,9.96271906126622,1.4047306343777362,0.18234327,0.24740042,0.15057829,224.4043,-72.4022,7.958244
2225345704000.0,0.5668226228778954,9.961294599737323,1.3966587088513889,0.16065755,0.2950479,0.1469131,224.31163,-72.40981,7.990543
2225350913000.0,0.574030638525657,9.960026513337963,1.3884403152498774,0.14202617,0.3417791,0.13897185,224.20705,-72.41061,8.014945
2225355953000.0,0.5627002189509934,9.962919381911217,1.3845831512786062,0.115453534,0.37659842,0.12797627,224.0943,-72.40452,8.033717
2225360736000.0,0.5519475608506728,9.965664737146511,1.3809226720574572,0.093462385,0.4147775,0.121256754,223.97841,-72.41462,8.077673
2225365723000.0,0.5407362905294729,9.968527184681198,1.3771060695327093,0.06261369,0.41722095,0.10873401,223.86475,-72.41727,8.115973
2225370688000.0,0.5295744783889561,9.97137700461497,1.37330630383482,0.03756821,0.41996986,0.1020145,223.74117,-72.41542,8.150017
2225375719000.0,0.5182642917063901,9.974264707351487,1.3694560276563543,0.027488936,0.41325033,0.07360926,223.623,-72.41382,8.17421
2225380802000.0,0.5068372038694823,9.977182257144714,1.3655659553416777,-0.0070249503,0.3820962,0.05497787,223.51144,-72.39914,8.199992
2225385665000.0,0.495904697839405,9.979973530928788,1.3618442512955875,-0.03176499,0.32803464,0.030848695,223.41154,-72.38884,8.217952
2225390674000.0,0.4846439693375221,9.98284860606439,1.3580108119439809,-0.054367006,0.24617869,0.015882496,223.32956,-72.37169,8.237183
2225395657000.0,0.47344169141281,9.985708757671638,1.35419727066048,-0.08246681,0.15088372,0.0015271631,223.26886,-72.35026,8.254589
2225400778000.0,0.4619291758092679,9.988648118775536,1.350278116553956,-0.1020145,0.027183503,-0.0076358155,223.2401,-72.32689,8.277323
2225405856000.0,0.4505133284679699,9.991562798659462,1.3463918707908378,-0.1160644,-0.11056661,-0.0290161,223.2442,-72.301865,8.300721
2225410666000.0,0.4396999716913564,9.994323651404969,1.3427107281912714,-0.12003502,-0.23335053,-0.04734206,223.27913,-72.27585,8.330397
2225415663000.0,0.428466220378937,9.997191838758257,1.3388864725634058,-0.099265605,-0.3191771,-0.07269296,223.3441,-72.25701,8.359642
2225420658000.0,0.4172369652647614,10.00005887814782,1.3350637475561635,-0.07422013,-0.3576616,-0.09712757,223.43098,-72.24129,8.389559
2225425726000.0,0.405843598914683,10.002967818213149,1.331185154896163,-0.04062254,-0.35643986,-0.129198,223.53258,-72.23792,8.4136715
2225430842000.0,0.3943423238067506,10.005904309407748,1.327269827341198,-0.008857546,-0.3042109,-0.16310102,223.63188,-72.24428,8.429403
2225435664000.0,0.3835019898406737,10.008672049935573,1.3235795010178903,0.015882496,-0.22815818,-0.18936823,223.72522,-72.26065,8.436469
2225440666000.0,0.3722569980326444,10.011543107198154,1.319751418838466,0.022907447,-0.15057829,-0.21838433,223.80557,-72.285286,8.42951
2225445648000.0,0.3610569682070543,10.014402684823542,1.3159386428652768,0.041233405,-0.076358154,-0.24098633,223.86642,-72.321106,8.411908
2225450759000.0,0.3495669335947318,10.017336306108842,1.3120271418618703,0.03604105,-0.014660766,-0.25137106,223.90979,-72.35435,8.385325
2225455832000.0,0.3381623267490435,10.020248116083469,1.3081447226503111,0.019242255,0.023518313,-0.2751948,223.9413,-72.39328,8.345741
2225461171000.0,0.3261597255369148,10.023312605232796,1.3040587308958234,0.011911872,0.055588737,-0.27397305,223.95573,-72.430275,8.306864
2225465661000.0,0.3160657604793275,10.025889783783176,1.3006224875960202,-0.009773844,0.07147124,-0.2751948,223.96571,-72.46204,8.260135
2225470657000.0,0.3048342572660301,10.0287573971546,1.2967989972784664,-0.010995574,0.086132,-0.27305678,223.96648,-72.495544,8.2133875
2225475743000.0,0.2934004251317564,10.031676668893407,1.292906629032854,-0.024740042,0.07391469,-0.2574797,223.96913,-72.51796,8.171914
2225480729000.0,0.2821914029096785,10.034538542446231,1.2890907918184178,-0.046731193,0.04520403,-0.23518312,223.9714,-72.535995,8.134066
2225485732000.0,0.2709441630025272,10.037410173690676,1.2852619443286817,-0.057421334,0.014966198,-0.22143865,223.9768,-72.55182,8.100129
2225490667000.0,0.2598497938356691,10.040242774168656,1.281485137940145,-0.062002823,-0.01160644,-0.1994475,223.98663,-72.55916,8.077266
2225495656000.0,0.2486340273162253,10.043106369667065,1.2776670047947736,-0.086437434,-0.05131268,-0.1731803,224.00694,-72.5561,8.06332
2225500718000.0,0.2372541495608787,10.046011865841232,1.2737930039966436,-0.08399397,-0.079107046,-0.1441642,224.02914,-72.555275,8.057764
2225505724000.0,0.2260001653563615,10.048885219031256,1.2699618605759722,-0.0888809,-0.10720685,-0.12797627,224.06119,-72.54474,8.059238
2225510668000.0,0.2148855632974058,10.051722985345974,1.2661781663946297,-0.07422013,-0.1142318,-0.113926366,224.0927,-72.53642,8.068685
2225515656000.0,0.203672044877084,10.05458600686252,1.26236079855957,-0.06780604,-0.11453723,-0.09132435,224.1279,-72.521805,8.086514
2225520647000.0,0.1924517821593963,10.057450750324646,1.2585411347935749,-0.056199603,-0.11453723,-0.0720821,224.16382,-72.51105,8.10764
2225525709000.0,0.1810719044040496,10.060356246498817,1.254667133995445,-0.03359759,-0.10293079,-0.05955936,224.19504,-72.50287,8.131976
2225530846000.0,0.1695234192145561,10.06330479131247,1.2507357349239328,-0.020463986,-0.095294975,-0.053145275,224.22609,-72.493744,8.159819
2225535683000.0,0.1586493637616498,10.06608114156819,1.2470339289459489,-0.0067195175,-0.08277224,-0.032375857,224.25023,-72.48702,8.193325
2225540661000.0,0.1474583263325475,10.06893842326614,1.2432242142140066,0.008857546,-0.07971791,-0.010995574,224.27415,-72.48321,8.228406
2225545646000.0,0.1362515522095915,10.071799722837108,1.239409142309882,0.02443461,-0.070249505,0.0033597588,224.2916,-72.48103,8.265208
2225551229000.0,0.1252729779512791,10.074278563362322,1.2368897289606091,0.038179077,-0.082161374,0.0143553335,224.3127,-72.47988,8.307655
2225555781000.0,0.135203876977259,10.067586012447627,1.2558879684780562,0.062002823,-0.06566802,0.027488936,224.32193,-72.48284,8.350963
2225560680000.0,0.1458918107049117,10.060383286847657,1.276334448134465,0.073303826,-0.065973446,0.05100725,224.32057,-72.52012,8.356178
2225565652000.0,0.1567390053352218,10.05307323343205,1.2970856007884075,0.07696902,-0.083383106,0.0580322,224.31943,-72.561066,8.360467
2225570659000.0,0.1676625579325594,10.0457117214747,1.317982829537058,0.07574729,-0.07574729,0.07147124,224.30885,-72.598595,8.370973
2225576758000.0,0.1809684791011558,10.036744703014966,1.343437632440597,0.082161374,-0.07880162,0.089186326,224.30505,-72.63651,8.386521
2225580874000.0,0.1899481760235928,10.030693178505988,1.3606161811782531,0.06811147,-0.07513642,0.113926366,224.2955,-72.665306,8.406373
2225585677000.0,0.2004266707559699,10.023631596334797,1.3806619949748915,0.07360926,-0.07147124,0.13408493,224.28566,-72.697945,8.429707
2225590657000.0,0.2112913186358864,10.01630978096679,1.4014465364504818,0.07269296,-0.064751714,0.14660765,224.27254,-72.7224,8.456769
2225595647000.0,0.2221777830778106,10.008973263158286,1.422272813953131,0.07086037,-0.06872234,0.16187929,224.25955,-72.7441,8.4900875
2225600807000.0,0.2334351290738686,10.001386803861315,1.443808603915791,0.070554934,-0.06963864,0.17256944,224.24321,-72.764206,8.524221
2225605710000.0,0.2441317894263244,9.994178197285144,1.4642717779830234,0.06780604,-0.087659165,0.17165314,224.23245,-72.78217,8.560199
2225610677000.0,0.2549680757756307,9.986875495089786,1.4850020626234364,0.08002335,-0.10323623,0.18051068,224.21971,-72.800285,8.600948
2225615662000.0,0.265843631936551,9.979546328501533,1.505807472112556,0.08155051,-0.13500121,0.18875736,224.21664,-72.81479,8.643023
2225620654000.0,0.2767344596908768,9.972206870204928,1.5266420968206176,0.07880162,-0.15302174,0.18387043,224.21437,-72.83133,8.683225
2225625723000.0,0.2877932749726632,9.964754203116488,1.5477980889370364,0.08093964,-0.17134771,0.17959438,224.22038,-72.84765,8.727355
2225630812000.0,0.2988957233784653,9.957272131147054,1.5690375531075742,0.06994407,-0.1966986,0.16768251,224.23422,-72.86142,8.769002
2225635671000.0,0.3094963908580866,9.950128215309071,1.5893170886557453,0.057726767,-0.22418754,0.14660765,224.25468,-72.87695,8.807592
2225640659000.0,0.3203784919876093,9.94279463798867,1.6101350189529828,0.05009095,-0.24251351,0.13805555,224.27946,-72.89039,8.846772
2225646658000.0,0.3334662475361271,9.933974643933915,1.6351724615859276,0.036651913,-0.26816985,0.12675454,224.31554,-72.9026,8.881235
2225650746000.0,0.3423848580849419,9.927964286258332,1.6522341494478177,0.029932396,-0.27672195,0.111177474,224.35262,-72.916176,8.911626
2225655885000.0,0.3535963893007834,9.920408702086409,1.6736822937536524,0.009773844,-0.29077184,0.099571034,224.39864,-72.92404,8.941703
2225660667000.0,0.3640290692529441,9.913377995040262,1.693640461893466,-0.003970624,-0.2932153,0.08032878,224.44514,-72.93509,8.964668
2225665658000.0,0.3749177153510691,9.906040006987707,1.7144709129988214,-0.03940081,-0.28160888,0.07819075,224.49084,-72.93496,8.988783
2225670655000.0,0.3858194513863989,9.898693197470855,1.7353264057204123,-0.04886922,-0.2706133,0.054061573,224.54,-72.94395,9.0014105
2225675724000.0,0.3968782666681854,9.891240530382415,1.7564823978368314,-0.06841691,-0.26633725,0.038179077,224.5869,-72.94101,9.015146
2225680807000.0,0.4079676251367827,9.88376727987728,1.7776968203911334,-0.08368854,-0.2648101,0.027794369,224.63242,-72.93966,9.023034
2225685849000.0,0.4189675357011479,9.876354309378188,1.798740125234492,-0.09437868,-0.26725355,0.020158553,224.67834,-72.93675,9.027268
2225690656000.0,0.4294547570583282,9.869286846230798,1.818802633441954,-0.109650314,-0.28680122,0.0036651916,224.72961,-72.93207,9.027359
2225695666000.0,0.4403848546242682,9.861920923541298,1.8397123829987223,-0.1142318,-0.30207285,-0.00061086525,224.77956,-72.926796,9.028695
2225700723000.0,0.4514174900316452,9.854485899381457,1.86081829188267,-0.12186762,-0.32986724,-0.0125227375,224.83974,-72.920906,9.02584
2225705703000.0,0.4622821379115616,9.84716408401345,1.88160283335826,-0.11759156,-0.33261612,-0.02687807,224.89711,-72.91798,9.020615
2225710927000.0,0.4736791099044699,9.839483529097294,1.9034057338941,-0.13683382,-0.3222314,-0.040927973,224.95885,-72.90941,9.013481
2225716599000.0,0.4860534638753305,9.831144304846823,1.9270784084422017,-0.14813483,-0.30818152,-0.04886922,225.02028,-72.90513,9.004309
2225720658000.0,0.4949088063943226,9.825176584248686,1.9440190618256197,-0.15424347,-0.30390546,-0.05497787,225.08179,-72.89939,8.992114
2225725713000.0,0.505937078489298,9.817744500576945,1.965116623504155,-0.17134771,-0.32253686,-0.061391957,225.14577,-72.88963,8.978714
2225730919000.0,0.5172947806705921,9.810090410053682,1.986844399191288,-0.160963,-0.3368922,-0.061086524,225.20668,-72.88507,8.96535
2225735815000.0,0.5279761694296424,9.80289209518586,2.0072783580395788,-0.160963,-0.35369098,-0.06505715,225.27364,-72.87564,8.951043
2225740667000.0,0.5385615653158582,9.795758471056228,2.0275286783688085,-0.15241088,-0.3585779,-0.06566802,225.3403,-72.8704,8.938392
2225745660000.0,0.5494545747263848,9.788417542515576,2.048367476679576,-0.14966199,-0.37568212,-0.06627888,225.41467,-72.86447,8.927209
2225750759000.0,0.5605788396941949,9.780920768105643,2.069648676877173,-0.13347405,-0.38973203,-0.069027774,225.48904,-72.86441,8.915852
2225755787000.0,0.5785377004088562,9.778494724293292,2.093109921644265,-0.12461651,-0.39950588,-0.070554934,225.56622,-72.86322,8.906029
2225760710000.0,0.6007976710525786,9.779441951509854,2.1177379776384786,-0.10873401,-0.3979787,-0.0729984,225.64363,-72.86825,8.895806
2225765671000.0,0.6232294635294235,9.780396490250736,2.1425561344102224,-0.10323623,-0.4007276,-0.06811147,225.67905,-72.7761,8.931406
2225770647000.0,0.64572908041408,9.781353915119643,2.16744933096257,-0.083383106,-0.39370266,-0.0720821,225.71172,-72.694664,8.962773
2225775685000.0,0.6685090381843569,9.782323269317702,2.192652691941414,-0.08399397,-0.36774087,-0.064446285,225.73819,-72.60871,8.997191
2225780905000.0,0.6921119321027465,9.783327641869086,2.2187665355915858,-0.074830994,-0.35246924,-0.06688975,225.76634,-72.53358,9.0276785
2225786486000.0,0.7173471334357985,9.784401473901513,2.2466863366282928,-0.069027774,-0.3378085,-0.0571159,225.78548,-72.455986,9.061435
2225790735000.0,0.7365595273551926,9.785219017765655,2.267942605147369,-0.045814894,-0.33322698,-0.054367006,225.80347,-72.387726,9.091852
2225795677000.0,0.7589054089154763,9.78616990074438,2.292665711530348,-0.04153884,-0.32589662,-0.058948494,225.81601,-72.31729,9.12127
2225800675000.0,0.781504501598256,9.787131558601049,2.3176689664275814,-0.03145956,-0.32834008,-0.050396383,225.82838,-72.25285,9.155056
2225805798000.0,0.8046687976794648,9.788117267524562,2.3432975528298474,-0.01985312,-0.31764993,-0.03359759,225.83434,-72.19049,9.187942
2225810995000.0,0.8281676941725433,9.789117214679646,2.369296335483093,-0.01740966,-0.31673363,-0.026572637,225.8434,-72.129715,9.220968
2225815717000.0,0.8495188177515922,9.790025767780724,2.3929188584172145,-0.021380283,-0.30573806,-0.020463986,225.84502,-72.068985,9.256287
2225820674000.0,0.8719325237196873,9.79097953688747,2.4177170045807967,-0.022907447,-0.30115658,-0.016187929,225.84737,-72.00981,9.292881
2225825689000.0,0.8946084840646535,9.791944465689228,2.442805304562715,-0.032070424,-0.30115658,-0.0061086523,225.84663,-71.947174,9.331688
2225830801000.0,0.9177230422468003,9.79292805811886,2.468378861792538,-0.030848695,-0.30665436,-0.0009162979,225.84584,-71.887955,9.36978
2225835711000.0,0.9399242317370864,9.79387278402447,2.4929418833102286,-0.03176499,-0.30787608,0.008857546,225.84235,-71.82499,9.410922
2225840722000.0,0.9625821055733028,9.794836943192092,2.5180101726839856,-0.029626964,-0.31490102,0.016798794,225.84138,-71.76378,9.453161
2225845677000.0,0.984986768287023,9.795790327481766,2.5427983135434875,-0.029626964,-0.3210097,0.013133603,225.84029,-71.70331,9.494177
2225850676000.0,1.0075903825969903,9.79675217774697,2.5678065710927616,-0.014049901,-0.3182608,0.0076358155,225.83783,-71.64747,9.535933
2225856149000.0,1.0323372481937998,9.797805229657646,2.59518608570912,-0.014049901,-0.310625,0.015882496,225.83453,-71.587494,9.579796
2225860748000.0,1.053132211628795,9.79869011650895,2.618193282442288,-0.03359759,-0.310625,0.014660766,225.83344,-71.52987,9.619193
2225865723000.0,1.0756273068862636,9.79964734896932,2.643081476342596,-0.043676864,-0.29718593,0.015882496,225.82524,-71.474014,9.65913
2225870670000.0,1.0979957965824845,9.800599193990717,2.667829595985776,-0.046731193,-0.29565877,0.011911872,225.82054,-71.41723,9.697489
2225875700000.0,1.120739581335262,9.801567008920498,2.6929929357482973,-0.06841691,-0.29016098,0.008552114,225.81052,-71.35438,9.734254
2225881033000.0,1.1448534191258313,9.802593123636308,2.719672079079019,-0.08368854,-0.2959642,0.0015271631,225.80354,-71.29466,9.768986
2225885736000.0,1.166118631788319,9.803498020975228,2.743199551624375,-0.10995574,-0.31215215,-0.0012217305,225.79756,-71.22811,9.803704
2225890727000.0,1.1886860730807869,9.804458331972151,2.7681677879573265,-0.11453723,-0.3200934,0.013439035,225.78978,-71.162834,9.840464
2225895726000.0,1.211289687390754,9.805420182237356,2.7931760455066,-0.116980694,-0.33964106,0.012217305,225.79095,-71.09591,9.873701
2225901807000.0,1.2387857023175215,9.806590218537158,2.823597172563438,-0.12156218,-0.36896262,0.017715093,225.79501,-71.025566,9.913546
2225905843000.0,1.2570349896459927,9.8073667793834,2.843787876197939,-0.14049901,-0.410196,0.043676864,225.80594,-70.94967,9.9605255
2225910674000.0,1.2788789705884716,9.808296305014768,2.8679556882044484,-0.1695151,-0.44043383,0.057421334,225.82211,-70.872665,10.006408
2225915655000.0,1.3014011956090652,9.809254691926345,2.892873898016997,-0.19975294,-0.44959682,0.07086037,225.84138,-70.78851,10.060064
2225920644000.0,1.3239595936471582,9.8102146181062,2.9178321290458684,-0.22999077,-0.45204028,0.08552113,225.86548,-70.69683,10.118741
2225925767000.0,1.3471238897283668,9.811200327029717,2.943460715448135,-0.26542094,-0.42058071,0.113926366,225.87991,-70.5944,10.1818
2225930707000.0,1.3694607280342757,9.812150825191368,2.968173816527033,-0.30176744,-0.3827071,0.124311075,225.89302,-70.48707,10.242438
2225935677000.0,1.3919332151558077,9.813107095609064,2.993036997167139,-0.33444872,-0.32803464,0.13500121,225.88988,-70.37001,10.305707
2225940665000.0,1.414487091566713,9.814066829380389,3.01799022554397,-0.3475823,-0.2782491,0.13622294,225.87714,-70.25128,10.365167
2225945655000.0,1.4370500112319933,9.81502694796878,3.042953459224881,-0.36132678,-0.23457226,0.13561209,225.84987,-70.1258,10.421676
2225950725000.0,1.459974661072268,9.816002459239948,3.068316905069014,-0.3585779,-0.21533,0.13836098,225.81505,-70.003105,10.476018
2225955902000.0,1.4712116720063284,9.802960580991098,3.084729677046932,-0.34605515,-0.20647246,0.13103059,225.77182,-69.88375,10.523396
2225960664000.0,1.4782896808078585,9.787206294876288,3.097287435674734,-0.3213151,-0.2125811,0.13530666,225.72618,-69.76844,10.57312
2225965657000.0,1.4857110369494038,9.77068778362655,3.1104543589902773,-0.30543262,-0.2003638,0.13652839,225.643,-69.53327,10.702472
2225971483000.0,1.4943705244079746,9.751413430223591,3.125817967088887,-0.28924468,-0.20250183,0.1414153,225.56512,-69.307976,10.832844
2225975751000.0,1.5007142752615927,9.737293461063992,3.1370730098909574,-0.2938262,-0.21502456,0.14844026,225.48674,-69.08581,10.961145
2225980837000.0,1.508273862150417,9.720467274759937,3.1504851813275394,-0.28619036,-0.2012801,0.15851954,225.4012,-68.87395,11.08666
2225985673000.0,1.5154618610089217,9.704468171935234,3.163238083621545,-0.29779682,-0.183565,0.1591304,225.31851,-68.66125,11.2094145
2225990660000.0,1.5228742990377395,9.687969510689005,3.176389184477666,-0.3109304,-0.18020524,0.14630222,225.23656,-68.455025,11.328488
2225995671000.0,1.530322409517468,9.671391449428752,3.189603575171475,-0.32375857,-0.18997909,0.13652839,225.1533,-68.24992,11.445422
2226001658000.0,1.5392211996675649,9.651584454265087,3.205391752597904,-0.34330627,-0.19456059,0.1432479,225.06772,-68.043846,11.559945
2226005741000.0,1.545289975378746,9.638076526880212,3.216158936234468,-0.3662137,-0.19517145,0.13072516,224.98679,-67.84261,11.664623
2226010714000.0,1.5526816044778662,9.621624182308825,3.2292731180186047,-0.37873647,-0.18692477,0.1151481,224.90472,-67.64297,11.767383
2226015725000.0,1.5601297149575946,9.605046121048574,3.2424875087124136,-0.40561453,-0.17806722,0.09621128,224.8246,-67.441086,11.86345
2226020685000.0,1.5675020214791378,9.588636784818112,3.255567408501137,-0.42546764,-0.17104226,0.09712757,224.74272,-67.2415,11.957821
2226025758000.0,1.5750422857903854,9.57185360685498,3.2689452979423046,-0.4529566,-0.16126843,0.09254608,224.6605,-67.04155,12.042404
2226030708000.0,1.582399728790716,9.555477353963692,3.281998826965325,-0.46731192,-0.1459968,0.09162979,224.5749,-66.84354,12.124967
2226035741000.0,1.5898805390171125,9.538826509357255,3.2952712333436804,-0.48563787,-0.124005646,0.08460484,224.48637,-66.64382,12.201056
2226040679000.0,1.5972201457919877,9.52248995647298,3.3082931174478567,-0.49510628,-0.08674286,0.077579886,224.39015,-66.447174,12.271949
2226045693000.0,1.6046727153280798,9.505901970210976,3.3215154193713765,-0.50701815,-0.06780604,0.076358154,224.29372,-66.24991,12.340287
2226051729000.0,1.6136443367321192,9.485932866685358,3.3374328135497504,-0.50915617,-0.040927973,0.079107046,224.18588,-66.05733,12.401551
2226055714000.0,1.6195674499354156,9.472749156024392,3.3479415636824243,-0.50671273,-0.03023783,0.08307768,224.07806,-65.86708,12.460841
2226060705000.0,1.6269858333727183,9.456237261442489,3.361103212844827,-0.49541172,-0.024740042,0.098043874,223.96367,-65.68044,12.519962
2226065733000.0,1.6344592118385086,9.439602958505642,3.374362433840331,-0.47708577,-0.021685716,0.108123146,223.84789,-65.5002,12.576349
2226070679000.0,1.6418107094303538,9.423239938950024,3.38740541455707,-0.46761733,-0.012217305,0.1282817,223.72699,-65.320656,12.636498
2226076897000.0,1.651052846920466,9.402668718651434,3.40380275667124,-0.44135013,-0.006414085,0.1600467,223.60466,-65.150154,12.700787
2226080707000.0,1.6567158485025384,9.390063966426018,3.4138500184041094,-0.4175264,-0.013439035,0.17134771,223.48404,-64.98509,12.763566
2226085754000.0,1.664217467658633,9.37336680514474,3.427159343854449,-0.40622538,-0.045814894,0.19792034,223.36438,-64.81988,12.839047
2226090717000.0,1.67159423323654,9.356947543912526,3.440247154872884,-0.3839288,-0.07574729,0.23243423,223.24452,-64.66366,12.918229
2226095673000.0,1.678960594349598,9.340551441017732,3.4533165063553257,-0.3631594,-0.093767814,0.2657264,223.12807,-64.50936,13.004255
2226100826000.0,1.686619766830548,9.323503596341206,3.466905361922118,-0.33475417,-0.13164146,0.2929099,223.02257,-64.361336,13.100927
2226105718000.0,1.6938910014078443,9.30731922681713,3.4798059405040607,-0.30757064,-0.16249016,0.30543262,222.91852,-64.218414,13.201344
2226110681000.0,1.7012677669857514,9.290899965584916,3.4928937515224945,-0.28496864,-0.1908954,0.32650748,222.82054,-64.078865,13.312529
2226115733000.0,1.7087768179024525,9.27418626263405,3.5062162623556863,-0.27916542,-0.19792034,0.3472769,222.72415,-63.94277,13.4253845
2226120678000.0,1.7161268291421763,9.25782655141235,3.5192566059958548,-0.27672195,-0.20769419,0.36041048,222.63507,-63.81194,13.542514
2226125738000.0,1.7236477708758473,9.241086381790144,3.532600213441609,-0.27000242,-0.22174409,0.36896262,222.54758,-63.683674,13.662415
2226130795000.0,1.7311642535531546,9.224356137169693,3.5459359096576515,-0.27030787,-0.22418754,0.39370266,222.4566,-63.55237,13.787074
2226135682000.0,1.7384280563698449,9.208188309315204,3.558823302856742,-0.2666427,-0.20922135,0.42821655,222.36296,-63.423286,13.913403
2226140695000.0,1.7458791395538156,9.191603631387116,3.572042967703692,-0.2770274,-0.21135938,0.4447099,222.27423,-63.29217,14.040785
2226145677000.0,1.753284145822027,9.175121511810472,3.585180883176962,-0.29993483,-0.2144137,0.4437936,222.18018,-63.158817,14.168123
2226151863000.0,1.761711172692002,9.157632901167412,3.601799448940388,-0.32528573,-0.2049453,0.45723262,222.0802,-63.02015,14.299397
2226155794000.0,1.7546045437317437,9.194849199403874,3.617321819690015,-0.35155296,-0.20799962,0.46028697,221.98628,-62.88018,14.4264555
2226160728000.0,1.745684648720318,9.241561286785892,3.636804744461997,-0.37323865,-0.19181168,0.46609017,221.83434,-62.6441,14.595868
2226165721000.0,1.736658091,9.28883195,3.656520643,-0.39400807,-0.18906279,0.47158796,221.68666,-62.405914,14.764094
2226170718000.0,1.7276243019095876,9.336140482762046,3.676252336369598,-0.42577308,-0.1872302,0.47769663,221.53429,-62.163395,14.9285345
2226175769000.0,1.7184928893229012,9.38396025442126,3.696197259965723,-0.4569272,-0.18906279,0.4868596,221.38144,-61.919273,15.091605
2226180804000.0,1.7093904022165922,9.431628547888725,3.716079004235469,-0.47494772,-0.21746802,0.5006041,221.23431,-61.67371,15.256672
2226185726000.0,1.7004922013154495,9.478227026626923,3.735514544512668,-0.49754974,-0.23854288,0.50946164,221.08556,-61.423794,15.418554
2226190715000.0,1.691472874965226,9.525459820293094,3.755214648219076,-0.52564955,-0.28619036,0.5213735,220.94997,-61.170532,15.587578
2226195681000.0,1.6824951289930452,9.572474864058618,3.774823931643816,-0.57696223,-0.33567044,0.5366451,220.8194,-60.90941,15.758813
2226200764000.0,1.6733058654456037,9.62059759210134,3.7948952138926977,-0.634689,-0.36713,0.5580254,220.69489,-60.642303,15.934485
2226205727000.0,1.6643335430009936,9.667584233705911,3.8144926511937407,-0.7086037,-0.3998113,0.56596667,220.58408,-60.364216,16.112862
2226210657000.0,1.655420879359662,9.71425845153999,3.833959781134128,-0.77457714,-0.40042216,0.5534439,220.47328,-60.07983,16.28741
2226215728000.0,1.6462533099225036,9.762267570938896,3.853983678888227,-0.8552113,-0.36743546,0.5369505,220.36205,-59.779785,16.458807
2226220672000.0,1.637315336485842,9.80907433219076,3.873506090739196,-0.9447031,-0.33444872,0.5158757,220.25357,-59.47095,16.621906
2226225742000.0,1.6281495748912072,9.857073984202682,3.893526039785395,-1.0390818,-0.28496864,0.46792278,220.13803,-59.155308,16.763891
2226230676000.0,1.6192296798797814,9.9037860715847,3.913008964557377,-1.1111639,-0.18203785,0.41996986,220.00291,-58.833797,16.885925
2226235679000.0,1.6101850437342276,9.951151408668654,3.932764350174367,-1.1942415,-0.03268129,0.37140608,219.84969,-58.50192,16.979855
2226240721000.0,1.6010699017302534,9.998885973845006,3.952673735399404,-1.2544118,0.14721853,0.30848694,219.67075,-58.175076,17.037558
2226245681000.0,1.5921030028132142,10.045844213288625,3.972259326576751,-1.3038919,0.3387248,0.24220806,219.45807,-57.845932,17.058332
2226250781000.0,1.5828830059428711,10.094127886910083,3.992397736859911,-1.3329079,0.42546764,0.17379116,219.23706,-57.52402,17.05063
2226255707000.0,1.5739775736716344,10.140764235196224,4.011849071968704,-1.3255776,0.5873469,0.14538592,218.95224,-57.209145,16.999092
2226260689000.0,1.564970902219076,10.187930757153502,4.031521534719821,-1.3118331,0.7089091,0.0842994,218.67308,-56.91029,16.914528
2226265660000.0,1.5559841170342772,10.234993137853948,4.051150561684054,-1.2812898,0.7770206,0.040927973,218.37086,-56.624203,16.811806
2226270650000.0,1.54696298284153,10.282235398907105,4.07085461409836,-1.2321151,0.79290307,0.018325957,218.06036,-56.357037,16.68934
2226276465000.0,1.5364503785668155,10.337288254222551,4.093816350529061,-1.1808025,0.7324274,0.0009162979,217.76154,-56.108112,16.559021
2226280717000.0,1.5287634321564827,10.377543583681073,4.110606256514158,-1.0977248,0.6386596,0.005497787,217.47098,-55.883446,16.431894
2226285793000.0,1.5195868235067065,10.425600040014904,4.13064989780775,-1.0735956,0.5021312,0.008552114,217.21318,-55.663654,16.315905
2226290650000.0,1.5108061323695976,10.471583138599105,4.149828772071535,-1.0103711,0.36346483,0.028099801,216.97955,-55.474854,16.22007
2226296517000.0,1.5001995202836562,10.527128298037754,4.172995841312966,-0.9645562,0.24190263,0.04886922,216.77812,-55.29087,16.14356
2226301869000.0,1.490523947097367,10.577797753179334,4.194129325986587,-0.92271197,0.1255328,0.06414085,216.61038,-55.123257,16.090714
2226305986000.0,1.4830810594277195,10.616774985394931,4.210386156405365,-0.8671232,0.06566802,0.076358154,216.45784,-54.971485,16.052095
2226310691000.0,1.4745751603541977,10.661319041157476,4.2289648270685545,-0.82833326,0.05100725,0.100792766,216.32018,-54.825466,16.030718
2226315723000.0,1.4654780967754597,10.708958932463982,4.248834725214605,-0.7870999,0.087964594,0.11881329,216.18454,-54.6962,16.01173
2226320690000.0,1.4564985429607549,10.755983443616492,4.268447957347243,-0.754724,0.15485434,0.12095132,216.0445,-54.57608,15.992091
2226325729000.0,1.4473888244843516,10.803689606631892,4.288345496448584,-0.7067711,0.24831672,0.10751228,215.88884,-54.472492,15.963018
2226330813000.0,1.4381977530943864,10.8518218020616,4.308420727405365,-0.6618725,0.35185838,0.093462385,215.71446,-54.378414,15.922343
2226335770000.0,1.429236277704918,10.898751639344262,4.327994472459016,-0.6249151,0.41538838,0.04184427,215.53575,-54.30328,15.861218
2226340727000.0,1.4202748023154494,10.945681476626923,4.347568217512668,-0.571159,0.45753807,-0.0067195175,215.33925,-54.246796,15.785287
2226345730000.0,1.4112301661698956,10.993046813710878,4.367323603129657,-0.50946164,0.473726,-0.061391957,215.14362,-54.210594,15.690499
2226350754000.0,1.4021475653313462,11.040610965921507,4.387161911612519,-0.45937067,0.49510628,-0.09040806,214.94081,-54.188843,15.584143
2226355910000.0,1.3928015148290471,10.931889238465493,4.348326460138139,-0.42332962,0.5198463,-0.1441642,214.7467,-54.18985,15.457211
2226360740000.0,1.3840294160452546,10.722282212219964,4.271455162643917,-0.35185838,0.5390886,-0.18203785,214.55147,-54.21415,15.326504
2226366263000.0,1.3739987117837875,10.482601134382689,4.183554505074435,-0.27885997,0.55955255,-0.21410827,214.30733,-54.293766,15.095699
2226370718000.0,1.3659076765701652,10.289267945578583,4.112651476019204,-0.17256944,0.56230146,-0.22388211,214.06586,-54.399033,14.866205
2226375719000.0,1.356825012798375,10.072240049459769,4.0330586481168,-0.13041973,0.57604593,-0.23884831,213.8229,-54.50774,14.628226
2226380815000.0,1.3475698129221416,9.851089447855792,3.951953858876518,-0.08002335,0.59681535,-0.23151793,213.57564,-54.640354,14.397119
2226385674000.0,1.338745045222256,9.640223911514797,3.874621015289679,-0.031154128,0.61819565,-0.22724187,213.32773,-54.781616,14.164755
2226390669000.0,1.3296732784675884,9.42345639679504,3.795123679682299,0.025045475,0.6383542,-0.2180789,213.073,-54.93219,13.937501
2226395662000.0,1.320605144051962,9.206775675874976,3.715658174839927,0.071776666,0.64934975,-0.21044308,212.81473,-55.088425,13.714102
2226400966000.0,1.3109721809154742,8.97659851910349,3.631242986038817,0.10293079,0.63438356,-0.19486602,212.55508,-55.248844,13.500673
2226405797000.0,1.3021982659621614,8.766948095958119,3.5543557731620896,0.14660765,0.6062838,-0.1881465,212.296,-55.42048,13.292081
2226410673000.0,1.2933426233804275,8.555344812319778,3.476752368072683,0.1872302,0.58246,-0.18875736,212.03807,-55.594124,13.09165
2226415667000.0,1.284272672795281,8.338620694499868,3.397270947847807,0.21930063,0.56169057,-0.19822577,211.78644,-55.772755,12.898826
2226420656000.0,1.2752118030577362,8.122113561179177,3.3178691045354505,0.26633725,0.5369505,-0.20555615,211.54112,-55.961296,12.714732
2226425774000.0,1.265916647452053,7.9000082277786365,3.236414176880081,0.30879238,0.516792,-0.20769419,211.3001,-56.152992,12.536061
2226431034000.0,1.256363595774465,7.6717405346002785,3.1526992649091463,0.35460728,0.4813618,-0.21991149,211.07126,-56.355206,12.36308
2226436146000.0,1.2470793371859046,7.449895582598801,3.0713398295488004,0.4120286,0.44990227,-0.22449298,210.84506,-56.566257,12.197615
2226440656000.0,1.2388884126486572,7.254175564303289,2.9995614544558507,0.4746423,0.44226643,-0.22174409,210.62189,-56.786396,12.036352
2226445651000.0,1.22981664589399,7.037408049583535,2.9200641188484706,0.5448918,0.41630468,-0.22724187,210.41241,-57.02001,11.88288
2226450947000.0,1.2201982121136656,6.8075780680108,2.835776253107393,0.57787853,0.37690386,-0.23457226,210.20734,-57.25487,11.73612
2226455760000.0,1.211456988211721,6.598708789062617,2.759175517115737,0.68936145,0.3567453,-0.2443461,210.00427,-57.524433,11.591712
2226460664000.0,1.2025504928834148,6.385890392228649,2.681126481316219,0.73853606,0.3323107,-0.24862215,209.81161,-57.78073,11.456384
2226465659000.0,1.1934787261287472,6.169122877508896,2.6016291457088387,0.84757555,0.2846632,-0.25900686,209.63123,-58.078053,11.3265295
2226470654000.0,1.1844069593740798,5.952355362789143,2.5221318101014587,0.97219205,0.23732115,-0.267559,209.45627,-58.386513,11.202496
2226475776000.0,1.1751045390903148,5.730076441789228,2.4406132209160734,1.0827587,0.18906279,-0.27488935,209.29381,-58.714363,11.085983
2226480931000.0,1.1657421852123746,5.506365423094467,2.3585694241080564,1.207986,0.13225232,-0.27763826,209.14482,-59.072227,10.979113
2226485674000.0,1.1571280931768615,5.30053392713535,2.283082764891679,1.3179418,0.04886922,-0.26053402,209.0118,-59.44612,10.888392
2226490692000.0,1.1480145545232237,5.082768283719189,2.203219375486708,1.4074335,-0.057726767,-0.2519819,208.89946,-59.840485,10.808188
2226495651000.0,1.1390081698712926,4.867563057393813,2.124294993649471,1.4682146,-0.18234327,-0.23426682,208.80807,-60.24453,10.750281
2226500973000.0,1.129342515683437,4.636604756425139,2.0395933279632894,1.50731,-0.27855456,-0.20952678,208.73328,-60.65538,10.708291
2226506393000.0,1.1194988768825764,4.401393559271773,1.9533319547917176,1.5234979,-0.35521814,-0.18417588,208.68169,-61.0645,10.685911
2226510673000.0,1.1117256713350334,4.215654827940333,1.8852141176746835,1.5134187,-0.39645153,-0.15851954,208.64113,-61.464424,10.678399
2226515656000.0,1.1026756986146116,3.999408076018705,1.8059077666573509,1.4779885,-0.4251622,-0.119729586,208.61089,-61.847847,10.689201
2226520650000.0,1.0936057480294643,3.782683958198795,1.7264263464324747,1.4358387,-0.46517387,-0.080634214,208.58986,-62.21437,10.713214
2226525942000.0,1.0839945789272225,3.5530275642254354,1.6422021422214126,1.3738359,-0.5128214,-0.044898596,208.57283,-62.5532,10.750436
2226530879000.0,1.0750281500047412,3.338777069696622,1.5636278987992631,1.3063353,-0.5381723,-0.004581489,208.55405,-62.865833,10.800394
2226535674000.0,1.0663196171541645,3.130688934945628,1.4873136396926796,1.2391402,-0.56596667,0.028710667,208.5441,-63.15084,10.862915
2226540649000.0,1.057284173789906,2.91478935822275,1.4081346117353788,1.1826351,-0.58184916,0.064446285,208.53175,-63.408474,10.936895
2226545649000.0,1.0482033261876365,2.697804859003778,1.3285576992154788,1.1539245,-0.5879578,0.09315695,208.52036,-63.64577,11.018407
2226550747000.0,1.0389444939723622,2.476567463600114,1.2474210792101887,1.135904,-0.5412266,0.14630222,208.49132,-63.857376,11.109716
2226556004000.0,1.2938094086322385,2.2175761193928265,1.055991974286949,1.1059716,-0.47311515,0.2134974,208.45262,-64.047,11.208851
2226560666000.0,1.742402551696197,1.9619262127592911,0.7955185396283492,1.0965031,-0.38881573,0.28496864,208.39003,-64.22409,11.314051
2226565651000.0,2.1560017980366624,1.7008957597816288,0.6243583131623761,1.0848967,-0.28496864,0.3491095,208.26814,-64.26946,11.558885
2226570694000.0,2.5333508022137634,1.4444919693278573,0.517926538219974,1.0558805,-0.17684549,0.40194935,208.11517,-64.2922,11.810304
2226575823000.0,2.75861475480522,1.2486983221925896,0.2426966680541004,1.0506883,-0.052534413,0.4373795,207.88771,-64.24509,12.175389
2226581070000.0,2.897412322935517,1.0859701061243927,-0.1354070546099629,1.0210613,0.07696902,0.4529566,207.62582,-64.16905,12.537943
2226585700000.0,2.9031193193333977,1.0369649318755418,-0.4075415214093055,1.0073168,0.25045475,0.48197266,207.1358,-63.912525,13.043095
2226590732000.0,2.8149177776707446,1.0601758740969078,-0.6535771744908969,1.0458013,0.41630468,0.5204572,206.61194,-63.64393,13.540749
2226595707000.0,2.6832078071939667,1.1296326492554631,-0.7303801571813963,1.1368202,0.49418998,0.573297,205.78781,-63.195606,14.181836
2226600803000.0,2.4944498385225296,1.2570443766582866,-0.6076873937777993,1.2394456,0.5036584,0.6423248,204.93738,-62.736195,14.819466
2226605783000.0,2.246673114691256,1.3931545478553669,-0.4063465473995027,1.3350459,0.4636467,0.73853606,203.78636,-62.12444,15.55113
2226610654000.0,1.9131924033568173,1.5429791296933275,-0.0921981043141318,1.4065173,0.398895,0.84696466,202.63698,-61.505684,16.290043
2226615656000.0,1.5329120719114333,1.6406447920152836,0.3505325382051533,1.42973,0.31215215,0.9401216,201.60924,-61.015095,16.946987
2226621675000.0,1.0190005701381404,1.6745291024982856,1.062102374303909,1.4196508,0.22021692,1.0192287,200.58781,-60.50391,17.626823
2226625656000.0,0.6360412343927602,1.8138879640723984,1.672703363683258,1.4141531,0.09621128,1.0604621,199.68874,-60.11405,18.196758
2226630721000.0,0.0961043320760181,2.134338367239819,2.620885252325792,1.4172074,-0.11362094,1.0479393,198.83003,-59.707947,18.787733
2226635689000.0,-0.4062273422782593,2.5602828047456443,3.509962249899308,1.505172,-0.4089743,1.0149527,197.593,-59.09304,19.372387
2226640659000.0,-0.8021374552456002,3.422950086945101,4.239270215313896,1.6081028,-0.569021,0.9807441,196.37386,-58.48384,19.946054
2226645669000.0,-1.201233967512477,4.292560365379564,4.974447862542685,1.6548339,-0.9416488,0.86254174,192.60991,-56.289738,20.96955
2226650936000.0,-1.1095514906706632,5.933721660734357,5.723101731378794,1.6380352,-1.4278975,0.6728681,189.07149,-54.27706,21.821157
2226655748000.0,-0.9843712500562009,7.491999697826902,6.405118219389284,1.5225816,-1.988061,0.44929138,185.82367,-52.424946,22.544235
2226660676000.0,-0.5677863164864976,9.67433823915712,6.068901534185761,1.2709051,-2.4651468,0.21533,182.85526,-50.831253,22.970339
2226665629000.0,-0.0728742504838378,12.022744721869886,5.457539662510229,1.0137309,-2.712547,0.0061086523,180.1631,-49.362816,23.3112
2226670652000.0,0.3673871591221612,13.686534538286196,4.461666496209371,0.7770206,-2.758973,-0.1685988,177.59933,-48.030495,23.489574
2226675981000.0,0.8197851508227945,15.280698702237231,3.3155915109582104,0.5729916,-2.6502388,-0.33261612,175.25055,-46.79357,23.582298
2226680857000.0,1.1857347813168893,16.44744165141168,2.469588104077056,0.45356745,-2.4932466,-0.4447099,173.17006,-45.934605,23.615461
2226685676000.0,1.5009006722454388,17.31767564091326,1.829848441626745,0.4392121,-2.44621,-0.5235115,171.23546,-45.17036,23.580118
2226691650000.0,1.6281378869244547,18.094265859340428,1.2229211467916974,0.51068336,-2.513405,-0.65270954,169.5532,-44.784157,23.543962
2226695660000.0,1.5836290839532188,18.466521540512066,0.9073133595195448,0.63804877,-2.6196957,-0.8017606,168.00005,-44.49605,23.451225
2226700898000.0,1.6819645814478392,18.35466344260941,-0.5327768004404073,0.70463306,-2.5662448,-0.9437868,166.62036,-44.419186,23.334406
2226705723000.0,1.8642701165886777,17.901019147261216,-2.4618237091017523,0.68386364,-2.303573,-1.0415252,165.33247,-44.4142,23.152746
2226710659000.0,2.0397028137099333,17.340388349201312,-3.900968872622448,0.5748242,-1.8368717,-1.1114693,164.11427,-44.53896,22.880281
2226715668000.0,2.2020901108854334,16.635018563524806,-4.606338711287422,0.4392121,-1.2476922,-1.1417072,162.89511,-44.690166,22.51191
2226720699000.0,2.265846288486987,16.167626883546536,-5.004323023864138,0.3295618,-0.6597345,-1.1304061,162.15959,-45.13543,22.216154
2226725939000.0,2.239283024966917,15.9064215513895,-5.128285058976621,0.3005457,-0.17806722,-1.0757337,161.35303,-45.56934,21.830807
2226730778000.0,2.2271236836396144,15.783760390583092,-5.172651572981027,0.37873647,0.18325958,-0.97585726,160.63676,-46.05629,21.457087
2226735683000.0,2.245788312228072,15.956407912685007,-5.041999026691169,0.55863625,0.321926,-0.8732319,159.87495,-46.555565,21.048103
2226740628000.0,2.2919264598198783,16.250481571506075,-4.8927091123806425,0.8038987,0.47952923,-0.8304713,159.04706,-47.085545,20.594206
2226745654000.0,2.4277183890082465,16.939887237087675,-4.683798372384983,0.9410379,0.5375614,-0.77274454,158.20667,-47.619823,20.158844
2226750698000.0,2.609674562289135,17.55427652457827,-4.505638321784872,1.2012665,0.5137377,-0.73548174,157.26576,-48.215733,19.706808
2226755875000.0,2.865978789207328,18.066884978414656,-4.37074145909668,1.4828753,0.44501534,-0.72204274,156.3334,-48.85167,19.25845
2226760697000.0,3.11873700284754,18.49609809933713,-4.273051370590982,1.7467692,0.34422258,-0.72112644,155.22,-49.474724,18.793295
2226765660000.0,3.4337970558677995,18.749033634207823,-4.281926295135841,1.971873,0.24007004,-0.7098254,154.14305,-50.163837,18.342112
2226770652000.0,3.7499979194176594,18.99731930119115,-4.281877565362072,2.1771238,0.19639318,-0.70402217,153.07007,-50.92312,17.90637
2226775776000.0,4.060812309321233,19.1318511854793,-4.1055947206655325,2.3487768,0.22052236,-0.6789767,152.01634,-51.730457,17.479109
2226780941000.0,4.374113699612403,19.267459534883724,-3.927901337984496,2.4645357,0.25778514,-0.63804877,151.00436,-52.58792,17.098541
2226785685000.0,4.701087799939117,19.33251875210553,-3.579152512643328,2.5405886,0.31978795,-0.5925393,149.98347,-53.474506,16.711931
2226791019000.0,5.06252205643547,19.39832525021949,-3.173863105829675,2.5980098,0.36743546,-0.52534413,148.98141,-54.365685,16.365307
2226795655000.0,5.214543537945566,19.289181843722563,-2.5423891092712907,2.6887233,0.39920044,-0.44929138,147.96205,-55.27574,16.019829
2226800697000.0,5.379878376119403,19.17048014925373,-1.8556134641791049,2.7791314,0.34330627,-0.36102137,146.97516,-56.161602,15.732143
2226805729000.0,5.481018934346505,18.95776582715299,-1.0185860208328268,2.8765645,0.20769419,-0.25809056,145.98657,-57.057438,15.468289
2226810680000.0,5.553077804863221,18.70796204366768,-0.1298593541975683,2.9639182,0.0030543262,-0.14721853,145.01529,-57.956627,15.240859
2226815662000.0,5.580294928775589,18.366131838258013,0.6124200015054075,3.0766227,-0.19242255,-0.021685716,144.09406,-58.807404,15.078318
2226820670000.0,5.589557310853611,17.986373496040944,1.2978368120577444,3.1768048,-0.3747658,0.12339478,143.20059,-59.651157,14.96904
2226825743000.0,5.510582377491514,17.519335031943598,1.8106234053442425,3.264464,-0.50793445,0.24617869,142.55579,-60.497993,14.943666
2226831540000.0,5.365617516494038,16.934643325006526,2.284175587344416,3.31822,-0.56169057,0.35705075,141.90994,-61.322605,14.96044
2226835666000.0,5.224120853003069,16.43903675230162,2.639634178868917,3.3396003,-0.58459806,0.45204028,141.40486,-62.094788,15.0362015
2226840660000.0,4.988237932989917,15.705178742437528,3.100916340859272,3.3356297,-0.56230146,0.4896085,140.8843,-62.84169,15.122026
2226845649000.0,4.753915841559278,14.980477425257732,3.573617573646908,3.285844,-0.5311473,0.55833083,140.40349,-63.502605,15.246415
2226850707000.0,4.51760393060567,14.253706515832109,4.064076292774301,3.1991012,-0.46944994,0.6133087,139.89607,-64.1257,15.367666
2226855702000.0,4.207584735632183,13.47850807936032,4.671732887866067,3.0595186,-0.3717115,0.64568454,139.41808,-64.661354,15.490525
2226860742000.0,3.7541005977011497,12.59083688295852,5.51116078111944,2.8732047,-0.301462,0.6743952,138.91753,-65.136536,15.62091
2226865660000.0,3.226229488044869,11.75050807064843,6.394073703138837,2.637716,-0.2321288,0.66889745,138.39177,-65.4964,15.730908
2226870656000.0,2.529469916028732,10.945468764538033,7.410965923939781,2.349693,-0.13744467,0.6102544,137.83694,-65.79521,15.823194
2226875794000.0,1.623634056234323,10.068855566631605,8.667463839226475,1.9953914,-0.087659165,0.4868596,137.1903,-65.940216,15.847674
2226880747000.0,0.3801199057205275,9.128543605267415,10.290940537745772,1.5864171,-0.06291912,0.31337386,136.53845,-66.02959,15.835319
2226885647000.0,-0.8500879153005907,8.198293532445991,11.897045085039244,1.1578951,-0.109650314,0.1142318,135.66933,-65.935905,15.677758
2226890663000.0,-1.4503994742323651,7.710243337572614,12.613814204356848,0.7128797,-0.20922135,-0.092240654,134.85744,-65.786545,15.477237
2226895676000.0,-1.9235125816804977,7.311832406462655,13.151669062759336,0.26297748,-0.32925636,-0.2910773,134.11562,-65.57792,15.236038
2226900853000.0,-1.8465963326259949,7.074237353846153,13.226001854111406,-0.19150625,-0.43401974,-0.4801401,133.85542,-65.30842,14.917868
2226905756000.0,-1.7263418378121282,6.863792010344827,13.256066083234243,-0.68844515,-0.48838675,-0.61391956,133.64053,-64.93443,14.574525
2226910679000.0,-1.2809227404246912,6.639989379871604,13.160334696790123,-1.187522,-0.52931476,-0.6969972,133.5775,-64.458855,14.19231
2226915627000.0,-0.719310421767901,6.410664265046913,13.01993122617284,-1.6670512,-0.6105598,-0.7458665,133.55855,-63.861477,13.801406
2226920649000.0,0.0604165904443769,6.238232352444579,12.72592633515538,-2.084883,-0.829555,-0.7861836,133.6248,-63.128143,13.441215
2226925783000.0,0.951291354995445,6.08892369000911,12.357632122988155,-2.420248,-1.219287,-0.8020661,133.76761,-62.276398,13.115211
2226930891000.0,1.7618562518714629,5.941263235959466,11.495683846859594,-2.6633725,-1.7162259,-0.795652,133.99873,-61.288677,12.90377
2226935689000.0,2.50013590898302,5.802835942605441,10.535081014926057,-2.7999008,-1.9587394,-0.7800749,134.26921,-60.230072,12.72228
2226940676000.0,3.2033335885585004,5.617648503038138,9.292709114867488,-2.8475482,-2.4013114,-0.7281514,134.66043,-59.066803,12.7479105
2226946732000.0,3.990625052959645,5.349862238156801,7.530675845387385,-2.885422,-2.6758952,-0.6337727,135.06328,-57.864456,12.817396
2226950715000.0,4.439225577833151,5.0475098007575,6.364216209458786,-2.9236012,-2.7183504,-0.5158757,135.32732,-56.592007,13.035982
2226955707000.0,4.9061973989833545,4.494767578092295,4.891825834336689,-2.968805,-2.5534167,-0.4120286,135.60875,-55.31441,13.299326
2226960698000.0,5.298776145901639,3.931019254476671,3.5835372287515765,-3.0198123,-2.2305744,-0.3313944,135.88165,-54.13136,13.6772785
2226965658000.0,5.563335905464481,3.351982881210593,2.5602399206389244,-3.0882292,-1.8490891,-0.27091873,136.09747,-52.937496,14.047946
2226970631000.0,5.769389129879055,2.8947359379054425,1.7431788783122597,-3.1129694,-1.4587462,-0.18203785,136.4312,-51.921947,14.49948
2226976034000.0,5.9163605814183615,2.5581236418361737,1.1268463316107753,-3.0607402,-1.078788,-0.05375614,136.65964,-50.902813,14.9192915
2226980943000.0,5.969731798312357,2.322487168897788,0.5637157628251335,-2.9749138,-0.70371675,0.115453534,136.8317,-49.93246,15.371482
2226985677000.0,5.870309538186499,2.227387482284516,0.0147313547759343,-2.871372,-0.31581733,0.32070425,136.8848,-48.964687,15.798259
2226990720000.0,5.675109251367688,2.169489724085647,-0.5876495812898268,-2.7837129,0.07971791,0.52778757,136.83124,-48.01955,16.240301
2226995650000.0,5.109183838807499,2.2952509381006045,-1.2503143468978588,-2.7113254,0.50701815,0.7171558,136.65216,-47.07812,16.650599
2227000859000.0,4.4515996542723695,2.444361826101291,-1.889526992380255,-2.6526823,0.9841039,0.86376345,136.35394,-46.192398,17.015013
2227005709000.0,3.677403468724242,2.627276206996978,-2.3191633029398298,-2.6090055,1.4865406,0.9624182,135.93631,-45.308365,17.324492
2227010790000.0,2.8647859697810363,2.827421886505499,-2.75032451220648,-2.581211,1.9926424,0.9999864,135.39955,-44.53261,17.487926
2227016699000.0,1.8948110032200536,3.1974701866838404,-2.946562267551769,-2.5650232,2.4627032,0.9877691,134.76457,-43.766106,17.568285
2227020963000.0,1.2196195143554516,3.464364335432388,-3.0594321853760085,-2.5341744,2.8860328,0.93523467,133.99074,-43.11404,17.426453
2227026050000.0,0.6829652964080146,3.7812860680024287,-2.8819559816029146,-2.4996605,3.216511,0.8698721,133.1635,-42.483875,17.199005
2227030839000.0,0.1777486560010408,4.079642304935381,-2.714876457351028,-2.4636195,3.340822,0.7663304,132.24301,-41.945595,16.75492
2227035701000.0,-0.1828076995348293,4.420951006926829,-2.2512559285756097,-2.4401011,3.4562755,0.7110472,131.2936,-41.440384,16.239893
2227040632000.0,-0.4960935514208781,4.780308335804878,-1.6799699444682927,-2.4058928,3.4324517,0.59864795,130.41441,-40.989685,15.695803
2227045648000.0,-0.6173977858914866,5.625954441835024,-0.5705740455403617,-2.3952026,3.2974505,0.48258355,129.53743,-40.622543,15.02942
2227051126000.0,-0.6405392839664755,6.815426822355536,0.933622459426555,-2.4107797,3.0949488,0.36957347,128.72763,-40.292244,14.365778
2227055816000.0,-0.5632283429307552,7.923958348532091,1.887850494199231,-2.4559836,2.867096,0.26206118,127.96266,-39.985508,13.633122
2227060712000.0,-0.3638663108108929,9.19133121850577,2.4764430245090097,-2.4959953,2.6160305,0.183565,127.27748,-39.703472,12.940478
2227065645000.0,-0.152017811810009,10.739833710518427,2.946906978543602,-2.52043,2.3689353,0.15118915,126.63848,-39.440998,12.214804
2227070657000.0,0.0781240162431325,12.681655534911595,3.2585574541404454,-2.5760188,2.1655173,0.16310102,126.06057,-39.179314,11.542993
2227075801000.0,0.2414123031525833,14.261017465709616,3.5363857354416885,-2.6548204,2.026851,0.2144137,125.49342,-39.005085,10.886524
2227080756000.0,0.3088603540480421,15.272738598891335,3.7522194222443326,-2.7479773,1.9230038,0.28802297,124.959564,-38.820007,10.290242
2227085712000.0,0.3763220170627531,16.284663913936463,3.968096667813233,-2.8634307,1.8044959,0.36377025,124.39855,-38.809216,9.680172
2227090662000.0,0.2558248443612297,17.140458698654996,4.234769058699829,-3.0121765,1.5803084,0.410196,123.87284,-38.755955,9.145374
2227095672000.0,0.0151063709282663,17.90870807845858,4.536947625843296,-3.198185,1.1933253,0.45051312,123.39104,-38.652817,8.704015
2227100790000.0,-0.3423031707017881,18.372615777350507,4.6160207,-3.408628,0.6621779,0.4801401,122.91855,-38.621,8.303912
2227105713000.0,-0.7230295746494905,18.712550773120554,4.6160207,-3.6377025,0.008246681,0.5009095,122.54171,-38.51335,8.041659
2227110670000.0,-1.27367254571793,18.934053490615888,4.323664648751822,-3.798971,-0.70554936,0.5002986,122.22339,-38.39934,7.845836
2227115651000.0,-1.9125396173833813,19.09485638064869,3.880369217620262,-3.8676932,-1.3249667,0.46028697,122.02255,-38.226395,7.7867026
2227120656000.0,-2.492526897382199,19.225214157068063,3.248843971727749,-3.814548,-1.7611245,0.4251622,121.86016,-38.05403,7.7650843
2227125786000.0,-3.012010362118879,19.32104156698491,2.376313390883893,-3.6254852,-1.9486601,0.42455134,121.7779,-37.878155,7.8365755
2227130845000.0,-2.990754357147159,19.388036374322425,1.948118796677374,-3.31822,-1.9486601,0.44012842,121.6768,-37.787014,7.8415213
2227135670000.0,-2.540826110058221,19.429782165830154,1.8878191317004616,-3.1343496,-1.8270979,0.45998153,121.59983,-37.68863,7.8753605
2227140660000.0,-1.752036789797001,19.46317549209426,2.5299670576660205,-2.7580566,-1.63437,0.5128214,121.48256,-37.781044,7.8285017
2227145648000.0,-0.6653784896072632,19.48754001234316,3.821287546740794,-2.3518312,-1.5210545,0.5522222,121.37092,-37.906925,7.7886944
2227150750000.0,0.5150009870994992,19.50380264198016,5.011357345378647,-2.0112739,-1.5015068,0.5687156,121.23285,-38.064728,7.793086
2227155702000.0,1.7121385140772027,19.51311858894018,6.068751129879187,-1.8093829,-1.4862351,0.5867361,121.07625,-38.273808,7.789988
2227160705000.0,2.7585284735329103,19.49735323334655,6.360333423919508,-1.7562376,-1.3997977,0.59864795,120.87679,-38.355984,7.876618
2227165767000.0,3.671571670003965,19.45890953112609,5.9614777804421095,-1.784032,-1.1960741,0.6258314,120.64954,-38.456005,7.9401474
2227170661000.0,4.210233421663629,19.28779781387317,5.23657282843711,-1.7550159,-0.8561276,0.68783426,120.39459,-38.445408,8.1044
2227175791000.0,4.436482515974288,18.97670610898973,4.143036080667754,-1.6166549,-0.50335294,0.7443393,120.09647,-38.450768,8.218124
2227180709000.0,4.377822833027877,18.612223405999806,3.292813116948008,-1.3723087,-0.30298916,0.82558435,119.79976,-38.48106,8.422959
2227185671000.0,3.960698264415935,18.158427517893315,2.6923370722484803,-1.0552697,-0.27030787,0.93126404,119.45143,-38.563484,8.593519
2227191078000.0,3.432461497230979,17.5622368291727,2.1649832440231744,-0.7141015,-0.301462,1.0219775,119.02473,-38.720318,8.759789
2227195650000.0,2.891535466626906,16.928047802675298,1.8814634622731528,-0.3912592,-0.32925636,1.0519099,118.5823,-38.956875,8.917764
2227200975000.0,2.2480774963464896,16.128061319944113,1.5301549471812783,-0.1301143,-0.3399465,1.0348058,118.04951,-39.248795,9.013767
2227205748000.0,1.4777274789163464,14.527489618319944,0.9114800208871814,0.09712757,-0.29993483,1.0064005,117.51032,-39.619602,9.102469
2227210686000.0,0.6807468826309815,12.87158702820468,0.2714178406985679,0.29657507,-0.2049453,0.98746365,116.90316,-40.016563,9.104923
2227215660000.0,0.3097932945110887,11.800320110887096,-0.0438583014616935,0.48502702,-0.105374254,0.97035944,116.296265,-40.475826,9.092759
2227220649000.0,0.1123208842278226,10.967082678225806,-0.2268815065766129,0.68508536,-0.01282817,0.95142263,115.67934,-40.9948,9.058663
2227225781000.0,-0.0301239214082031,10.147030601757812,-0.4949376003906249,0.8594874,0.050701816,0.9294315,115.129364,-41.519474,9.000135
2227230887000.0,-0.1495066741445312,9.344778773828123,-0.7910068164062498,1.0213667,0.110872045,0.9242391,114.56341,-42.09833,8.925324
2227235653000.0,-0.3080252470323741,8.590108720623501,-0.8488621869784172,1.1026118,0.25228736,0.9062186,114.01739,-42.67299,8.83748
2227240663000.0,-0.4949969001798561,7.794280633093525,-0.8153031765467625,1.219287,0.35338554,0.86376345,113.47303,-43.30609,8.743364
2227245646000.0,-0.7306395034042953,6.98722943674388,-0.6715530205739473,1.3289373,0.39187005,0.8017606,112.97254,-43.941826,8.661571
2227251127000.0,-1.0161546266153991,6.091302596361249,-0.4549553426690425,1.4312572,0.3491095,0.73792523,112.476295,-44.613148,8.57035
2227255871000.0,-1.346013195741374,5.120584871308672,-0.191506360326391,1.5180001,0.25045475,0.6469063,112.037796,-45.267128,8.478937
2227260737000.0,-1.737129126297793,4.000351604911408,0.1271807055921666,1.6148223,0.06872234,0.5342017,111.64151,-45.95963,8.397687
2227265646000.0,-2.091561483878083,3.001270857569681,0.3690277392470423,1.7107282,-0.1591304,0.3998113,111.33529,-46.6135,8.320925
2227270650000.0,-2.4278922945458192,2.0643491702225787,0.5660214976308403,1.785559,-0.36774087,0.26236662,111.08527,-47.296333,8.252021
2227275740000.0,-2.700357557607412,1.321485371672268,0.7464019596966119,1.856114,-0.5910121,0.11453723,110.97814,-47.92287,8.190524
2227280844000.0,-2.9312378715323826,0.7043245924407304,0.915122192669634,1.9199494,-0.8323039,-0.019547688,110.94395,-48.57566,8.1428585
2227285686000.0,-3.1118919021730043,0.1564685297241956,1.0582411460091936,1.9843957,-1.094976,-0.14874569,111.03351,-49.179398,8.090829
2227290659000.0,-3.246230441872127,-0.3560076926222314,1.1826285942540744,2.021353,-1.3738359,-0.25595254,111.20224,-49.799103,8.056304
2227295657000.0,-3.3135753,-0.8529544689586166,1.2706201219253934,2.042428,-1.6927075,-0.34269542,111.47381,-50.36915,8.028565
2227300781000.0,-3.3135753,-1.343956049630853,1.32305719863027,2.0350976,-2.0179935,-0.41325033,111.82813,-50.945274,8.024019
2227305805000.0,-3.292113890389487,-1.7728062564993667,1.2966763319981,2.01219,-2.3362541,-0.48166725,112.27532,-51.470325,8.039536
2227310699000.0,-3.247589880794807,-2.1327083122466752,1.1853664242400253,1.9260582,-2.6441302,-0.56413406,112.8115,-51.97871,8.081771
2227315651000.0,-3.202538206190627,-2.4968756559452183,1.0727373553356556,1.8032742,-2.9165761,-0.6414085,113.4316,-52.4175,8.160173
2227320659000.0,-2.9715218644444445,-2.870721618637993,0.1719706743369176,1.6444492,-3.026532,-0.7098254,114.099556,-52.82478,8.236917
2227325805000.0,-2.716376831358025,-3.255401821107129,-0.8289829706013538,1.496009,-3.2281175,-0.7504479,114.86195,-53.202137,8.3544
2227330781000.0,-2.5761611,-3.466804,-1.3790601,1.3839152,-3.2421672,-0.7669413,115.62209,-53.51693,8.460997
2227335667000.0,-2.5761611,-3.466804,-1.3790601,1.3231341,-3.1731396,-0.7797695,116.41644,-53.805695,8.570552
2227340823000.0,-2.4168391741918933,-3.5384988596818885,-1.8782687546536687,1.2483032,-2.9538388,-0.7831292,117.193794,-54.16823,8.720579
2227345653000.0,-2.1320409130323243,-3.666658064812725,-2.7706365570138534,1.2260065,-2.5604417,-0.7819075,117.915436,-54.53114,8.821613
2227350881000.0,-1.5730107416355417,-3.5721244372616474,-4.107534265736191,1.2565498,-1.9569068,-0.7501425,118.53121,-54.888287,8.853624
2227355689000.0,-0.8896179539021034,-3.327732341724002,-5.587464358757618,1.3466524,-1.1481212,-0.70157874,118.99997,-55.25558,8.788074
2227360702000.0,-0.4672421335145823,-2.9158683534849232,-5.975907527879388,1.5103643,-0.17867808,-0.6414085,119.28545,-55.758705,8.669733
2227365728000.0,-0.3006918473554127,-2.363873183242709,-5.343016365941671,1.6905695,0.806953,-0.5705481,119.35962,-56.29101,8.43265
2227370717000.0,-0.1777189574069364,-1.842035221734104,-4.54101163867052,1.8420641,1.6471981,-0.5323691,119.21965,-57.09343,8.213681
2227376600000.0,-0.0800189233612716,-1.255834965317919,-3.4011779515895952,1.9318613,2.2782218,-0.5140431,118.87377,-57.93597,7.890854
2227380754000.0,0.0007257620216807,-0.91296926370363,-2.5105843922725013,1.9990565,2.7324002,-0.4981606,118.347565,-58.769745,7.493787
2227385746000.0,0.1100813689420189,-0.5753932245907509,-1.350464046812531,2.0665572,3.0155363,-0.51923543,117.6995,-59.641052,7.0308805
2227390695000.0,0.4071714102066032,-0.1523666562122747,0.0107533012558233,2.201253,3.1050282,-0.56107974,116.97998,-60.43859,6.5320005
2227395669000.0,0.9619647308183108,0.3927780816690296,1.6654847206603198,2.4181101,2.9959886,-0.6203337,116.2355,-61.288033,6.019061
2227400892000.0,1.856182489582742,1.0406670060743686,3.945054631336929,2.727208,2.6380215,-0.70921457,115.521454,-62.018997,5.5279665
2227405982000.0,3.0772525039880785,1.756705284459268,6.774616513752484,3.1410692,2.0366247,-0.8035932,114.900055,-62.845573,5.074701
2227410781000.0,4.228512818159238,2.431806993294068,9.442409730591825,3.5494325,1.02717,-0.9104946,113.52931,-62.99224,5.0328555
2227415726000.0,6.391917267852307,3.495486963979417,11.733704887695223,3.774231,-0.7641924,-1.0290025,112.60786,-63.243366,5.1331134
2227420692000.0,9.113957742349012,4.770638215437393,13.777381333844904,3.5127807,-1.999362,-1.0549643,111.86471,-63.49643,5.275361
2227426785000.0,10.952944005328767,6.493817655324008,15.67133447806642,2.6111436,-4.7256536,-0.9816604,112.13226,-62.9582,6.0662
2227431022000.0,11.25797575107051,7.795028658435626,16.590290953182986,1.9871446,-6.986771,-0.6600399,112.603004,-62.452774,6.973684
2227435631000.0,11.199669381355932,9.033280618544367,16.587400133998006,0.6930266,-8.199949,-0.2751948,113.875656,-61.375008,8.464184
2227440699000.0,10.236706432203391,9.986565355134596,14.27435381774676,-0.45875978,-8.074722,0.10934488,115.30079,-60.210278,10.070912
2227445623000.0,9.264897265199718,10.587028781504063,11.042533009596148,-1.2892311,-6.7170744,0.453262,116.63688,-58.81032,11.683024
2227450863000.0,8.13849684455638,10.396338578252031,5.095671128330683,-1.9025398,-4.604397,0.7049385,117.66847,-57.23661,13.164387
2227455974000.0,6.94197102583948,10.158567476355747,-0.6842867433830802,-2.4944682,-2.4104743,0.7809912,118.3531,-55.966183,14.322185
2227460669000.0,4.98739254089371,9.487534855965292,-5.814567664645553,-3.0601294,-0.65118235,0.6881397,118.59229,-54.586884,15.212139
2227465671000.0,2.905006687496747,8.772624277223427,-11.28031104444425,-3.39244,0.6151413,0.4868596,118.42456,-53.96366,15.843182
2227470663000.0,1.807464035063395,9.49591391927392,-12.657452491562529,-3.264464,1.5302174,0.2669481,117.94092,-53.337646,16.20665
2227475848000.0,1.0419964265164643,10.795850126516465,-12.530629510398612,-2.7843237,2.1707096,0.1328632,117.25012,-52.746998,16.367012
2227480706000.0,0.4363866790982383,12.34163325082114,-11.95813191415348,-2.3154848,2.7348437,0.077579886,116.49072,-52.994118,16.246187
2227485670000.0,-0.0935623619846719,14.182259450482732,-11.011794252562956,-1.9834795,3.3072245,0.10415252,115.60496,-53.321987,16.00729
2227490656000.0,-0.5415989340965862,15.668861764050792,-9.972716504059118,-1.7846428,3.7247508,0.17623462,114.6663,-53.86579,15.548578
2227495659000.0,-0.915605759833472,16.835763087843464,-8.850696380932556,-1.638646,3.9724567,0.30940324,113.62604,-54.454765,15.053682
2227500820000.0,-1.110749690448286,17.644695308233224,-7.534489354233812,-1.4984524,3.993226,0.47311515,112.5344,-55.121464,14.403184
2227505720000.0,-1.1840792743920303,18.180917732298077,-6.191640980369177,-1.3213016,3.6767979,0.63163465,111.451,-55.800163,13.810119
2227510669000.0,-1.1760784180755397,18.57422531564748,-5.050680467446044,-1.0366384,2.980717,0.73456544,110.44052,-56.488155,13.201744
2227516112000.0,-1.0979510819144684,18.881526936251,-3.977731702997602,-0.6392705,1.9511036,0.70707655,109.59391,-57.22589,12.711741
2227520656000.0,-0.954588788981678,19.055631769141755,-3.8502438641851495,-0.20158553,1.3881912,0.63407815,108.7802,-57.914936,12.229029
2227525842000.0,-0.7342797224802314,19.194522050916103,-4.262125886094504,0.0143553335,0.37782016,0.30879238,108.3846,-58.65669,11.900871
2227530697000.0,-0.5044126284211712,19.291973386167417,-4.882405352618243,0.38973203,-0.30207285,0.17928895,108.01473,-59.429928,11.627017
2227535677000.0,-0.2448250923400901,19.35910758098724,-5.755156661739865,0.657291,-0.5681047,-0.027488936,107.85163,-60.24951,11.343724
2227540669000.0,-0.0450559907420392,19.414882800539363,-6.460952332226947,0.8863655,-0.46700647,-0.10354166,107.76319,-61.16074,11.132924
2227545656000.0,0.0441123130922103,19.449559546312624,-6.857255892179235,1.1224649,-0.18387043,-0.01160644,107.694336,-62.115692,10.928204
2227550876000.0,-0.0264328212797188,19.47568273325674,-7.021964956511456,1.4294246,0.28955013,0.23365596,107.54869,-63.18418,10.754128
2227555704000.0,-0.279537014385889,19.488181957694128,-6.8876010672095695,1.8399261,0.86254174,0.5384777,107.27532,-64.28736,10.578706
2227560640000.0,-0.5383030245706563,19.500960783672365,-6.750231523383118,2.3823745,1.4865406,0.84696466,106.83404,-65.46987,10.42887
2227565661000.0,-0.9974544097214868,19.333918524939108,-6.310496197024251,3.0766227,2.0357084,1.0635164,106.2303,-66.73139,10.290325
2227570647000.0,-1.6801023325638038,18.95972669628296,-5.526715266176003,3.8389826,2.3857343,1.1569787,105.488754,-68.08158,10.16924
2227575815000.0,-2.2632227998845265,18.74901062990762,-4.637751272228638,4.5738535,2.4691174,1.0818423,104.66766,-69.55305,10.004165
2227580752000.0,-2.7363936783102387,18.667114484314855,-3.736906450279061,5.205488,2.3182335,0.8888089,103.81545,-71.132545,9.841693
2227585691000.0,-3.034557133494381,18.748267648356265,-2.899938678248083,5.645922,1.9828686,0.61544675,103.003685,-72.77097,9.602445
2227590652000.0,-3.1642991896859574,18.987792085705284,-2.121486497416238,5.899431,1.5442673,0.30634892,102.27807,-74.47165,9.342956
2227595656000.0,-3.04279652769018,19.14926650733057,-1.5993082193360997,5.9718184,1.1187997,-0.02565634,101.65434,-76.15073,8.990623
2227601189000.0,-2.715435830161365,19.266530394098663,-1.2230876370124482,5.8820214,0.75228053,-0.37323865,101.15105,-77.80577,8.592086
2227605854000.0,-2.263406294950125,19.344015846945137,-1.0285305752026184,5.673411,0.49296826,-0.6954701,100.73069,-79.35538,8.123746
2227610674000.0,-1.6111007301122195,19.401571875623443,-0.9565850886066084,5.3878317,0.41996986,-0.98624194,100.36399,-80.80846,7.5959673
2227615660000.0,-0.7670024182343563,19.44561464218812,-0.9788467893732564,5.1074443,0.47311515,-1.181108,100.00421,-82.07565,7.057192
2227620653000.0,0.2478461251494621,19.474202004982065,-1.0979604610502194,4.867069,0.7119634,-1.2373075,99.60338,-83.16001,6.4982824
2227625961000.0,1.49918444695404,19.49660018324968,-0.5713218756224782,4.7751336,0.91354895,-1.2024882,99.14596,-83.95126,6.0013695
2227630751000.0,2.7723031365515203,19.51014380100384,0.4489789074697372,4.584849,1.0005972,-1.1389582,98.642525,-95.54332,5.5205994
2227635668000.0,4.16194867312912,19.258724189220622,3.10383248627375,4.5304823,0.8753699,-0.93370754,97.990776,-95.48776,5.218129
2227640653000.0,5.665983480224893,18.69876024098488,7.643704411002326,4.388456,0.48838675,-0.68661255,97.38762,-95.70383,4.9655213
2227645659000.0,6.470053937606383,18.02942152251773,10.691085028679078,4.1245623,-0.09590584,-0.43860126,96.80951,-96.16011,4.9084053
2227651061000.0,6.1719419815425525,17.13049903067376,11.484521258554963,3.6581664,-0.782213,-0.23426682,96.3778,-96.688065,4.9089575
2227655738000.0,5.911171955932873,16.30516063849951,11.947607985389933,3.026532,-1.3912456,-0.08674286,96.20289,-96.99909,5.061418
2227660751000.0,5.617338994096743,15.167742115103652,11.241461118114511,2.3127358,-1.8112154,0.01160644,96.18055,-97.23861,5.24507
2227665722000.0,5.323792166190204,14.05636235906232,10.505675393939391,1.6465873,-1.9984456,0.061391957,96.23154,-97.3087,5.4281764
2227670656000.0,5.017604412997904,13.065755364779871,9.533079333333331,1.1307116,-2.0076087,0.08979719,96.36452,-97.302505,5.625538
2227675879000.0,4.6879657404100525,12.025670190393518,8.523128356977514,0.73975784,-1.9150625,0.106901415,96.55768,-97.26666,5.8165183
2227680704000.0,4.298314121693122,11.196705592592592,7.892809280423281,0.462425,-1.8099937,0.09621128,96.75704,-97.186676,6.006865
2227685640000.0,3.8996984968253967,10.348670513888887,7.247989599206349,0.2669481,-1.7369953,0.087659165,96.994316,-97.13001,6.1713753
2227690666000.0,3.492419237836759,9.433221213729794,6.547781727040511,0.14110987,-1.677436,0.05589417,97.20857,-97.06195,6.3284163
2227695656000.0,3.0871106453402515,8.489090509279585,5.822994633246857,0.08124508,-1.5906931,0.02687807,97.39867,-97.0093,6.4856944
2227701470000.0,2.639311318583553,7.478905585367282,5.23716239198127,0.09040806,-1.5448782,0.02076942,97.59092,-96.97719,6.6051197
2227705708000.0,2.3225695404936104,6.778114477826554,4.912502114915618,0.17623462,-1.5500705,0.0067195175,97.77718,-96.962616,6.7152033
2227710656000.0,1.892031809896468,5.789421678166869,4.540829613428746,0.34055737,-1.4926492,-0.051618114,97.958824,-96.95142,6.7792387
2227715660000.0,1.4056093349878198,4.646328834196103,4.171148447168088,0.48624873,-1.4315627,-0.204029,98.14246,-96.92683,6.8130865
2227720654000.0,1.0786049297542044,3.725210457115136,4.224462054333765,0.5534439,-1.1801916,-0.32589662,98.25089,-96.8825,6.807659
2227725875000.0,0.8614524339124007,2.935145164941785,4.61256442838662,0.66156703,-0.77854776,-0.6075055,98.29961,-96.76427,6.715099
2227730944000.0,0.9407249006859996,2.5210064795135643,5.46522026138655,0.6603453,-0.39461896,-0.84207773,98.31528,-96.596,6.5644255
2227735806000.0,1.3472569297474275,2.5258461934518244,6.825166486186467,0.52748215,-0.14782938,-0.9896017,98.258835,-96.37921,6.363028
2227740655000.0,1.902164037239076,2.615957317561926,8.18399668956304,0.31031954,-0.0571159,-1.0494665,98.299675,-96.10446,6.0995193
2227745656000.0,2.630854277177846,2.798129842749791,9.588058687113833,0.0015271631,-0.106595986,-1.0345002,98.31269,-84.18045,5.819426
2227750898000.0,3.438307911436829,2.9227755630677126,10.765678555326176,-0.38973203,-0.26053402,-0.96791595,98.38229,-84.39976,5.570798
2227755700000.0,4.250025342072668,2.9275225442815853,11.359038815441783,-0.8164214,-0.48716503,-0.88178396,98.493675,-84.526,5.338187
2227760652000.0,5.067966983897446,2.9493013808573165,11.506007194162953,-1.2556335,-0.72143185,-0.7651087,98.686066,-84.35772,5.212274
2227765658000.0,5.864724693443454,2.997884083269153,10.923014156465342,-1.6698002,-0.91354895,-0.6301075,98.93889,-83.945145,5.1266227
2227770621000.0,6.548132460950732,3.1220555468244804,10.04710471408776,-2.043955,-0.9981538,-0.48166725,99.245674,-83.165565,5.1747084
2227775932000.0,7.115880865175135,3.371669020467668,8.652205521016166,-2.3695462,-0.9868528,-0.2855795,99.5833,-82.149124,5.285445
2227780643000.0,7.474336703271721,3.655213496491055,7.303511222892162,-2.638327,-0.906524,-0.086437434,99.92633,-80.96863,5.5294895
2227785661000.0,7.574088115152714,4.077969456558268,5.650488229890284,-2.8432722,-0.7507534,0.14630222,100.24681,-79.64984,5.8396363
2227790631000.0,7.548657125670042,4.407989188773079,4.003798168999404,-2.9825497,-0.50671273,0.38698313,100.52691,-78.38102,6.245743
2227795680000.0,7.241469029184039,4.542383755449673,2.30946488308517,-3.0488284,-0.1685988,0.6017023,100.74133,-77.04995,6.691882
2227801044000.0,6.613190959884698,4.435002251333174,0.5232828811434062,-3.046385,0.20952678,0.786489,100.814125,-75.85374,7.232046
2227805719000.0,5.577160575146129,3.936703887372888,-1.011045942421331,-2.9498682,0.62858033,0.9324858,100.77645,-74.64536,7.791847
2227810628000.0,4.489273268476259,3.413463958243254,-2.6221732568340137,-2.7959301,0.8371908,1.047023,100.63265,-73.64317,8.371454
2227815660000.0,3.3753726698113207,3.100716983018868,-3.1462520688679247,-2.6939158,1.2565498,1.0934488,100.312454,-72.64616,8.923057
2227820620000.0,2.277724880114479,2.848962966482934,-3.3778658250689,-2.4627032,1.6584991,1.1585059,99.93563,-71.70432,9.488331
2227826966000.0,0.96775828973026,2.8090755970568626,-3.0995624220306697,-2.228131,2.0506747,1.1972959,99.445,-71.11348,9.86053
2227830654000.0,0.2108448228126489,2.7989833897990284,-2.9111751035431945,-1.994475,2.3851233,1.1976013,98.866234,-70.58213,10.205476
2227835667000.0,-0.862043020990162,2.9749959701281927,-2.440335628132764,-1.7965547,2.6728408,1.1600331,98.29968,-70.263306,10.313988
2227840630000.0,-1.9342124006067771,3.1922637605783564,-1.925505385064096,-1.6575829,2.9107728,1.0919216,97.66857,-70.00442,10.383659
2227845664000.0,-2.73853116306357,3.527291039291168,-1.5694149204371937,-1.5833627,3.150232,0.9941832,97.00815,-69.865555,10.234418
2227850951000.0,-3.507602665659407,3.909792168753516,-1.239812853966085,-1.5861117,3.3805282,0.874759,96.30242,-69.767746,10.039843
2227856023000.0,-4.1264488505605685,4.389759755099808,-0.9731497363959528,-1.6554449,3.626707,0.69913524,95.33251,-69.57668,9.743373
2227860664000.0,-4.515366215750615,4.997443140853158,-0.8029983494667761,-1.7931949,3.8453968,0.4859433,94.32668,-69.396805,9.377777
2227865658000.0,-4.881180641352433,5.704102949462818,-0.6434405214345903,-1.9599612,4.020715,0.24740042,93.25996,-69.235794,8.798383
2227870647000.0,-4.856018088582262,6.801191196123868,-0.658538105645671,-2.1319196,4.1502185,0.007330383,92.171295,-69.06125,8.134282
2227875968000.0,-4.734905276571376,7.985373899578523,-0.7062311670469122,-2.3167064,4.2048907,-0.22602014,91.08104,-68.89989,7.3026085
2227880808000.0,-4.386651223062122,9.098087150082463,-0.8293941113386476,-2.457511,4.2079453,-0.44440445,89.99773,-68.71124,6.3958845
2227885789000.0,-4.022739481545065,10.263758976824034,-0.946805022527897,-2.5717428,4.113261,-0.6536258,88.96967,-68.56669,5.405756
2227890656000.0,-3.587643259012876,11.699076964806869,-0.9268006133293992,-2.643214,3.9174788,-0.8558222,87.99537,-68.38728,4.3731017
2227895665000.0,-3.18204775615187,13.188498348463222,-0.8573497673632126,-2.6911669,3.583641,-1.0519099,87.15338,-68.3044,3.3560877
2227901109000.0,-2.958798531944048,14.87030945056618,-0.5299175614977638,-2.723848,3.0747902,-1.210735,86.43142,-68.18757,2.3542655
2227905738000.0,-2.7814465410649905,16.233588046408432,-0.2622869346140334,-2.7690523,2.3735168,-1.3503176,85.93165,-68.164955,1.432566
2227910912000.0,-2.717315535721549,17.039806973282797,-0.0790553568457058,-2.8200593,1.5855007,-1.432479,85.60147,-68.10303,0.5805897
2227915628000.0,-2.6588613762318576,17.774659787186838,0.0879566494850698,-2.8851166,1.2183707,-1.45783,85.39449,-68.07927,-0.20121096
2227920649000.0,-2.533125101690392,18.190821274021356,-0.0567621775622775,-2.9217684,0.5742133,-1.4581354,85.47452,-68.01123,-0.84937537
2227925801000.0,-2.3970458848932386,18.57711126690392,-0.2411276434697509,-3.00057,0.10048734,-1.3881912,85.59965,-67.88016,-1.4324262
2227930935000.0,-2.0148380943981614,18.838220952599823,-0.1525878927607009,-3.076012,-0.28221974,-1.2889256,85.84403,-67.722725,-1.9214941
2227935697000.0,-1.5606683293881067,19.0303694537968,0.0395608409958824,-3.0763173,-0.65301496,-1.1685852,86.19892,-67.53785,-2.312462
2227940655000.0,-0.893144997234375,19.1779211371875,0.414801436503125,-3.0860913,-1.0403035,-1.0760391,86.61597,-67.34419,-2.6178153
2227945655000.0,-0.0751260649427083,19.287654991354167,0.9235693062947916,-3.1196887,-1.348485,-1.0027353,87.0955,-67.12253,-2.8486588
2227950958000.0,0.7267730113096352,19.36103873339569,1.579187647558466,-3.1969633,-1.6224581,-0.9053023,87.66963,-66.85848,-2.926364
2227955732000.0,1.4196249487371375,19.408084292797007,2.2207171869971933,-3.2983668,-1.958434,-0.7867944,88.32176,-66.56238,-2.9335256
2227960711000.0,1.975189135554191,19.4467427356463,2.8484545290144303,-3.40649,-2.295937,-0.677755,89.01758,-66.15725,-2.8017206
2227965654000.0,2.377304234387473,19.475811379899703,3.4346706030191383,-3.4968982,-2.5604417,-0.57543504,89.7581,-65.721855,-2.6154857
2227970649000.0,2.7463248556812734,19.49903558787995,3.3896459345287178,-3.5726454,-2.7204883,-0.4801401,90.511154,-65.14271,-2.312508
2227975882000.0,3.1019238394860484,19.51825754242976,2.8129988890114106,-3.5589008,-2.7366762,-0.37812558,91.271576,-64.565346,-1.976046
2227980690000.0,3.265691,19.52711,2.5474305,-3.421151,-2.685669,-0.26847526,92.01313,-63.91872,-1.5753424
2227985704000.0,3.265691,19.52711,2.5474305,-3.1719177,-2.5970936,-0.11484267,92.72031,-63.31493,-1.1493537
2227990712000.0,3.2401554386660028,19.52427235659532,2.618362756366351,-2.845105,-2.532342,0.09040806,93.3506,-62.822464,-0.6773775
2227995655000.0,3.1977420382379296,19.5195591605774,2.7361779926630163,-2.497828,-2.5335636,0.29046643,93.9469,-62.40814,-0.18293327
2228000958000.0,3.015504241531915,19.09459564,2.395562757787234,-2.1786509,-2.5592198,0.43249258,94.47584,-62.066006,0.32250106
2228005692000.0,2.7711367731063827,18.46438452,1.8125104699574468,-1.9566014,-2.4724772,0.5348125,94.94725,-61.791965,0.8376586
2228010669000.0,2.4750547277310924,17.588077792717087,1.0546648088328665,-1.7373008,-2.3741279,0.5870415,95.361275,-61.576527,1.342265
2228015662000.0,2.1327605684407094,16.461979913787737,0.1269982396597155,-1.6041322,-2.1035144,0.70005155,95.680016,-61.39328,1.8357704
2228020662000.0,1.7125405275099077,15.323662309114926,-0.6149397748084544,-1.3078625,-1.7046194,0.7724391,95.86847,-61.327473,2.2352786
2228026700000.0,1.1232714092140026,13.937789191168145,-1.3133327418626155,-1.006095,-1.0485502,0.7629707,95.9143,-61.2979,2.5560303
2228030702000.0,0.7852776482217899,13.074985539299613,-1.6128431987159533,-0.59315014,-0.8402451,0.7357872,95.87458,-61.39385,2.8279617
2228035664000.0,0.4247164667976654,12.0672631922179,-1.802369009066148,-0.44959682,-0.4877759,0.6435465,95.64398,-61.501816,2.9653046
2228040651000.0,0.026339426755083,11.085160531117763,-1.889789953163381,-0.1872302,-0.2125811,0.54825157,95.37463,-61.766716,3.0396237
2228045651000.0,-0.4382182314139745,10.156045039322944,-1.7909478641965115,0.044593163,-0.032986723,0.42546764,95.058395,-62.068604,3.048284
2228051030000.0,-0.7806260135556028,9.417690945989948,-1.7618443067601048,0.21380283,0.027183503,0.2761111,94.77701,-62.41628,3.0235138
2228055782000.0,-0.9191470322007504,9.037563574573513,-1.8166084241523324,0.36102137,0.022907447,0.1414153,94.48117,-62.82827,2.9574637
2228060816000.0,-1.065888363821052,8.634878139449281,-1.8746224323494016,0.49693888,0.025045475,0.018936822,94.22569,-63.249996,2.8368638
2228065672000.0,-1.1365687667386002,8.246496084631262,-1.968578308341152,0.6053675,0.0143553335,-0.09254608,93.98986,-63.710457,2.688989
2228070649000.0,-1.1634014651154063,7.8484780444736355,-2.089325380990805,0.7254025,0.0009162979,-0.17623462,93.76485,-64.215576,2.5196667
2228075814000.0,-1.1477382606925943,7.373420813851891,-2.2227519318700053,0.82863873,0.025350908,-0.23090707,93.56754,-64.73828,2.3252182
2228080778000.0,-1.0869528244858817,6.851679289717635,-2.359519150111881,0.93187493,0.04428773,-0.2874121,93.3835,-65.29689,2.1136067
2228085660000.0,-1.046298068164645,6.303389903042354,-2.332505745277391,1.0189233,0.015577064,-0.3491095,93.22259,-65.876625,1.8982828
2228090662000.0,-1.0177218679459137,5.71757832073971,-2.194387585126268,1.1029172,-0.053450707,-0.38698313,93.06844,-66.48467,1.679268
2228096510000.0,-1.041803189735528,4.990667492176808,-1.95443555132236,1.1899655,-0.16920967,-0.41691554,92.95648,-67.11215,1.4753882
2228100977000.0,-1.085318602006658,4.417055329637507,-1.73685848996671,1.2702943,-0.30695978,-0.45051312,92.86993,-67.76165,1.272275
2228105697000.0,-1.1129040519800997,3.830412898358209,-1.5111752904975124,1.3445144,-0.38973203,-0.46517387,92.8176,-68.3865,1.0860311
2228110671000.0,-1.1176438532935324,3.237937486716418,-1.2789248776616915,1.4150693,-0.5497787,-0.46975538,92.82137,-69.03264,0.9169151
2228115656000.0,-1.0787113298713429,2.6478828590163936,-1.05410057217265,1.4581354,-0.72051555,-0.48655418,92.88034,-69.62527,0.74821055
2228120655000.0,-0.9743988545600748,2.06174601147541,-0.8405083645258353,1.5189165,-0.9062186,-0.50946164,92.98391,-70.24175,0.592871
2228125799000.0,-0.8193260235080919,1.5105804410407986,-0.639423303442194,1.561677,-1.0995574,-0.5299256,93.16464,-70.80569,0.45432675
2228130724000.0,-0.6227829140255838,1.0352203860451594,-0.4657340601046613,1.611768,-1.278541,-0.5317582,93.38904,-71.38732,0.3279533
2228135648000.0,-0.4295845723693448,0.5834764493116225,-0.3829396778032371,1.6664404,-1.4110987,-0.5329799,93.68275,-71.9267,0.22381222
2228140660000.0,-0.2377010808794852,0.1575886984769891,-0.4297405326043291,1.7162259,-1.4767667,-0.52320606,94.003235,-72.477104,0.12846057
2228145637000.0,-0.0518154535766821,-0.1995763650449468,-0.4904702604549169,1.7635679,-1.4856243,-0.5158757,94.370636,-72.992134,0.06675315
2228150835000.0,0.1335100633433215,-0.4481837395441751,-0.5808729674067012,1.8316795,-1.4425583,-0.5128214,94.738495,-73.52566,0.0038863774
2228155759000.0,0.3451045088614832,-0.5639560760454101,-0.7254752189235545,1.8936822,-1.3271047,-0.54000485,95.124435,-74.07064,-0.044969965
2228160722000.0,0.7255283897255798,-0.1253040935805293,-1.144717834188174,1.9431623,-1.1148291,-0.5384777,95.46723,-74.63128,-0.09957737
2228165632000.0,1.1018897145377329,0.3086635134923228,-1.559483347174126,1.9764545,-0.8023715,-0.49877146,95.73375,-75.20179,-0.13687882
2228170668000.0,1.450388191275531,0.6080993690112269,-1.6579728556201814,2.0295997,-0.40317106,-0.4428773,95.91286,-75.7922,-0.19257241
2228175892000.0,1.795510765548492,0.8550988580954957,-1.6173701935885298,2.1108449,0.047647487,-0.37018433,95.98353,-76.400406,-0.258614
2228182353000.0,2.23381566026348,1.1669356585375816,-1.5012739900184846,2.1569653,0.5195409,-0.30787608,95.76862,-77.06906,-0.24005282
2228185704000.0,2.5418872375612747,1.3734091388071896,-0.976896877720384,2.1975877,0.97494096,-0.2510656,95.421616,-77.76013,-0.22582883
2228190632000.0,2.9949390826593136,1.677050234232026,-0.2057448605896652,2.1578815,1.3335189,-0.18692477,94.46942,-78.19576,-0.06898663
2228195694000.0,3.418675574704492,1.898431923177305,0.7064215039866666,2.0778582,1.6303993,-0.15607607,93.43394,-78.64401,0.0720329
2228200985000.0,3.849917091252955,2.104469617248227,1.6934855610133333,1.9483547,1.8781052,-0.13072516,92.33713,-79.079254,0.21377686
2228205641000.0,4.28098558905801,2.223363587951038,2.438592478956892,1.8118263,2.0134118,-0.12980886,91.645355,-79.574234,0.36496678
2228210552000.0,4.756558988185205,2.323484320063864,3.174479666577967,1.7479908,2.271197,-0.16432275,90.84946,-80.0492,0.50075316
2228215581000.0,5.49083742336224,2.5457977743809423,4.668260595590847,1.645671,2.3475552,-0.21991149,90.15069,-80.294975,0.6942972
2228220535000.0,6.283958278654268,2.798605089060704,6.348685398035732,1.5723672,2.0668626,-0.27275133,89.48292,-80.52444,0.8870259
2228225687000.0,7.6672358335296416,3.281716515586965,9.412763781703966,1.5424347,1.3142766,-0.27275133,88.94935,-80.57685,1.1659032
2228230574000.0,9.063757482822927,3.773255369473891,12.51818701756969,1.5470163,-0.0125227375,-0.18967366,88.65916,-80.60796,1.4921247
2228235581000.0,9.748343554058131,4.05531400056321,14.4138037415267,1.5057828,-1.8099937,-0.021991149,88.75095,-80.24412,2.0019686
2228240562000.0,10.276074567736096,4.290394156612692,16.03537698310369,1.2318097,-3.542713,0.20372356,89.1895,-79.79852,2.6019943
2228245576000.0,9.34577497511142,4.708521783867867,16.89404929957179,0.4746423,-4.566218,0.41172317,89.98368,-78.51679,3.465536
2228250946000.0,8.046942934737395,5.193898452923184,17.65357369002884,-0.6038403,-4.476726,0.6951646,90.90782,-77.09821,4.4028664
2228255717000.0,6.371915713065055,5.9143319104542025,14.984823869349444,-1.5164729,-3.186273,1.0458013,91.77323,-75.27584,5.3775926
2228260710000.0,4.267121922904305,6.863552708005178,9.934350770956954,-2.130698,-1.344209,1.3658947,92.41317,-73.322174,6.317511
2228265684000.0,2.457930636713427,6.890364833306613,5.207261285711423,-2.5778513,0.29749137,1.4837917,92.71608,-71.19884,6.83148
2228270651000.0,0.7611162404809617,6.566254048296593,0.6029838266032064,-2.879619,1.3906348,1.4046847,92.67788,-69.054214,7.235467
2228276006000.0,-0.5020823280977627,8.165769372423398,-4.211046420999192,-3.0723467,2.1551325,1.2018774,92.27463,-67.68888,7.42216
2228281850000.0,-1.658734117692515,10.675200878830085,-9.4059214822985,-3.0356948,2.637716,0.9083566,91.68953,-66.35215,7.466235
2228285668000.0,-1.9249382,11.252748,-10.601525,-2.777299,2.9248228,0.61544675,90.90057,-65.78177,7.170793
2228290659000.0,-1.9249382,11.252748,-10.601525,-2.5097399,3.408628,0.3680463,89.98146,-65.26812,6.737727
2228295666000.0,-1.838577370467544,13.121020104221516,-10.935453552882434,-2.3704627,3.8319576,0.18448131,88.83005,-65.68572,6.3484993
2228300878000.0,-1.702632748443032,16.061954627689513,-11.46110611030413,-2.3796256,4.142888,0.028405234,87.621056,-66.13664,5.8654594
2228305669000.0,-1.4389596805991698,17.650876042862297,-11.023035392708897,-2.435825,4.5051312,-0.027183503,86.309235,-66.60524,5.3148823
2228310684000.0,-1.0055750741201948,18.04958935950189,-9.51919066432052,-2.4263568,5.499925,-0.09621128,84.77325,-67.08714,4.6288443
2228315645000.0,-0.5481202599622365,18.259274901185357,-7.872737151683626,-2.332589,5.929669,-0.10629055,83.29328,-67.7631,3.9670231
2228320659000.0,0.0059542268352039,17.88149711454946,-5.701772454736179,-2.2348504,5.696624,-0.056199603,81.73663,-68.39454,3.2919621
2228325926000.0,0.5920239718332109,17.367983921748714,-3.727308490218589,-2.085494,5.0237556,0.007941248,80.23985,-68.851364,2.66223
2228330886000.0,1.1504481957861867,16.69612987325496,-2.36178673415687,-1.8509218,4.0124683,0.04520403,78.90316,-69.331894,2.124023
2228335672000.0,1.6806771012242268,16.053357826138317,-1.2477040773303265,-1.5222762,2.6988027,0.01863139,77.93865,-69.637695,1.7239759
2228340659000.0,2.1884298557989688,15.4122557334622,-1.1451277746348798,-1.105666,1.271516,-0.044593163,77.28658,-70.023705,1.4569442
2228345625000.0,2.595245378936724,15.098432040450737,-1.1669039128575558,-0.66675943,0.014660766,-0.1386664,76.99601,-70.28691,1.3504003
2228351517000.0,2.790887925252817,15.669056039295,-1.552754269633054,-0.23609942,-0.9443977,-0.21319197,77.01361,-70.6565,1.3415818
2228355826000.0,2.8516914462078518,16.187310227924453,-1.8693030628497973,0.22296582,-1.6010778,-0.22204952,77.26867,-71.09041,1.4619473
2228360666000.0,2.695856320330268,17.044402774152083,-2.318474541540591,0.6985244,-1.9795089,-0.14569137,77.69545,-71.63379,1.6344811
2228365682000.0,2.525566952240252,17.82737341115686,-2.787047148542827,1.1520919,-2.1884248,0.008246681,78.20702,-72.33143,1.8600796
2228370652000.0,2.3219158759505936,18.184723914103497,-3.2635139909582627,1.606881,-2.1542163,0.25900686,78.72241,-73.12848,2.1231787
2228376158000.0,2.096301625236135,18.58061362622104,-3.7913663922337935,2.0931299,-1.8735237,0.5717699,79.1391,-74.0922,2.3897357
2228380866000.0,1.641525592086186,18.8145035787354,-3.8200119810310103,2.6633725,-1.5522085,0.83260936,79.503586,-75.1545,2.6841533
2228385818000.0,1.0971865650221506,19.03414861135723,-3.743613470358437,3.3023374,-1.318858,0.97066486,79.78642,-76.31362,2.9953465
2228390662000.0,0.6072657562954816,18.47587582897993,-3.8153757376042527,3.9229765,-1.1563679,0.9260717,79.93993,-77.64156,3.2508578
2228395696000.0,0.1123999895536614,17.636371552378336,-3.9390921815965534,4.450764,-0.95905846,0.68111473,80.009705,-79.05601,3.4563422
2228400888000.0,-0.0579218140862875,17.21659590549953,-3.741593391735108,4.884173,-0.829555,0.34055737,80.05105,-80.5523,3.5660503
2228405701000.0,0.0187483962740409,17.135133666389436,-3.3342829467304296,5.226258,-0.8136725,0.18203785,80.062836,-82.07376,3.6479301
2228410674000.0,0.4263075151968682,17.32440696105903,-3.136074221870815,5.367673,-0.7315111,-0.0983493,80.05584,-83.619064,3.5635865
2228415651000.0,1.0253576665552693,17.673034351704956,-3.0673307104048626,5.589417,-0.5699373,-0.36651915,80.01532,-85.11532,3.4363317
2228421458000.0,1.8153721969345484,17.910651589892296,-3.093800470588236,5.681047,-0.13561209,-0.78893244,79.851685,-86.36761,3.1843035
2228425890000.0,2.444438681846635,18.04349776056338,-3.1445946666666664,5.672495,0.05955936,-0.9242391,79.69351,-87.048584,2.9512894
2228430707000.0,3.1849890101465497,17.99540125931203,-3.141973232546305,5.6282067,0.5015204,-1.1670581,79.24077,-93.082664,2.621836
2228435666000.0,3.996972874211276,17.777905757174842,-3.088807564420924,5.5072556,1.0027353,-1.3432927,78.696365,-93.94773,2.3027568
2228440666000.0,4.743202898847118,17.45255164661654,-3.038271802506266,5.3582044,1.5674802,-1.4333953,77.937805,-95.145706,2.0378563
2228445656000.0,5.428287827769424,17.04054272932331,-2.990363800501253,5.180443,2.1988094,-1.4514158,77.006035,-96.42185,1.7917243
2228451052000.0,6.015051422811186,16.631793048619997,-2.941231406689819,4.9712214,2.9138272,-1.4141531,75.87097,-97.71066,1.6690218
2228455710000.0,6.426812152184244,16.30156885962347,-2.9004630513617253,4.753448,3.6654968,-1.3264939,74.54948,-98.95633,1.6176925
2228460665000.0,6.802926109269057,16.048683945130314,-2.79610663074662,4.5481973,4.437936,-1.1792754,73.09621,-100.19567,1.7152604
2228465658000.0,7.074666734175975,15.964350873799726,-2.5852733164315107,4.3569965,5.2247305,-0.96669424,71.443245,-101.37036,1.9282993
2228470670000.0,7.218872288158852,16.060395737810584,-1.3220463044183386,4.2021422,5.6666913,-0.6401868,69.74877,-102.53672,2.3028634
2228475873000.0,7.08936762220605,16.552513316976814,2.2729968635097206,4.365243,4.957477,-0.16462818,68.19333,-103.74305,2.781604
2228480752000.0,6.594522169467787,16.60323689715886,5.8034990136854745,5.2681017,3.5601227,0.36010507,66.781,-105.12486,3.3705707
2228485673000.0,5.59030562289916,16.098770398559424,9.579919311164469,6.2124996,1.9685133,0.6563747,65.64829,-106.56353,3.9724712
2228491356000.0,3.60558036354204,14.141078404651164,13.25882325760286,6.6721754,0.3680463,0.59315014,65.06606,-107.767166,4.4461055
2228495657000.0,1.4097710597137745,11.503160077906976,15.469369911001788,6.3566637,-0.32742378,0.22479841,64.66059,-108.99773,4.865417
2228500897000.0,-0.7199223971109019,8.762616110901813,17.541384357428772,5.1935763,-1.1899655,-0.3213151,64.788506,-109.66503,4.9125953
2228505692000.0,-0.6838806503367083,7.976906003374932,17.177362153127696,3.5692856,-1.0296134,-0.57543504,64.80342,-110.106705,4.968895
2228510690000.0,-0.6463130485895927,7.15793225625932,16.797928789812417,2.762638,-0.398895,-0.93523467,64.877426,-110.0863,4.504782
2228515661000.0,-0.4249962629436688,6.617650996225325,15.976115303803564,1.2669345,0.31398472,-1.0458013,64.891426,-109.43798,4.0681767
2228520660000.0,-0.0884690320221474,6.2442438919114105,14.874335222436208,0.06688975,0.8875872,-1.0125091,64.76357,-108.6496,3.623538
2228525799000.0,0.1442250755390129,5.887441549820789,13.770120541218638,-0.82527894,1.2247849,-0.9651671,64.56424,-107.65414,3.197628
2228530700000.0,0.2779456738305302,5.5682377217443255,12.73917733213859,-1.3692545,1.4071281,-0.9798279,64.26465,-106.42854,2.7968724
2228535674000.0,0.4237826613216957,5.339429210567332,11.777033220698254,-1.6985108,1.4523321,-1.0351112,63.90524,-105.16544,2.4459295
2228540666000.0,0.5877108536408977,5.2748514350062345,10.957392881546134,-1.9364429,1.409877,-1.0772609,63.54327,-103.782326,2.0924206
2228545649000.0,0.7961429213990185,5.124327146492831,10.233752445973252,-2.0952678,1.2996159,-1.0867293,63.19682,-102.48043,1.7298172
2228550996000.0,1.0819138071490426,4.843483341431733,9.588303743866064,-2.261423,1.1129965,-1.0708468,62.90977,-101.117355,1.3475138
2228555691000.0,1.3808814805999412,4.492395632388981,8.863387317664936,-2.4480424,0.89888823,-1.03786,62.683517,-99.82266,0.94958323
2228561076000.0,1.8105985154494657,3.900902660866581,7.746123343789825,-2.6688702,0.7067711,-1.0369438,62.53364,-98.48728,0.53491235
2228565641000.0,2.222233538506856,3.472752533773489,6.71073767623159,-2.8643472,0.56413406,-1.0436633,62.460224,-97.23719,0.11410691
2228570721000.0,2.780635858872524,3.1515476683595733,5.371560408583037,-3.0289752,0.52442783,-1.074512,62.44435,-95.9666,-0.31779838
2228575777000.0,3.31235776178693,2.952619463588807,4.175753270480778,-3.1352658,0.58093286,-1.0735956,62.43765,-94.85583,-0.70793295
2228580784000.0,3.7981197059453615,2.960582726438595,3.2241377679564893,-3.2076533,0.7141015,-1.0650436,62.44995,-93.78634,-1.1038833
2228586114000.0,4.318400018431718,2.973976416290749,2.217525233162996,-3.2262847,0.86132,-1.0155635,62.359875,-92.890335,-1.3500931
2228590733000.0,4.860135709744493,3.1259743579911894,1.527688855964758,-3.1920764,1.0543534,-0.9306532,62.239563,-92.175674,-1.583178
2228595675000.0,5.439754195665199,3.288601296264317,0.789613217057269,-3.114191,1.1640037,-0.8035932,62.015766,-91.74297,-1.6525797
2228600949000.0,6.1922140380209605,3.543490945771387,-0.2588632197903973,-3.0515773,1.5048665,-0.61850107,61.68333,-88.27795,-1.682027
2228605741000.0,6.930424187992526,3.808202559647413,-1.3177099867414088,-2.7699685,1.6194037,-0.505491,61.396168,-87.9188,-1.699438
2228610650000.0,7.4916727714491715,4.0487767838088375,-2.2045328351220514,-2.6526823,1.8164078,-0.24801129,60.94575,-87.53995,-1.5390865
2228615664000.0,7.31857228406633,4.177365923864456,-2.3529047330930064,-2.4440718,1.9929478,0.06169739,60.47553,-87.1463,-1.3362855
2228620649000.0,7.043733867282574,4.302561355750239,-2.444071819974514,-2.2492058,2.1820107,0.35338554,59.915707,-87.019966,-0.99964714
2228625854000.0,6.460144342513539,4.425631126656579,-2.376581839964957,-2.104736,2.357329,0.6160576,59.314034,-86.90402,-0.59242016
2228630701000.0,5.916694116470213,4.540236156355528,-2.3137338220770944,-2.0115793,2.488054,0.8042041,58.666817,-86.80512,-0.17674677
2228635681000.0,4.987807787806097,4.669983080809596,-2.2584225194902547,-1.9446895,2.597399,0.95142263,57.97952,-86.686844,0.2925758
2228640624000.0,3.951620210154923,4.802463780899551,-2.2063766572113943,-1.8869628,2.6783388,1.0677924,57.267643,-86.52692,0.7975612
2228645660000.0,2.780935928026352,5.001640601564644,-2.209624092890475,-1.8435913,2.7910433,1.1682798,56.505093,-86.290436,1.255607
2228650884000.0,1.5266573041815352,5.230523644111996,-2.232512373245494,-1.817935,2.9211576,1.2483032,55.719326,-86.01875,1.7334198
2228655708000.0,0.251284516,5.447539633142857,-2.232337262628572,-1.8194622,3.0680707,1.2846496,54.89726,-85.75296,2.0817924
2228660667000.0,-1.140151376,5.674511388675325,-2.217534763553247,-1.8741345,3.1856623,1.2544118,54.052143,-85.4729,2.4281077
2228665662000.0,-2.358879068605859,5.992870457407022,-2.160953823436526,-1.9343048,3.284317,1.1420126,53.23022,-85.45937,2.4589844
2228670656000.0,-3.4767866949303965,6.360537754207355,-2.0814581215873678,-1.9981402,3.2971451,0.9398162,52.407608,-85.4568,2.4608982
2228676605000.0,-4.2976408853990735,7.127452916099156,-2.082695909670389,-2.0479257,3.2311716,0.68111473,51.612137,-85.66374,2.1593509
2228680932000.0,-4.779269146100063,7.759589976346136,-2.105272296395169,-2.118786,3.1655037,0.36896262,50.825047,-85.870384,1.8059173
2228685663000.0,-5.172896307130417,8.727339777072022,-2.248306818563672,-2.2094996,3.1716123,0.013744468,49.94665,-85.802605,1.4065607
2228690661000.0,-5.472021205132671,9.992490977461324,-2.5032984702591947,-2.3075435,3.2030718,-0.38881573,49.09242,-85.70422,0.9100449
2228695655000.0,-5.587128999526963,11.518352644985807,-2.581311861116367,-2.408947,3.2446108,-0.59986967,48.22514,-85.53412,0.28537157
2228700834000.0,-5.558974740397352,13.31083516821192,-2.5203110806622515,-2.4492643,3.1807754,-1.0158689,47.39759,-85.270966,-0.49806535
2228705711000.0,-5.477813853843886,14.80681915237908,-2.3534889116791198,-2.5103507,2.9691105,-1.4257594,46.59248,-84.93028,-1.3873178
2228710838000.0,-5.328176874990169,16.15355382697601,-2.0493876506095163,-2.5558603,2.6187794,-1.8084666,45.86246,-84.437294,-2.3527732
2228715660000.0,-5.055334734700019,17.13446036148204,-1.793060244442355,-2.6471846,2.1450534,-2.134974,45.252716,-83.86188,-3.4360085
2228720650000.0,-4.592461649595637,17.75911413616701,-1.568364589373707,-2.7733283,1.5916094,-2.3399193,44.78842,-83.13324,-4.5238338
2228725690000.0,-3.970021726363637,18.30759013409091,-1.448622538409091,-2.8802297,1.1255192,-2.3942864,44.43218,-82.30813,-5.598566
2228730846000.0,-2.9498148723140494,18.66466284194215,-1.591451568285124,-2.8646526,0.8051204,-2.3457224,44.215057,-81.44233,-6.6312695
2228735659000.0,-1.889005201451463,18.93697833092112,-1.6183407658223925,-2.7302623,0.6084218,-2.2736404,44.050457,-80.57869,-7.564161
2228740659000.0,-0.5920324318866947,19.11023791946656,-1.4549816218132947,-2.5045476,0.48899764,-2.2021692,43.972332,-79.757774,-8.433123
2228746322000.0,0.842929555098662,19.254216992973337,-0.8828048102127249,-2.234545,0.3744604,-2.111761,43.88964,-79.08383,-9.131953
2228750783000.0,1.945011802964674,19.32412488641833,-0.1097023459043218,-1.9291124,0.23273966,-1.9685133,43.857372,-78.49171,-9.763343
2228755659000.0,3.184744518996063,19.388310373228347,1.1941127987401576,-1.5625933,-0.029626964,-1.7660115,43.836002,-78.07371,-10.194651
2228760682000.0,4.529392225590551,19.43092281574803,3.4194101689763783,-1.2186762,-0.4636467,-1.4761559,43.90371,-77.75859,-10.537656
2228765631000.0,5.915585098760496,19.465865531687324,5.590511584596162,-1.0345002,-1.0048733,-1.1184943,44.059635,-77.57115,-10.64197
2228770650000.0,7.462691347061176,19.48508412754898,7.74300671307477,-1.1053606,-1.5164729,-0.7113526,44.32002,-77.47758,-10.637593
2228775762000.0,8.644382692973346,19.50245643509865,9.181753769124263,-1.3799446,-1.9501873,-0.35124752,44.808308,-77.39755,-10.390139
2228780728000.0,8.98185174376947,19.514803107476634,9.029481580996883,-1.6759088,-2.2983804,-0.05589417,45.396835,-77.35527,-10.038788
2228786022000.0,9.302982889477432,19.527403255942318,8.759507893243123,-1.9080375,-2.6141977,0.17867808,46.188587,-77.249176,-9.452875
2228790665000.0,9.097143980592897,19.531361358675333,7.164258033730972,-2.0186043,-2.7614164,0.35246924,46.99718,-77.08526,-8.805513
2228795628000.0,8.877118457268763,19.53559225763376,5.459062028398469,-2.0222695,-2.9339857,0.42821655,47.83999,-76.88214,-8.0829115
2228800795000.0,8.534137903786002,19.536686,4.128154559259892,-1.9364429,-2.7980683,0.59895337,48.597736,-76.64641,-7.306707
2228805707000.0,8.172312830510213,19.536686,3.002476754080848,-1.7528778,-2.4953845,0.7623598,49.328526,-76.3732,-6.526813
2228810660000.0,7.79407413767531,19.31702327696499,1.709416158995056,-1.5293012,-2.2531765,0.9202685,49.831093,-76.272606,-5.7676897
2228816412000.0,7.3327565411462015,18.700079925940877,-0.0524844686711731,-1.3069462,-1.8579466,1.1389582,50.17648,-76.200386,-4.9926834
2228820655000.0,7.0610577171665545,18.16450910251712,-1.0279490555791302,-0.9285152,-1.6578883,1.2009611,50.318726,-76.313065,-4.328675
2228825889000.0,6.809683370942232,17.405552349503328,-1.8352472930562251,-0.7834347,-1.251052,1.321607,50.26579,-76.41822,-3.645294
2228830707000.0,6.547294941379311,16.723501615763546,-2.3395335938423645,-0.46822822,-0.9379836,1.4398094,49.938442,-76.790855,-3.0832398
2228835673000.0,6.223991217241379,16.048781225615762,-2.4519870737438425,-0.18478674,-0.6560693,1.5531249,49.502632,-77.17881,-2.5248606
2228840658000.0,5.8568793836096535,15.248391159286465,-2.5299009189087096,0.08093964,-0.50426924,1.6493362,48.94607,-77.674545,-1.9775972
2228845659000.0,5.399553046810074,14.18799706621196,-2.534926425383001,0.2593123,-0.41538838,1.6780468,48.33846,-78.19874,-1.4368756
2228850851000.0,4.924311280382775,13.039668036324578,-2.516541789834977,0.40133846,-0.31429017,1.6905695,47.669205,-78.73541,-0.909471
2228855718000.0,4.47827983923445,11.90638321306513,-2.4710283774729027,0.4999932,-0.20891592,1.6933185,46.987835,-79.2772,-0.38367158
2228860634000.0,4.1293899128397005,10.789048648877513,-2.5107716647794405,0.59712076,-0.047647487,1.6716328,46.364143,-79.76944,0.14548832
2228865661000.0,3.9492579900748326,9.694036780622293,-2.700384155139819,0.6554584,0.20830505,1.6698002,45.693966,-80.240135,0.6697853
2228870627000.0,3.751679798360176,8.612349935773548,-2.812759089214251,0.7107417,0.5222898,1.6694947,45.060528,-80.648575,1.1784495
2228875921000.0,3.4992952080819912,7.45929864987799,-2.773169322205954,0.7699956,0.80756384,1.6884315,44.37069,-81.03195,1.6823809
2228880699000.0,3.214499412382694,6.468362986122157,-2.646750895339589,0.8347474,0.9669997,1.711339,43.744843,-81.36373,2.2197928
2228886172000.0,2.74346654226181,5.459602425210752,-2.27159202307937,0.89888823,0.9654725,1.7162259,43.091473,-81.65852,2.753906
2228890626000.0,2.36013374425004,4.638659699411484,-1.9662827563066645,0.91813046,0.88147855,1.7128662,42.496452,-81.8681,3.3012857
2228895650000.0,1.1282701773231325,3.1972473357087594,-1.75945603344795,0.9068295,0.6047566,1.6954565,41.963326,-82.02531,3.8554597
2228900941000.0,-0.4223904322530734,1.5159130802802374,-1.585224490483968,0.8549059,0.2996294,1.649947,41.46939,-82.11643,4.4058576
2228905700000.0,-1.4930997158771842,0.4126113187152813,-1.6402300527623472,0.8045095,0.03176499,1.5946637,41.088158,-82.11777,4.9097943
2228910678000.0,-2.2442401964549035,-0.2759340673467327,-1.9387603256236745,0.76052725,-0.22479841,1.5271631,40.79494,-82.068695,5.4064813
2228915664000.0,-2.881898745613686,-0.9004236291227372,-2.2601721916252235,0.7528914,-0.4541783,1.45783,40.777653,-82.042465,5.7644463
2228920656000.0,-3.39069064471852,-1.452011128943704,-2.607291810324249,0.74220127,-0.65057147,1.3820826,40.829613,-81.998474,6.104282
2228926024000.0,-3.843184996413562,-1.99414124408331,-3.014328271682077,0.7635816,-0.80970186,1.2861768,40.96293,-82.03762,6.3370943
2228930692000.0,-4.152154410030821,-2.4200180517044925,-3.3984524417016906,0.82863873,-0.9083566,1.212262,41.14033,-82.079025,6.5521493
2228935651000.0,-4.461894896261489,-2.831743058184447,-3.8511838464732007,0.90377516,-0.926988,1.1468995,41.354137,-82.19922,6.67945
2228940659000.0,-4.7343141149333885,-3.1586461929980376,-4.405928586739647,1.006095,-0.8426886,1.0903945,41.572304,-82.333595,6.7807665
2228945624000.0,-4.995529430778255,-3.4206092604419243,-4.977997657176378,1.1114693,-0.62796944,1.0366384,41.76812,-82.53321,6.816743
2228950996000.0,-5.26211834473993,-3.5916284140985533,-5.636924509034024,1.2162327,-0.30085114,0.97219205,41.913116,-82.73724,6.8230577
2228955902000.0,-5.470409819265693,-3.6906774958547177,-6.2336958127516775,1.3112222,0.18570304,0.8897252,41.957882,-82.98575,6.7697763
2228960668000.0,-5.6190696005132255,-3.6996871738649824,-6.805810930872483,1.3845261,0.8005389,0.77854776,41.877296,-83.21858,6.6803627
2228965641000.0,-5.728341280797277,-3.627226016431696,-7.184234725619834,1.4669929,1.5381587,0.62949663,41.62784,-83.46724,6.521267
2228970657000.0,-5.733011891278561,-3.365671634399611,-7.062798609256198,1.5357152,2.3493876,0.4783075,41.18485,-96.3405,6.3280964
2228975993000.0,-5.656983478352155,-3.049432248512804,-6.80684289839351,1.5885551,3.107166,0.32284227,40.54738,-96.21356,6.080024
2228980734000.0,-5.418663053236838,-2.688340811849849,-6.312147713869891,1.6181821,3.753767,0.20616703,39.711723,-96.202835,5.8107758
2228985656000.0,-5.171244126340067,-2.313463770876412,-5.798566254636552,1.6209309,4.0329323,0.13439035,38.7709,-96.3001,5.5144854
2228990658000.0,-4.846676505219835,-1.79205591937362,-5.013723811744629,1.6166549,4.528344,0.1001819,37.584457,-96.526535,5.21872
2228995634000.0,-4.497473892089942,-1.2228079129492069,-4.138325532202369,1.6242907,4.907386,0.04153884,36.35302,-96.873146,4.912995
2229001756000.0,-4.041207695871157,-0.2859160727027818,-2.51827393204978,1.6740762,5.1642547,-0.020158553,35.018486,-97.27953,4.6536627
2229005698000.0,-3.7427310760175696,0.3589409666412884,-1.3796406606295752,1.7831156,5.1331005,-0.05375614,33.66095,-97.782166,4.400621
2229010680000.0,-3.156302671111111,1.3013815635555557,0.5603495722222221,2.042428,4.7720795,-0.013744468,32.333664,-98.29214,4.19458
2229015650000.0,-2.481894290784913,2.2960123938511723,2.709722711111111,2.5433373,4.0225477,0.058643065,31.130306,-98.94094,3.9821599
2229020657000.0,-1.8121936812769628,3.0739648559102672,4.8226037369715264,3.393662,3.0017917,0.1469131,30.127638,-99.54921,3.7933939
2229025925000.0,-1.1113697783951682,3.80525961622088,7.025193217454701,4.467563,1.8555032,0.20525073,29.379587,-100.38385,3.5834641
2229030692000.0,-0.5895793309465663,4.662701067304874,9.309204231073556,5.597664,0.3203988,0.2660318,28.946558,-100.69999,3.5931978
2229035695000.0,-0.1917494212445052,5.823428198603106,12.094013950864513,6.4269133,-1.8985692,0.25259277,29.050377,-101.2327,3.5099273
2229040659000.0,0.1140808417673888,6.633800404389966,14.334743779361458,5.100114,-3.1670308,0.23396139,29.389666,-101.378685,3.3567238
2229045648000.0,0.2684399613397947,6.860799098489168,15.687656381128846,2.8017335,-3.678936,0.18173242,30.128958,-101.475426,3.1111498
2229050886000.0,0.4351733573259159,7.009662114041818,16.902187355553423,0.8564331,-4.01705,0.13347405,31.209967,-100.84035,2.7810836
2229055674000.0,0.5979000722616535,6.948089977076539,17.557491698925762,-0.9114109,-4.229631,0.13988814,32.394493,-99.66375,2.4533947
2229060703000.0,0.7751879318528305,6.943867337798556,17.64894386848257,-2.378404,-4.1868706,0.23548855,33.616447,-97.880005,2.150819
2229065662000.0,0.9779156722837686,7.2045171961784735,15.124500883423112,-3.5185838,-3.8389826,0.33078352,34.811882,-95.79469,1.8931947
2229071344000.0,1.314896054444248,7.54681129323202,9.805610540731578,-4.1792345,-3.2598825,0.2779437,35.932346,-93.50708,1.6857816
2229075691000.0,1.7562854337427107,7.885209611238735,1.481741574659832,-4.454735,-2.7052166,0.050396383,36.961834,-91.59568,1.4993325
2229081142000.0,2.336979181963563,8.357610774898786,-8.657910951417005,-4.6001205,-2.2840252,-0.33200526,37.821323,-87.81284,1.3897177
2229085676000.0,3.396140993724696,9.76836212145749,-10.776234299595142,-4.4959683,-2.0253236,-0.5174029,38.57525,-85.90469,1.292786
2229091019000.0,4.615235281023264,11.431785683572512,-13.213556130760317,-4.3698244,-1.3249667,-0.8051204,38.850967,-85.28711,1.4695104
2229095651000.0,5.034357831268384,12.894760295926552,-14.032031232641057,-4.076304,-1.0577132,-0.79137594,39.185856,-84.74416,1.6699885
2229100999000.0,5.518267027881273,14.58387692521615,-14.977023643016311,-4.0552287,-0.40683624,-0.66889745,39.14015,-84.42622,2.038777
2229105776000.0,5.480737915191657,15.725640490417137,-14.98842321899662,-4.0173554,0.30390546,-0.42730024,39.031933,-84.15579,2.3963447
2229110671000.0,5.308973680458474,16.791460977076287,-14.763808298384069,-3.8655553,1.0088439,-0.10873401,38.76413,-83.879234,2.7594097
2229115662000.0,4.908350649546677,17.5730693980273,-14.284580878848262,-3.6609154,1.6084082,0.2779437,38.334732,-83.64648,3.2206495
2229120659000.0,4.355275301335061,18.149983179436084,-13.636148312842485,-3.3551774,1.9376645,0.6579019,37.80721,-83.39241,3.7134116
2229125806000.0,3.7695775425725455,18.548983955608115,-13.094646437642137,-2.9098566,2.0027218,0.9761627,37.21276,-83.14352,4.183416
2229130702000.0,3.202297578959338,18.804900498862917,-12.659589204857635,-2.261423,1.9278907,1.2272283,36.580383,-82.919044,4.7024236
2229135804000.0,2.522995532632744,19.022607151246984,-12.301594167789622,-1.3374895,1.8069394,1.4129313,35.955074,-82.776596,5.1576066
2229141509000.0,1.6219242300884955,19.187437131134352,-12.054348911102172,-0.08460484,1.749518,1.4798211,35.346256,-82.74734,5.63127
2229145663000.0,0.9434565775837388,18.970165781849413,-11.843866832092758,1.2437216,1.9230038,1.3921618,34.711445,-82.85618,5.9953055
2229150705000.0,0.090993791602252,18.26976370626968,-11.548960834287625,2.276084,2.3469443,1.2223413,34.034107,-82.9923,6.349742
2229155653000.0,-0.7388450107570289,17.587553566774318,-11.1174582143807,2.9571986,2.8506026,1.0454959,33.282494,-83.18292,6.566015
2229160678000.0,-1.5661954383073708,16.9064746700228,-10.35410162481003,3.3957999,3.3429601,0.84635377,32.425327,-83.23572,6.743643
2229165671000.0,-2.312784295892985,16.424806571224053,-9.526541126968503,3.7519343,3.6813793,0.6417139,31.461111,-96.84235,6.786042
2229170657000.0,-2.761401475044739,16.71106792841804,-8.428497313976377,4.1722097,3.7803395,0.4288274,30.433784,-97.20795,6.802693
2229176140000.0,-3.2221993662781285,17.039517143273436,-7.222436388214344,4.711298,3.803247,0.17928895,29.313433,-97.74313,6.6812005
2229180737000.0,-3.143800348122066,17.50991035915493,-6.231758515258216,5.297729,3.767206,-0.07360926,28.187246,-98.57828,6.5396247
2229185682000.0,-3.05946640320544,18.015913067994173,-5.166084797231665,5.7173934,3.6957347,-0.2012801,27.041647,-99.53885,6.3315535
2229190660000.0,-2.6339649385383863,18.44207820860028,-3.986003297697904,5.834985,3.4620788,-0.44135013,25.952656,-100.6661,6.060513
2229195652000.0,-1.8604493616896516,18.78470970387664,-2.693349751992616,5.882327,3.2159002,-0.6765333,24.89175,-101.98666,5.7975774
2229200966000.0,-0.8181455160805927,19.00646890142754,-1.506405411464673,5.761681,2.933375,-0.8512407,23.885157,-103.207344,5.5248923
2229205725000.0,0.2113092815287314,19.142357098482112,-0.5263644240692085,5.521,2.622139,-0.9297369,22.96115,-104.44138,5.2397265
2229211363000.0,1.6299896906456557,19.272247894068723,0.7181620117021229,5.2161784,2.2791383,-0.9086621,22.120466,-105.50468,5.051973
2229215646000.0,2.850907838765594,19.348554943204203,1.7236240430830594,4.8823404,1.8329011,-0.8023715,21.410269,-106.50013,4.8666263
2229220655000.0,4.405870406191896,19.414198282231187,2.6497534786879493,4.575381,1.3677273,-0.6420194,20.793867,-107.19967,4.896875
2229226054000.0,6.1698869262673215,19.46861539133485,3.475077328994913,4.2858305,0.89858276,-0.441961,20.326567,-107.81703,4.942536
2229230673000.0,7.290059435569018,19.501830849632192,3.898875101817395,4.054618,0.41355577,-0.19700404,19.987514,-108.34102,5.129764
2229235821000.0,7.770059868887927,19.512497189311983,3.813541599870186,3.855476,-0.029932396,0.08093964,19.787376,-108.8093,5.342119
2229240673000.0,8.03320059301409,19.263847009163463,3.711554661996256,3.703676,-0.43188173,0.36774087,19.694551,-109.344025,5.715547
2229245651000.0,8.108357896492265,18.742441606857817,3.5847263659670903,3.5598173,-0.7874053,0.63316184,19.72611,-109.84564,6.1136184
2229251219000.0,7.99152919888289,18.0046401022156,3.4895558093464905,3.433979,-1.0781772,0.8539896,19.849438,-110.35889,6.5739684
2229255705000.0,7.739567174827779,17.288748503258237,3.4495618372742505,3.3255503,-1.3313808,1.0464121,20.07113,-110.86022,7.055872
2229260664000.0,7.301397923969688,16.405859867953907,3.444643079788228,3.265991,-1.5241088,1.2098186,20.349642,-111.39768,7.5623913
2229265652000.0,6.498055695297415,15.309941432575522,3.52894447399564,3.2232304,-1.632232,1.3545936,20.679163,-111.92794,8.087333
2229270626000.0,5.555027041932069,14.219548432502648,3.696003401866641,3.2055154,-1.6340646,1.4636332,21.039106,-112.49754,8.601496
2229276003000.0,4.276707143211778,13.045277959010871,4.027970265852016,3.1810808,-1.5192219,1.5293012,21.394537,-113.06126,9.134455
2229281116000.0,3.152004086989176,12.038140099624476,4.407441863485753,3.1300735,-1.3011429,1.5216653,21.738003,-113.63227,9.598332
2229285663000.0,2.28307725841617,11.300674353214047,4.837095697813122,3.0381384,-1.1856894,1.5012014,22.072098,-114.18395,10.0718775
2229290630000.0,1.3338888798100283,10.49508993218467,5.306436053015242,2.9684997,-0.9279043,1.398576,22.340824,-114.69341,10.41944
2229295647000.0,0.4345525043029187,9.605952746826128,5.903574874968638,2.7889054,-0.70402217,1.2247849,22.567822,-115.12727,10.7489605
2229301031000.0,-0.483955936978339,8.592574979024839,6.640968991887597,2.5250115,-0.5696318,0.96577793,22.71945,-115.486694,11.044834
2229305768000.0,-1.2009508533199196,7.669623305392355,7.259919136619718,2.2186625,-0.5131268,0.63621616,22.847305,-115.69162,11.140095
2229310670000.0,-1.616565,6.60225068,7.7936054,1.8829921,-0.5467244,0.2648101,22.923115,-115.77139,11.159952
2229315663000.0,-1.9260632208771535,5.622453630118595,8.255535307786976,1.5919148,-0.6453791,-0.089186326,22.982517,-115.6624,10.979826
2229320656000.0,-1.7905335670321474,5.0625023292160805,8.39819816991124,1.3243558,-0.79351395,-0.40469822,23.026152,-115.4221,10.701518
2229327138000.0,-1.6145865980308791,4.335563748713359,8.58340559476393,1.1081096,-0.9618073,-0.73914695,23.045153,-115.03441,10.273246
2229330696000.0,-0.790772431774143,4.19339549587457,8.37486632636733,0.8017606,-0.98624194,-0.818254,23.066174,-114.54106,9.826523
2229335669000.0,0.7125627742368998,4.11897265213043,7.9332925759037405,0.70646566,-0.97402465,-0.93859446,23.090935,-113.998405,9.263896
2229340660000.0,1.7060091907956474,4.503413638764101,7.909631665608466,0.5186246,-0.8970556,-0.98807454,23.088251,-113.37613,8.735293
2229345699000.0,2.3660153181291808,5.197142784386543,8.164962328042328,0.34513888,-0.8081747,-0.96669424,23.087797,-112.72583,8.193274
2229350934000.0,3.012264168685704,5.668012218659099,8.55872115546293,0.18112154,-0.75319684,-0.9224065,23.070498,-112.2025,7.8756137
2229355707000.0,3.5797893187123093,5.959882438524299,8.988418565271374,-0.03481932,-0.6963864,-0.79381937,23.047493,-111.625755,7.5952654
2229360716000.0,4.100294346367703,6.042263412867491,9.419034710801023,-0.3032946,-0.6545421,-0.6291912,23.016073,-110.99734,7.4272003
2229365657000.0,4.478322266979123,5.719679480613549,9.807143734554751,-0.602924,-0.63255095,-0.45723262,22.9943,-110.31625,7.2995625
2229370658000.0,4.750807480070362,5.343841654416659,9.94747393791005,-0.9410379,-0.61636305,-0.31612277,22.954758,-109.55952,7.305212
2229375697000.0,4.897640212446516,4.907931644784634,9.796052395169726,-1.3548992,-0.6282749,-0.19883664,22.935024,-108.72969,7.348866
2229380727000.0,5.0339007264300415,4.516816029063786,9.455341722736623,-1.7486018,-0.589485,-0.14844026,22.887272,-107.853714,7.469783
2229385664000.0,5.150643354711934,4.205502878497943,8.808394093621398,-1.9358319,-0.5235115,-0.086132,22.849558,-106.965,7.622172
2229390663000.0,5.223299492482311,3.980893912971698,7.970606198211478,-2.2925773,-0.43493605,-0.031154128,22.795778,-106.036835,7.8099732
2229396386000.0,5.234071454009434,3.867787726415095,6.721051349842767,-2.5925121,-0.30451632,0.026572637,22.71935,-105.128494,8.016288
2229401036000.0,5.203126695340863,3.891919262908431,5.70372258672852,-2.8228083,-0.16554448,0.076052725,22.626099,-104.31539,8.258841
2229405715000.0,5.13082326346309,4.036525418868496,4.677921483803953,-2.9590313,-0.043676864,0.122783914,22.506212,-103.525505,8.515148
2229410700000.0,5.008267162705332,4.193873941038818,3.648541868624392,-3.0192015,0.07727446,0.16340645,22.370493,-102.904945,8.8066
2229415665000.0,4.820637821602276,4.355322782921905,2.714757091254474,-3.03936,0.16768251,0.22235495,22.21247,-102.35376,9.112945
2229420633000.0,4.615618447986577,4.482960648361627,1.7844449295617844,-3.00057,0.2742785,0.28191432,22.038218,-101.977585,9.441873
2229427114000.0,4.266443698825504,4.489086511054086,0.5899008601855507,-2.912911,0.44959682,0.321926,21.819374,-101.69489,9.78038
2229430738000.0,4.061705772178176,4.493614301241394,-0.0608056247736282,-2.7687466,0.67011917,0.36254853,21.585876,-101.563095,10.111243
2229435736000.0,3.747133810713541,4.503600759889422,-0.899664334667223,-2.6108382,0.9828822,0.39095375,21.275743,-101.51395,10.449964
2229440663000.0,3.4304134494353336,4.534138871668467,-1.5747982989885103,-2.4333818,1.3805555,0.4166101,20.908249,-101.55839,10.742834
2229445720000.0,3.087984676126878,4.619746189148581,-1.8696677328881468,-2.284636,1.8335121,0.45356745,20.43578,-101.65866,11.048118
2229450980000.0,2.719869258938139,4.711420582123721,-2.0579639793472966,-2.1731532,2.2336287,0.4972443,19.913942,-101.77487,11.2483425
2229455710000.0,2.3624252094495857,4.799678281100828,-1.965293257184608,-2.1093178,2.572659,0.559858,19.281582,-101.924934,11.472138
2229460747000.0,1.9608981592062196,4.937668774406711,-1.8706120849631755,-2.11451,2.8231137,0.6038403,18.595451,-102.03053,11.6030445
2229466537000.0,1.4050397989361705,5.295006240957447,-1.7798596984042554,-2.1618521,3.0286698,0.6239988,17.82853,-102.15977,11.759652
2229470674000.0,1.0323440189935065,5.61369294797078,-1.7364413902597404,-2.2369885,3.2275066,0.61361414,17.008276,-102.23879,11.890332
2229476041000.0,0.629053175974026,6.234853641883117,-1.7503479610389612,-2.361605,3.3893857,0.60139686,16.14574,-102.32954,12.03583
2229480902000.0,0.2761193472479068,6.800781866900254,-1.7604955934473971,-2.4743097,3.4730744,0.5647449,15.2746525,-102.3337,12.104221
2229485669000.0,0.1057736824899891,7.403223552566436,-1.735566977357117,-2.6096163,3.5921931,0.5357288,14.354385,-102.34568,12.17953
2229490624000.0,-0.0712900407899526,8.029424213878777,-1.7096552314524935,-2.6758952,3.6868773,0.43768495,13.4548,-102.24921,12.134843
2229495656000.0,-0.1731082385574728,8.741900193097782,-1.7474695196841048,-2.8258626,3.7504072,0.3313944,12.540316,-102.15458,12.08838
2229500934000.0,-0.2607902700520406,9.507964812654068,-1.802847656505067,-2.947425,3.8038578,0.23548855,11.611905,-102.05719,12.026354
2229505724000.0,-0.3361123003960953,10.285115162755773,-1.851175016782429,-3.0882292,3.8450913,0.14477506,10.68976,-101.89604,11.889625
2229510683000.0,-0.4118916898338652,11.132061069175895,-1.9002087467523932,-3.2125404,3.8316522,0.06261369,9.781012,-78.26191,11.737722
2229515663000.0,-0.49337237560939,12.172514692249973,-1.8740411864079751,-3.3240232,3.7363572,-0.015882496,8.907806,-78.45145,11.5327
2229520673000.0,-0.5808047485432521,13.411996962589775,-1.7711795332833102,-3.4278703,3.5445457,-0.07452556,8.081106,-78.62247,11.321732
2229526077000.0,-0.72415982272,14.865043072,-1.5176557088,-3.4984252,3.2064316,-0.12644911,7.351061,-78.8145,11.06455
2229530710000.0,-0.868771017597037,16.162162270814814,-1.2371976372148148,-3.5451565,2.715296,-0.17348573,6.736025,-78.98108,10.808561
