timestamp,acc_x,acc_y,acc_z,gyro_x,gyro_y,gyro_z,ori_azimuth,ori_pitch,ori_roll
6769823529000.0,0.5512268241055663,9.649816594321104,-0.5506041318093947,-1.1725558,0.7415904,0.03970624,230.69073,-78.629395,8.968538
6769828533000.0,0.553375722331048,9.654353149097195,-0.5503653655061084,-1.1725558,0.745561,0.030543262,230.45291,-77.9057,10.012362
6769833407000.0,0.5554687938640214,9.65877184773402,-0.5501328021643382,-1.1728612,0.75136423,0.029932396,230.69225,-78.03976,9.60731
6769838421000.0,0.5576219864504653,9.663317468366982,-0.549893558710166,-1.1814134,0.7672467,0.032986723,230.90775,-78.13977,9.2253275
6769843396000.0,0.5597584310291568,9.66782773215816,-0.5496561761444486,-1.1902709,0.77121735,0.032375857,231.1071,-78.21044,8.865101
6769848413000.0,0.5619129119238895,9.67237607254818,-0.5494167895450106,-1.2076806,0.75808376,0.038789943,231.29007,-78.249115,8.528384
6769853397000.0,0.5640532214274468,9.67689449561054,-0.549178977543496,-1.2046263,0.7483099,0.03848451,231.45634,-78.26823,8.208088
6769858799000.0,0.566373035219224,9.681791871489926,-0.5489212206349522,-1.1872166,0.7696902,0.022907447,231.60413,-78.26838,7.901439
6769863453000.0,0.5683716308110289,9.686011121275683,-0.548699154612671,-1.1945469,0.79381937,0.034513887,231.74016,-78.24117,7.61822
6769868477000.0,0.5705291177584352,9.69056580776551,-0.548459434007613,-1.2330315,0.77213365,0.05131268,231.87212,-78.1973,7.347639
6769873428000.0,0.5726552558708173,9.69505431350021,-0.5482231966040217,-1.5372424,0.7770206,0.05467244,231.97931,-78.077576,7.0873303
6769878407000.0,0.5747934181938936,9.699568203634136,-0.54798562317795,-1.2412782,0.7644979,0.06688975,232.0867,-78.07118,6.848357
6769883410000.0,0.5769418869832792,9.70410385182454,-0.5477469045897523,-1.2501358,0.7602218,0.06841691,232.18066,-77.9168,6.6168876
6769888403000.0,0.5790860614117026,9.70863043415808,-0.5475086631524403,-1.2470814,0.75533485,0.076052725,232.26926,-77.82398,6.4015665
6769893421000.0,0.5812409717425314,9.713179681133786,-0.5472692288379137,-1.2479976,0.7452556,0.07880162,232.3531,-77.72236,6.195209
6769898484000.0,0.5834152066976902,9.717769724465391,-0.5470276473444008,-1.2473868,0.7333437,0.09254608,232.4308,-77.61415,6.003194
6769903416000.0,0.5855331855242442,9.722241005072044,-0.5467923165274926,-1.2635747,0.7086037,0.11209377,232.50795,-77.49647,5.822934
6769908421000.0,0.5876825131858222,9.726778466433824,-0.5465535025091177,-1.241889,0.6392705,0.10934488,232.59541,-77.386765,5.650927
6769913387000.0,0.5898150928396476,9.731280570953825,-0.5463165493791976,-1.1603385,0.5729916,0.109650314,232.68198,-77.28369,5.4934254
6769918409000.0,0.5919717209148614,9.735833444272275,-0.5460769242043166,-1.054048,0.4908302,0.105374254,232.78735,-77.19269,5.3452716
6769923394000.0,0.594112459854515,9.740352773920325,-0.5458390644877135,-0.9016371,0.40683624,0.10262536,232.90657,-77.134094,5.2079377
6769928837000.0,0.5964498805262372,9.745287319812864,-0.5455793512605377,-0.77274454,0.33414328,0.09162979,233.0416,-77.098015,5.077408
6769933423000.0,0.5984192744634992,9.749444921771929,-0.5453605298642804,-0.63713247,0.21013765,0.07788532,233.13953,-77.0972,5.0224266
6769938406000.0,0.6005591545309604,9.7539624382486,-0.5451227655778543,-0.40500367,-0.041233405,0.01985312,233.2955,-77.16182,4.9660974
6769943411000.0,0.6027084821925384,9.75849989961038,-0.5448839515594794,0.04734206,-0.07696902,0.018325957,233.42159,-77.314606,4.9188585
6769948419000.0,0.6048590981624051,9.76304008072922,-0.5446449943958387,0.09468412,-0.05467244,0.022907447,233.60312,-77.4251,4.8713303
6769954044000.0,0.6072746762036391,9.768139625216731,-0.5443765970225402,0.03848451,-0.05467244,0.022296581,233.80037,-77.62255,4.828201
6769958454000.0,0.6091684893879666,9.772137668094944,-0.5441661734818741,0.03359759,-0.05467244,0.022907447,233.99022,-77.83931,4.7881784
6769963406000.0,0.6112950569364449,9.776627080415327,-0.5439298883631942,0.03634648,-0.061391957,0.022296581,234.18115,-78.038055,4.7506585
6769968433000.0,0.6134538321921398,9.781184486662216,-0.5436900246128704,0.03390302,-0.06383542,0.020158553,234.37,-78.22908,4.7151594
6769973409000.0,0.6155907062069275,9.78569565703908,-0.5434525943320645,0.02687807,-0.045814894,0.02107485,234.55383,-78.414314,4.682039
6769978415000.0,0.6177404633046018,9.790234024986548,-0.543213732598601,0.01160644,-0.049785517,0.016187929,234.74405,-78.59286,4.650299
6769983402000.0,0.6198820611164477,9.794755167805969,-0.5429757774518206,0.014660766,-0.04153884,-0.00030543262,234.92532,-78.77098,4.616196
6769988384000.0,0.6220215117478127,9.799271777696951,-0.542738060880483,-0.0018325958,-0.0421497,0.0070249503,235.10825,-78.9334,4.5902586
6769993391000.0,0.6241716982815831,9.803811052230106,-0.542499151431931,0.0012217305,-0.036957346,0.017104227,235.28693,-79.099,4.561962
6769998432000.0,0.6263364856426251,9.808381150676604,-0.5422586196703669,-0.0030543262,-0.04886922,0.010079277,235.47006,-79.25556,4.5338354
6770003385000.0,0.6284634826271998,9.812871469582678,-0.5420222868365985,0.004581489,-0.042455133,0.003970624,235.64499,-79.41079,4.5095525
6770008395000.0,0.6306149574692588,9.81741346387289,-0.5417832342427805,-0.0033597588,-0.032070424,0.00061086525,235.82135,-79.55763,4.486324
6770018376000.0,0.6349011591456245,9.826462095611536,-0.5413069899435997,0.007330383,-0.019242255,0.018325957,235.99348,-79.705666,4.4687634
6770023376000.0,0.6370483396267214,9.83099502404488,-0.5410684145006677,0.013744468,-0.02107485,0.015577064,236.16695,-79.849915,4.4464636
6770028384000.0,0.639198955596588,9.83553520516372,-0.5408294573370269,0.013133603,-0.02107485,0.019547688,236.33423,-79.98852,4.431968
6770033394000.0,0.6413504304386471,9.840077199453932,-0.5405904047432091,0.008552114,-0.037873644,0.021991149,236.5061,-80.12478,4.4186273
6770038380000.0,0.643491598814397,9.844597435687666,-0.5403524973115172,0.011301007,-0.04062254,0.021685716,236.67308,-80.259224,4.4064355
6770043381000.0,0.6456392087315902,9.849131270706698,-0.5401138741534967,0.007941248,-0.06872234,0.016798794,236.85114,-80.38801,4.396789
6770048381000.0,0.647786389212687,9.853664199140043,-0.5398752987105646,0.016187929,-0.062308256,0.017104227,237.01906,-80.516655,4.388438
6770053380000.0,0.6499331402576878,9.858196220987704,-0.5396367709827212,0.022907447,-0.06566802,0.016493361,237.19687,-80.641785,4.381303
6770058397000.0,0.6520876211524205,9.862744561377722,-0.5393973843832832,0.025350908,-0.08155051,0.013744468,237.37547,-80.76516,4.375066
6770063382000.0,0.6542283600920741,9.867263891025768,-0.5391595246666799,0.03145956,-0.099571034,0.024740042,237.55408,-80.88634,4.373901
6770068365000.0,0.6563682401595352,9.87178140750244,-0.538921760380254,0.04062254,-0.112704635,0.026267206,237.7352,-81.00759,4.370808
6770073380000.0,0.6585218621820754,9.876327934721086,-0.538682469210993,0.047647487,-0.12675454,0.02565634,237.92023,-81.125725,4.3719177
6770078386000.0,0.6606716192797497,9.880866302668553,-0.5384436074775296,0.06169739,-0.1518,0.03145956,238.11069,-81.243866,4.3770742
6770083390000.0,0.6628205175052315,9.885402857444646,-0.5382048411742432,0.07788532,-0.15851954,0.024740042,238.29926,-81.363266,4.379169
6770088410000.0,0.6649762867082527,9.889953917591724,-0.5379653114295394,0.076358154,-0.15271631,0.026267206,238.48965,-81.47684,4.38647
6770093402000.0,0.6671200317005799,9.894479593339575,-0.5377271177073162,0.08277224,-0.14752395,0.03145956,238.68102,-81.59375,4.393935
6770098403000.0,0.6692676416177731,9.89901342835861,-0.5374884945492955,0.08124508,-0.14172074,0.024129177,238.8697,-81.70706,4.3987584
6770103397000.0,0.6714122454822926,9.903540917277835,-0.537250205396895,0.08002335,-0.13164146,0.023823744,239.05411,-81.81724,4.4073453
6770108431000.0,0.673574026790661,9.908104669624528,-0.5370100076409511,0.064446285,-0.1001819,0.026267206,239.22974,-81.92141,4.414378
6770113408000.0,0.675711330241545,9.912616746587082,-0.5367725296450565,0.064751714,-0.0693332,0.01985312,239.40182,-82.02772,4.4191456
6770118403000.0,0.6778563635421607,9.917145142091991,-0.5365341927775674,0.058948494,-0.047647487,0.021380283,239.56613,-82.12454,4.426725
6770123642000.0,0.6799533,9.92152149667697,-0.5363012,0.045814894,-0.030848695,0.021991149,239.72226,-82.21824,4.4320016
6770128417000.0,0.6799533,9.920844099577335,-0.5363012,0.035430185,-0.03756821,0.028099801,239.8778,-82.30751,4.439907
6770133417000.0,0.6799533,9.920134783242643,-0.5363012,0.02443461,-0.04428773,0.025350908,239.97342,-82.37913,4.491694
6770138401000.0,0.6799533,9.919427736720223,-0.5363012,0.028710667,-0.064751714,0.029321533,240.07431,-82.44653,4.546707
6770143445000.0,0.6799533,9.918712178401783,-0.5363012,0.02443461,-0.087659165,0.029626964,240.17783,-82.50758,4.599146
6770148395000.0,0.6799533,9.918009955230438,-0.5363012,0.027794369,-0.102319926,0.032070424,240.28442,-82.56737,4.6526623
6770154029000.0,0.6799533,9.917210697584506,-0.5363012,0.040011674,-0.13805555,0.029626964,240.40341,-82.62619,4.705116
6770158406000.0,0.6799533,9.916589762065117,-0.5363012,0.042760566,-0.14446963,0.028710667,240.51773,-82.68023,4.757261
6770163436000.0,0.6799533,9.915876189832415,-0.5363012,0.04428773,-0.16065755,0.028710667,240.64465,-82.73424,4.809255
6770168381000.0,0.6799533,9.915174675977404,-0.5363012,0.036957346,-0.16615535,0.02443461,240.77005,-82.78526,4.858693
6770173388000.0,0.6799533,9.914464366599844,-0.5363012,0.041233405,-0.15577064,0.016187929,240.89508,-82.837265,4.90608
6770178378000.0,0.6799533,9.91375646889782,-0.5363012,0.042760566,-0.13133603,0.020463986,241.01686,-82.88305,4.9547324
6770183831000.0,0.6799533,9.912982888503205,-0.5363012,0.029321533,-0.11026118,0.022907447,241.13634,-82.926216,4.9995475
6770188409000.0,0.6799533,9.91233343846716,-0.5363012,0.023823744,-0.06811147,0.02321288,241.24226,-82.96854,5.0430527
6770193365000.0,0.6799533,9.911630364116212,-0.5363012,0.013133603,-0.038789943,0.021685716,241.34537,-83.00487,5.085731
6770198362000.0,0.6799533,9.91092147337132,-0.5363012,0.014049901,-0.029626964,0.01863139,241.4419,-83.04064,5.1267347
6770203356000.0,0.6799533,9.910213008216228,-0.5363012,0.013439035,-0.0018325958,0.008857546,241.52463,-83.07394,5.1634855
6770208397000.0,0.6799533,9.909497875487592,-0.5363012,0.019242255,0.0033597588,0.015271631,241.61067,-83.10402,5.2035728
6770213392000.0,0.6799533,9.908789268469231,-0.5363012,0.019242255,0.0067195175,0.0067195175,241.6897,-83.13644,5.2353783
6770218368000.0,0.6799533,9.908083356852948,-0.5363012,0.018020526,0.008246681,0.00580322,241.76727,-83.16494,5.2704515
6770223358000.0,0.6799533,9.907375459150924,-0.5363012,0.016187929,0.0018325958,0.008246681,241.84616,-83.19277,5.3035564
6770228358000.0,0.6799533,9.906666142816231,-0.5363012,0.03359759,-0.004886922,0.009773844,241.92458,-83.22257,5.335536
6770233408000.0,0.6799533,9.905949733318192,-0.5363012,0.030848695,-0.010079277,0.01282817,242.00412,-83.24602,5.368172
6770238388000.0,0.6799533,9.905243254248838,-0.5363012,0.03726278,-0.018936822,0.010995574,242.08652,-83.27325,5.39948
6770243367000.0,0.6799533,9.90453691704275,-0.5363012,0.03756821,-0.028405234,0.01038471,242.17032,-83.29642,5.431529
6770248360000.0,0.6799533,9.903828593750928,-0.5363012,0.030848695,-0.029626964,0.018936822,242.2539,-83.31625,5.465128
6770253827000.0,0.6799533,9.903053027270571,-0.5363012,0.02565634,-0.06566802,0.019547688,242.3501,-83.33692,5.4965725
6770258405000.0,0.6799533,9.902403577234528,-0.5363012,0.03604105,-0.06566802,0.02321288,242.43579,-83.35492,5.530055
6770263387000.0,0.6799533,9.90169681443864,-0.5363012,0.030543262,-0.06566802,0.03481932,242.53125,-83.36626,5.5660563
6770268365000.0,0.6799533,9.90099061909582,-0.5363012,0.040011674,-0.054061573,0.03573562,242.62311,-83.38199,5.5992217
6770273358000.0,0.6799533,9.900282295803995,-0.5363012,0.03481932,-0.04642576,0.03573562,242.71552,-83.39094,5.634803
6770278364000.0,0.6799533,9.899572128289702,-0.5363012,0.035124753,-0.04184427,0.035430185,242.80511,-83.400894,5.6697
6770283443000.0,0.6799533,9.89885160475692,-0.5363012,0.02565634,-0.042455133,0.04062254,242.89357,-83.40627,5.705426
6770288446000.0,0.6799533,9.898141862832428,-0.5363012,0.03604105,-0.03176499,0.047036625,242.97711,-83.41332,5.7404633
6770293432000.0,0.6799533,9.897434532583471,-0.5363012,0.0290161,-0.012217305,0.03940081,243.05809,-83.417984,5.7721148
6770298416000.0,0.6799533,9.89672748606105,-0.5363012,0.025045475,0.014966198,0.03268129,243.13336,-83.42191,5.804812
6770303428000.0,0.6799533,9.896016467367154,-0.5363012,0.02687807,0.014660766,0.04520403,243.21051,-83.42197,5.840256
6770308491000.0,0.6799533,9.895298213646644,-0.5363012,0.03145956,0.015271631,0.048563786,243.27962,-83.42515,5.8700824
6770313451000.0,0.6799533,9.894594571842628,-0.5363012,0.030848695,0.0036651916,0.03848451,243.35216,-83.42756,5.8990827
6770323770000.0,0.6799533,9.893130684791087,-0.5363012,0.03940081,0.00580322,0.04520403,243.4201,-83.42595,5.932875
6770328427000.0,0.6749147260023238,9.890825582396523,-0.5439850249913235,0.03481932,0.004886922,0.036957346,243.49237,-83.42851,5.9590664
6770333447000.0,0.6652422053643373,9.8869565971692,-0.5587356182825067,0.03573562,0.01863139,0.031154128,243.55948,-83.42985,5.986961
6770338490000.0,0.6555253683967346,9.883069885515535,-0.5735537939732311,0.034513887,0.030848695,0.024129177,243.57776,-83.40809,6.0434556
6770343439000.0,0.6459896503414766,9.87925562099561,-0.5880957633353956,0.029626964,0.038789943,0.021380283,243.59354,-83.38589,6.0979915
6770348431000.0,0.6363710800178056,9.87540821576557,-0.6027640824010503,0.02321288,0.03145956,0.015577064,243.6106,-83.365585,6.148354
6770354279000.0,0.6251031715136334,9.870901079189991,-0.6199476420757194,0.023518313,0.02565634,0.0076358155,243.62526,-83.34643,6.1959023
6770358490000.0,0.6169894295999758,9.867655601741337,-0.6323210979221681,0.029626964,0.026267206,-0.0009162979,243.64049,-83.32858,6.2404184
6770363457000.0,0.6074190291998008,9.863827464366013,-0.6469159578578866,0.028099801,0.03268129,-0.01038471,243.656,-83.312096,6.281274
6770368430000.0,0.5978370680179868,9.859994702705558,-0.6615284479847898,0.021685716,0.055283304,-0.007941248,243.66687,-83.294525,6.3218713
6770373426000.0,0.5882107905065564,9.856144214618762,-0.6762085205112343,0.020463986,0.05589417,-0.002443461,243.6825,-83.278725,6.359865
6770378412000.0,0.5786037809645245,9.852301433673857,-0.6908592093857042,0.016493361,0.045814894,-0.015882496,243.69511,-83.26637,6.3920393
6770383452000.0,0.5688927243877413,9.848417034162756,-0.7056685699808363,0.027183503,0.032375857,-0.01863139,243.70862,-83.250725,6.4278793
6770388470000.0,0.5592240573436345,9.84454959036381,-0.7204132865416246,0.026572637,0.022602014,-0.027183503,243.7244,-83.23884,6.457415
6770393532000.0,0.5494706112341748,9.84064823514056,-0.7352872911711006,0.03481932,0.013133603,-0.025350908,243.74406,-83.22632,6.4884734
6770398427000.0,0.540038940213668,9.836875589186825,-0.7496705888126028,0.03145956,-0.0036651916,-0.02107485,243.76886,-83.21424,6.517225
6770403407000.0,0.5304434914532752,9.833037432527048,-0.7643036474958882,0.0421497,0.0018325958,-0.024740042,243.79015,-83.205376,6.543395
6770408487000.0,0.5206553629988985,9.8291222044484,-0.7792305426989181,0.03573562,0.01863139,-0.01740966,243.81293,-83.190544,6.5732746
6770413457000.0,0.5110791822079039,9.825291754930513,-0.7938342177302289,0.018325957,0.038789943,-0.013744468,243.83333,-83.17755,6.600311
6770418450000.0,0.5014586850872931,9.821443578986283,-0.8085054751610811,0.023518313,0.06688975,-0.008246681,243.84666,-83.16312,6.6290283
6770423410000.0,0.4919017722656969,9.817620836610285,-0.8230797665404175,-0.0030543262,0.092240654,-0.010079277,243.8552,-83.146355,6.6557956
6770428406000.0,0.4822754947542665,9.813770348523487,-0.8377598390668619,-0.009468411,0.11056661,-0.016798794,243.85794,-83.131355,6.6817737
6770433535000.0,0.4723929532498377,9.809817355449594,-0.8528307141645668,-0.0143553335,0.1469131,-0.017104227,243.84845,-83.113716,6.7079153
6770438640000.0,0.4625566548719651,9.80588285951623,-0.867831068497533,-0.02687807,0.17165314,-0.01985312,243.83746,-83.09806,6.730651
6770443482000.0,0.4532271040892698,9.802151061414497,-0.8820586327835706,-0.035124753,0.17898351,-0.013133603,243.82138,-83.08019,6.7551227
6770448466000.0,0.4436239481411175,9.798309821897965,-0.8967034449276456,-0.046731193,0.1957823,-0.0143553335,243.79602,-83.06477,6.7755446
6770453469000.0,0.4339841830511083,9.794453938811849,-0.9114040860104722,-0.049480084,0.19242255,-0.017104227,243.77484,-83.04846,6.7967706
6770458467000.0,0.4243540519457983,9.790601909296676,-0.9260900352673116,-0.049480084,0.19792034,-0.02687807,243.74689,-83.03449,6.8146863
6770463477000.0,0.4147007992772102,9.78674063121124,-0.9408112449065202,-0.06047566,0.19639318,-0.032070424,243.7224,-83.019745,6.832478
6770468462000.0,0.4050957165321181,9.78289862098052,-0.9554589954157928,-0.07544186,0.21044308,-0.0290161,243.69235,-83.00567,6.8490534
6770473442000.0,0.3955002677717252,9.779060464320745,-0.970092054099078,-0.09315695,0.2171626,-0.029626964,243.66542,-82.99373,6.862593
6770478434000.0,0.3858816974480542,9.775213059090705,-0.9847603731647327,-0.10720685,0.23640485,-0.035430185,243.63133,-82.98227,6.8747244
6770483472000.0,0.3761744944651506,9.771330201007984,-0.99956385702947,-0.13164146,0.2406809,-0.035430185,243.60005,-82.96829,6.8877983
6770488457000.0,0.3665694117200586,9.767488190777264,-1.0142116075387424,-0.14110987,0.26145032,-0.04337143,243.55908,-82.95875,6.8961325
6770493462000.0,0.3569257930361696,9.76363076626277,-1.028918125351964,-0.16768251,0.2669481,-0.05222898,243.52179,-82.947624,6.9037046
6770498441000.0,0.3473322710727166,9.759793380317182,-1.0435482456700518,-0.18417588,0.27916542,-0.05955936,243.4771,-82.93883,6.90874
6770503428000.0,0.3377233347337448,9.755949828658084,-1.0582018729097191,-0.19761491,0.28893927,-0.06719518,243.43207,-82.931656,6.9106746
6770509228000.0,0.3265479124826848,9.751479686363568,-1.075244391054911,-0.19456059,0.28985557,-0.06963864,243.38657,-82.92547,6.9115844
6770513481000.0,0.318353245097554,9.748201838918984,-1.0877412582396524,-0.17867808,0.28252518,-0.08246681,243.34123,-82.924644,6.906991
6770518490000.0,0.3087019192259058,9.744341331547735,-1.1024595295136637,-0.16187929,0.28008172,-0.07391469,243.29453,-82.91909,6.907477
6770523415000.0,0.2992124442972039,9.74054556416834,-1.1169309781110894,-0.14752395,0.27366763,-0.07849618,243.25177,-82.9218,6.9004602
6770528448000.0,0.3007380798102209,9.707470817334464,-1.1068948547195956,-0.13561209,0.2855795,-0.0870483,243.20485,-82.92436,6.89441
6770533467000.0,0.3058017950044397,9.665273167635712,-1.0890512853336811,-0.121256754,0.30268374,-0.08582657,243.15872,-82.92671,6.8897095
6770538584000.0,0.3109643832986851,9.62225157498608,-1.0708593059458105,-0.103847094,0.3268129,-0.08552113,243.09212,-82.94547,6.882452
6770543493000.0,0.31591711848267,9.580978759211789,-1.0534068090110718,-0.09712757,0.344528,-0.090713486,243.02283,-82.9649,6.874006
6770548610000.0,0.3210797067769155,9.537957166562151,-1.035214829623201,-0.09407325,0.34513888,-0.09560041,242.95195,-82.98416,6.865831
6770554427000.0,0.3269485314999222,9.489050267120504,-1.0145342073642123,-0.087659165,0.34055737,-0.10262536,242.87802,-83.005226,6.8556166
6770558472000.0,0.3310295691489788,9.455041601443789,-1.0001534067732534,-0.07422013,0.34422258,-0.10720685,242.8021,-83.02667,6.8448277
6770563466000.0,0.3360680616135991,9.41305414127332,-0.9823987174898792,-0.07819075,0.3381139,-0.106901415,242.73083,-83.04734,6.8336444
6770568474000.0,0.3411206788067945,9.370948974967016,-0.9645942553490824,-0.06566802,0.3381139,-0.111177474,242.65738,-83.071335,6.819934
6770573475000.0,0.3461662336357023,9.32890266172863,-0.9468146796369968,-0.07360926,0.3417791,-0.12339478,242.58522,-83.09546,6.8041964
6770579340000.0,0.3520834859995385,9.279592198392672,-0.9259634075811316,-0.07574729,0.3567453,-0.13072516,242.51039,-83.11952,6.788752
6770583472000.0,0.3562522987475983,9.244852073157515,-0.9112733042333336,-0.09193522,0.37812558,-0.13775012,242.43329,-83.14513,6.7701
6770588467000.0,0.3612918001214024,9.20285620540592,-0.8935150597458577,-0.1282817,0.4092797,-0.1518,242.34973,-83.173065,6.7474995
6770593446000.0,0.3663151589482635,9.160994858952428,-0.8758136985240071,-0.1853976,0.43799037,-0.1572978,242.26137,-83.19834,6.7255473
6770598436000.0,0.3713496157761479,9.119041029106487,-0.8580732300570392,-0.25137106,0.47678033,-0.15943582,242.16187,-83.22418,6.700674
6770603482000.0,0.3764405715183332,9.076616374717188,-0.8401336701603817,-0.31703907,0.5030475,-0.15454891,242.05841,-83.24675,6.6764703
6770608528000.0,0.3815315272605186,9.034191720327886,-0.8221941102637242,-0.37934732,0.53023106,-0.14813483,241.94434,-83.26646,6.652114
6770613536000.0,0.3865841444537141,8.992086554021581,-0.8043896481229276,-0.42394048,0.5702427,-0.1441642,241.8198,-83.283035,6.628364
6770618481000.0,0.391573200368321,8.950511065326557,-0.7868091638405315,-0.4569272,0.61391956,-0.15454891,241.68726,-83.29919,6.6021457
6770623464000.0,0.3966005948319178,8.908616088548538,-0.7690935818022746,-0.49357912,0.63499445,-0.16035213,241.55057,-83.31018,6.57812
6770628484000.0,0.4016653189353206,8.866410031268655,-0.7512464572122587,-0.5216789,0.6469063,-0.14019357,241.40488,-83.314896,6.5582376
6770633513000.0,0.4067391232213789,8.82412830575859,-0.7333673357853284,-0.5326745,0.6246097,-0.14905111,241.26419,-83.32766,6.52832
6770638513000.0,0.4117836691411027,8.782090400101335,-0.7155913152773444,-0.50762904,0.5849035,-0.13836098,241.12592,-83.329285,6.509526
6770643515000.0,0.4168302328791945,8.740035679281819,-0.6978081843611572,-0.48533243,0.5671884,-0.14294247,240.98883,-83.33633,6.4835987
6770649211000.0,0.422576979590944,8.692146097157075,-0.677557741798462,-0.4728097,0.47433686,-0.15393804,240.88574,-83.34275,6.459559
6770653478000.0,0.4268819950788363,8.656270948469174,-0.6623876858969484,-0.4184427,0.43799037,-0.16584991,240.77238,-83.35479,6.4335747
6770658539000.0,0.4319880844587809,8.613720180362902,-0.644394797938767,-0.39767328,0.38423425,-0.19181168,240.69162,-83.372,6.401365
6770663512000.0,0.4370053898305382,8.571909279396198,-0.6267147679415261,-0.37568212,0.31642818,-0.22785273,240.62614,-83.39892,6.3635607
6770668502000.0,0.4420398466584226,8.52995544955026,-0.6089742994745582,-0.34513888,0.27947086,-0.24648413,240.56773,-83.429825,6.324032
6770673493000.0,0.447075312395491,8.487993212123188,-0.5912302758034886,-0.33536503,0.24129178,-0.24312437,240.52951,-83.46384,6.2819376
6770678475000.0,0.4521016979499039,8.446106642926301,-0.5735182489693333,-0.31398472,0.23762658,-0.24801129,240.4923,-83.507545,6.23319
6770683517000.0,0.4571886180553535,8.403715618861526,-0.5555929098890823,-0.32467487,0.24037547,-0.2415972,240.46413,-83.54442,6.189936
6770688542000.0,0.462258386704676,8.361467523675985,-0.5377280092785585,-0.33169982,0.26939157,-0.23732115,240.4295,-83.584175,6.1455097
6770693506000.0,0.4672666118937779,8.319732290939463,-0.520079976118232,-0.35216382,0.30818152,-0.22540927,240.39124,-83.617134,6.105936
6770698479000.0,0.4722839172655352,8.277921389972759,-0.502399946120991,-0.3717115,0.34147367,-0.21013765,240.3462,-83.64657,6.0692124
6770703461000.0,0.4773103028199481,8.236034820775872,-0.4846879192868358,-0.39492437,0.4016439,-0.19456059,240.28242,-83.669846,6.036087
6770708524000.0,0.4824184100182606,8.193467237507337,-0.4666879209204513,-0.41172317,0.4529566,-0.17379116,240.21176,-83.68578,6.00913
6770713535000.0,0.4874740539390078,8.151336848457637,-0.4488727931673497,-0.41447207,0.5137377,-0.1685988,240.12157,-83.70047,5.981845
6770719023000.0,0.4930109475404968,8.105196043208235,-0.4293618330577865,-0.41905355,0.57360244,-0.17134771,240.01741,-83.70975,5.9578514
6770723449000.0,0.4974763795886363,8.067984089120433,-0.4136264997041191,-0.43096542,0.6252206,-0.18234327,239.89903,-83.71867,5.9324794
6770728491000.0,0.4714083961292171,8.151424950944335,-0.3514988637677779,-0.44257188,0.6731735,-0.19120082,239.76549,-83.7271,5.9063354
6770733565000.0,0.4416236532852444,8.249738827537747,-0.283938350726865,-0.47586402,0.70432764,-0.23304509,239.6235,-83.743744,5.867226
6770738531000.0,0.4124728781643992,8.34596009501171,-0.2178158620076742,-0.54367006,0.72265357,-0.28252518,239.38696,-83.68396,5.881288
6770743532000.0,0.3831166505406887,8.442859522848456,-0.1512273468879254,-0.6591236,0.766025,-0.31245756,239.1364,-83.62091,5.886894
6770748473000.0,0.3541126272076045,8.538596390063287,-0.0854377341691334,-0.7293731,0.8038987,-0.36713,238.88489,-83.573524,5.869883
6770754607000.0,0.3181056085625654,8.657448837643893,-0.003763278711317,-0.93615097,0.89736104,-0.44440445,238.60757,-83.5072,5.835195
6770758560000.0,0.294901215881796,8.73404220661783,0.0488710744717197,-1.284955,0.947452,-0.4541783,238.33365,-83.40388,5.803079
6770763531000.0,0.2657210904033986,8.830360354143618,0.1150601383909901,-1.3991868,1.1004738,-0.44012842,238.0059,-83.30956,5.751782
6770768663000.0,0.2355958834118204,8.929798039338216,0.183392923752828,-1.5748106,1.2470814,-0.3998113,237.66736,-83.14162,5.702272
6770773473000.0,0.2073608394466039,9.022996649195196,0.247438266229531,-1.6771306,1.3374895,-0.32895094,237.30234,-82.9441,5.661478
6770778468000.0,0.1780398322519559,9.11977982096975,0.3139468911091841,-1.6911805,1.3322971,-0.26083946,236.92438,-82.71302,5.627365
6770783543000.0,0.1482492193364728,9.218113073573528,0.3815207191901131,-1.6206255,1.1334605,-0.19120082,236.57706,-82.45541,5.6128626
6770788541000.0,0.1189106019272936,9.31495437337918,0.448069289189814,-1.5378532,0.70432764,-0.14202617,236.29866,-82.1831,5.6146345
6770793495000.0,0.0898302676645737,9.41094312872876,0.5140319974288134,-1.4471397,0.18692477,-0.10995574,236.10326,-81.91435,5.6363983
6770798480000.0,0.0605679611850302,9.50753254039966,0.5804074719083071,-1.3744467,-0.25625798,-0.08307768,236.00931,-81.65177,5.6785216
6770803470000.0,0.0312763043479344,9.60421883212239,0.6468495215878806,-1.289842,-0.5412266,-0.086437434,236.01791,-81.41399,5.7300954
6770808520000.0,0.0016324432202123,9.702067684467035,0.7140904736684107,-1.2235631,-0.6740898,-0.13591751,236.10927,-81.19618,5.783822
6770813506000.0,-0.0276357333308415,9.798676472148305,0.7804792631879204,-1.1765264,-0.6759224,-0.22418754,236.24428,-81.00526,5.829432
6770818495000.0,-0.0569215200964269,9.895343387860668,0.8469079978274779,-1.1756102,-0.589485,-0.38423425,236.3941,-80.84542,5.8414063
6770823478000.0,-0.0861720864329496,9.991894047510838,0.9132568422269396,-1.1982121,-0.47219884,-0.64599,236.54025,-80.72818,5.798376
6770828475000.0,-0.1155048337706183,10.088715971306124,0.9797920971866246,-1.2281445,-0.3839288,-0.9816604,236.67645,-80.6517,5.688001
6770834502000.0,-0.1508837547640403,10.205495185777645,1.0600418433627348,-1.2421945,-0.2929099,-1.2476922,236.7834,-80.60407,5.521732
6770838521000.0,-0.1744755721644988,10.283367371435691,1.1135549891868242,-1.2825116,-0.23579398,-1.4175128,236.88135,-80.57653,5.2907786
6770843518000.0,-0.2038083195021677,10.380189295230975,1.180090244146509,-1.2886202,-0.1881465,-1.4703526,236.95908,-80.5668,5.021533
6770848487000.0,-0.2329767048375441,10.476468690736034,1.2462526779857477,-1.3084733,-0.21777347,-1.5439619,237.04736,-80.55945,4.7072096
6770853467000.0,-0.2622096609595354,10.57296122235511,1.3125615772651615,-1.3307699,-0.267559,-1.5711454,237.12556,-80.53582,4.3984566
6770858568000.0,-0.29215289573429,10.671798251228385,1.3804815963865051,-1.3350459,-0.3463606,-1.5402967,237.2183,-80.499756,4.096449
6770863507000.0,-0.3211451789243533,10.767496366422485,1.4462445790252652,-1.2950343,-0.48258355,-1.4657712,237.33784,-80.45487,3.812443
6770868500000.0,-0.3504544459759804,10.86424078617631,1.5127265738248863,-1.2370021,-0.6310238,-1.3961325,237.47902,-80.40027,3.5481536
6770873477000.0,-0.3796697918834404,10.96067518976429,1.5789955279842527,-1.2357804,-0.7480045,-1.3469579,237.64432,-80.32733,3.3114576
6770878471000.0,-0.4089849290065779,11.05743898552848,1.64549083782389,-1.2748758,-0.86009824,-1.3075571,237.84416,-80.247314,3.105055
6770883518000.0,-0.4386111799197687,11.155229709842027,1.7126918447843722,-1.317331,-0.97494096,-1.2455542,238.07101,-80.1564,2.9308329
6770888497000.0,-0.4678382659702496,11.25170286545074,1.7789874290237702,-1.2953397,-1.0546589,-1.1780536,238.31366,-80.06685,2.7788622
6770893484000.0,-0.4971123125928139,11.348331029142374,1.845389533583296,-1.1768318,-1.02717,-1.0668762,238.54951,-79.98405,2.662401
6770898476000.0,-0.5264157095729306,11.445056072885832,1.9118582133429007,-1.0213667,-0.89766645,-0.93859446,238.77094,-79.91289,2.5733018
6770904415000.0,-0.561278064273434,11.560130198445208,1.990936235997608,-0.8527679,-0.69027776,-0.7809912,238.95215,-79.870094,2.5222042
6770908512000.0,-0.5853277472517068,11.639513712911748,2.045487954942941,-0.71929383,-0.48380527,-0.6243043,239.08797,-79.85342,2.5031297
6770913506000.0,-0.6146428843748443,11.736277508675936,2.111983264782578,-0.5842926,-0.32375857,-0.49693888,239.17029,-79.87577,2.5135355
6770918492000.0,-0.6439110609258981,11.832886296357204,2.178372054302088,-0.48563787,-0.19822577,-0.36713,239.19565,-79.91355,2.560527
6770923444000.0,-0.6729796550455972,11.928836299686052,2.244308132461055,-0.3894266,-0.06291912,-0.26389378,239.16841,-79.97923,2.6269655
6770928493000.0,-0.6381020386573393,11.774125406108986,2.2365274498297243,-0.2941316,0.004276057,-0.16279559,239.1199,-80.059654,2.7250726
6770933515000.0,-0.5836661322955569,11.542952647621377,2.2058323118460086,-0.13683382,0.0036651916,-0.063224554,239.04932,-80.17146,2.846448
6770938504000.0,-0.5295879290221732,11.313298945491804,2.175338874291099,0.028710667,-0.065973446,-0.018936822,238.74484,-80.14582,2.8740988
6770943486000.0,-0.4755856021614802,11.083967467438184,2.1448882216756333,0.122783914,-0.129198,0.07880162,238.43317,-80.12843,2.940984
6770948484000.0,-0.4214098435003515,10.853899477210968,2.1143397749128674,0.30176744,-0.18081611,0.18234327,238.13742,-80.171234,3.0210824
6770954636000.0,-0.3547253162327917,10.5707105464631,2.076737925276106,0.4184427,-0.27947086,0.28160888,237.87039,-80.20962,3.1285052
6770958532000.0,-0.3124946728266777,10.391369832192344,2.052925050408612,0.473726,-0.32742378,0.30970868,237.60437,-80.2707,3.2403564
6770963508000.0,-0.2585573828911481,10.162314546203822,2.0225110705983838,0.47067168,-0.4822781,0.3539964,237.39352,-80.32915,3.3889961
6770968501000.0,-0.2044358216676555,9.932476716030855,1.991993184506649,0.4654793,-0.6976081,0.37873647,237.21548,-80.393196,3.5396178
6770974323000.0,-0.1413283252840838,9.664478348863415,1.956408339157945,0.44868052,-0.9098838,0.40530908,237.0805,-80.44117,3.7045496
6770978480000.0,-0.0962685756333611,9.473123279760866,1.931000197262624,0.44440445,-1.1252137,0.4251622,237.00824,-80.48228,3.8786125
6770983526000.0,-0.0415725215709249,9.24084575301286,1.9001583680579583,0.4550946,-1.3179418,0.4633413,236.98889,-80.51137,4.067929
6770988514000.0,0.0124948422149314,9.01123808289414,1.8696710426372551,0.47647488,-1.4498887,0.5271767,237.012,-80.53037,4.2710757
6770993544000.0,0.0670174644769318,8.77969706831973,1.83892700757989,0.5360342,-1.5146403,0.59315014,237.0692,-80.550415,4.4850802
6770998552000.0,0.1213016180133328,8.549168757984015,1.8083174394750616,0.66706485,-1.4718798,0.63438356,237.13171,-80.58194,4.7049265
6771003542000.0,0.1753906607742437,8.319469023843595,1.777817889785946,0.8405506,-1.3399329,0.6658431,237.18506,-80.62307,4.933209
6771008533000.0,0.2294905430226818,8.089723257692327,1.747312227962624,1.0225884,-1.1746938,0.70707655,237.2154,-80.68072,5.1664157
6771013511000.0,0.2834495119332658,7.860575907682105,1.716886023883983,1.2076806,-0.9963212,0.7651087,237.20422,-80.76016,5.401317
6771018562000.0,0.3381997634333382,7.62806822087985,1.6860136340082867,1.3836098,-0.84238315,0.8206975,237.15417,-80.85757,5.635745
6771023556000.0,0.392332164144358,7.398184358696032,1.655489635782346,1.564426,-0.68294734,0.8527679,237.05414,-80.97288,5.867181
6771028537000.0,0.4463236515175237,7.168898912653261,1.6250450953010864,1.7250835,-0.54733527,0.9233228,236.91835,-81.08191,6.114923
6771033583000.0,0.5010197055799599,6.936621385905254,1.5942032660964214,1.8512272,-0.43249258,1.0290025,236.74649,-81.18152,6.371604
6771038507000.0,0.554393342164073,6.709959764480921,1.5641071172649172,1.9208658,-0.3753767,1.0726794,236.55861,-81.27081,6.6226068
6771044121000.0,0.6152462251419797,6.451536055570237,1.5297935958311104,1.9364429,-0.24037547,1.1395692,236.31879,-81.31496,6.8986263
6771048542000.0,0.6631675994998927,6.248028535603345,1.502771850505343,1.8832976,-0.2144137,1.1355985,236.10211,-81.334755,7.162391
6771053535000.0,0.7172891607233853,6.018190705430377,1.472253964413608,1.8481728,-0.17348573,1.0800097,235.84964,-81.328766,7.420126
6771058562000.0,0.7717792645228039,5.786787786888516,1.4415282657588615,1.7660115,-0.11789699,1.0372492,235.59258,-81.28156,7.6732683
6771063506000.0,0.8253696908574619,5.559205525247188,1.4113098742432326,1.6438384,-0.05131268,0.99021256,235.32907,-81.21982,7.9026084
6771068573000.0,0.8802933741579699,5.325961326271335,1.3803396902202367,1.4850134,0.040927973,0.9450085,235.0498,-81.1395,8.113415
6771073542000.0,0.934154787680809,5.097228264358761,1.3499684953494515,1.3423764,0.11911872,0.91813046,234.76242,-81.044785,8.31012
6771078533000.0,0.9882546699292468,4.867482498207493,1.3194628335261296,1.2406673,0.21288654,0.9098838,234.45059,-80.93883,8.492555
6771083555000.0,1.0426905762910297,4.636309739719881,1.2887676955424143,1.1527027,0.27672195,0.90408057,234.13116,-80.8241,8.662443
6771088559000.0,1.0969313718773217,4.405965557427565,1.2581825759744112,1.1108584,0.33933565,0.87109387,233.79144,-80.713615,8.815842
6771093542000.0,1.150944538225542,4.176588047363095,1.2277258112247391,1.0940597,0.36010507,0.8552113,233.45099,-80.59565,8.967176
6771098538000.0,1.205098617911616,3.946612121157576,1.1971895887303858,1.0622946,0.37751472,0.8772025,233.09914,-80.47345,9.114291
6771103494000.0,1.2588191180966009,3.7184774753860506,1.166897851604282,1.0125091,0.4831944,0.8677341,232.72215,-80.36382,9.241763
6771108587000.0,1.3140246280728172,3.4840364441281046,1.135768752091924,0.86590147,0.64568454,0.84849185,232.32907,-80.243706,9.366955
6771113723000.0,1.3696962360127043,3.247616036403617,1.1043768308086976,0.70280045,0.7119634,0.9575313,231.9373,-80.08931,9.521243
6771118532000.0,1.4218233315311857,3.0262480962270093,1.0749835774109109,0.5751296,0.77396625,1.0680978,231.50574,-79.93558,9.663086
6771123444000.0,1.475066894264972,2.800138858932872,1.0449607741898812,0.48441613,0.8503244,1.1187997,231.05576,-79.76419,9.811401
6771128481000.0,1.4772757099167295,2.5479785745647234,0.8409813514489024,0.3943135,0.88453287,1.1478158,230.60426,-79.56501,9.97724
6771133638000.0,1.451105203671461,2.2787956669190006,0.5381505491165783,0.30176744,0.9764681,1.1728612,230.11879,-79.3525,10.14619
6771138585000.0,1.4217140127684562,2.0178797507214763,0.248262634521812,0.2003638,1.0274754,1.1890492,229.73862,-78.92654,10.568395
6771143615000.0,1.2802712989261744,1.6824585471140938,-0.0305815130872483,0.15393804,1.0635164,1.2202033,229.3391,-78.48942,10.996398
6771148506000.0,1.1427372405956375,1.356306438397651,-0.3017200271937919,0.06811147,1.073901,1.2321151,228.93242,-78.01365,11.467662
6771154608000.0,0.929877447404044,0.8412689972052776,-0.743578512152159,-0.01863139,1.0458013,1.244027,228.53375,-77.52991,11.942493
6771158552000.0,0.7810201353409869,0.4788337858687457,-1.057473308423578,-0.15241088,1.0522153,1.2034045,228.13037,-77.051735,12.399004
6771163506000.0,0.570994653595195,0.1821711580303174,-1.3491583790447137,-0.21380283,1.0097603,1.1395692,227.68655,-76.5215,12.917943
6771168507000.0,0.3061620065520068,0.2460962772313852,-1.4085173740299362,-0.30390546,0.86132,1.1814134,227.28568,-75.96938,13.448383
6771173454000.0,-0.0531679884198699,0.2024169503311649,-1.461190746185689,-0.31673363,0.6722572,1.2345587,227.0638,-75.53148,13.900433
6771178490000.0,-0.8232316023690124,-0.286003023849793,-1.489711600591366,-0.26542094,0.51343226,1.246776,226.88274,-75.091385,14.354765
6771183605000.0,-1.6053752452105263,-0.7820848681578947,-1.5186798631578948,-0.19211712,0.39675698,1.2538009,226.61284,-74.59269,14.866473
6771188509000.0,-2.328893763683753,-1.1978015847282557,-1.4976067283521577,-0.11575896,0.34269542,1.2208142,226.38412,-74.10915,15.368423
6771193544000.0,-3.0457351563857515,-1.5655319032435564,-1.4277845621198957,-0.049480084,0.42302418,1.1304061,226.16324,-73.64713,15.851997
6771198533000.0,-3.660115341304503,-1.894171595390853,-1.3325698612134576,-0.009468411,0.64660084,0.979217,226.01875,-73.45731,16.061335
6771203534000.0,-4.150668052044953,-2.176920644028736,-1.2031184479763852,-0.028405234,0.9651671,0.78954333,225.82741,-73.305176,16.22899
6771208572000.0,-4.644850126972046,-2.461761617241625,-1.0727092858311402,-0.06536258,1.2947289,0.57726765,225.51486,-73.30331,16.230108
6771213532000.0,-4.933325696196734,-2.6495068401035446,-0.8055654216567104,-0.090713486,1.6172657,0.3903429,225.11305,-73.350914,16.174221
6771218557000.0,-5.105811322690164,-2.7836624329948227,-0.4510119079171644,-0.15668693,1.831374,0.2125811,224.64888,-73.45451,16.051277
6771223535000.0,-4.90881555645986,-2.5445578620248845,0.1017202879853417,-0.19883664,1.890017,0.06261369,224.06172,-73.69612,15.765364
6771229616000.0,-4.387693808607466,-1.9688426333049256,0.9305514773683314,-0.23640485,1.8005253,-0.06261369,223.4557,-73.9814,15.425819
6771233537000.0,-4.116005851211014,-1.683684329820685,1.2594244690405372,-0.21502456,1.7311921,-0.12614368,222.75034,-74.30823,15.012477
6771238561000.0,-3.927917358851024,-1.5323957088297782,1.169469123548908,-0.21197024,1.5738943,-0.24098633,222.09993,-74.68181,14.541771
6771243504000.0,-3.742861344174386,-1.3835462554941786,1.0809640931418374,-0.19730948,1.45783,-0.37965274,221.35117,-74.98623,14.078565
6771248536000.0,-3.6245576673008553,-1.281265816786778,1.0726024,-0.21105394,1.3750577,-0.5152648,220.64377,-75.31058,13.575109
6771253453000.0,-3.5159634520803307,-1.186245913904103,1.0726024,-0.23793201,1.2986995,-0.64843345,219.97493,-75.66135,13.024739
6771258528000.0,-3.3493640050937845,-1.0477798412100037,1.07625665891872,-0.2678644,1.1737776,-0.7825184,219.38113,-76.01119,12.469819
6771263583000.0,-3.1713178975634424,-0.9008917014067672,1.0807078104450163,-0.31612277,1.0155635,-0.8927795,218.82521,-76.369995,11.877875
6771268524000.0,-2.865159673319545,-0.7993424019554385,1.0085772394848171,-0.3567453,0.82619524,-0.9975429,218.32918,-76.7257,11.266211
6771273495000.0,-2.4892143041365045,-0.7187827133684309,0.8966887545548556,-0.3885103,0.6291912,-1.097114,217.88768,-77.08105,10.622276
6771278546000.0,-2.1519539795238094,-0.5992344953333333,0.7593495761904762,-0.3594942,0.43004912,-1.1930199,217.51967,-77.41418,9.986163
6771283530000.0,-1.8590030562645503,-0.4477081215259259,0.6027723376719576,-0.344528,0.19486602,-1.2791518,217.2251,-77.733795,9.327087
6771288563000.0,-1.6188546895547156,-0.253258731834793,0.3666618349331612,-0.31306845,-0.047647487,-1.3652838,217.04057,-78.0135,8.734205
6771293620000.0,-1.4090081643772472,-0.0344825087834424,0.0853781146528994,-0.28588495,-0.27122417,-1.4563028,216.92354,-78.28867,8.120636
6771299478000.0,-1.2353757040154814,0.2442896576710208,-0.3257411666376391,-0.28069258,-0.4392121,-1.529912,216.89677,-78.54036,7.560201
6771303538000.0,-1.1526083515239478,0.4512079941161103,-0.6568105058925979,-0.3191771,-0.55955255,-1.5763378,216.92352,-78.776024,6.9874077
6771308522000.0,-1.0887249640278658,0.6760837603008234,-1.0078217066402786,-0.3811799,-0.6010914,-1.627345,216.98555,-79.0117,6.481776
6771313613000.0,-1.081005602279924,0.8613485873400887,-1.2818592260227992,-0.4792238,-0.5739079,-1.649947,217.06119,-79.21324,5.973432
6771319481000.0,-1.079616529471235,1.0805609210623446,-1.5967064059295517,-0.56321776,-0.50976706,-1.6471981,216.9229,-79.33939,5.7051086
6771323547000.0,-1.1670995062505016,1.2992683303859425,-1.8029162890877,-0.6404922,-0.398895,-1.6172657,216.7605,-79.43746,5.435993
6771328445000.0,-1.272483574195619,1.5627284609484071,-2.0513216033298565,-0.7156286,-0.32895094,-1.598329,216.26158,-79.40743,5.4746823
6771333550000.0,-1.3278323259776537,1.7500142896648043,-2.18086362849162,-0.754724,-0.1777618,-1.5372424,215.7173,-79.36115,5.513837
6771338504000.0,-1.294701363707103,1.7926112270351158,-2.100402741300878,-0.79443026,-0.030543262,-1.4944818,215.16628,-79.30133,5.5391107
6771343480000.0,-1.252900746925503,1.8681606025817892,-1.955771120220733,-0.8185594,0.11636983,-1.4495832,214.342,-79.17907,5.7497945
6771348492000.0,-1.1961420200433583,2.0005976648994874,-1.700356873945605,-0.8222246,0.2275473,-1.4312572,213.51553,-79.05719,5.9312644
6771354613000.0,-1.239174323596189,2.16447101879181,-1.2874931759112105,-0.80970186,0.37934732,-1.4373659,212.53658,-78.83627,6.2079754
6771358528000.0,-1.3506481219947295,2.2708777770525037,-0.9480048120048652,-0.7507534,0.4297437,-1.4376713,211.59344,-78.63569,6.4523215
6771363516000.0,-1.49267399847287,2.40644786905872,-0.5154714891019665,-0.71593404,0.57451874,-1.4202617,210.40326,-78.23854,6.865235
6771369332000.0,-1.6197456330172797,2.7041269761098805,0.3608856532972972,-0.5656612,0.7858781,-1.3845261,209.23788,-77.90765,7.2175546
6771373480000.0,-1.6795877281524147,3.027978372866637,1.2831580271351348,-0.37598756,0.93828905,-1.3203852,208.09866,-77.61385,7.523993
6771378479000.0,-1.71475969749127,3.4524987051553024,2.382586672743981,-0.2180789,0.956615,-1.2437216,207.30646,-77.56278,7.3844275
6771383534000.0,-1.478978601323286,4.133149902775225,3.405787794596581,-0.12614368,0.8378017,-1.1899655,206.51656,-77.539085,7.2444363
6771388950000.0,-1.2230824245297278,4.973118088343971,4.477145950520659,-0.064446285,0.39767328,-1.1517864,206.07407,-77.57287,6.798775
6771393483000.0,-0.9350809456289888,8.17029879433994,4.81254006242862,0.029321533,-0.22876903,-1.104139,205.71907,-77.608345,6.3907566
6771398484000.0,-0.6173453630164595,11.697565661907962,5.1825612302317765,0.24740042,-0.6044512,-1.1340714,205.44142,-77.50884,6.0077844
6771403471000.0,-0.3828606529026344,14.08858758718518,4.301051768001544,0.50426924,-1.0219775,-1.2406673,205.36252,-77.4312,5.661284
6771408547000.0,-0.2092970823767249,15.63189608684744,2.415307040953392,0.5662721,-1.518611,-1.2938126,205.41727,-77.34256,5.3563256
6771413555000.0,0.2824745968178264,16.776326464425335,0.5569972536356528,0.3286455,-1.8851302,-1.1866057,205.09215,-77.0351,5.571557
6771418572000.0,1.0901423090666535,17.55112444702893,-1.3025167768666928,-0.018325957,-1.7654005,-0.95356065,204.77174,-76.7401,5.7734513
6771423471000.0,1.7038587793804452,18.10622241271378,-2.1241226715714747,-0.37995818,-1.4743233,-0.61819565,204.51314,-76.70133,6.0455494
6771428527000.0,2.117908103678606,18.426525070345274,-1.7256979208777024,-0.6160576,-0.7113526,-0.44409904,204.09134,-76.60441,6.2579
6771433591000.0,2.5326125693126813,18.74733453597935,-1.3266427512746046,-0.61758476,0.15943582,-0.092240654,203.91904,-76.75332,6.482503
6771438502000.0,2.7057943336675625,18.948118879677487,0.6169149606884434,-0.2761111,1.0760391,0.122478485,203.51956,-76.9064,6.649326
6771443623000.0,2.854954211292074,19.14938691150923,2.633538580401737,0.3399465,1.7238617,0.20250183,202.94257,-77.081406,6.821321
6771448477000.0,2.5563211283387623,19.23771504234528,4.055200560912052,0.7816021,1.7666223,0.21624629,202.32677,-77.16528,7.071808
6771453486000.0,2.248151966304741,19.32886370475932,5.522259658640969,0.78893244,1.3793337,0.23884831,201.50076,-76.974754,7.411724
6771458535000.0,1.5635086837460437,19.38218409718861,5.973265450344442,0.56291234,0.82344633,0.25381452,200.71376,-76.84165,7.7214227
6771463466000.0,0.8161664706386147,19.42614537143921,6.197468132638242,0.31612277,0.3005457,0.3475823,200.02596,-76.695366,8.04542
6771468536000.0,-0.1399528193808049,19.457783644169247,5.959107336676987,0.17684549,-0.13133603,0.4728097,199.26749,-76.32672,8.398633
6771473575000.0,-1.1808014830959752,19.4826843124871,5.4959544899484,0.1872302,-0.4633413,0.5858198,198.63695,-75.95413,8.762156
6771478540000.0,-2.2221726631053165,19.49786707873349,4.71436146427362,0.28130344,-0.66737026,0.6606508,198.05278,-75.630714,9.017974
6771483544000.0,-3.2770159478327123,19.51003816915001,3.817744642600745,0.43554693,-0.6627888,0.72143185,197.51039,-75.32763,9.288595
6771488575000.0,-4.381857003483432,19.520705347493628,3.0578409473237045,0.6401868,-0.4978552,0.74006325,196.95427,-75.17705,9.424022
6771493559000.0,-5.545726315361088,19.528816098215803,2.526597530637213,0.84574294,-0.2171626,0.72173727,196.3762,-75.06384,9.550382
6771498729000.0,-6.649798055269495,19.536686,2.039022313910805,1.0036516,0.12950343,0.68325275,195.69307,-75.16187,9.511156
6771503534000.0,-6.286740818951914,19.536686,2.4402961203222326,1.0781772,0.41813725,0.6389651,194.967,-75.283775,9.452634
6771508500000.0,-5.911518709575617,19.536686,2.855015313379288,1.1209377,0.6032294,0.6056729,194.13593,-75.572815,9.217783
6771513494000.0,-5.236297129599385,19.536686,3.3092995628782784,1.1169671,0.6582073,0.5900958,193.28604,-75.85719,8.975566
6771518562000.0,-4.359687472571813,19.536686,3.794232523201076,1.0839803,0.5439755,0.5503896,192.45749,-76.14103,8.724244
6771523535000.0,-3.412534563977414,19.536686,4.076784012632788,1.0677924,0.44898596,0.54550266,191.64545,-76.35354,8.5224
6771528534000.0,-2.386227903502728,19.536686,4.195908905254091,1.0421361,0.19883664,0.54183745,190.9295,-76.555214,8.329212
6771533568000.0,-1.514619854489479,19.472817261236163,4.199406946359704,1.0149527,-0.034513887,0.56413406,190.28477,-76.66092,8.238365
6771538538000.0,-0.8480771877404502,19.33322727370042,4.063306635633111,0.9746355,-0.23976462,0.6102544,189.7155,-76.75178,8.166033
6771543551000.0,-0.1757676528485225,19.192429565950583,3.9260287970672336,0.90224797,-0.35888332,0.64904433,189.26642,-76.7638,8.207881
6771548471000.0,0.4824762601428359,18.129837097253155,3.500808531581292,0.8371908,-0.45173484,0.66950834,188.87631,-76.764,8.264077
6771554255000.0,1.255582658384261,16.456144161841127,2.8675192733184858,0.75808376,-0.4868596,0.6612616,188.51216,-76.74428,8.323252
6771558502000.0,1.810896274079802,15.229069738323538,2.407978997742035,0.68386364,-0.462425,0.65148777,188.25572,-76.69265,8.466758
6771563540000.0,1.8556669994741728,13.866048421899164,2.134379860614496,0.6227771,-0.4269948,0.61178154,188.01419,-76.634575,8.596057
6771568504000.0,1.894547699310107,12.55245993928941,1.8746788915660573,0.5681047,-0.40133846,0.56138515,187.88348,-76.54599,8.824041
6771573481000.0,1.873995899724043,11.570083575715763,1.7267058916264229,0.5143485,-0.39767328,0.49602258,187.75618,-76.45331,9.030833
6771578494000.0,1.8532954433597792,10.580601415660572,1.5776625625733012,0.47525316,-0.41783184,0.46700647,187.64958,-76.34369,9.254715
6771583485000.0,1.7697599178594352,9.734810054316432,1.512768295033697,0.4288274,-0.4596761,0.48838675,187.55313,-76.22271,9.471582
6771588508000.0,1.665554510494223,8.928182910622592,1.4741736892650834,0.40775254,-0.52473325,0.5323691,187.47348,-76.09931,9.685199
6771593577000.0,1.549188543174603,8.099259926122448,1.4387230996825398,0.37995818,-0.569021,0.57910025,187.40945,-75.94874,9.92177
6771598474000.0,1.4088147167619047,7.261270495183673,1.4132005575238096,0.33750305,-0.61911196,0.6267477,187.36781,-75.780945,10.171214
6771603579000.0,1.2624219182334755,6.401751552394083,1.37295174778307,0.3005457,-0.6579019,0.6783658,187.31775,-75.57892,10.443344
6771608533000.0,1.1196989251942844,5.731746462496866,1.1747253715517674,0.24037547,-0.643852,0.7351763,187.26993,-75.3531,10.72663
6771613485000.0,0.9770335514498204,5.062011863148658,0.9765790221174896,0.17379116,-0.63346726,0.795652,187.20517,-75.08035,11.033915
6771618474000.0,0.7548685054936897,3.85965937342242,0.5616331617446177,0.12308934,-0.63132924,0.8561276,187.144,-74.789444,11.352513
6771624026000.0,0.463753491789161,2.2264547472902745,-0.0205968811210096,0.06780604,-0.52870387,0.8903361,187.05731,-74.48109,11.670289
6771628478000.0,0.36391866,1.6663644,-0.22026655,0.05100725,-0.44898596,0.9089675,186.98976,-74.182014,11.997112
6771633520000.0,0.36391866,1.6663644,-0.22026655,0.040927973,-0.25870144,0.9456194,186.86617,-73.86592,12.322899
6771638538000.0,0.3485458314011774,1.0565755179781329,-0.4226754661269974,0.027488936,-0.07727446,0.9633345,186.81302,-73.61571,12.63113
6771643483000.0,0.3246481145130361,0.1086327259007571,-0.7373287481917579,-0.002443461,0.094989546,0.96852684,186.70982,-73.35457,12.935116
6771648508000.0,0.3092457430180839,-0.6770378694159291,-1.0047135301808388,-0.040317107,0.2779437,0.9550878,186.55069,-73.09168,13.229237
6771653463000.0,0.3202006665348211,-0.9290011103008852,-1.114262765348211,-0.09682214,0.46944994,0.9279043,186.34412,-72.82292,13.509024
6771658493000.0,0.3313214062500962,-1.1847781237522126,-1.225470162500962,-0.14538592,0.66248333,0.9098838,186.18243,-72.58707,13.788981
6771663496000.0,0.3545940295703229,-1.3984668167867629,-1.2558217380037364,-0.19853121,0.84421575,0.88453287,185.97179,-72.34711,14.050462
6771668601000.0,0.385038576514545,-1.59418178089138,-1.242774082812917,-0.29016098,0.96486163,0.87598073,185.72426,-72.09165,14.30515
6771673530000.0,0.3873947997442881,-1.77586080257225,-1.1820162073626872,-0.36041048,1.0348058,0.8738427,185.4573,-71.83237,14.562879
6771678493000.0,0.3514364942684218,-1.948460710909366,-1.0525662986382205,-0.4382958,1.0543534,0.872621,185.17169,-71.55732,14.815661
6771683591000.0,0.3145000765138447,-2.1257555593281885,-0.9195951854652746,-0.49480084,0.9944886,0.8555168,184.89435,-71.2641,15.077853
6771688597000.0,0.1496162742154802,-2.5019086873435072,-0.6042367534295897,-0.51251596,0.8790351,0.8381071,184.62875,-70.96367,15.343041
6771693481000.0,-0.0469992569989948,-2.92505950956776,-0.2451996894434799,-0.51923543,0.7150178,0.8063421,184.39774,-70.662,15.606972
6771698539000.0,-0.2624743517009094,-3.189501696892893,-0.055842395073678,-0.47708577,0.49632803,0.7663304,184.20369,-70.3533,15.873442
6771703485000.0,-0.4818393636914786,-3.321120645781408,-0.0039924862910912,-0.40225476,0.29626966,0.7302894,184.0543,-70.05375,16.142496
6771708529000.0,-0.7420717672678401,-3.445253933946068,0.0249015244800138,-0.29138273,0.10720685,0.70005155,183.91924,-69.74596,16.391863
6771713598000.0,-1.150365235038585,-3.529438187635481,-0.0424458551768837,-0.16340645,-0.026572637,0.66523224,183.8283,-69.4603,16.64037
6771719382000.0,-1.6145233199596047,-3.6100327218855943,-0.1158307962569429,-0.042455133,-0.06658431,0.6178902,183.74239,-69.22056,16.844055
6771723536000.0,-1.927315984130419,-3.4837678121979367,-0.1273094252275842,0.062002823,-0.05222898,0.5983425,183.67943,-68.99861,17.05196
6771728507000.0,-2.3016280528817714,-3.3326693851258744,-0.1410456468484455,0.11209377,0.016187929,0.539394,183.58966,-68.87118,17.157232
6771733531000.0,-2.6966936409711435,-3.113434554238535,-0.159006465738576,0.16554448,0.10842858,0.46303585,183.4908,-68.76947,17.24961
6771738554000.0,-3.211829986659037,-2.417410546824164,-0.2061945348034006,0.16707164,0.21899518,0.364992,183.37148,-68.6858,17.313726
6771743525000.0,-3.721633445630671,-1.7285920437668605,-0.2528940950903294,0.13713925,0.31245756,0.24312437,183.19809,-68.72073,17.232224
6771748540000.0,-3.915950736945201,-1.3344313877186165,-0.3842677972094831,0.07788532,0.39828414,0.10170906,183.00215,-68.78002,17.10838
6771754661000.0,-3.966072425308978,-1.029144550097163,-0.5938677276486592,0.01038471,0.5757405,-0.11484267,182.76501,-68.88003,16.9144
6771758623000.0,-3.978515441842713,-0.8282628677276762,-0.7273204784395526,-0.12186762,0.6417139,-0.18906279,182.49109,-69.11758,16.544594
6771763955000.0,-3.847071939552636,-0.5336481345979052,-0.8904917471418426,-0.16157386,0.7852673,-0.33108896,182.16194,-69.42587,16.072264
6771768512000.0,-3.7347335974791407,-0.2818553103532752,-1.0299462616722883,-0.22510384,0.90194255,-0.4654793,181.83844,-69.772354,15.549647
6771773545000.0,-3.5588439151147897,0.0503468826810522,-1.0936941956054784,-0.25534168,0.9960158,-0.5888741,181.48811,-70.14605,14.975463
6771778491000.0,-3.3768252183170757,0.3863815584185633,-1.140365643826978,-0.27672195,1.0170907,-0.7153232,181.13379,-70.53704,14.352583
6771783563000.0,-3.205509767543003,0.6136702504071209,-1.1224524027341696,-0.24953845,0.9999864,-0.8436049,180.78847,-70.97188,13.704719
6771788533000.0,-3.041050216427552,0.8103066298031999,-1.0902755632539622,-0.19914207,0.9615019,-0.96486163,180.4492,-71.42738,13.01716
6771793516000.0,-2.827679404345616,0.98688082,-1.0536069838119442,-0.1337795,0.90010995,-1.071763,180.13406,-71.90475,12.325876
6771798498000.0,-2.3507649307666245,1.05154718,-0.9929822475730624,-0.06658431,0.82802784,-1.1667526,179.83647,-72.40725,11.603084
6771803501000.0,-1.87184017939856,1.11648612,-0.9321019674841168,-0.028405234,0.7644979,-1.2385293,179.5527,-72.89533,10.905717
6771808511000.0,-1.5791460151811594,1.1919585465942029,-0.8884257946557971,-0.017104227,0.7247916,-1.312444,179.28375,-73.39989,10.182622
6771813511000.0,-1.3362560242391304,1.270030376304348,-0.8493899024456522,-0.034208454,0.6933321,-1.3515394,179.02713,-73.90096,9.451318
6771818530000.0,-1.0882792171981777,1.329196457716401,-0.851907696714123,-0.07422013,0.68569624,-1.3658947,178.76491,-74.28405,8.870684
6771823489000.0,-0.8403647999999999,1.3742717249999998,-0.883460445,-0.1001819,0.6704246,-1.3842206,178.5102,-74.66265,8.281695
6771828532000.0,-0.628564455339838,1.3829529220357202,-0.90021986,-0.13561209,0.6713409,-1.3839152,178.165,-74.9244,7.8291974
6771833589000.0,-0.4603772323234661,1.3509173246237802,-0.90021986,-0.19150625,0.6658431,-1.3771957,177.8229,-75.16912,7.3757505
6771838675000.0,-0.2927510151857143,1.3172915460535717,-0.9045277114928572,-0.23579398,0.63224554,-1.3707817,177.28093,-75.24025,7.1518054
6771843516000.0,-0.14787188395,1.2717580941875,-0.950061137425,-0.27947086,0.6038403,-1.3778065,176.75787,-75.3073,6.912114
6771848584000.0,0.0038007946499999,1.2240895269375,-0.997729677525,-0.33078352,0.5751296,-1.3750577,176.3445,-75.36992,6.6676297
6771853391000.0,0.1338014596765923,1.212501965667521,-1.0318324795109446,-0.3894266,0.55863625,-1.3625349,175.94351,-75.4218,6.419341
6771858483000.0,0.268431991642674,1.2076937359692368,-1.0654901376059949,-0.45845437,0.5537493,-1.3435981,175.55405,-75.45885,6.169758
6771863409000.0,0.3333253247346051,1.2868551962933674,-0.9887804755164576,-0.5225952,0.54825157,-1.3423764,175.26936,-75.508736,5.9001317
6771868395000.0,0.3805230658792132,1.3906902603242066,-0.8802256403281605,-0.5647449,0.52778757,-1.3093897,174.9884,-75.53883,5.645572
6771873391000.0,0.39264908,1.62366647027027,-0.5376424009823095,-0.5522222,0.45570546,-1.2699889,174.76083,-75.561714,5.4122148
6771878853000.0,0.39264908,1.9269787113513512,-0.0749626310133662,-0.45112398,0.27275133,-1.1792754,174.56529,-75.587204,5.211526
6771883440000.0,0.3561897960732883,2.293960193828351,0.642642521925458,-0.20708331,-0.06872234,-1.0283916,174.46048,-75.63379,5.0431714
6771888385000.0,0.3059554246557377,2.7232357868852457,1.5148938343540983,0.18325958,-0.44501534,-0.8573494,174.4087,-75.735466,4.9216437
6771893366000.0,0.1533448019807612,3.708182671079851,4.61762573269549,0.5729916,-1.0167851,-0.6921103,174.4411,-75.786446,4.9241695
6771898361000.0,-0.0594142419321473,5.019372031030203,9.031139172858916,0.9783007,-2.035403,-0.48563787,174.69165,-75.92435,5.038145
6771903443000.0,-0.4177618572189046,6.163793549462549,8.017730452482512,1.4196508,-2.1300871,-0.3921755,174.91165,-76.06776,5.0744905
6771908488000.0,-0.8340572110791673,7.218957924825116,4.662637171045897,1.4837917,-0.95630956,-0.56596667,175.06134,-76.22002,5.0791435
6771913485000.0,-1.091756,7.872135,2.585738,1.0241156,-0.55955255,-0.68691796,175.5742,-75.72556,5.074735
6771918485000.0,-1.091756,7.872135,2.585738,0.6569856,-0.3866777,-0.7058548,175.82039,-75.2881,4.9887156
6771923474000.0,-0.1081795822939191,9.997404025776316,1.069681646103278,-0.07788532,-0.60903263,-0.61269784,175.74843,-75.316185,4.8763146
6771928484000.0,1.6473308746734714,13.790634456534905,-1.6362115968687831,-0.65301496,-0.7516697,-0.37720928,175.60007,-75.27412,4.7825065
6771933469000.0,2.9876488867105,16.805301275353656,-3.730563160888624,-0.9828822,-0.7324274,-0.016493361,175.46507,-75.084015,4.7474055
6771938454000.0,3.101792077485555,17.528207719864515,-4.020677149631401,-0.8863655,-0.49113566,0.5537493,175.2791,-74.8258,4.8294935
6771943472000.0,3.0560299750465867,18.155359910215143,-3.757296378753176,-0.3381139,0.09254608,1.1847731,175.17229,-75.12431,5.231685
6771948527000.0,2.4983590010503134,18.467000703032355,-1.72343757825343,0.6637051,0.95294976,1.3942999,174.91858,-75.509834,5.6179156
6771954431000.0,1.842220907405813,18.822913139074277,0.6541237240624327,1.5512923,1.5833627,1.2046263,174.57045,-75.99024,6.0131383
6771958507000.0,1.3380004900968785,18.98258265123789,2.318051197707212,1.865277,1.7895297,1.0418307,174.09584,-76.48424,6.423814
6771963791000.0,0.6243161007284079,19.18015239229969,4.350511269302809,1.7220291,1.6536123,0.91446525,173.46275,-76.79872,6.660976
6771968552000.0,-0.630834422656324,19.262103655094126,4.9112313223346895,1.3240504,1.221425,0.8338311,172.87036,-77.10959,6.8578353
6771973473000.0,-1.9281660180304607,19.34680900359474,5.490795149465519,0.84482664,0.47128254,0.8216137,172.30853,-77.13967,6.978418
6771978536000.0,-3.415262814923832,19.39266659067045,4.835500179068767,0.44348818,-0.5174029,0.8426886,171.9527,-77.1053,7.1131096
6771983496000.0,-4.887019935502194,19.43354870444961,4.0710041391341765,0.34574974,-1.3396275,0.9242391,171.76955,-77.02905,7.2860255
6771988484000.0,-6.129052547179678,19.4636063081808,3.1168982116921926,0.50762904,-1.6129897,1.0506883,171.59819,-77.00132,7.2907834
6771993534000.0,-7.217533452110572,19.48618888195741,2.019384418733657,0.7761043,-1.4034629,1.1224649,171.52968,-76.97044,7.3336787
6771998471000.0,-7.781293764880462,19.501552745259687,1.3412504206595215,1.0097603,-0.870483,1.0580186,171.33792,-77.2026,7.142306
6772003471000.0,-7.727463291973319,19.508729916810317,1.1474605533133475,1.133155,-0.24312437,0.8533788,171.08022,-77.46142,6.938878
6772008497000.0,-7.67335290060706,19.515944409653,0.9526629786569738,1.1212431,0.25289822,0.6808093,170.67249,-77.910255,6.580229
6772013515000.0,-5.644350419374759,19.524761877267466,1.3291210637514472,1.0302242,0.41386122,0.56413406,170.21007,-78.3614,6.1931553
6772018513000.0,-3.0672947668274797,19.533998821690467,1.8648530090351207,0.97341377,0.59681535,0.5317582,169.62376,-78.803635,5.781519
6772023545000.0,-1.5650829737819607,19.133558492862743,2.039518846933333,0.86345804,0.6160576,0.45998153,169.05922,-79.213806,5.3597
6772028505000.0,-0.521924654597647,18.574723267764707,2.0655978656,0.7706065,0.5714644,0.4007276,168.47472,-79.593864,4.9466066
6772033535000.0,0.53251575315146,17.882491778316663,2.08378630821461,0.6924158,0.5152648,0.35155296,168.03639,-79.754974,4.823402
6772038494000.0,1.5546098667677073,16.562887197231483,2.0597934065474384,0.6383542,0.46089783,0.2996294,167.61958,-79.90461,4.687439
6772043527000.0,2.508885430947216,15.208122492498193,2.0485528572125813,0.5705481,0.39003745,0.25289822,167.32835,-79.971855,4.6920276
6772048485000.0,3.0796627232104123,13.804783088123644,2.095760061659436,0.5271767,0.30665436,0.20280726,167.06313,-80.03902,4.682066
6772054116000.0,3.707295876481037,12.19994212955804,2.1530935731062586,0.49266282,0.21838433,0.15485434,166.89107,-80.03528,4.786134
6772058549000.0,4.008922828628148,10.833749518441124,2.232935881736496,0.44043383,0.099571034,0.116980694,166.75742,-80.02128,4.8804135
6772063720000.0,4.327816636379963,9.271851464797445,2.3400909743165035,0.38056904,-0.065973446,0.11362094,166.69185,-79.92384,5.0633836
6772068496000.0,4.318688862602275,8.12176292949511,2.568283126621433,0.29565877,-0.34116822,0.14752395,166.69748,-79.8063,5.253284
6772073659000.0,4.287178657448843,6.909736478523618,2.7886107543507364,0.17134771,-0.67256266,0.22021692,166.77975,-79.60345,5.5205064
6772078476000.0,4.009278198508319,6.137790856483075,2.691566260040161,-0.0015271631,-0.98654735,0.33078352,166.93915,-79.35517,5.818116
6772084018000.0,3.676024989097416,5.2681910291986735,2.5647193448324024,-0.17379116,-1.2144,0.4908302,167.1876,-79.03309,6.1768045
6772088499000.0,3.207780476798184,4.837406127950419,2.238821096368715,-0.37293324,-1.346347,0.7049385,167.494,-78.63361,6.593043
6772093537000.0,2.681331949022346,4.35307353868715,1.8724128446927373,-0.5708536,-1.4721853,0.9266826,167.86438,-78.19506,7.0448403
6772098484000.0,2.0911645136586205,3.8689593379177047,1.28031644892535,-0.80664754,-1.5042557,1.1206323,168.23776,-77.66707,7.5530586
6772103486000.0,1.4574482816854224,3.3751543439996565,0.5642994032522979,-1.0122037,-1.4456125,1.2605205,168.61414,-77.07033,8.111476
6772108527000.0,0.7778150348178138,2.785280436437247,-0.2802088280161944,-1.1646146,-1.3845261,1.3634512,168.95013,-76.46468,8.656341
6772113530000.0,0.0234530324036585,2.0201418414904784,-1.3578688164612387,-1.2406673,-1.1914927,1.3909402,169.23293,-75.82249,9.2095995
6772118451000.0,-0.7185448516419255,1.2675439950517318,-2.417865778911381,-1.2592987,-0.9233228,1.4242324,169.45169,-75.2649,9.705088
6772123668000.0,-1.111913560020555,0.741154285488181,-2.818465026824255,-1.2373075,-0.605062,1.4474452,169.60464,-74.70099,10.190659
6772128471000.0,-1.2970692922918807,0.3787218594321686,-2.861799390904419,-1.1606439,-0.35185838,1.4382823,169.705,-74.150154,10.662726
6772133535000.0,-1.4666183095911716,0.0439481996096874,-2.84170147173752,-1.0509937,-0.17195857,1.3759739,169.72142,-73.80298,11.003277
6772138766000.0,-1.5890576866834545,-0.2046409266627166,-2.6858694315953198,-0.9450085,-0.092240654,1.2843442,169.70181,-73.48332,11.320927
6772143501000.0,-1.6998874420900607,-0.429658994508221,-2.544813283617242,-0.82894415,-0.08124508,1.1878275,169.65663,-73.22425,11.589138
6772148535000.0,-1.7147395650422674,-0.7300279053178944,-2.3161898187397885,-0.7086037,-0.10140363,1.1074986,169.60542,-73.00687,11.831014
6772154652000.0,-1.6606401600198906,-1.1378541485529587,-1.983270453356539,-0.589485,-0.11178834,0.99021256,169.5597,-72.84357,12.031947
6772158562000.0,-1.6260597000497266,-1.3985375899538257,-1.7704676548199192,-0.5006041,-0.10476339,0.9477574,169.50255,-72.69137,12.213497
6772163593000.0,-1.5337402071652677,-1.6522715927244978,-1.60179946207072,-0.42302418,-0.07513642,0.8961393,169.4519,-72.59019,12.356617
6772168512000.0,-1.4338752055711017,-1.8839583697278048,-1.4579938547697786,-0.33169982,-0.02076942,0.8436049,169.39703,-72.52189,12.483397
6772173534000.0,-1.339545317698486,-2.115448464226313,-1.3253200020115146,-0.2519819,0.040011674,0.7489208,169.33243,-72.426895,12.603751
6772178538000.0,-1.254389430258014,-2.3402600910086004,-1.2095080078967944,-0.13958271,0.14538592,0.6423248,169.24484,-72.37217,12.698364
6772183519000.0,-1.1696249467766011,-2.5640384109531595,-1.0942283231075414,-0.029932396,0.2574797,0.5421429,169.14786,-72.30927,12.792748
6772188657000.0,-1.0812747176437054,-2.821366434422803,-0.8844966314109264,0.07574729,0.36102137,0.4382958,169.0309,-72.29222,12.849268
6772193562000.0,-0.9964756329406176,-3.0802268424038,-0.6390255452351543,0.16798794,0.47433686,0.3631594,168.88426,-72.310646,12.877191
6772198534000.0,-0.9964456332604452,-3.3129080412573213,-0.2716918927606403,0.24037547,0.60903263,0.31581733,168.71068,-72.315636,12.908425
6772203568000.0,-1.0679788715423664,-3.5237428508941817,0.1989216121671222,0.26450464,0.77854776,0.28496864,168.49869,-72.342476,12.913662
6772208909000.0,-1.1502282576799403,-3.727189878192761,0.6833177046500124,0.22815818,0.960891,0.2406809,168.24457,-72.33171,12.918712
6772213556000.0,-1.3153411215681423,-3.60610711900404,0.8851223288399703,0.12034045,1.0464121,0.22174409,167.97011,-72.31311,12.91737
6772218494000.0,-1.4907935256740044,-3.4774420308022096,1.099564169651249,0.044593163,1.1823297,0.14172074,167.60226,-72.25084,12.858364
6772223470000.0,-1.686911922513221,-3.2982151113069755,1.2541614061697306,-0.14446963,1.2916746,0.032375857,167.22058,-72.15332,12.780072
6772228471000.0,-1.8999868046335937,-3.077099672349534,1.358688729010325,-0.3817908,1.3365731,-0.08674286,166.82437,-72.046684,12.669754
6772233550000.0,-2.1114499413694947,-2.858233515363327,1.4189281480351073,-0.6310238,1.3255776,-0.21777347,166.39154,-71.92846,12.463875
6772239324000.0,-2.3256926431169447,-2.6396185163754247,1.2440361214517277,-0.86345804,1.2819008,-0.33658674,165.96362,-71.77752,12.222104
6772243478000.0,-2.479825684865976,-2.482339904356764,1.1182132121293589,-1.0500773,1.2321151,-0.48380527,165.52644,-71.637825,11.862666
6772248531000.0,-2.774950143907563,-2.1127045147058823,0.5998607318277311,-1.144456,1.2027937,-0.6936375,165.11183,-71.48395,11.446687
6772253495000.0,-3.1245036915266104,-1.650794581372549,-0.1117302324579831,-1.183246,1.1355985,-0.9056077,164.73691,-71.30609,10.987673
6772258489000.0,-3.356790946036201,-1.2636138516890911,-0.6515074391540026,-1.1264355,1.0073168,-1.0641272,164.39056,-71.20561,10.421639
6772263569000.0,-3.3709183714548447,-1.0140291392701577,-0.8728372515632562,-0.9993755,0.8436049,-1.1869112,164.09099,-71.11432,9.80652
6772268504000.0,-3.3596546777985075,-0.7872814140298507,-1.0814287177238806,-0.8426886,0.70524395,-1.2794572,163.82242,-71.25292,9.044049
6772273631000.0,-3.2854981524520257,-0.5909849452452025,-1.2820873179104475,-0.67347896,0.6020077,-1.3695599,163.5995,-71.41722,8.2504225
6772278632000.0,-3.2091762821810845,-0.4039810894595543,-1.4719941517283734,-0.5119051,0.5699373,-1.4395039,163.40103,-71.661,7.4243646
6772283561000.0,-3.0766504001579227,-0.2838794702263555,-1.5755300497631164,-0.35124752,0.58276546,-1.486846,163.22174,-71.930016,6.5776777
6772288618000.0,-2.9406829857957537,-0.1606589613072468,-1.6817546463063695,-0.22388211,0.6056729,-1.5015068,163.05331,-72.259224,5.7330346
6772293469000.0,-2.7667494568027537,-0.0617753963763266,-1.7184429999426332,-0.13805555,0.659429,-1.4999796,162.87001,-72.59656,4.871028
6772298453000.0,-2.5750777497561907,0.0340604333205851,-1.7366974300793574,-0.086132,0.70829827,-1.4990633,162.67719,-72.93148,3.9984505
6772303473000.0,-2.4048109958097927,0.162408936445386,-1.751919851977401,-0.059253927,0.73884153,-1.5100589,162.47638,-73.2771,3.155278
6772308520000.0,-2.2455177433898306,0.3080485378644068,-1.765573555254237,-0.061086524,0.79443026,-1.5262468,162.24802,-73.598816,2.301565
6772313489000.0,-2.0781689871492595,0.4869028027805923,-1.7339067524064693,-0.05955936,0.8335256,-1.5586227,162.02066,-73.89828,1.49208
6772318566000.0,-1.898159708125487,0.7000716584996103,-1.6628504671667963,-0.06414085,0.84849185,-1.5867225,161.77724,-74.16411,0.6747982
6772323524000.0,-1.7301564135796657,0.8694541393269004,-1.5946273094610497,-0.07269296,0.82833326,-1.6233743,161.53033,-74.40716,-0.102958314
6772328527000.0,-1.5685301949870556,1.0010103301733742,-1.5269698490782144,-0.05100725,0.79229224,-1.641395,161.2749,-74.624954,-0.88359934
6772334097000.0,-1.3765092953185736,1.1495275614331586,-1.4416873165354065,-0.04153884,0.72692966,-1.6618589,161.02054,-74.812294,-1.5962301
6772338586000.0,-1.0495593872148048,1.298471397921244,-1.2309862579026534,-0.026267206,0.6270532,-1.6856827,160.77673,-74.976234,-2.3076122
6772343623000.0,-0.6826966812404935,1.465597729930708,-0.9945636175967552,-0.019547688,0.50885075,-1.711339,160.51704,-75.12702,-2.9032807
6772348538000.0,-0.4892426946978075,1.5630580357816668,-0.8423017045709452,-0.029626964,0.37934732,-1.7146988,160.27754,-75.2527,-3.4880805
6772356022000.0,-0.368008321657667,1.6423266980157438,-0.6930901812556112,-0.05955936,0.22021692,-1.7217237,160.0704,-75.34803,-4.067211
6772358569000.0,-0.3267491089193937,1.6693038870470365,-0.6423096160653178,-0.07788532,0.06383542,-1.711339,159.70879,-75.510796,-4.249012
6772363530000.0,-0.2571350556715273,1.8621854835379887,-0.4081057508058326,-0.096516706,-0.09315695,-1.6957619,159.4015,-75.64615,-4.436592
6772368808000.0,-0.1940975482425172,2.211316373369148,-0.0201825938910207,-0.09560041,-0.21502456,-1.668273,159.13416,-75.766655,-4.6234765
6772373488000.0,-0.4102089208557097,3.262178617586309,1.712103728970198,-0.05375614,-0.27030787,-1.6029104,158.98549,-75.81132,-4.835139
6772379093000.0,-1.083361804737386,5.649891251844203,5.901490804833285,-0.019242255,-0.33444872,-1.5027285,158.8697,-75.85285,-5.02362
6772383527000.0,-1.615879179783122,7.538761514163472,9.215628591519623,-0.07727446,-0.41508293,-1.4144585,158.75041,-75.83,-5.0958858
6772388585000.0,-2.6351729419345897,9.210844168791574,9.85859408037694,-0.18509217,-0.41355577,-1.3765849,158.63135,-75.803795,-5.164428
6772393549000.0,-3.7990593757483366,10.66021247145233,9.24371022450111,-0.2883284,-0.58123827,-1.4089607,158.58914,-75.76181,-5.219859
6772398533000.0,-4.373117933772862,10.773651259464058,7.449810527860485,0.10751228,-0.8249735,-1.4831808,159.13948,-74.91639,-5.4524665
6772403479000.0,-4.453708028319864,9.782391653339005,4.701685017694598,0.8191703,-0.99296147,-1.5515977,159.69861,-74.16254,-5.6832705
6772408523000.0,-4.477432382675422,9.131662453004504,2.0941582204321603,1.0277808,-1.4364496,-1.5244142,160.17686,-73.56749,-6.1620846
6772413495000.0,-4.255658822531878,10.00057877002367,0.3417831412537224,0.9621128,-1.7864754,-1.3286319,160.66962,-73.11708,-6.5814075
6772418520000.0,-4.031521224036039,10.878757469344125,-1.4292717205466898,0.61758476,-1.8063285,-1.0036516,160.89372,-73.139175,-7.0379786
6772423478000.0,-3.4156486105927306,12.291187886608016,-3.461776132586865,0.30207285,-1.3029755,-0.5204572,161.03969,-73.17805,-7.3895392
6772428480000.0,-2.491895670558962,14.134437110459434,-5.730717648271572,0.1554652,-0.2660318,0.15241088,161.00114,-73.229996,-7.620336
6772433565000.0,-1.567040352004219,15.785729957805907,-6.27709177257384,0.20341812,1.0845913,1.0360274,160.37354,-73.80264,-7.5548134
6772438568000.0,-0.6861848311671188,16.95539004309825,-3.2157578065852928,0.5705481,2.2681427,1.9486601,159.47606,-74.47084,-7.365232
6772443724000.0,0.2216087057979203,18.160820264918623,-0.0608031936256789,1.2140946,2.698192,2.509129,158.43436,-75.66295,-7.038135
6772448841000.0,0.2778771935356579,18.63804050538097,2.5664894392595783,1.8417587,2.2327125,2.1762075,157.35681,-76.86643,-6.733872
6772453495000.0,0.0220559325441239,18.81072033362032,4.772947834093845,2.232407,1.1591167,1.1166617,156.38214,-78.0597,-6.481392
6772459307000.0,-0.3141236661711353,19.02374901964428,7.4402434346518,2.298686,0.13775012,0.44165558,155.87688,-78.93217,-5.8604693
6772463497000.0,-0.9248495534377488,19.11961848871781,7.418938984603132,2.0751092,-0.5338962,0.35521814,155.60892,-79.7106,-5.372892
6772468562000.0,-1.6631136629855765,19.23550843164322,7.393185514556234,1.668273,-0.91690874,0.5720753,155.67525,-79.95351,-4.9673257
6772473522000.0,-3.291965009085746,19.32865536610692,6.283798395181309,1.2660183,-1.1334605,0.8744536,155.8722,-80.133446,-4.5664845
6772478495000.0,-5.470983374219194,19.40978905224304,4.518175349744464,1.0635164,-1.25319,1.1468995,156.12941,-80.27807,-4.1243887
6772483544000.0,-7.400086835938938,19.48132024397646,2.9568324509472137,1.0622946,-1.2794572,1.3292428,156.38168,-80.379234,-3.7573252
6772488498000.0,-7.801484754276256,19.494409573937837,2.642694818907485,1.2220359,-1.1600331,1.3359623,156.61186,-80.477715,-3.3783998
6772494079000.0,-8.142387377299238,19.50873625266936,2.338263384306864,1.4410311,-0.9645562,1.207986,156.61166,-80.71631,-3.3576167
6772498482000.0,-7.419746236877524,19.516303328667565,2.538786908102288,1.6145169,-0.8436049,1.0308352,156.60504,-80.97338,-3.3420029
6772503468000.0,-6.6014203849259765,19.524872359084792,2.765861695666218,1.6612481,-0.5946773,0.95386606,156.50383,-81.274666,-3.3951452
6772508587000.0,-5.292632281257384,19.530194522531644,3.130551434987342,1.6297885,-0.37415496,0.86651236,156.3901,-81.56467,-3.492223
6772513504000.0,-3.8819444418396634,19.534167956455697,3.5239545054177217,1.496009,-0.2846632,0.8167268,156.24988,-81.819695,-3.593528
6772518661000.0,-2.341090406999811,19.536686,3.828550115312088,1.3020593,-0.30940324,0.7696902,156.13307,-82.03396,-3.622648
6772523484000.0,-0.8124917337318496,19.536686,3.9591995737884216,1.0671816,-0.376293,0.72082096,156.0068,-82.18925,-3.6636384
6772528518000.0,0.7067064523159785,19.50979535727109,4.039521110951526,0.8258898,-0.44959682,0.6979135,155.96948,-82.317924,-3.539142
6772533596000.0,2.0163391295454973,19.404105973542475,3.956807530000945,0.62858033,-0.5128214,0.70646566,155.95076,-82.39361,-3.420617
6772538526000.0,3.2410628837782345,19.21067192258727,3.8620990811088296,0.4578435,-0.56199604,0.74189585,156.0191,-82.47534,-3.139342
6772543561000.0,4.211388026488707,18.468075590965093,3.678925367556469,0.3295618,-0.6044512,0.786489,156.10693,-82.50898,-2.8592236
6772548549000.0,5.017492402565852,17.67172435751428,3.525677931088569,0.20311269,-0.68966687,0.81031275,156.27707,-82.54991,-2.4490125
6772554626000.0,5.245701391458529,16.40665313212855,3.4760673151138013,0.071776666,-0.84391034,0.79045963,156.48485,-82.53218,-2.046043
6772558515000.0,5.391744629537124,15.597065836501578,3.444318806717245,-0.07086037,-1.0036516,0.7510588,156.76254,-82.48854,-1.5609593
6772564348000.0,5.213139441168289,14.179348446453409,3.124662861196106,-0.18417588,-1.1472049,0.72204274,157.08594,-82.38515,-1.0839678
6772568467000.0,5.044630111802107,13.15653560192728,2.8699393345320883,-0.28130344,-1.2825116,0.7272351,157.45752,-82.21876,-0.6116601
6772573546000.0,4.494489246978928,11.885802542494757,2.566524817037851,-0.3817908,-1.4269812,0.77518797,157.89644,-81.9953,-0.11243011
6772578439000.0,3.895468669709378,10.659682614501149,2.276374363886947,-0.4718934,-1.5060883,0.8191703,158.35849,-81.72292,0.3850403
6772583565000.0,2.777924018944053,9.016920647890592,1.6409050958640696,-0.5204572,-1.4700472,0.8915578,158.81981,-81.43332,0.88861495
6772588691000.0,1.5531993060356402,7.295795641491919,0.932924663671778,-0.52015173,-1.3848315,0.9468411,159.2912,-81.111626,1.3986834
6772593522000.0,0.639754962622852,6.069229852366597,0.3030663487488695,-0.54092115,-1.3460416,1.022283,159.73764,-80.78197,1.8824714
6772598668000.0,0.000883484118179,5.3114986504974375,-0.3159951241483267,-0.602924,-1.3154984,1.1108584,160.16193,-80.4232,2.3807726
6772603472000.0,-0.5036101973355465,4.660269025526339,-0.8960333319647069,-0.700357,-1.2889256,1.1554517,160.51051,-80.14334,2.752303
6772608529000.0,-0.9097665341242248,4.051034427570543,-1.5094986337031535,-0.7440339,-1.1343768,1.2140946,160.81068,-79.84749,3.143507
6772613537000.0,-1.281182826310007,3.4597654185006763,-2.0817891054766733,-0.79045963,-0.870483,1.2406673,161.03348,-79.59704,3.474538
6772618540000.0,-1.467456245791075,2.941439354107505,-2.442187770791075,-0.7846564,-0.5488624,1.2220359,161.19698,-79.345856,3.7956307
6772623464000.0,-1.6507883100574712,2.4312979307471263,-2.796895551724138,-0.7489208,-0.21471913,1.1908818,161.26094,-79.16886,4.056569
6772628477000.0,-1.6793962394734585,1.843333603445673,-2.954832260397908,-0.68508536,0.10293079,1.1230757,161.24455,-79.00849,4.281553
6772633528000.0,-1.6586550861332647,1.229396382860818,-3.0502414098276307,-0.63132924,0.39584067,1.0424415,161.1467,-78.862724,4.4729233
6772638481000.0,-1.572419809121029,0.668291660908205,-3.044265565776652,-0.5717699,0.6365216,0.9654725,160.97409,-78.793076,4.606777
6772643548000.0,-1.3974588469401676,0.1481372106782303,-2.90713389139544,-0.5522222,0.7819075,0.8961393,160.7535,-78.73982,4.703595
6772648530000.0,-1.2470796741106267,-0.3058973249299977,-2.750750358503557,-0.56138515,0.87781334,0.8738427,160.46461,-78.6949,4.8046236
6772653490000.0,-1.1307893226455512,-0.6693045755458649,-2.5617785705760845,-0.5662721,0.8915578,0.86498517,160.16379,-78.668175,4.8823237
6772658520000.0,-1.0128577767041542,-1.0378405575212304,-2.370139842093183,-0.5934556,0.8191703,0.8313876,159.8676,-78.60228,4.9789124
6772663556000.0,-0.9319756877242316,-1.7301630478037429,-2.0949062510617664,-0.6093381,0.689056,0.79473567,159.58687,-78.544136,5.071338
6772668704000.0,-0.8602680361388539,-2.5332887854940367,-1.7889536176088432,-0.64873886,0.49480084,0.7483099,159.34921,-78.48323,5.155412
6772673546000.0,-0.8556351142439245,-2.886478531390639,-1.6962218357560757,-0.66156703,0.3036,0.6960809,159.15459,-78.38044,5.265126
6772678482000.0,-0.8733635661011101,-3.102765558153316,-1.6714019972322232,-0.6747007,0.10140363,0.63804877,159.02211,-78.277725,5.3688383
6772683750000.0,-0.8915935644195896,-3.3321101411445326,-1.6339036282006734,-0.659429,-0.11789699,0.5742133,158.95523,-78.12402,5.491889
6772688562000.0,-0.9016019391834076,-3.5272735012922145,-1.4937862770007602,-0.6398814,-0.3268129,0.52106804,158.94576,-77.9759,5.611026
6772693608000.0,-0.922281104875546,-3.728195840823685,-1.3467474315953685,-0.6062838,-0.52442783,0.4728097,158.99785,-77.83334,5.725718
6772698551000.0,-0.978077317370866,-3.911995176620676,-1.202333760777924,-0.5885687,-0.6072,0.42943826,159.07965,-77.699455,5.8316393
6772704164000.0,-1.041436439510504,-4.120707632988976,-1.0383455078347086,-0.5858198,-0.7819075,0.38881573,159.24527,-77.55546,5.9425993
6772708571000.0,-1.209031348862195,-4.300995336118779,-0.902403449074088,-0.56169057,-0.79351395,0.3726278,159.38947,-77.42456,6.043995
6772713589000.0,-1.6249490070581212,-4.53763804610908,-0.7338850741371336,-0.5558874,-0.7357872,0.36346483,159.56555,-77.29502,6.1417637
6772718460000.0,-2.028682548921883,-4.767348416846975,-0.5703033674177423,-0.5375614,-0.5448918,0.35094208,159.70332,-77.14789,6.2185287
6772723531000.0,-2.4271075457919724,-4.757473160034527,-0.4890362936538627,-0.5516113,-0.25534168,0.33475417,159.79753,-76.995735,6.2828164
6772728535000.0,-2.8076733001294776,-4.604419438152783,-0.4600801995183426,-0.6072,0.067500606,0.3268129,159.82857,-76.8382,6.3328853
6772733536000.0,-3.1362650485558747,-4.411784031332225,-0.4052771873756238,-0.6759224,0.39522982,0.30268374,159.74545,-76.685585,6.258473
6772738539000.0,-3.3572449030999545,-4.1364649997580525,-0.2965986101360955,-0.7516697,0.6936375,0.2415972,159.58168,-76.52094,6.15092
6772743463000.0,-3.5747353695750794,-3.865493400423409,-0.1896361247618327,-0.7715228,0.93523467,0.12370021,159.31895,-76.4017,5.911432
6772748505000.0,-3.594090634304255,-3.331125624496719,0.0250518124142762,-0.7761043,1.0797043,-0.034513887,159.00546,-76.27307,5.6246367
6772753453000.0,-3.513721993584544,-2.681188073578645,0.2871234150600987,-0.75961095,1.1307116,-0.22907446,158.65988,-76.15417,5.2782135
6772758994000.0,-3.415908153534672,-1.9694112479163155,0.5609937324717394,-0.7266242,1.094976,-0.44532076,158.28981,-76.06167,4.8040547
6772763503000.0,-3.2228394225409147,-1.623344699122659,0.499066029461785,-0.66675943,0.9981538,-0.6808093,157.937,-75.98336,4.261602
6772768581000.0,-3.005406950598954,-1.2336072995275855,0.4293235420178842,-0.605062,0.8582657,-0.8906415,157.62177,-75.87954,3.671445
6772773843000.0,-2.720486379965103,-0.8655750716103869,0.3181705547069691,-0.50793445,0.71868294,-1.065349,157.34865,-75.78984,3.0239534
6772778476000.0,-2.4381401471825925,-0.5604589491327107,0.1997672947244175,-0.3811799,0.58062744,-1.1994339,157.12749,-75.70496,2.3310633
6772783524000.0,-2.156705734582385,-0.3431283748054631,0.0531184958912624,-0.23457226,0.4605924,-1.273654,156.96056,-75.65209,1.6574944
6772788520000.0,-1.892804434915076,-0.1923276288891612,-0.1018711628900367,-0.09101892,0.35155296,-1.3035865,156.83612,-75.60641,0.96238214
6772793506000.0,-1.6569746101356908,-0.0570650857384868,-0.2750004485629111,0.027488936,0.310625,-1.3185526,156.74301,-75.599815,0.3143542
6772798538000.0,-1.4687305316817434,0.0519183426957236,-0.4830597340069901,0.1337795,0.24404067,-1.3234396,156.68814,-75.60367,-0.3330077
6772803514000.0,-1.334326242196819,0.1385343154433399,-0.684015341691849,0.17562376,0.18997909,-1.3307699,156.65155,-75.64202,-0.9160588
6772808517000.0,-1.2724111333001988,0.1956867175347912,-0.8792860422067594,0.25289822,0.13194689,-1.3494014,156.63342,-75.69789,-1.5004932
6772813506000.0,-1.20318546690099,0.2165752171920792,-1.0585377381485148,0.31398472,0.095294975,-1.3701707,156.62044,-75.794685,-2.0397418
6772818525000.0,-1.1222823175643564,0.1832621562851485,-1.2155850806534654,0.3585779,0.061391957,-1.3860532,156.61955,-75.88764,-2.579653
6772823449000.0,-1.029015970242822,0.1643086990917611,-1.3495970929879866,0.40103304,0.06627888,-1.4022411,156.60042,-76.03115,-3.1032503
6772828535000.0,-0.9086682059947176,0.168458618560109,-1.453345123029735,0.41233405,0.11575896,-1.4071281,156.57202,-76.15661,-3.628594
6772833808000.0,-0.7820103959300362,0.1755986631443506,-1.5560882411338963,0.42455134,0.17959438,-1.4175128,156.524,-76.30754,-4.1386075
6772838539000.0,-0.6508416460916767,0.2083908467993566,-1.60345473920386,0.41996986,0.26328292,-1.416902,156.44829,-76.434654,-4.650763
6772843537000.0,-0.5122702210880579,0.2430336990309609,-1.653494425814234,0.39370266,0.35918877,-1.4129313,156.33318,-76.57868,-5.1236057
6772848469000.0,-0.3530934342062573,0.3008630142738508,-1.7057924333912708,0.35094208,0.4813618,-1.4056009,156.17792,-76.69525,-5.600688
6772853483000.0,-0.1722604565446118,0.3796876502549247,-1.761433356894554,0.29077184,0.63316184,-1.4016303,155.97842,-76.77793,-6.0835037
6772858602000.0,0.0369315602148451,0.5391309293698825,-1.767733150240299,0.22693644,0.8011498,-1.3869696,155.7086,-76.88267,-6.494065
6772863514000.0,0.2630110177840868,0.7735837145603418,-1.7216799152100393,0.17134771,0.9615019,-1.3713925,155.38927,-76.95532,-6.909605
6772868492000.0,0.453254166311184,0.9811657470695472,-1.6542046005013218,0.1282817,1.0913107,-1.3439035,154.96617,-77.08249,-7.208774
6772873511000.0,0.5102095916598305,1.0863142316744143,-1.5140066057788717,0.07452556,1.2073752,-1.3219124,154.49672,-77.17649,-7.5147996
6772878741000.0,0.5641484390138675,1.1966500999306626,-1.36492951653698,0.044593163,1.3041973,-1.2980887,153.89066,-77.37718,-7.616055
6772883579000.0,0.5534398353775039,1.3073057081124808,-1.1935917651733436,-0.009468411,1.3710871,-1.2791518,153.27412,-77.534035,-7.7372966
6772889409000.0,0.540535503174114,1.44065051912943,-0.9871223376309708,-0.038789943,1.4181237,-1.260215,152.76335,-77.573616,-7.954551
6772893645000.0,0.3194954713961814,1.6724507642700874,-0.0034798901501591,-0.05497787,1.4422529,-1.2492194,152.24113,-77.594925,-8.174534
6772898541000.0,-0.1374485007279237,2.068779675964598,1.9268751976780032,-0.087964594,1.4547756,-1.2498302,151.71011,-77.59711,-8.397709
6772903535000.0,-0.7086669367990417,2.648651854602414,4.472944808347922,-0.122783914,1.3338243,-1.2950343,151.27528,-77.517685,-8.661297
6772908499000.0,-1.4138933651488068,3.4546249247212746,7.758160761356307,-0.28191432,0.7507534,-1.395827,150.97165,-77.3901,-8.920813
6772913490000.0,-2.0781419226298765,4.975762799878714,10.820286955427532,-0.43096542,-0.36010507,-1.5066991,151.09431,-76.88553,-9.240064
6772918561000.0,-2.6180689852637964,8.661992325045482,13.205783454214677,-0.70402217,-2.0845776,-1.5961909,151.5681,-76.31241,-9.516894
6772923519000.0,-2.907746690388979,11.00608546126418,13.605771185834683,-1.2434162,-2.3493876,-1.4349225,152.27356,-75.11496,-9.751927
6772928534000.0,-2.584707985081037,10.11870193776337,9.01317228121556,-0.66737026,-1.570229,-1.2724323,153.15746,-74.07941,-9.970348
6772933557000.0,-2.2611539637925446,9.22990284732577,4.41324719688817,0.14721853,-1.2507466,-1.3497068,154.32445,-72.82464,-10.059278
6772938569000.0,-2.5853429546391755,10.352330680412372,0.152636435051547,0.2406809,-1.1520919,-1.4001031,155.25467,-71.62612,-10.1372175
6772943455000.0,-3.040937875391371,11.879913674684994,-3.929851536960671,0.22418754,-1.0467176,-1.4495832,156.05008,-70.635544,-10.266441
6772948536000.0,-3.027747201154706,13.148151877141792,-5.90031627470822,0.27947086,-0.8347474,-1.4110987,156.30206,-70.60748,-10.426453
6772954640000.0,-2.770084204283586,14.512676673267942,-7.137824212627266,0.3378085,-0.52534413,-1.1343768,156.47752,-70.60446,-10.545445
6772959857000.0,-2.5498633892972435,15.678916165631984,-8.19550424410231,0.28771752,0.15149458,-0.6337727,156.0724,-71.27074,-10.801851
6772963525000.0,-2.4681486046439045,16.367012569658563,-8.327274096945048,0.083383106,1.3762794,0.04428773,155.39922,-71.9157,-10.985685
6772968491000.0,-2.4051752814054668,17.212655721082,-8.106866925470538,-0.004581489,2.7953193,0.8258898,154.45033,-72.61678,-11.053288
6772973493000.0,-2.711862638528897,17.916001326148457,-5.793000349117607,0.50488013,3.669162,1.2009611,153.25522,-73.60841,-11.05647
6772978465000.0,-3.6323635674255694,18.36823362845211,-0.0134086974942748,1.2119566,3.5882225,0.9932669,151.95464,-74.55562,-11.032159
6772983546000.0,-4.573044424168126,18.830380114374243,5.892887598140913,1.577254,2.5415049,0.65240407,150.74324,-75.48374,-10.906374
6772988555000.0,-5.619053028471946,19.141884916931957,9.070784524572224,1.5048665,1.054048,0.30909783,149.72815,-76.31542,-10.816867
6772993686000.0,-6.860716745045762,19.254319256068445,8.533056030839635,1.0390818,-0.35277468,0.12950343,149.02654,-77.006874,-10.737226
6772998502000.0,-7.592232346710107,19.332552404702884,7.672760008853318,0.46273044,-0.874759,0.1469131,148.99153,-76.96574,-10.670128
6773003479000.0,-7.707011575961471,19.3730624845244,6.258275035625752,0.22143865,-1.4205672,0.35246924,149.35416,-76.91103,-10.5509815
6773008516000.0,-7.823174521056732,19.41406093179404,4.826737802323111,-0.05589417,-1.4327844,0.6017023,149.61278,-76.6867,-10.594496
6773013606000.0,-7.611859016117716,19.447954407425453,3.57545084515689,-0.07666359,-1.2825116,0.7495316,149.96953,-76.5042,-10.58197
6773018682000.0,-7.166573915279672,19.47637694065484,2.466975017053206,0.06078109,-1.2116512,0.7715228,150.33823,-76.341286,-10.522395
6773023537000.0,-6.122316346067732,19.495911757656835,1.4865034069844398,0.34513888,-1.2296717,0.7431176,150.57805,-76.32831,-10.474636
6773029250000.0,-4.28098165239738,19.51132072787439,0.4117494149897909,0.6646214,-1.2498302,0.79351395,150.79102,-76.37632,-10.394739
6773033617000.0,-2.8734709562205163,19.523099298317256,-0.4097893007533622,0.96577793,-1.2675453,0.95203346,150.97191,-76.58632,-10.248463
6773038646000.0,-1.7900019478578797,19.5302897311334,-0.8008300535389519,1.1786644,-1.2311989,1.1209377,151.13962,-76.84665,-10.086216
6773043563000.0,-0.9512524636730102,19.534703829942814,-0.9553365107809132,1.2861768,-1.1377366,1.2577715,151.29053,-77.16166,-9.8917265
6773048538000.0,-0.3053681613670333,19.536686,-0.9824409145688134,1.2986995,-1.0213667,1.3845261,151.4736,-77.76733,-9.441103
6773053482000.0,0.1757029408380217,19.536686,-0.9069008373834916,1.2724323,-0.8762862,1.491122,151.62137,-78.39015,-8.977206
6773058531000.0,0.6450103789620759,19.536686,-0.7819338517325349,1.2305881,-0.74036866,1.5690074,151.78065,-79.09249,-8.417804
6773063487000.0,0.9992399778998524,19.536686,-0.4277041986026209,1.1969905,-0.6230826,1.6218473,151.90652,-79.78808,-7.8568516
6773068516000.0,1.3586872444571725,19.536686,-0.0682568770549336,1.1734722,-0.552833,1.6539177,152.0352,-80.5091,-7.240366
6773073516000.0,1.6920907796951818,19.12648068367748,0.6103683943954769,1.1429288,-0.5045747,1.6398678,152.14241,-81.202,-6.6431227
6773078444000.0,2.016930051278269,18.657783303933137,1.3296553077673552,1.0684034,-0.5143485,1.5824465,152.25233,-81.8581,-6.067006
6773083514000.0,2.1903419500660006,17.672028258438623,2.220562225476145,0.91965765,-0.6056729,1.5082263,152.40244,-82.4698,-5.473716
6773088495000.0,2.3252715386385066,16.592592583066192,3.129087514463511,0.7107417,-0.66614854,1.4071281,152.55328,-83.01319,-4.922195
6773093494000.0,2.264382819354839,15.507939017921148,3.693249184946236,0.6026186,-0.86559606,1.3655893,152.79666,-83.474205,-4.357453
6773098940000.0,2.1077602275501306,14.325692237721594,4.147959639232781,0.34116822,-1.0916162,1.2486086,153.07257,-83.793365,-3.8553443
6773103471000.0,1.9406613264189785,13.574833251936084,4.261679,0.11148291,-1.1389582,1.2125676,153.37929,-83.97636,-3.34961
6773108522000.0,1.73675828430546,12.849317831781198,4.261679,0.07391469,-1.2263119,1.196685,153.76694,-84.08594,-2.8740215
6773113499000.0,1.521114672177038,12.05735417117458,4.107011845848307,0.023823744,-1.3307699,1.2189816,154.17847,-84.04718,-2.4180331
6773118505000.0,1.294419519746548,11.20951416947229,3.848579344618877,-0.013133603,-1.3848315,1.2098186,154.60269,-83.95592,-1.9796154
6773123547000.0,1.0344913963284708,9.97133040608097,3.1807493247008685,-0.019547688,-1.3350459,1.1753048,155.01955,-83.82166,-1.5636348
6773128493000.0,0.7472311131060482,8.364225637043107,2.109346253433863,-0.040317107,-1.2266175,1.1270463,155.43536,-83.641624,-1.1580766
6773133734000.0,0.4654524433282976,6.742589076242346,1.0292947030174129,-0.022296581,-1.0280862,1.1148291,155.79916,-83.471016,-0.7808898
6773138516000.0,0.4253984463083406,6.04346463050807,0.5741355668180013,-0.018936822,-0.82924956,1.1316279,156.13219,-83.269554,-0.41567358
6773143512000.0,0.3835519868537807,5.313053561731732,0.098607535774032,-0.04917465,-0.6062838,1.14018,156.37576,-83.15477,-0.10897914
6773148540000.0,0.3869837774725193,4.647451107567487,-0.3839810610640843,-0.12675454,-0.32986724,1.1450669,156.5484,-83.01449,0.18925717
6773154601000.0,0.4390693501256263,3.918253208262918,-0.9699437522784716,-0.18417588,0.0421497,1.1551461,156.63208,-82.86018,0.47610036
6773158578000.0,0.4732459418499963,3.4397810014432064,-1.3544304084341583,-0.22724187,0.44715336,1.1652255,156.60692,-82.76169,0.7690537
6773163503000.0,0.4529789002680747,2.696450746917592,-1.7055378318530552,-0.24312437,0.8323039,1.1618657,156.486,-82.645035,1.0433152
6773168632000.0,0.4219439504142973,1.8984093644281972,-2.0513557148840147,-0.25717425,1.1459832,1.1386528,156.27602,-82.51011,1.2967904
6773173537000.0,0.4248892341948794,1.166518246194456,-2.252692559680491,-0.2443461,1.3866642,1.0983357,155.96588,-82.44955,1.5588706
6773178486000.0,0.4449466379454083,0.4444521667012271,-2.38807991064325,-0.226631,1.572978,1.0662653,155.58842,-82.38098,1.8025225
6773183523000.0,0.3896442819908083,-0.3276800726327692,-2.249422003735045,-0.21624629,1.6850718,1.0393872,155.18613,-82.33702,2.0094037
6773188589000.0,0.3082414191647213,-1.1169338506762476,-2.0158312124306974,-0.21685717,1.6985108,1.0134255,154.76833,-82.29492,2.1980305
6773193783000.0,0.2183341413056379,-1.906146847032641,-1.7796733795994066,-0.23335053,1.6313156,1.0128145,154.33131,-82.2574,2.4055717
6773198533000.0,0.0447824308350996,-2.344847000699449,-1.6109425164158542,-0.2660318,1.5604553,1.022283,153.89928,-82.21417,2.6036117
6773203530000.0,-0.1369812814650008,-2.79061064107479,-1.4510574776998115,-0.27916542,1.3460416,1.0259482,153.47346,-82.124664,2.8506942
6773208501000.0,-0.3121542509258942,-3.124661373155913,-1.4143933963032689,-0.34025195,1.0818423,1.0290025,153.08374,-82.006966,3.1050954
6773213487000.0,-0.4878558050864282,-3.4597201038250898,-1.3776186809857949,-0.42638394,0.7828238,1.0064005,152.75665,-81.85973,3.3446653
6773218514000.0,-0.730135776,-3.775177248,-1.276396832,-0.5314528,0.45814893,0.9896017,152.51317,-81.68618,3.597774
6773223579000.0,-0.9926940378348624,-4.086687201394495,-1.1562430432844035,-0.6243043,0.0852157,0.9370673,152.37204,-81.496994,3.8477025
6773228486000.0,-1.2820665256340225,-4.318964323293016,-1.102513552555599,-0.711658,-0.27030787,0.86009824,152.30983,-81.28721,4.0716915
6773233587000.0,-1.6060898872024971,-4.514331130608661,-1.0882184130316035,-0.8023715,-0.57451874,0.7858781,152.3419,-81.05824,4.294347
6773238574000.0,-1.975093646092715,-4.660422389098319,-1.0987588215588384,-0.8393288,-0.7846564,0.70066243,152.43692,-80.831505,4.4616623
6773243548000.0,-2.3827699329801324,-4.772048273764646,-1.1278785382373917,-0.86254174,-0.8915578,0.6252206,152.5917,-80.59436,4.6188164
6773248534000.0,-2.8350421448367573,-4.767455530915261,-1.1788597362435804,-0.8744536,-0.82986045,0.5540548,152.74393,-80.383415,4.7022157
6773253493000.0,-3.3141372562729274,-4.684702582245047,-1.2441908319882613,-0.8784242,-0.5714644,0.50793445,152.87228,-80.17594,4.7664638
6773258501000.0,-3.801405382660688,-4.495000807623319,-1.283292,-0.91232723,-0.14935656,0.4709771,152.91676,-80.00248,4.73262
6773263569000.0,-4.299574833702043,-4.146765876562033,-1.283292,-0.98624194,0.3866777,0.42821655,152.85696,-79.82409,4.6642995
6773268531000.0,-4.679598437307266,-3.774776157180288,-1.1595598368940845,-1.0815369,0.93737274,0.34697145,152.64673,-79.69637,4.4531183
6773273538000.0,-4.9067172793207705,-3.3543647115791595,-0.8551239938123552,-1.1829406,1.4019357,0.23182335,152.31151,-79.551315,4.192398
6773278460000.0,-5.024009757888041,-2.9842963287531803,-0.4408377378117048,-1.2745703,1.6734654,0.089491755,151.8504,-79.433624,3.7786274
6773283544000.0,-4.990655026042279,-2.665043120610687,0.1547837801526718,-1.3081679,1.7287487,-0.10873401,151.32634,-79.30309,3.2936256
6773288670000.0,-4.865467830789185,-2.3736912541554425,0.7191672266586849,-1.2721269,1.7281377,-0.33841935,150.73563,-79.1334,2.6894326
6773293557000.0,-4.6133176951112445,-2.1402189857627456,1.2047895624683227,-1.1933253,1.5534303,-0.45845437,150.18277,-78.93843,2.0533435
6773298445000.0,-4.313635345679012,-1.8870119001371743,1.6046996503429354,-1.1374311,1.2434162,-0.70280045,149.69348,-78.629875,1.3190975
6773303508000.0,-3.917729581069959,-1.5892907656803188,1.8644138237246064,-0.9957104,0.8045095,-0.9275989,149.29742,-78.3225,0.5618612
6773308519000.0,-3.5258900024691355,-1.294627403096218,2.121460579169116,-0.82711154,0.2837469,-1.1346822,149.04926,-77.906586,-0.18974812
6773313586000.0,-3.1431277569948186,-0.9951443792746112,2.087197952331606,-0.6078109,-0.23854288,-1.287093,148.93901,-77.49728,-0.9709835
6773318555000.0,-2.795923282478588,-0.6982593184307919,1.4380764703500053,-0.4352415,-0.62796944,-1.3939945,148.95177,-77.07067,-1.7807362
6773323534000.0,-2.5547140297339106,-0.4423999007701114,0.8647068726577971,-0.30726522,-0.8249735,-1.4666874,149.1139,-76.60258,-2.470559
6773328482000.0,-2.459414164232673,-0.2444693399591583,0.3992035221410891,-0.21013765,-0.92087936,-1.5143349,149.36731,-76.13669,-3.1671946
6773334608000.0,-2.341211509122715,-0.0004280374296335,-0.1762072165039797,-0.10842858,-0.9456194,-1.5470163,149.65498,-75.816086,-3.809093
6773338679000.0,-2.259370130534418,0.1462044071410828,-0.5444933809831192,-0.028405234,-0.9401216,-1.5745052,149.96596,-75.48495,-4.4605403
6773343544000.0,-2.1615665670777573,0.3214357613136535,-0.9846093697306046,0.03726278,-0.89552844,-1.6029104,150.24884,-75.28944,-5.1014705
6773348533000.0,-2.062626081374185,0.4401191306112543,-1.31915325389049,0.090713486,-0.82741696,-1.6053538,150.5217,-75.08444,-5.74684
6773353451000.0,-1.966185429152131,0.5079847557045352,-1.55489694610951,0.13072516,-0.7510588,-1.6194037,150.78043,-74.86096,-6.408919
6773358615000.0,-1.8649207833459729,0.5792450419960564,-1.802432616426513,0.1685988,-0.6759224,-1.6230689,150.97884,-74.76215,-7.0406394
6773363495000.0,-1.432921155317333,0.6303786445141334,-1.9951282718826664,0.18387043,-0.5842926,-1.6249015,151.14484,-74.63771,-7.6826305
6773368637000.0,-0.964804245582538,0.6815224364641406,-2.1814198180478126,0.17867808,-0.4822781,-1.6172657,151.27905,-74.49012,-8.329105
6773373542000.0,-0.7606263323726732,0.7081543200510252,-2.1459106399319663,0.19517145,-0.37720928,-1.6123788,151.34596,-74.42159,-8.937538
6773378482000.0,-0.5549914921572333,0.7349762374657469,-2.110148083379004,0.17837265,-0.31978795,-1.5980235,151.35127,-74.47233,-9.379631
6773383577000.0,-0.4027468081589958,0.806214860502092,-2.0138141828451883,0.17470746,-0.18661933,-1.5720617,151.29092,-74.50897,-9.82654
6773388522000.0,-0.2605973316945607,0.8794433927196652,-1.91474024874477,0.17379116,-0.04062254,-1.5613716,151.19766,-74.519005,-10.275817
6773393546000.0,-0.1312109453570576,0.9542893440447584,-1.864367013950289,0.15332718,0.10476339,-1.5323554,151.0156,-74.600655,-10.596255
6773398492000.0,-0.0095680233565073,1.0281439886416583,-1.8339563040906173,0.14019357,0.25717425,-1.5082263,150.77948,-74.6624,-10.924059
6773403561000.0,0.1196200888719655,1.1040176305109632,-1.855461330041112,0.13041973,0.4392121,-1.4694363,150.37875,-74.86525,-11.0528965
6773408569000.0,0.2510705728876272,1.1791321891640565,-1.9211865749902115,0.099265605,0.64873886,-1.4407257,149.93022,-75.029305,-11.202727
6773413511000.0,0.3643651181815245,1.3078280631998278,-1.9282314873062016,0.064446285,0.8732319,-1.409877,149.44916,-75.1645,-11.34088
6773418645000.0,0.4649442741052971,1.4983990698751075,-1.875295071996124,0.011301007,1.1026118,-1.3924674,148.91153,-75.2655,-11.498954
6773424058000.0,0.5840333301075767,1.7562627638597794,-1.6758941249837709,-0.03756821,1.2971723,-1.3701707,148.33716,-75.350296,-11.652782
6773428565000.0,0.6881072662709822,1.9924306087916164,-1.455737728795326,-0.08827003,1.4327844,-1.3414601,147.71854,-75.4073,-11.819835
6773433527000.0,0.9277497356237888,2.4978979763303024,0.0219328268594423,-0.112704635,1.4941764,-1.3154984,147.1415,-75.39184,-12.039248
6773438509000.0,1.3011081597853629,3.2659496511551644,2.816787375704278,-0.10293079,1.1881329,-1.2696834,146.63051,-75.37233,-12.23989
6773443496000.0,1.674841291317633,4.0347721526307945,5.614446876926516,0.19394971,0.4147775,-1.2592987,146.33644,-75.3336,-12.441506
6773448554000.0,2.220709022872491,4.9857845099707845,7.495410514654604,0.49418998,-0.18784106,-1.2425,146.07861,-75.30285,-12.62331
6773453446000.0,2.7902704614927902,5.948299087333899,9.076053934124964,0.41905355,-0.7828238,-1.205848,146.03976,-75.26362,-12.766391
6773458493000.0,2.418003249016563,7.936930610541752,8.451568426363009,0.23976462,-1.5247196,-1.0338894,146.8336,-75.096466,-12.532957
6773463569000.0,1.5541276893892335,10.444685760231192,6.673494319530711,-0.015577064,-1.853976,-0.68416905,147.65569,-74.93203,-12.226223
6773468502000.0,0.4773646554837363,11.570278086843205,4.449780487145539,-0.28619036,-1.7327193,-0.6230826,148.80357,-74.64187,-11.672549
6773473546000.0,-1.0586185855921602,10.31631165877815,1.267021877158048,-0.14660765,-1.6829338,-0.74372846,149.99953,-74.34489,-11.066106
6773478491000.0,-2.084409210956978,10.63042538166651,-1.1621426991751804,-0.18203785,-1.738828,-0.84604836,150.72609,-74.29029,-10.555557
6773483573000.0,-2.504090335729684,12.993412958009184,-2.745070688499391,-0.2406809,-1.9242256,-0.84788096,151.45735,-74.232216,-10.077932
6773488504000.0,-2.806289095171985,14.972749301181102,-4.506864962909242,-0.34788775,-1.8658879,-0.7128797,151.71652,-74.30249,-10.106592
6773493500000.0,-2.87073118029424,16.25663278937008,-6.81190652329051,-0.4382958,-1.3927728,-0.30085114,151.89096,-74.40434,-10.069948
6773498445000.0,-3.033106964939712,17.238471398055232,-8.053380619214314,-0.59528816,-0.48197266,0.3203988,151.74292,-74.71536,-10.108908
6773503538000.0,-3.3783807887359,17.727925139867754,-7.453894306106573,-0.795652,0.95325524,0.97585726,151.29831,-75.05125,-10.0726795
6773508523000.0,-3.716332882123687,18.20699973302217,-6.867120445740957,-0.70707655,2.518292,1.5741998,150.36311,-75.71364,-10.008989
6773513567000.0,-3.9637129251016847,18.54621105568468,-3.024886448576409,0.1160644,3.2904255,1.7559321,149.27528,-76.4641,-9.90253
6773518455000.0,-4.181314131377106,18.84087944460585,1.4586024392794892,1.2299771,3.0072896,1.3530666,148.08435,-77.21298,-9.817186
6773523539000.0,-4.584547259037112,19.037777294082247,4.543928738074222,1.8811595,1.96271,0.9669997,146.96342,-77.89354,-9.718838
6773528462000.0,-5.0385166921564695,19.18910053721164,6.965099344312939,1.8442022,0.6881397,0.7663304,146.03621,-78.51914,-9.654188
6773533593000.0,-5.741877931576131,19.2820697266078,7.10148116556953,1.3567317,-0.41783184,0.7800749,145.73544,-78.80346,-9.517464
6773538507000.0,-6.49326640238159,19.349232986441887,6.4256510442957815,0.7788532,-1.2803736,0.83077675,145.74376,-79.01765,-9.397675
6773543555000.0,-7.110890936408365,19.40343532718327,5.259669259532595,0.44990227,-1.6734654,0.79504114,146.06857,-79.05425,-9.270717
6773548544000.0,-7.571243138468635,19.44261452306273,3.648436526752768,0.35643986,-1.6627752,0.72112644,146.51047,-79.04626,-9.127881
6773554650000.0,-7.321886841119653,19.474732563867533,2.241452364931993,0.43096542,-1.4501941,0.63255095,146.91075,-78.96021,-9.118355
6773558579000.0,-6.862022678296865,19.48956680425784,1.5442388843287993,0.6246097,-1.2965615,0.550695,147.32109,-78.87578,-9.115862
6773563466000.0,-5.947743892349138,19.50276994908405,0.844642366788793,0.8332202,-1.2247849,0.5412266,147.59735,-78.82929,-9.198894
6773568557000.0,-4.669312416810345,19.51152604849138,0.2754776735344828,1.0067059,-1.2302825,0.5870415,147.85081,-78.811676,-9.277244
6773573557000.0,-3.241192331982325,19.51973253573061,-0.2139437911503885,1.1655309,-1.2498302,0.6374379,148.07898,-78.914795,-9.295543
6773578541000.0,-1.4193781602316011,19.527005393874752,-0.5412158083742191,1.3197744,-1.2651019,0.6789767,148.30406,-79.04867,-9.297353
6773583519000.0,0.4002428162882832,19.53426949657169,-0.8680938384184063,1.3848315,-1.287093,0.698219,148.57751,-79.33943,-9.147732
6773588508000.0,1.3514139462264152,19.536686,-0.8635388681132076,1.5231925,-1.2809844,0.7489208,148.84259,-79.6666,-8.98215
6773593555000.0,1.8751166602092284,19.536686,-0.6919810989164954,1.6377298,-1.2394456,0.8142834,149.10017,-79.99247,-8.811562
6773598546000.0,2.341074039031981,18.961491882700148,-0.3472306815432496,1.7214183,-1.1768318,0.8713993,149.45079,-80.57139,-8.389204
6773603532000.0,2.7612818439901265,17.885350093260357,0.1498444414831509,1.7504344,-1.0977248,0.9334021,149.78163,-81.15436,-7.961483
6773609282000.0,3.2611122662676,16.173911881291627,1.3907572534491188,1.7696766,-0.98929626,0.9642508,150.11946,-81.772446,-7.4870377
6773613570000.0,3.6384938282944095,14.75440312081612,2.519439754607537,1.7751744,-0.91782504,0.9767735,150.44315,-82.380356,-7.015675
6773618458000.0,4.040686595928594,13.03719857688694,3.9174778353272783,1.7446312,-0.9560041,0.93645644,150.79874,-82.96317,-6.5369306
6773623540000.0,4.386183333917945,10.994701978703414,5.6602048195427495,1.5830573,-1.1578951,0.86162543,151.18036,-83.50757,-6.0769625
6773628440000.0,4.765264895981975,9.472304017461507,6.293827798394667,1.2883148,-1.4914275,0.7593055,151.6849,-83.96133,-5.618308
6773633590000.0,5.246802466391288,8.68054518343973,5.066833287974089,0.8698721,-1.8203784,0.67347896,152.24542,-84.35671,-5.1823726
6773638494000.0,5.510864080022367,7.987397303355022,4.147583379971533,0.44776422,-1.7308867,0.7370089,152.84323,-84.75061,-4.665498
6773643620000.0,5.161499611356242,7.458359603436356,3.987873667364783,0.29016098,-1.4935656,0.9428705,153.4813,-85.10446,-4.130625
6773648494000.0,4.826943074387245,6.98322466628857,3.746726106615372,0.21624629,-1.4618006,1.1554517,154.12454,-85.46073,-3.5394378
6773653506000.0,4.476669076164035,6.568226176338542,3.2631957223843893,0.09132435,-1.434617,1.3646729,154.69467,-85.75378,-2.8925683
6773658553000.0,4.1239490304672,6.150329652240819,2.7762887293249783,-0.063224554,-1.4422529,1.5421293,155.2452,-85.96104,-2.2267563
6773663494000.0,3.60757154713399,5.579260897517342,2.2515181101496897,-0.25595254,-1.509448,1.6566665,155.79935,-86.024666,-1.5186653
6773668504000.0,3.0295016873311424,4.948639402719971,1.70410340505659,-0.4877759,-1.5473217,1.7333301,156.34152,-85.898926,-0.7718662
6773673479000.0,2.5192521083944035,4.366524887616589,1.0426293478564292,-0.7180721,-1.4844025,1.7873917,156.85292,-85.61513,-0.066844516
6773679333000.0,1.977674426982012,3.72223412537475,0.1555624804313793,-0.8863655,-1.0207558,1.8264871,157.26003,-85.17314,0.64628524
6773683539000.0,1.5388346623465556,3.1842531993601044,-0.4792421210953314,-0.98440933,-0.7644979,1.8301523,157.69702,-84.666794,1.2697098
6773688505000.0,0.7857874837650997,2.194423107828926,-1.2167625688948744,-1.0128145,-0.21074851,1.8115209,157.92209,-84.094666,1.8757801
6773693687000.0,-1.4062632223144078e-05,1.1615395930656218,-1.98636203738002,-1.01312,0.33628133,1.7571539,158.03328,-83.6158,2.4156604
6773698536000.0,-0.3961550378159797,0.4133442770736472,-2.137036668060168,-0.98990715,0.8918633,1.6707164,157.99358,-83.12667,2.9190621
6773703494000.0,-0.6790609343445986,-0.2730502891697597,-2.0860207948427427,-0.9407325,1.430341,1.5650368,157.8145,-82.64664,3.377994
6773708628000.0,-0.8766869374792491,-0.7536742439203167,-1.8792798309539007,-0.906524,1.9251418,1.4419475,157.48286,-82.32769,3.6516764
6773713527000.0,-1.0204747770463545,-1.1041571118580005,-1.6096776513152853,-0.86620694,2.3518312,1.3368785,157.03069,-82.04169,3.875072
6773718652000.0,-1.1708958176222704,-1.4708084076695185,-1.327638220687013,-0.82772243,2.6239717,1.2034045,156.3641,-81.776596,4.0936813
6773723502000.0,-1.3406195941504178,-1.862061995821727,-1.103280195821727,-0.795652,2.6865854,1.0354166,155.64404,-81.543335,4.259744
6773728537000.0,-1.540370677501607,-2.3063359967502324,-0.9069730941861296,-0.6954701,2.5320365,0.8246681,154.91832,-81.36661,4.3685794
6773733768000.0,-1.7478975726376689,-2.7679044771587744,-0.7030242463895436,-0.54183745,2.1297817,0.634689,154.2175,-81.18876,4.427415
6773738532000.0,-2.014572039211873,-2.975319850767656,-0.1700829526407369,-0.38637227,1.5360206,0.46273044,153.62321,-81.067314,4.4402666
6773743604000.0,-2.3228178295087005,-3.129442719959058,0.5060690013408394,-0.2556471,0.82863873,0.35246924,153.18143,-80.99931,4.433026
6773749118000.0,-2.5364654057778098,-3.1231608535616635,0.4030396504671176,-0.2012801,0.09132435,0.30757064,152.90393,-80.94347,4.382972
6773753464000.0,-2.683207323391855,-3.0872240178442945,0.1724452108251546,-0.19364429,-0.5821546,0.29901853,152.81255,-80.92031,4.3339243
6773758828000.0,-2.8750871675166296,-3.0610711389988063,-0.1346322909251236,-0.2171626,-1.0833695,0.30604348,152.8651,-80.84587,4.2495136
6773763563000.0,-3.199927590465632,-3.300834361197339,-0.730173114518847,-0.22357668,-1.4068227,0.28802297,153.05959,-80.780106,4.17183
6773768543000.0,-3.541576018403548,-3.5530034945761555,-1.356528616418898,-0.24556783,-1.5057828,0.24953845,153.31894,-80.77463,4.0549617
6773773545000.0,-3.826557174285929,-3.7505414249493967,-1.9022916969562933,-0.2855795,-1.4785993,0.21533,153.63448,-80.763565,3.9379992
6773778539000.0,-4.0811255287053,-3.9190583933728167,-2.4042573976834847,-0.355829,-1.248914,0.20677789,153.92058,-80.73911,3.8088288
6773783913000.0,-4.335620513379147,-4.090365534648341,-2.8934396028930176,-0.39461896,-0.56505036,0.17959438,154.04893,-80.84943,3.5663114
6773788580000.0,-4.297701682803088,-4.105533066878765,-2.639383200466616,-0.5030475,-0.2751948,0.18020524,154.22249,-80.91909,3.3303645
6773793713000.0,-4.255996656587766,-4.122215077364894,-2.359959263536099,-0.54305923,0.29260445,0.172264,154.10326,-81.120865,2.9732368
6773798538000.0,-4.07337767785439,-4.0814723331677145,-1.6976758637750964,-0.6243043,0.7870999,0.13927728,153.9223,-81.27966,2.593833
6773803534000.0,-3.8065437596227945,-4.008699579933077,-0.7952925129132022,-0.68203104,1.1032226,0.08827003,153.63036,-81.428085,2.184314
6773808521000.0,-3.6222734134533066,-3.813401284982965,-0.0565397287367869,-0.72356987,1.2229522,-0.040927973,153.26216,-81.496185,1.7351475
6773813698000.0,-3.475012976849829,-3.5448675316851577,0.6234570504236918,-0.72784597,1.1389582,-0.24709499,152.86569,-81.54685,1.237006
6773818506000.0,-3.38566237115982,-3.2151360161546427,1.1600134374352775,-0.6963864,0.8689558,-0.4810564,152.5209,-81.40989,0.74694234
6773823542000.0,-3.3731765417846047,-2.7323485855712804,1.5595616723334484,-0.6258314,0.4868596,-0.70341134,152.23958,-81.25752,0.20112044
6773828657000.0,-3.3690139298014365,-2.242765948838192,1.9294785790367557,-0.5564982,0.09865474,-0.90285885,152.07225,-80.946686,-0.3617847
6773833575000.0,-3.4645246479594425,-1.7811307210392902,1.865804753079848,-0.47891834,-0.2828306,-1.1001683,152.02301,-80.61734,-0.9778736
6773838527000.0,-3.560695667950993,-1.316304033755809,1.8016907258048165,-0.3817908,-0.6246097,-1.2669345,152.0959,-80.19589,-1.6232682
6773843486000.0,-3.60368372712334,-0.536932541596446,0.9703216916499474,-0.24190263,-0.88453287,-1.4196508,152.2664,-79.75732,-2.3111718
6773848483000.0,-3.62197178276488,0.3957589979077098,-0.2275468122002486,-0.064751714,-1.0958922,-1.5619824,152.53194,-79.302216,-3.0332694
6773853484000.0,-3.485587921334439,0.9550382886637176,-1.005593812892821,0.13561209,-1.2910637,-1.6850718,152.86359,-78.864075,-3.8063972
6773858552000.0,-3.2351064933738827,1.250248625447424,-1.48866519495899,0.33353242,-1.3909402,-1.7745636,153.23804,-78.41383,-4.6073084
6773863648000.0,-2.917338790047442,1.4811565570441418,-1.968897016058168,0.4896085,-1.3460416,-1.8219056,153.55057,-78.23167,-5.43927
6773868518000.0,-2.5325280754228547,1.6206503638716996,-2.421049544214109,0.5458081,-1.269378,-1.8319849,153.8786,-78.00511,-6.283156
6773873505000.0,-2.1991550109682145,1.6737599684947024,-2.706545878410075,0.55863625,-1.0021244,-1.8270979,154.09688,-77.8993,-7.0707273
6773878516000.0,-1.930539833397748,1.628990772232958,-2.7992820682814687,0.5476407,-0.65087694,-1.7953329,154.25385,-77.74074,-7.857728
6773883588000.0,-1.658654744465916,1.583676590744319,-2.893147156093823,0.5204572,-0.25381452,-1.7641789,154.24863,-77.713615,-8.5196
6773888480000.0,-1.3035479946964543,1.5675944220398252,-2.9576128025546384,0.49418998,0.17287487,-1.7159204,154.11095,-77.63227,-9.177484
6773893586000.0,-0.8285681847304517,1.5818438074113648,-2.995611113948519,0.4636467,0.63407815,-1.645671,153.82751,-77.497955,-9.830766
6773898648000.0,-0.4031608699573459,1.6184145054739336,-3.004890952014218,0.45875978,1.1371256,-1.5473217,153.34149,-77.4701,-10.322841
6773903539000.0,-0.047974804170616,1.6813120314375989,-2.9789920252764617,0.44776422,1.6157386,-1.452943,152.71318,-77.39809,-10.808098
6773908602000.0,0.319701959492891,1.7464214515876777,-2.9521823204976303,0.42943826,2.053729,-1.3665055,151.89621,-77.46,-11.097488
6773913552000.0,0.9612422935123968,1.8874223590909087,-2.262678910123967,0.40042216,2.3976462,-1.2776246,150.96733,-77.486496,-11.380233
6773918488000.0,1.6309629596910664,2.03624916948052,-1.5045923052439982,0.37934732,2.6328292,-1.2153164,149.94533,-77.47289,-11.664009
6773923498000.0,1.733402,2.193708037950625,-0.567842027967152,0.3662137,2.730873,-1.1636983,148.91481,-77.49913,-11.847583
6773928493000.0,1.733402,2.3518278303274456,0.3956998957235824,0.3463606,2.7046058,-1.0897835,147.85948,-77.5005,-12.021957
6773934388000.0,2.1765475339244795,2.3289769210122544,2.5590178948042244,0.3313944,2.554333,-1.0247264,147.02652,-77.54199,-12.075979
6773938490000.0,2.509231095446846,2.301579345461791,4.120673877378699,0.29840767,2.1917844,-0.96974856,146.26915,-77.582016,-12.114066
6773943491000.0,2.469512737178208,2.012734734983037,5.209028081201357,0.23396139,1.5314392,-0.96944314,145.73532,-77.63674,-12.07537
6773948449000.0,2.384233207802834,1.7000427974655756,6.203957144202754,0.10476339,0.68783426,-1.0225884,145.37665,-77.672615,-12.042552
6773954065000.0,2.169485797345133,1.4020699407079646,6.546044130973452,-0.07880162,-0.13500121,-1.1010846,145.56187,-77.67172,-11.934095
6773958376000.0,1.9951096623893805,1.1778721024537409,6.74533111757844,-0.23426682,-0.84665924,-1.1734722,145.9603,-77.63487,-11.822769
6773963413000.0,1.5698545249621785,0.9065695984104892,6.9181238711144735,-0.3857614,-1.128879,-1.2104294,146.58472,-77.482834,-11.703834
6773968366000.0,1.1249372502269288,0.6386624228703983,7.080781639979828,-0.57879484,-1.534188,-1.2315043,147.4475,-77.24904,-11.571408
6773973390000.0,1.1480257783914534,1.3108894167869385,7.153480824067728,-0.7076874,-1.7168368,-1.2760975,148.3315,-76.87644,-11.487874
6773978352000.0,1.2198663065309414,2.0723990650755897,7.215742821830276,-1.0070114,-1.5522085,-1.2394456,149.22432,-76.41393,-11.370274
6773983425000.0,1.1045925817344069,4.711950650111553,9.840534433989715,-1.1676689,-1.1710287,-1.0418307,150.07729,-75.81833,-11.318094
6773988368000.0,0.9760186739062956,7.444146071587932,12.618648834271024,-1.1462886,-0.70249504,-0.66156703,150.84113,-75.20302,-11.200362
6773993371000.0,0.8956349862305296,7.883464479449302,9.738867346115969,-1.1368202,-0.51007247,-0.22999077,151.56183,-74.60475,-10.950718
6773998350000.0,0.8237583904049844,7.940965650035173,5.943784283368505,-1.2040154,-0.71593404,0.2171626,152.2237,-74.023125,-10.583405
6774004014000.0,-0.3045170017887725,7.257615745956232,2.765546682331113,-0.6429357,-1.207986,0.41538838,153.08348,-73.32198,-9.964649
6774008455000.0,-1.3000001360380589,6.642520555233111,0.3941926604538537,-0.16340645,-1.8310685,0.39858958,153.94289,-72.57191,-9.288401
6774013468000.0,-2.037029236006052,8.919018728252647,-1.272031066382375,-0.49541172,-2.1875083,0.27152961,154.52112,-72.36417,-8.715436
6774018457000.0,-2.664982816187594,11.995539638332072,-2.654432665978631,-0.9502009,-2.1844542,0.22999077,155.1561,-72.228065,-8.120593
6774023447000.0,-3.756170093836978,14.098141517594431,-4.986727060526839,-1.1096367,-1.8832976,0.42638394,155.51866,-72.55864,-7.8460956
6774028454000.0,-5.081259205566601,15.723520726043736,-7.798966693717694,-0.79473567,-1.1954633,0.77213365,155.76372,-72.88597,-7.5763726
6774033458000.0,-6.723502750290541,16.695311173239325,-8.423666921670412,-0.08552113,0.16065755,1.0057896,155.59206,-73.50636,-7.523707
6774038467000.0,-8.533489590377314,17.327134022313473,-7.907058834275975,0.8399397,2.5427265,1.1203269,154.93819,-74.242615,-7.5255656
6774043457000.0,-10.238984795578467,17.939294342817487,-6.923623948448498,1.8576412,4.5622473,0.8035932,153.78882,-75.35689,-7.952186
6774048433000.0,-10.75865984504808,18.340862031922278,-0.271785041816198,2.3154848,4.327675,0.45662177,152.63203,-76.403114,-8.316403
6774053571000.0,-11.147273943345324,18.736360044964027,6.133798168615108,1.9413297,2.3900104,0.02565634,151.34259,-76.94123,-9.151565
6774058549000.0,-9.857225161952258,18.903949184597774,7.127642642241661,1.2009611,0.6762278,-0.14446963,150.09665,-77.27578,-9.920541
6774063508000.0,-8.57210023086985,19.07089867102681,8.117693816350556,0.4266894,0.2144137,-0.009773844,149.34158,-76.956894,-10.551795
6774068550000.0,-7.227190635107913,19.19150230233813,7.245130141924461,-0.03176499,-0.40561453,0.11759156,149.16957,-76.55422,-11.097341
6774074235000.0,-5.684932751654676,19.294319515017985,4.992943926591726,-0.1563815,-1.1285735,0.062308256,149.18835,-76.10122,-11.587031
6774078472000.0,-4.498771346833542,19.360580586483103,3.5156851583729662,-0.24831672,-1.35551,-0.005192355,149.38736,-75.75262,-11.761406
6774083664000.0,-2.9927748016186904,19.42696064221944,1.9930936208844383,-0.1957823,-1.6658295,-0.09254608,149.82289,-75.40862,-11.909222
6774088993000.0,-1.4700338096612295,19.490279954830616,0.4534143291091593,-0.03359759,-1.6847663,-0.05467244,150.2212,-75.383095,-11.856123
6774093543000.0,-0.3629032994144709,19.50394803304057,-0.6673844972187368,0.14935656,-1.4248432,0.08674286,150.62057,-75.37868,-11.792551
6774098509000.0,0.8086215559808612,19.51792329849098,-1.788328594479205,0.31642818,-1.0571023,0.26358834,150.99437,-75.65916,-11.530613
6774103495000.0,1.6082620413875597,19.52231747478837,-1.867413904103791,0.54428095,-0.6478226,0.43004912,151.27142,-75.99665,-11.2550745
6774109424000.0,2.509867625442212,19.527513727975272,-1.9056209218581488,0.7959574,-0.3286455,0.5503896,151.47513,-76.52121,-10.860284
6774113566000.0,2.758511003408896,19.530919514683152,-1.5002981461686415,0.9950995,-0.1740966,0.5907067,151.60602,-77.07451,-10.466342
6774118490000.0,3.054097674849734,19.53496830602782,-1.0184513698540272,1.1093313,-0.1554652,0.6041457,151.71364,-77.72857,-9.975293
6774123541000.0,3.209375052097595,19.48689403651044,-0.4829117714288222,1.171945,-0.22815818,0.625526,151.80374,-78.393745,-9.491294
6774128491000.0,3.259301454151308,19.403683294014392,0.0704400528207828,1.1878275,-0.35827246,0.6597345,151.90672,-79.05192,-9.015978
6774133538000.0,3.254920117840852,18.91215487430309,0.6313654484541308,1.1701124,-0.5155703,0.7122689,152.07634,-79.69987,-8.503554
6774138544000.0,3.128566495803345,17.527123820476433,1.1805179497840852,1.1313224,-0.6542367,0.73548174,152.27922,-80.32567,-8.004653
6774143904000.0,3.0737470729333176,15.734218758797567,1.6303740511988547,1.0665708,-0.8228355,0.73975784,152.57011,-80.895,-7.506593
6774148482000.0,3.1365063850769417,13.78083481677204,1.8264969255397827,0.96944314,-1.0125091,0.7021896,152.90762,-81.428925,-7.0267506
6774154495000.0,3.218937958672313,11.215151626863893,2.0840956244065367,0.8042041,-1.1728612,0.6417139,153.31018,-81.85159,-6.5957055
6774158903000.0,3.2666672895141344,9.413064443763252,2.2500081475530034,0.634689,-1.20371,0.6032294,153.72998,-82.23866,-6.178265
6774163507000.0,3.1342366865812723,8.661325845388692,2.0942073640547703,0.5030475,-1.169807,0.6261369,154.17624,-82.589645,-5.767078
6774168579000.0,2.988344415061837,7.833172463339222,1.9225693158568904,0.4288274,-1.070236,0.6545421,154.63333,-82.84617,-5.390178
6774173480000.0,2.736768386083214,7.11449584045911,1.6536960477761835,0.37812558,-1.0042624,0.7144069,155.08896,-83.07986,-4.9987664
6774178500000.0,2.43623454697684,6.409965437507686,1.338381812072146,0.27672195,-0.9431759,0.75747293,155.51755,-83.2733,-4.607639
6774183541000.0,2.2354651461494583,5.734594240444952,0.8284420469182354,0.1908954,-0.8668178,0.78038037,155.91565,-83.44792,-4.234374
6774188517000.0,2.0678281626925274,5.077638762977752,0.2666318498374216,0.105068825,-0.743423,0.7788532,156.2836,-83.583694,-3.859462
6774193559000.0,1.9707518329921796,4.3429565181230085,-0.0507301669873515,0.020463986,-0.5839872,0.7883216,156.59544,-83.69116,-3.5156431
6774198471000.0,1.911706102375205,3.593529970049242,-0.2369512977673071,-0.070554934,-0.50335294,0.7874053,156.89687,-83.75493,-3.1773026
6774203473000.0,1.8918288701442527,2.92440642998604,-0.5629370973271289,-0.17715092,-0.41141775,0.77732605,157.13208,-83.82226,-2.872684
6774208606000.0,1.9009787949557932,2.3067893475849237,-0.9975565815932994,-0.29046643,-0.2519819,0.8042041,157.32704,-83.85268,-2.5630877
6774213600000.0,1.8495353784185304,1.7591599551916932,-1.3506342299840255,-0.3912592,-0.035124753,0.8720101,157.47063,-83.86375,-2.257531
6774218543000.0,1.728543253841853,1.2789725755191692,-1.6190854409984026,-0.43279803,0.21655174,0.93309665,157.56224,-83.84543,-1.9531397
6774224056000.0,1.5876857488611844,0.7349825675905058,-1.901665493119156,-0.45112398,0.4709771,0.93523467,157.58234,-83.83834,-1.6547056
6774228479000.0,1.3676518732757932,0.1459687767905378,-1.8238073318628627,-0.43951756,0.7079928,0.8961393,157.54199,-83.81411,-1.3604351
6774233579000.0,1.1139388356349396,-0.5332015449548471,-1.7340319254854952,-0.4373795,0.8918633,0.83291477,157.43877,-83.799774,-1.1059947
6774238524000.0,0.9103226874479478,-1.0270076124747174,-1.635634279734285,-0.42546764,1.02717,0.81153446,157.28973,-83.78109,-0.86050814
6774243606000.0,0.755908792980369,-1.3213590780190363,-1.519823833690264,-0.398895,1.1279627,0.8078693,157.10744,-83.75653,-0.6367729
6774248530000.0,0.6247131126494277,-1.558608005934718,-1.414292172721492,-0.39003745,1.2092078,0.79076505,156.79541,-83.74056,-0.39678755
6774253490000.0,0.517320793418115,-1.733120528189911,-1.3169679245937544,-0.37659842,1.2534955,0.7663304,156.46805,-83.725426,-0.16113718
6774259470000.0,0.3878437633771372,-1.943520706231454,-1.1996294157623288,-0.3622431,1.25319,0.73639804,156.1198,-83.69144,0.051444985
6774263566000.0,0.2716492335572714,-2.120803125637139,-1.0911054640075797,-0.36682457,1.2370021,0.6881397,155.76651,-83.65016,0.251724
6774268645000.0,0.1149670480331596,-2.355826380104216,-0.9436398387967788,-0.38087448,1.1777482,0.6646214,155.42746,-83.605034,0.4526507
6774273532000.0,-0.0433905313157639,-2.5617977100734524,-0.8120728501896843,-0.3921755,1.0812315,0.6246097,155.09608,-83.538574,0.6181312
6774278499000.0,-0.2123300673500686,-2.7499349528856243,-0.6892077365727661,-0.41355577,0.9639453,0.58001655,154.78955,-83.46282,0.77856135
6774283816000.0,-0.4102351751121076,-2.9577946450672647,-0.5480252524887892,-0.41386122,0.8790351,0.5390886,154.49376,-83.36896,0.9075532
