timestamp,acc_x,acc_y,acc_z,gyro_x,gyro_y,gyro_z,ori_azimuth,ori_pitch,ori_roll
5249604858000.0,0.1335544429289023,9.917973412553408,-0.1263570369354988,-1.1713341,0.74464476,0.032986723,82.719345,-105.56953,13.52903
5249609833000.0,0.128554383478114,9.918449593433447,-0.1223093698249818,-1.1713341,0.7507534,0.041233405,82.96371,-105.28162,13.437889
5249614832000.0,0.1235302031375128,9.918928071467478,-0.1182421762801629,-1.1893547,0.75747293,0.03176499,82.87954,-104.932144,13.286222
5249619834000.0,0.118503007685685,9.91940683664576,-0.1141725419310561,-1.1792754,0.7461719,0.034208454,82.80332,-104.60794,13.143337
5249624864000.0,0.1134476711957422,9.919888281837034,-0.1100801267419304,-1.1737776,0.7339546,0.03145956,82.72866,-104.29331,12.999938
5249629812000.0,0.1084747477459933,9.920361878418827,-0.1060544268700032,-1.1569787,0.76052725,0.026572637,82.649635,-103.99693,12.860757
5249634783000.0,0.1034787084435071,9.920837676439868,-0.1020100141652032,-1.1921035,0.7305948,0.031154128,82.59439,-103.7124,12.724808
5249640484000.0,0.0977489920758801,9.921383346228229,-0.097371672417051,-1.1624765,0.7699956,0.03390302,82.5146,-103.449356,12.592489
5249644801000.0,0.093410247020794,9.921796546802929,-0.0938593550469803,-1.205848,0.7507534,0.026572637,82.46414,-103.18811,12.459099
5249649808000.0,0.0883780263835886,9.922275790554956,-0.0897856526907273,-1.1817188,0.8045095,0.04153884,82.38498,-102.95676,12.338166
5249654790000.0,0.0833709316732715,9.922752641438244,-0.0857322903702056,-1.2428054,0.7538077,0.034208454,82.36064,-102.6988,12.179198
5249660219000.0,0.0779145853901901,9.923272276814671,-0.0813152482108093,-1.1945469,0.7852673,0.046120327,82.30093,-102.47495,12.037541
5249664851000.0,0.0732592536563104,9.923715627535543,-0.0775466463905249,-1.2296717,0.7706065,0.049785517,82.27256,-102.24931,11.894237
5249669839000.0,0.0682461287235401,9.924193052707327,-0.0734884024614277,-1.2394456,0.7635816,0.059253927,82.23633,-102.04702,11.7611
5249674885000.0,0.0631747116403887,9.9246760293346,-0.069382969649434,-1.2311989,0.754724,0.07513642,82.20819,-101.85891,11.634676
5249679871000.0,0.0581635967817695,9.925153263076885,-0.0653263529231953,-1.237613,0.74281216,0.07513642,82.18599,-101.67965,11.509966
5249684852000.0,0.053157507108528,9.92563001824542,-0.0612738042041028,-1.2275337,0.7318166,0.083383106,82.16925,-101.51982,11.395494
5249690358000.0,0.0476237729706304,9.92615702365758,-0.0567941147346543,-1.215011,0.72356987,0.089491755,82.15783,-101.37006,11.283605
5249694949000.0,0.0430096477568476,9.926596450073712,-0.0530588705729691,-1.221425,0.6808093,0.100792766,82.1623,-101.23417,11.17833
5249699850000.0,0.0380839610496489,9.927065548062266,-0.0490714099682166,-1.1774428,0.6221663,0.1001819,82.176056,-101.107994,11.07432
5249704848000.0,0.0330607857461232,9.92754393038155,-0.0450050300248269,-1.0790935,0.559858,0.09407325,82.20541,-100.99284,10.974605
5249709876000.0,0.0280074593303315,9.928025184143324,-0.0409142420385597,-0.9575313,0.49235737,0.089186326,82.25483,-100.88614,10.877634
5249714864000.0,0.0229943343975612,9.928502609315109,-0.0368559981094625,-0.8142834,0.42485678,0.08857546,82.323204,-100.78621,10.782835
5249719843000.0,0.0179902547984708,9.928979173054149,-0.0328050765932285,-0.68661255,0.39767328,0.08307768,82.39953,-100.689,10.688034
5249724845000.0,0.012963059346643,9.929457938232428,-0.0287354422441218,-0.5561928,0.2947425,0.063224554,82.51693,-100.59181,10.591583
5249729852000.0,0.0079308387094375,9.929937181984458,-0.0246617398878688,-0.4016439,0.06352998,0.017715093,82.67842,-100.489044,10.488932
5249734844000.0,0.0029136936283651,9.930414990015242,-0.0206002415530546,0.03604105,0.035430185,0.018325957,82.808685,-100.397575,10.39667
5249739828000.0,-0.002095411156103,9.930892032328028,-0.0165452520296744,0.07941248,0.060170226,0.022907447,82.98714,-100.29679,10.295463
5249744813000.0,-0.0071055209776467,9.931369170355564,-0.0124894489048649,0.024740042,0.043676864,0.025045475,83.18085,-100.20051,10.196448
5249749800000.0,-0.0121176408733415,9.9318464998126,-0.0084320185771969,0.018936822,0.050701816,0.018020526,83.35574,-100.10789,10.098818
5249754800000.0,-0.0171428262510182,9.93232507356138,-0.0043640114309487,0.023823744,0.044898596,0.021380283,83.53464,-100.02247,10.007269
5249759841000.0,-0.0222092181487918,9.932807571614902,-0.0002626466261013,0.03268129,0.055283304,0.021991149,83.70238,-99.938065,9.915535
5249764798000.0,-0.0271911869322206,9.933282029629444,0.0037703756586891,0.026572637,0.044898596,0.024740042,83.87358,-99.85858,9.827744
5249769787000.0,-0.0322053169020664,9.93375955051598,0.0078294331892156,0.029626964,0.06078109,0.029626964,84.03002,-99.783646,9.743251
5249775753000.0,-0.0382013680947102,9.934330584713026,0.012683379316119,0.019242255,0.06872234,0.01863139,84.1877,-99.707596,9.657204
5249779808000.0,-0.0422767934360061,9.934718708023288,0.0159825331117263,0.025961773,0.07360926,0.0290161,84.33794,-99.64255,9.580938
5249784885000.0,-0.047379366668499,9.9352046518078,0.0201131875680267,0.018020526,0.070554934,0.022907447,84.484375,-99.57173,9.499027
5249789838000.0,-0.0523573153036256,9.935678726963344,0.0241429554471002,0.011911872,0.070554934,0.02076942,84.62505,-99.50784,9.423342
5249794810000.0,-0.0573543596431873,9.936154620699131,0.0281881817533295,0.019242255,0.058948494,0.025350908,84.76658,-99.44685,9.349808
5249799956000.0,-0.0625262804338922,9.93664716880138,0.0323749747082481,0.009468411,0.06872234,0.02687807,84.89855,-99.3858,9.276961
5249804792000.0,-0.0673866397311811,9.9371100453312,0.0363095512200994,0.011911872,0.07574729,0.02321288,85.03137,-99.32759,9.205779
5249809811000.0,-0.072430920813293,9.937590437660228,0.0403930167935034,0.0106901415,0.071776666,0.019242255,85.161446,-99.27117,9.136794
5249814816000.0,-0.0774611313763474,9.93806948998276,0.0444650919468978,0.014049901,0.06719518,0.027794369,85.286736,-99.219574,9.072251
5249819791000.0,-0.0824611908271357,9.938545670862798,0.0485127590574148,0.012217305,0.061086524,0.023823744,85.41054,-99.1649,9.004766
5249824908000.0,-0.0876039655426501,9.939035443237302,0.0526759575708852,0.013439035,0.062002823,0.023823744,85.53084,-99.11582,8.942589
5249829795000.0,-0.0925155817307913,9.93950320121936,0.0566520277556282,0.011911872,0.06261369,0.014660766,85.65007,-99.06446,8.878271
5249834807000.0,-0.0975528275533745,9.93998292354514,0.0607297981190275,0.009773844,0.052534413,0.013133603,85.769424,-99.016846,8.817687
5249840538000.0,-0.1033126950332675,9.940531464775994,0.0653925479100572,0.0061086523,0.060170226,0.02107485,85.88082,-98.97071,8.759048
5249844834000.0,-0.1042539351241746,9.94017952797788,0.0546008793519752,0.009468411,0.05681047,0.02076942,85.995575,-98.92366,8.699053
5249849804000.0,-0.1018695921018124,9.93898735737544,0.0274193709435833,0.004581489,0.057726767,0.01863139,86.104416,-98.87889,8.642426
5249854845000.0,-0.0994511870362735,9.937778155764397,-0.0001504447277855,-0.0030543262,0.056505036,0.015882496,86.21625,-98.78943,8.541755
5249859835000.0,-0.0970572490721714,9.936581187694744,-0.0274413354637765,0.00030543262,0.058337633,0.022296581,86.3248,-98.70514,8.446219
5249864840000.0,-0.0946561149017643,9.935380621524684,-0.0548142629454669,-0.0009162979,0.05222898,0.023518313,86.43374,-98.62063,8.351439
5249869845000.0,-0.0922549807313572,9.93418005535462,-0.0821871904271573,0.0027488936,0.060170226,0.021380283,86.535995,-98.54018,8.260649
5249874809000.0,-0.0898735161915169,9.932989323992349,-0.1093358841372694,0.0027488936,0.064446285,0.024740042,86.639114,-98.4636,8.174381
5249879795000.0,-0.0874814972157627,9.931793315416137,-0.1366048984077406,0.007941248,0.06536258,0.020463986,86.738815,-98.38728,8.087993
5249884887000.0,-0.0850386250487872,9.9305718802637,-0.1644536390144873,-0.0033597588,0.05131268,0.016493361,86.83975,-98.3129,8.005043
5249889825000.0,-0.0826696339332087,9.929387385608802,-0.1914601356987205,-0.009773844,0.05222898,0.015577064,86.93421,-98.24104,7.92438
5249894799000.0,-0.0802833719224985,9.92819425551292,-0.2186635205726322,-0.0015271631,0.05131268,0.02321288,87.03145,-98.17279,7.8472795
5249899861000.0,-0.0778548921681327,9.926980016561302,-0.2463481876879802,-0.00061086525,0.0571159,0.015882496,87.12448,-98.1011,7.7680874
5249904841000.0,-0.0754657516749005,9.925785447225255,-0.2735843872601717,-0.007941248,0.062002823,0.025350908,87.216545,-98.037926,7.6980667
5249909902000.0,-0.0730377516676218,9.924571448147,-0.3012635852591397,-0.00580322,0.058948494,0.015577064,87.30719,-97.97014,7.622615
5249915667000.0,-0.0702720097110989,9.923188578222842,-0.3327930411895983,-0.004276057,0.05375614,0.012217305,87.395584,-97.90777,7.5538
5249919853000.0,-0.0682637884049403,9.922184468335152,-0.355686762356103,-0.00580322,0.05589417,0.017715093,87.48111,-97.84676,7.486833
5249924844000.0,-0.0658693706937511,9.920987260392142,-0.382983122208474,-0.00030543262,0.062308256,0.02076942,87.565216,-97.786575,7.4202375
5249929861000.0,-0.0634624795583001,9.919783815741752,-0.4104216790867239,-0.0015271631,0.054061573,0.011301007,87.65129,-97.72533,7.3533974
5249934853000.0,-0.061067582100024,9.91858636792538,-0.4377235080554748,0.0027488936,0.04795292,0.015882496,87.7336,-97.67119,7.2933817
5249939825000.0,-0.0586822795834877,9.91739371757622,-0.4649159546966266,0.0009162979,0.040927973,0.016798794,87.816864,-97.61431,7.231348
5249944832000.0,-0.0562801859189067,9.916192671659436,-0.4922998204110769,0.010995574,0.044898596,0.015882496,87.89721,-97.561035,7.1719203
5249949844000.0,-0.0538756935188907,9.914990426375851,-0.5197110317074269,0.015882496,0.049480084,0.019547688,87.97797,-97.50997,7.115686
5249954875000.0,-0.0514620859242217,9.913783623498412,-0.5472261562149963,0.008857546,0.034513887,0.015882496,88.06159,-97.45778,7.058542
5249959909000.0,-0.0490470390882918,9.912576101000893,-0.5747576880717056,0.028099801,0.03176499,0.019242255,88.13907,-97.41257,7.0062137
5249964858000.0,-0.0466727707547564,9.911388967739027,-0.6018243450361183,0.0290161,0.029932396,0.020463986,88.21905,-97.364624,6.953595
5249969879000.0,-0.0442639606309575,9.910184563595196,-0.629284778379888,0.027794369,0.018936822,0.021380283,88.300964,-97.3202,6.9031725
5249974867000.0,-0.0418709821610293,9.908988075272266,-0.6565647308831191,0.044593163,0.01282817,0.019547688,88.3805,-97.278206,6.853751
5249979798000.0,-0.0395053492750598,9.907805259730893,-0.6835329437526927,0.052839845,0.0021380284,0.025350908,88.46312,-97.23859,6.8079367
5249984808000.0,-0.0371018163692178,9.906603494194028,-0.7109332168162827,0.049785517,0.0070249503,0.03481932,88.54145,-97.20092,6.764087
5249989843000.0,-0.0346862897862009,9.905395731823146,-0.7384702177893718,0.052839845,-0.0015271631,0.03359759,88.6251,-97.16417,6.7197747
5249994850000.0,-0.0322841961216198,9.904194685906363,-0.7658540835038223,0.06505715,0.008246681,0.026267206,88.70054,-97.129654,6.677809
5250000369000.0,-0.0296364719484976,9.902870824828929,-0.7960381368048111,0.065973446,0.004276057,0.026267206,88.780945,-97.09665,6.6383905
5250004804000.0,-0.0275087936176774,9.901806986474435,-0.8202936679499253,0.06658431,0.0021380284,0.030543262,88.85646,-97.064735,6.59935
5250009843000.0,-0.0250913480463125,9.900598264610114,-0.8478525453885344,0.0720821,0.0018325958,0.035124753,88.93113,-97.03418,6.561447
5250014692000.0,-0.0227650544214765,9.899435118684314,-0.8743722907149514,0.06994407,0.00030543262,0.03023783,89.00522,-97.002144,6.5230217
5250019703000.0,-0.0203610417685475,9.898233113274088,-0.9017780328949214,0.08246681,-0.009162978,0.03970624,89.080505,-96.9778,6.4908285
5250024707000.0,-0.0179603873452274,9.897032786977388,-0.929145491260232,0.07727446,-0.0076358155,0.03604105,89.151405,-96.947136,6.45455
5250029683000.0,-0.0155731658403432,9.895839177134786,-0.9563598143669034,0.086437434,-0.0012217305,0.046120327,89.22247,-96.92592,6.4256783
5250034682000.0,-0.0131749101524581,9.894640050204888,-0.983699927150314,0.080634214,-0.017104227,0.03940081,89.297844,-96.89756,6.3915176
5250039724000.0,-0.0107560253398322,9.893430608720482,-1.0112752119380628,0.07422013,-0.023823744,0.04520403,89.36767,-96.87645,6.3647327
5250044694000.0,-0.0131563890961223,9.892483047039452,-1.0058658351883265,0.08093964,-0.030848695,0.04153884,89.440544,-96.85222,6.3338695
5250049680000.0,-0.020261403559206,9.891772556011864,-0.9684460941250284,0.07238753,-0.022296581,0.043982297,89.50964,-96.82908,6.30721
5250054776000.0,-0.0275231672382822,9.891046390292534,-0.9302008072300092,0.0711658,-0.015882496,0.049785517,89.54802,-96.82114,6.254785
5250059796000.0,-0.0346766314590363,9.890331054360226,-0.8925258974550883,0.08124508,-0.009773844,0.048563786,89.582054,-96.814644,6.2029986
5250064764000.0,-0.0417559960504121,9.889623128282198,-0.8552412457097084,0.086132,0.0061086523,0.047036625,89.60974,-96.810974,6.154785
5250069754000.0,-0.0488667104849864,9.88891206726582,-0.8177914847979842,0.08460484,0.02107485,0.03268129,89.634026,-96.80605,6.104335
5250074796000.0,-0.056051524548939,9.888193596395164,-0.779951465856719,0.07086037,-0.0076358155,0.03726278,89.66503,-96.806435,6.060043
5250079774000.0,-0.0631451390690414,9.887484245345158,-0.7425917644902736,0.08399397,0.003970624,0.03390302,89.67844,-96.8061,6.0117445
5250084792000.0,-0.0702957533040502,9.886769194407243,-0.7049318646395659,0.076358154,0.0015271631,0.040317107,89.702934,-96.80628,5.968317
5250089797000.0,-0.0774278426317144,9.886055995932905,-0.6673695292962434,0.065973446,0.009773844,0.027183503,89.71929,-96.80344,5.920101
5250094862000.0,-0.0846454315317382,9.8853342476267,-0.6293568962265272,0.070554934,0.01038471,0.029321533,89.73764,-96.80824,5.8792105
5250100742000.0,-0.09302438962298,9.884496364104397,-0.5852277190399666,0.06291912,0.01282817,0.036957346,89.75183,-96.80909,5.8376746
5250104846000.0,-0.0988725603723774,9.883911555605154,-0.5544273545546528,0.06658431,0.01740966,0.025961773,89.76384,-96.80931,5.7927656
5250109881000.0,-0.1060473994862214,9.883194082214882,-0.5166398703481335,0.06169739,0.018936822,0.028405234,89.77538,-96.81318,5.755051
5250114855000.0,-0.1131353140348331,9.882485301153666,-0.4793101888301143,0.0580322,0.01985312,0.027794369,89.78457,-96.8153,5.714623
5250119840000.0,-0.1202389035050441,9.881774952623278,-0.4418979527289229,0.06383542,0.030848695,0.026572637,89.78958,-96.81945,5.676108
5250124819000.0,-0.1273339430180192,9.881065459076074,-0.4045307464003709,0.058643065,0.03756821,0.029626964,89.79479,-96.82293,5.6397057
5250129865000.0,-0.1345244570534624,9.880346418216629,-0.3666607076106795,0.061391957,0.045814894,0.028710667,89.79556,-96.82811,5.603165
5250134859000.0,-0.1416408714595274,9.87963478721146,-0.3291809268505291,0.060170226,0.0421497,0.025045475,89.79716,-96.83253,5.5676255
5250139854000.0,-0.1487587108584649,9.878923013709093,-0.2916936411282721,0.06566802,0.05589417,0.029932396,89.79095,-96.84093,5.53578
5250144937000.0,-0.1560019496301966,9.878198700453332,-0.2535459187406381,0.053450707,0.07849618,0.029932396,89.7825,-96.84471,5.5025887
5250149866000.0,-0.1630257394995387,9.877496331766013,-0.216553960517414,0.057421334,0.082161374,0.021685716,89.774994,-96.85192,5.4692535
5250154845000.0,-0.1701207790125137,9.876786838218807,-0.1791867541888619,0.056199603,0.09712757,0.028405234,89.757744,-96.86008,5.441742
5250159838000.0,-0.177235768425706,9.87607534971084,-0.1417144783908182,0.047647487,0.1142318,0.029626964,89.73829,-96.86503,5.411356
5250164859000.0,-0.1843906576393327,9.875359871281336,-0.1040320636537907,0.046120327,0.124311075,0.02565634,89.71641,-96.8718,5.3823895
5250170861000.0,-0.1929434648610391,9.874504603100911,-0.0589872810902298,0.04520403,0.13164146,0.032986723,89.690636,-96.88042,5.358055
5250174915000.0,-0.1987203859668035,9.873926919461557,-0.0285621647102439,0.04428773,0.14935656,0.027183503,89.65865,-96.88541,5.330053
5250179803000.0,-0.2056857511283664,9.87323039315934,0.0081220900666112,0.03848451,0.15515977,0.035430185,89.628555,-96.89445,5.3087106
5250184813000.0,-0.2128249654203939,9.87251648219901,0.0457219502204666,0.035124753,0.16187929,0.038789943,89.59307,-96.90182,5.2854223
5250189830000.0,-0.2199741546625301,9.871801573758296,0.0833743451090678,0.04642576,0.1695151,0.043676864,89.55613,-96.913315,5.2656465
5250194910000.0,-0.2272131184556438,9.871077687994129,0.1214995526103821,0.04428773,0.18081611,0.03940081,89.51637,-96.920746,5.244966
5250199804000.0,-0.2341870335744427,9.870380306708729,0.1582288371598768,0.043676864,0.17745635,0.041233405,89.47919,-96.933174,5.2277207
5250204788000.0,-0.241289198051781,9.869670100675537,0.1956335682989616,0.042760566,0.17073683,0.041233405,89.439964,-96.94409,5.2093863
5250209890000.0,-0.2485595116880933,9.868943079973018,0.2339238849666203,0.04550946,0.17379116,0.04550946,89.39942,-96.957115,5.193373
5250214829000.0,-0.2555975514861619,9.868239286313722,0.2709908928109099,0.04795292,0.18173242,0.054367006,89.35983,-96.97108,5.179057
5250219847000.0,-0.2627481657211707,9.867524235375807,0.3086507926616177,0.056199603,0.18142697,0.062308256,89.32216,-96.98753,5.165952
5250224891000.0,-0.2699358297708686,9.866805479510758,0.3465058215270959,0.044898596,0.17837265,0.06383542,89.28342,-97.00124,5.1539187
5250229973000.0,-0.2771776435497277,9.866081308752197,0.3846460389526234,0.044898596,0.18692477,0.057726767,89.24179,-97.01874,5.1424417
5250234826000.0,-0.2840931339607475,9.865389769851898,0.4210676200557492,0.039095376,0.18997909,0.061391957,89.203255,-97.03523,5.1341367
5250240674000.0,-0.2924264922800643,9.864556446239918,0.4649566384549,0.03726278,0.19303341,0.058948494,89.16236,-97.049934,5.1227503
5250244858000.0,-0.2930856915936571,9.86618577908353,0.483306107747534,0.03756821,0.19242255,0.058337633,89.12223,-97.06507,5.113089
5250249858000.0,-0.2751493569701086,9.875990973240103,0.4591518437944812,0.018936822,0.18936823,0.059864793,89.08235,-97.07604,5.10352
5250254831000.0,-0.2573098785535272,9.885743219348234,0.4351280128667749,0.022602014,0.18325958,0.05100725,89.10138,-96.97167,5.0453844
5250259838000.0,-0.2393484330615058,9.895562140776626,0.4109399329441878,0.01038471,0.18448131,0.04795292,89.12019,-96.865005,4.9912415
5250264854000.0,-0.2213547021671619,9.9053987115545,0.3867083753464852,0.0061086523,0.17104226,0.03604105,89.14526,-96.75989,4.9334035
5250269835000.0,-0.2034865256151829,9.91516664597328,0.362645897596454,-0.0027488936,0.1685988,0.027183503,89.167564,-96.654434,4.8776774
5250274852000.0,-0.1854892074539143,9.925005177789986,0.3384095091459608,-0.014049901,0.14202617,0.025350908,89.20117,-96.54958,4.8215795
5250279852000.0,-0.1675528728303658,9.93481037194656,0.314255245192908,-0.022907447,0.12064589,0.01985312,89.234314,-96.44365,4.7636747
5250284836000.0,-0.1496739344776126,9.944584189481832,0.2901782748845049,-0.022602014,0.102319926,0.009773844,89.27455,-96.33865,4.705108
5250289916000.0,-0.1314506185000873,9.954546266744911,0.2656375427082033,-0.03268129,0.076358154,0.00580322,89.32347,-96.23279,4.647809
5250295086000.0,-0.1129044484993382,9.964684837502809,0.2406620337807466,-0.040927973,0.04642576,-0.0009162979,89.37873,-96.12724,4.588162
5250300165000.0,-0.0946847197887376,9.974644953727056,0.2161261324572356,-0.05100725,0.01985312,-0.0033597588,89.440575,-96.02212,4.529938
5250304847000.0,-0.0778891360472468,9.983826537535272,0.1935080796915969,-0.044898596,0.014049901,-0.009162978,89.504776,-95.91888,4.470465
5250310343000.0,-0.0581735170290423,9.994604406952178,0.1669577127544013,-0.043982297,-0.025045475,-0.014966198,89.585884,-95.81475,4.410959
5250314827000.0,-0.042088212138644,10.003397705071794,0.1452961688413035,-0.051618114,-0.039095376,-0.019547688,89.66112,-95.71163,4.3523445
5250319855000.0,-0.0240514340412036,10.013257808315643,0.1210066410101136,-0.05009095,-0.06352998,-0.01740966,89.75008,-95.61294,4.29493
5250324906000.0,-0.0059321488044949,10.023163015452615,0.0966060035647396,-0.050701816,-0.084910266,-0.021685716,89.84142,-95.51236,4.2360497
5250329865000.0,0.0118571078751404,10.032887807017106,0.0726498045761018,-0.048258353,-0.10903945,-0.023518313,89.93995,-95.41584,4.1797953
5250334936000.0,0.0300481384503433,10.042832234930705,0.0481525500749157,-0.053450707,-0.13133603,-0.025961773,90.04317,-95.31891,4.1236315
5250339855000.0,0.0476939044529904,10.05247858494194,0.0243895851979023,-0.056199603,-0.14660765,-0.028405234,90.15032,-95.22453,4.0684457
5250344866000.0,0.0656696990127107,10.06230535052566,0.0001821818641528,-0.05467244,-0.17104226,-0.0290161,90.26543,-95.131905,4.014358
5250350004000.0,0.0841010764718691,10.072381168040954,-0.0246387397740042,-0.039095376,-0.18142697,-0.028099801,90.37972,-95.043076,3.9617531
5250354845000.0,0.1014670356543888,10.08187455702335,-0.04802489813335,-0.04184427,-0.19792034,-0.023823744,90.5016,-94.953835,3.9111917
5250359827000.0,0.1193387994732925,10.091644452480958,-0.0720922067361718,-0.04337143,-0.22204952,-0.026572637,90.627174,-94.86795,3.8602788
5250364896000.0,0.137522655514646,10.101584958316892,-0.0965797995317768,-0.04550946,-0.23793201,-0.025350908,90.75383,-94.78507,3.8132026
5250369843000.0,0.1552688649911849,10.111286217415408,-0.1204780282869272,-0.044593163,-0.24617869,-0.028099801,90.88358,-94.70262,3.7655587
5250374854000.0,0.1732446595509053,10.121112982999126,-0.1446854316206767,-0.05131268,-0.26175576,-0.03726278,91.01835,-94.61895,3.7176352
5250379911000.0,0.1913854683891622,10.131029956369083,-0.1691150541827944,-0.05681047,-0.26542094,-0.032375857,91.150604,-94.539925,3.6745405
5250384785000.0,0.2088698073801972,10.140588059632911,-0.1926606306842302,-0.061391957,-0.2779437,-0.03634648,91.28795,-94.45747,3.6275394
5250390949000.0,0.2309817207041078,10.152675902989136,-0.2224380072855538,-0.07513642,-0.28588495,-0.026267206,91.423645,-94.37877,3.5874724
5250394869000.0,0.2450438070489699,10.160363175207891,-0.2413749502247471,-0.07544186,-0.28710666,-0.031154128,91.559105,-94.298874,3.5434053
5250399957000.0,0.2632958211618929,10.17034094078162,-0.2659543292233737,-0.08277224,-0.2929099,-0.03268129,91.69664,-94.22058,3.5044017
5250404790000.0,0.2806330822090149,10.179818641453364,-0.2893018407603946,-0.10140363,-0.28955013,-0.027183503,91.830284,-94.14291,3.4674842
5250409858000.0,0.2988133509834437,10.189757186250468,-0.3137846027032089,-0.099571034,-0.28619036,-0.027183503,91.963875,-94.0676,3.4298377
5250414811000.0,0.3165810840615308,10.19947021158197,-0.337711816575103,-0.109650314,-0.28405234,-0.022907447,92.09541,-93.99205,3.3962865
5250419794000.0,0.3344564351473593,10.209242068078412,-0.3617839560307155,-0.11362094,-0.2843578,-0.020463986,92.22513,-93.91946,3.3634381
5250424876000.0,0.352686925658734,10.219208067419151,-0.3863343499125983,-0.1133155,-0.2657264,-0.020463986,92.34736,-93.84869,3.3324645
5250429837000.0,0.3704833568722188,10.228936781061304,-0.4103002106068174,-0.12370021,-0.26450464,-0.017104227,92.47328,-93.77959,3.304068
5250434789000.0,0.3882475026833812,10.238647845353976,-0.4342225936259209,-0.122478485,-0.24495697,-0.025045475,92.58716,-93.71167,3.273802
5250440215000.0,0.407712013016856,10.249288442052691,-0.4604348008677738,-0.118507855,-0.22235495,-0.01985312,92.69866,-93.649284,3.2492468
5250444915000.0,0.4245948509273813,10.253008738132662,-0.4740173238887142,-0.121256754,-0.22235495,-0.018020526,92.80977,-93.58585,3.2224367
5250449895000.0,0.4425863651053128,10.232018531279472,-0.4470300541873624,-0.13133603,-0.22693644,-0.018020526,92.91468,-93.52543,3.197633
5250454819000.0,0.4603755650675888,10.211264358880856,-0.4203462557918893,-0.13469578,-0.2312125,-0.02443461,92.98289,-93.49807,3.1713028
5250460084000.0,0.4799193422763378,10.188488873327758,-0.3894121031709866,-0.1414153,-0.24495697,-0.026572637,93.05401,-93.47081,3.147024
5250464959000.0,0.5140757536214465,10.14945320756689,-0.2869428691356605,-0.14966199,-0.27030787,-0.01863139,93.1286,-93.44456,3.1246352
5250469906000.0,0.5465677933445141,10.10931412940242,-0.1822239133665813,-0.15057829,-0.28069258,-0.019242255,93.207695,-93.386795,3.071099
5250474872000.0,0.5549636603760261,10.063136773060288,-0.0688796295392356,-0.16890424,-0.29626966,-0.014049901,93.294426,-93.331055,3.0231838
5250479827000.0,0.5633409300379557,10.017061702445051,0.0442135896239738,-0.172264,-0.3136793,-0.022296581,93.39755,-93.247894,2.9500782
5250484796000.0,0.535275571385627,9.995860660638796,0.0938180720244246,-0.18509217,-0.3304781,-0.0106901415,93.50387,-93.170296,2.88667
5250489820000.0,0.4976100919805855,9.980794560122122,0.1277169987693752,-0.18417588,-0.344528,-0.008552114,93.612915,-93.091675,2.8207042
5250495937000.0,0.4394380201251153,9.971750195877345,0.1692887938108911,-0.18081611,-0.35216382,-0.0033597588,93.74502,-92.98629,2.7341359
5250499804000.0,0.3900650714880525,9.975547993590402,0.1958742264721567,-0.1966986,-0.3594942,0.00061086525,93.879616,-92.88232,2.6510727
5250504801000.0,0.3260811493277553,9.972359756058855,0.2242702409578765,-0.18784106,-0.36743546,0.0076358155,94.02897,-92.75624,2.5413816
5250509828000.0,0.2612613298595884,9.949210077803423,0.2381602026178111,-0.18906279,-0.37415496,0.003970624,94.17844,-92.62949,2.4339216
5250514815000.0,0.1964207192974917,9.930129762965924,0.2520546204396922,-0.19792034,-0.37415496,0.007941248,94.34001,-92.47782,2.2996964
5250519799000.0,0.129644335239932,9.925359925052463,0.2663638502907964,-0.20769419,-0.36987892,0.0070249503,94.50044,-92.32842,2.1681461
5250524896000.0,0.065260573276495,9.915378956945496,0.2766952297501893,-0.204029,-0.3640757,0.011911872,94.6721,-92.156075,2.010185
5250529801000.0,0.0163661176585919,9.88870917978804,0.2722502823618471,-0.18875736,-0.35033122,0.013439035,94.838295,-91.98835,1.8571292
5250535076000.0,-0.0336964163152495,9.856307281811008,0.2624751741793253,-0.18875736,-0.3417791,-0.008246681,95.01621,-91.78516,1.6663824
5250539854000.0,-0.065290997399487,9.806658592720456,0.226367072220359,-0.18203785,-0.32803464,-0.007941248,95.18668,-91.59681,1.4894
5250544926000.0,-0.0962061262216953,9.751757007014424,0.19153613,-0.16554448,-0.32375857,-0.014966198,95.364006,-91.37106,1.2699199
5250549837000.0,-0.1008526134155305,9.677413239083185,0.19153613,-0.14935656,-0.31337386,-0.018020526,95.5335,-91.15492,1.0598309
5250554957000.0,-0.1062590632383885,9.598833013343596,0.194888135737747,-0.12797627,-0.31215215,-0.011301007,95.71761,-90.92727,0.82605124
5250559817000.0,-0.118202424901206,9.511248671542212,0.2386804687631511,-0.11056661,-0.31856623,-0.009162978,95.89832,-90.71219,0.59874016
5250564835000.0,-0.1305340686921563,9.420816937558806,0.2838965031502865,-0.10262536,-0.33353242,-0.015882496,96.095764,-90.5004,0.3488575
5250569801000.0,-0.1513288220024532,9.353439068690586,0.3451908801655934,-0.10629055,-0.3417791,-0.0290161,96.29028,-90.3481,0.106443435
5250574784000.0,-0.1757186943820914,9.294902698558724,0.4134825207911684,-0.118202426,-0.34972036,-0.023518313,96.48616,-90.32645,-0.124102935
5250579819000.0,-0.1996784474884361,9.244486787225668,0.4522192461667159,-0.12644911,-0.34330627,-0.029321533,96.68925,-90.45326,-0.368288
5250584788000.0,-0.2230950152544041,9.197653681035332,0.4803191343322507,-0.1469131,-0.33841935,-0.034208454,96.89277,-90.6414,-0.60325176
5250589829000.0,-0.2333701705489796,9.173576737755102,0.5236852149806123,-0.17379116,-0.35063666,-0.044593163,97.10819,-90.86052,-0.8461853
5250595071000.0,-0.238492792022449,9.158209119387754,0.5749113708765307,-0.20066923,-0.37598756,-0.050701816,97.323616,-91.08465,-1.0810969
5250599817000.0,-0.2285633485201035,9.155427,0.6203746631508759,-0.22174409,-0.38423425,-0.059253927,97.54141,-91.31911,-1.3190756
5250604678000.0,-0.2146642023984872,9.155427,0.6667051308718153,-0.23426682,-0.42638394,-0.073303826,97.77361,-88.44649,-1.5516106
5250609720000.0,-0.1947444160381143,9.149048737211634,0.7022767535606821,-0.24831672,-0.47586402,-0.08460484,98.00955,-88.21239,-1.7785733
5250614684000.0,-0.1730706378927692,9.140379050332816,0.7326200239536792,-0.2507602,-0.5308419,-0.089186326,98.25673,-87.98108,-1.9989052
5250619680000.0,-0.1426997442521828,9.124783940582832,0.7211403813470915,-0.25320363,-0.5830709,-0.09987647,98.51648,-87.74849,-2.215128
5250624730000.0,-0.1043121535049325,9.102848307291076,0.6717849487583626,-0.25320363,-0.64843345,-0.105374254,98.79329,-87.521385,-2.4225855
5250629683000.0,-0.0628936419407311,9.130840324036258,0.5767872673473453,-0.2406809,-0.70707655,-0.10445796,99.088066,-87.30275,-2.6184647
5250634685000.0,-0.0199482621704353,9.173785575754556,0.4670379364179699,-0.23793201,-0.7556403,-0.086437434,99.39573,-87.09219,-2.802714
5250639724000.0,0.0195008613937982,9.158714286804042,0.3423959776629681,-0.19517145,-0.7877107,-0.070249505,99.71233,-86.90007,-2.9726448
5250644688000.0,0.0571781116957598,9.125747012383597,0.2152352688973647,-0.15485434,-0.8179486,-0.061391957,100.038864,-86.71644,-3.1321187
5250649677000.0,0.1105537427536231,9.10038305200341,0.0279793035720375,-0.111177474,-0.84788096,-0.042760566,100.3568,-86.563,-3.2684143
5250654701000.0,0.1698016695813204,9.077595402481766,-0.1816672147949228,-0.06536258,-0.8579602,-0.037873644,100.674095,-86.416435,-3.4004176
5250659856000.0,0.19153613,9.037834790614792,-0.3464972316929017,-0.019242255,-0.8729264,-0.01985312,100.98648,-86.30358,-3.5082211
5250664724000.0,0.19153613,8.991681080685082,-0.4757277303405603,0.015882496,-0.88086766,-0.004276057,101.29603,-86.19746,-3.6112454
5250669706000.0,0.2064151348776774,8.940734161303421,-0.5862403884377221,0.048258353,-0.8885035,0.008552114,101.57666,-86.12047,-3.6979604
5250674744000.0,0.230904003408791,8.886858604507157,-0.6841958114201603,0.062002823,-0.9117164,0.037873644,101.86051,-86.05455,-3.772821
5250679717000.0,0.2730624360043625,8.822247222486615,-0.7641363094487408,0.065973446,-0.9300423,0.08246681,102.128746,-86.004654,-3.8386915
5250684711000.0,0.3252230775708903,8.751119115407494,-0.8352644660420385,0.049480084,-0.93401295,0.11911872,102.39589,-85.95997,-3.8964746
5250689757000.0,0.3718866703766105,8.62502521704658,-0.8830072024529237,0.027488936,-0.9193522,0.16432275,102.65023,-85.93654,-3.935041
5250694718000.0,0.4142647517304262,8.46963922358771,-0.9159679340336968,-0.0070249503,-0.8863655,0.18448131,102.89712,-85.91349,-3.9693713
5250699702000.0,0.417077531949493,8.083673693131814,-0.8068171033288694,-0.032986723,-0.8570439,0.21624629,103.13011,-85.91309,-3.9810717
5250704724000.0,0.3940745045073656,7.545402628084943,-0.6043904820145398,-0.07971791,-0.8258898,0.24617869,103.35014,-85.91341,-3.987397
5250709741000.0,0.3555438489977016,7.152810526381534,-0.3824415867272909,-0.12003502,-0.7874053,0.26542094,103.55383,-85.92428,-3.9823127
5250714741000.0,0.3029082639072649,6.894417651394025,-0.1431889036054761,-0.15668693,-0.75319684,0.29016098,103.74715,-85.9416,-3.9674814
5250719720000.0,0.231211602833974,6.666695698927135,0.1285372812820742,-0.16371189,-0.71685034,0.30909783,103.951706,-85.947754,-3.9547431
5250724752000.0,0.1407332528767099,6.464196501788109,0.4344402858632097,-0.1731803,-0.6805039,0.3390302,104.14413,-85.96069,-3.932121
5250729748000.0,0.0473322294197614,6.289869047940581,0.742151910578438,-0.15882497,-0.65240407,0.35185838,104.35774,-85.954254,-3.9192333
5250734726000.0,-0.0546026754476704,6.182568946995273,1.058686606144497,-0.12736541,-0.63316184,0.36193767,104.56148,-85.9543,-3.898651
5250739751000.0,-0.1427956028509739,6.15022221475866,1.2864745885423663,-0.10567969,-0.6093381,0.36163223,104.80341,-85.90265,-3.9112766
5250744752000.0,-0.2163295898858075,6.191585442088091,1.4243507812398044,-0.07544186,-0.569021,0.34880406,105.033134,-85.85202,-3.9227226
5250749724000.0,-0.2723677185668071,6.264611988854034,1.4976469139300068,-0.087964594,-0.5149594,0.33933565,105.28604,-85.76171,-3.9505692
5250754753000.0,-0.3054166787109106,6.382643718223704,1.4834830886579746,-0.101098195,-0.4569272,0.310625,105.52492,-85.66355,-3.9844491
5250759785000.0,-0.3161514930092779,6.526663316095199,1.425636496984671,-0.118202426,-0.37995818,0.27183503,105.766464,-85.542625,-4.0271173
5250764804000.0,-0.2919149060024203,6.710861425937878,1.2996062992133923,-0.15241088,-0.30176744,0.22602014,105.98999,-85.40708,-4.076668
5250769742000.0,-0.2566352226048654,6.87429308724597,1.2181614231354492,-0.20677789,-0.22357668,0.18387043,106.19145,-85.25727,-4.1359143
5250774821000.0,-0.2030716381099209,7.015506015557113,1.198683770837922,-0.27885997,-0.15118915,0.14110987,106.37175,-85.088715,-4.2049775
5250779783000.0,-0.1392037214027212,7.113978936021452,1.195330870722018,-0.34972036,-0.101098195,0.10567969,106.53126,-84.91915,-4.281922
5250784759000.0,-0.0587467517048366,7.156574019862945,1.2142619092759956,-0.4428773,-0.07086037,0.06414085,106.67569,-84.72559,-4.3689847
5250789757000.0,0.0302588507071435,7.160089419092505,1.2414191730339157,-0.5204572,-0.06383542,0.047036625,106.81547,-84.53178,-4.4485016
5250794787000.0,0.1326468723049625,7.102217737454948,1.281484068976989,-0.5739079,-0.058948494,-0.00030543262,106.94813,-84.31293,-4.544192
5250799732000.0,0.2248602061407642,7.035215691086979,1.338183445958406,-0.64476824,-0.04642576,-0.031154128,107.08899,-84.08275,-4.630596
5250804748000.0,0.2888377110931257,6.931867539954923,1.4562957801864562,-0.7257079,-0.043676864,-0.081855945,107.232544,-83.82956,-4.7310333
5250809785000.0,0.33518824,6.884437010433007,1.5923617352124182,-0.79198676,-0.035124753,-0.12186762,107.38764,-83.56557,-4.823257
5250814761000.0,0.33518824,6.981769806380719,1.771454235866013,-0.8454375,-0.014660766,-0.16768251,107.5402,-83.280655,-4.9264364
5250820827000.0,0.3335725477587783,7.094438870391368,1.9931702784839065,-0.9007208,0.040317107,-0.20738874,107.698715,-82.964165,-5.029277
5250824809000.0,0.3021887111512436,7.056080951847111,2.2023957951810536,-0.8943067,0.061391957,-0.22204952,107.86273,-82.65001,-5.1316676
5250829800000.0,0.2628525161466715,7.00800351049744,2.464637019147769,-0.88300574,0.10476339,-0.28008172,108.0392,-82.29533,-5.2405033
5250834754000.0,0.2666672652082474,7.033982647505155,2.695845414738144,-0.8933904,0.13805555,-0.33628133,108.21437,-81.94073,-5.347208
5250839778000.0,0.2944443500412371,7.1014413975257735,2.9140940656907217,-0.9221011,0.17898351,-0.37293324,108.37746,-81.583855,-5.4600663
5250844745000.0,0.3447860967417024,7.207118438383415,3.09970502039577,-0.9825767,0.24037547,-0.38240165,108.56503,-81.17703,-5.5732327
5250849772000.0,0.4808818345764841,7.4591474070777934,3.175313658370851,-1.0503827,0.2706133,-0.37782016,108.75209,-80.76561,-5.686107
5250854731000.0,0.5845623066851815,7.705236349831383,3.190412216901408,-1.0748174,0.29352075,-0.34483343,108.95646,-80.32035,-5.780814
5250859791000.0,0.6182074421741718,7.950365294485221,3.065444470422535,-1.0439687,0.27763826,-0.30940324,109.164764,-79.88174,-5.86625
5250864746000.0,0.5954019959318219,8.34244260781476,2.901313533059977,-0.981355,0.28099802,-0.28405234,109.37621,-79.45693,-5.921418
5250869758000.0,0.4333216124425149,9.11811307380608,2.631179466554108,-0.9401216,0.30482176,-0.25259277,109.58557,-79.04834,-5.960022
5250874810000.0,0.2699476903778742,9.899974046309696,2.3588895016722944,-0.9315695,0.3378085,-0.2275473,109.77144,-78.67831,-5.9952626
5250879837000.0,0.0333633012474849,10.634268849956884,2.214348110836448,-0.9651671,0.30726522,-0.20708331,109.967804,-78.31893,-6.017269
5250884744000.0,-0.214278409268947,11.34117351729424,2.101783731158379,-1.0082331,0.26939157,-0.17104226,110.155304,-77.971825,-6.025681
5250891629000.0,-0.5579639851612903,12.10961484641577,1.9939254854480288,-1.02717,0.109650314,-0.13194689,110.301254,-77.70141,-6.056404
5250894800000.0,-0.7157907925806453,12.43615311765233,1.9503870871684588,-1.0009027,0.03756821,-0.12064589,110.432755,-77.43994,-6.084483
5250899826000.0,-0.8687180385425443,12.888546722409435,1.8494653694608256,-0.9718866,-0.13103059,-0.115453534,110.57936,-77.21762,-6.122902
5250904785000.0,-0.9207305121314238,13.268637988037067,1.7174336864532436,-0.8924741,-0.27885997,-0.12461651,110.74024,-77.02004,-6.1561775
5250909838000.0,-0.9603361094293842,13.639789213688086,1.58746146270917,-0.7788532,-0.37720928,-0.14752395,110.88562,-76.86318,-6.215247
5250914967000.0,-0.9027999469712182,13.898701579986614,1.4888280720046854,-0.6637051,-0.4175264,-0.1872302,111.05713,-76.726654,-6.272675
5250919762000.0,-0.8490105340277778,14.140753597222222,1.3966176784722222,-0.54153204,-0.41355577,-0.22021692,111.20558,-76.651665,-6.3425565
5250924833000.0,-0.6919635347495651,14.343571086988373,1.43688319983518,-0.43676865,-0.36835176,-0.2510656,111.35551,-76.595726,-6.4185777
5250929823000.0,-0.4994277042578518,14.522979429630986,1.5287752766596463,-0.34697145,-0.29077184,-0.2773328,111.496124,-76.56147,-6.5002794
5250934988000.0,-0.2912233899085439,14.694423027122095,1.6680859526705545,-0.2687807,-0.20066923,-0.31520647,111.59801,-76.558556,-6.595723
5250939861000.0,-0.088188531368231,14.84561909525132,1.832241819105804,-0.17073683,-0.096516706,-0.34788775,111.67514,-76.57643,-6.6977177
5250944923000.0,0.1199982335617169,15.065343450811255,2.068010070712672,-0.06658431,0.02107485,-0.38912117,111.74242,-76.597664,-6.7893567
5250949795000.0,0.3164437340398439,15.367199322653525,2.389030793571576,0.025350908,0.1469131,-0.43218717,111.77978,-76.6314,-6.893254
5250954778000.0,0.4892377158049353,15.77226383842538,2.8735972656776343,0.10751228,0.27214047,-0.47036624,111.799416,-76.65926,-6.9768176
5250959806000.0,0.6259801136897767,16.309801941833136,3.571454960977282,0.16493362,0.38056904,-0.5030475,111.7903,-76.69515,-7.074125
5250964802000.0,0.7947401678732166,17.04009496993201,4.01504249824763,0.2003638,0.49205196,-0.5342017,111.78266,-76.70752,-7.1553802
5250969856000.0,1.0172104433879154,18.087560304988987,4.07066001873025,0.2180789,0.56077427,-0.54092115,111.756516,-76.72679,-7.240433
5250974852000.0,1.1188245162224353,18.85012275071908,4.078461669415149,0.24007004,0.6230826,-0.53878313,111.778915,-76.68799,-7.298426
5250979804000.0,0.9617491566408088,19.01133143545716,3.983389830070601,0.2452624,0.6814202,-0.5012149,111.77913,-76.65564,-7.351761
5250985123000.0,0.7827000223787194,19.17835289555802,3.888771484389121,0.2764165,0.7156286,-0.44532076,111.7487,-76.66102,-7.3758917
5250989845000.0,0.497389730579589,19.251608108960696,3.896482567959758,0.33505958,0.7281514,-0.41813725,111.705345,-76.67634,-7.401228
5250994844000.0,0.1953426851107511,19.32916058922329,3.90464599590758,0.36896262,0.70707655,-0.35033122,111.62752,-76.71843,-7.4208183
5250999794000.0,-0.0692280658440931,19.379353270228176,3.981216113542559,0.44043383,0.62949663,-0.312763,111.56154,-76.78197,-7.4398007
5251004789000.0,-0.3188209394271474,19.41660591098824,4.092974191418114,0.5195409,0.4822781,-0.2782491,111.51693,-76.86431,-7.437169
5251009871000.0,-0.5698422886892177,19.45321821268499,4.195186242536997,0.6246097,0.29871312,-0.2415972,111.48713,-76.95745,-7.458752
5251014806000.0,-0.7896634126321354,19.47819786807611,4.200182173615222,0.7348709,0.1328632,-0.2003638,111.49085,-77.073814,-7.4630113
5251019813000.0,-0.9761871971128208,19.50061146895711,4.137989816317514,0.8191703,-0.00030543262,-0.14569137,111.530716,-77.17988,-7.482394
5251024829000.0,-1.0201002958558696,19.511589963357963,3.812301016561286,0.8885035,-0.074830994,-0.07819075,111.5953,-77.313095,-7.481164
5251029805000.0,-1.0636632103984154,19.522480909956577,3.4892094161651555,0.9129381,-0.116675265,0.0061086523,111.67535,-77.45414,-7.4755282
5251034789000.0,-1.0526294817657411,19.529796111067657,3.174584162543997,0.91751957,-0.16157386,0.1020145,111.76988,-77.61477,-7.4445033
5251039826000.0,-1.0007501054165038,19.534512019554164,2.863307855201408,0.9034697,-0.19394971,0.2275473,111.86342,-77.79088,-7.3816147
5251044898000.0,-0.9551762307383042,19.536686,2.592271045504386,0.8723156,-0.1881465,0.3662137,111.90807,-78.00826,-7.303515
5251049805000.0,-0.916530359513889,19.536686,2.364689819791667,0.84238315,-0.18020524,0.5103779,111.952995,-78.238304,-7.190007
5251054797000.0,-0.8703969936329821,19.536686,2.138006809227113,0.829555,-0.16065755,0.6609562,111.96029,-78.512344,-7.0394034
5251059837000.0,-0.8105493839615623,19.536686,1.9185655321037405,0.82833326,-0.12644911,0.8240572,111.95375,-78.80118,-6.850744
5251064806000.0,-0.7507909487881802,19.536686,1.7382319673675235,0.8472701,-0.093767814,0.98837996,111.91799,-79.134315,-6.623165
5251069785000.0,-0.6898239956527916,19.536686,1.6095240039210117,0.8732319,-0.05681047,1.1279627,111.86672,-79.48242,-6.365584
5251076106000.0,-0.6124244955988067,19.536686,1.4461251212246058,0.91324353,-0.008246681,1.2583824,111.78501,-79.87654,-6.068424
5251079808000.0,-0.546943034409629,19.522587060379987,1.3282516343280613,0.9801333,0.020158553,1.344209,111.69756,-80.286316,-5.75449
5251084930000.0,-0.4493554275738585,19.49819017905103,1.15747331217547,1.0412198,0.0693332,1.3833044,111.59019,-80.70468,-5.42984
5251089839000.0,-0.3275375404211511,19.349238063640616,1.0259238476743098,1.1117748,0.13225232,1.3900238,111.466324,-81.1562,-5.095284
5251094825000.0,-0.1845334607955077,19.112387897987837,0.914201890051474,1.1468995,0.16646078,1.348485,111.34059,-81.597916,-4.774466
5251099811000.0,-0.0007930589188258,18.786802203150557,0.7716291298183696,1.2336423,0.18051068,1.2840388,111.203964,-82.07388,-4.4593277
5251104795000.0,0.2334030203030042,18.3512794582078,0.5908461886115176,1.3435981,0.1863139,1.1917981,111.06581,-82.539,-4.1743116
5251109865000.0,0.4842037999500849,17.850267624638118,0.4056399536471998,1.45783,0.18784106,1.0803152,110.93186,-83.017044,-3.9073002
5251114812000.0,0.8105466287311571,16.98474905830089,0.2164557158718179,1.5745052,0.20708331,0.9810496,110.79596,-83.495834,-3.6718538
5251119826000.0,1.1303391467855743,16.072482580360646,0.0484527840235201,1.6493362,0.20922135,0.8906415,110.66854,-83.99481,-3.4438224
5251124820000.0,1.3693782488435908,14.910096778910232,0.0531398262767542,1.666135,0.1563815,0.80878556,110.55489,-84.47886,-3.247309
5251129852000.0,1.5958445767248215,13.733657565424268,0.0639618286478985,1.6417004,0.064751714,0.74189585,110.46342,-84.97966,-3.0428977
5251134794000.0,1.666218157038065,12.523232042823157,0.139026982614988,1.5696182,-0.0571159,0.7058548,110.39671,-85.44993,-2.857113
5251140487000.0,1.6963668767605635,10.998074546503156,0.2001082854055366,1.457219,-0.22540927,0.6933321,110.38164,-85.8994,-2.6586936
5251145792000.0,1.4948578215962445,8.987096207220334,0.1425342652274567,1.3402383,-0.39187005,0.68019843,110.40024,-86.31222,-2.4742038
5251149813000.0,1.3421211748826292,7.462846649773353,0.0988952199614699,1.1884383,-0.535118,0.6588182,110.47289,-86.67898,-2.2871017
5251154790000.0,1.1496510759152574,6.057532411837949,-0.13935045637874,1.0381655,-0.6169739,0.6041457,110.57393,-87.00227,-2.116894
5251159856000.0,0.9512949574428544,4.971081780022301,-0.5135222197093477,0.890947,-0.6533204,0.5235115,110.70092,-87.27642,-1.9638299
5251164878000.0,0.729919581797235,3.891391169208211,-0.964250421973188,0.75961095,-0.6230826,0.43218717,110.83829,-87.49543,-1.850398
5251169814000.0,0.4823749736866359,2.826949282991202,-1.5038976463552576,0.66859204,-0.5332854,0.33628133,110.96692,-87.66844,-1.7647612
5251174846000.0,0.2481820529088714,1.8237776227821365,-2.034756426554013,0.6310238,-0.37232238,0.25289822,111.04611,-87.81999,-1.722999
5251179811000.0,0.0329639801719975,0.9055139320006034,-2.541714588292094,0.61850107,-0.27214047,0.14263703,111.1149,-87.92138,-1.7188376
5251184801000.0,-0.0893284222573089,0.1400206149475145,-2.8976441287585666,0.63529986,-0.043676864,0.09773844,111.041374,-87.926476,-1.8247033
5251189820000.0,-0.131027037970851,-0.4937983378025506,-3.122816576108268,0.6908886,0.20738874,0.040317107,110.92789,-87.88035,-1.965892
5251194825000.0,-0.1648407695047722,-1.0724816405366469,-3.333087362902936,0.74281216,0.43035457,-0.0030543262,110.760506,-87.942795,-2.0083175
5251199828000.0,-0.1734690344813614,-1.4780101529983791,-3.497024492058347,0.7883216,0.6105598,-0.050396383,110.531265,-87.92904,-2.0694199
5251205106000.0,-0.1777285980491911,-1.885266699260669,-3.666552796662031,0.82772243,0.7476991,-0.08460484,110.24097,-92.147415,-2.1171265
5251209843000.0,-0.1212751410041724,-1.994852847705146,-3.7761389104311545,0.8741482,0.8570439,-0.10842858,109.90546,-92.32379,-2.1739218
5251216788000.0,-0.0385077229806017,-2.155519050142742,-3.936805062030598,0.9275989,0.9660834,-0.10934488,109.51737,-92.59804,-2.229615
5251219804000.0,0.0074311201238408,-2.1997349788812444,-3.999630279748729,1.0030408,0.9957104,-0.105374254,109.11903,-92.95707,-2.2880878
5251224828000.0,0.1033806202949446,-2.2237223371422874,-4.090782241140692,1.0311406,1.0384709,-0.0888809,108.684235,-93.36807,-2.339486
5251229770000.0,0.2201741878118097,-2.203489138779267,-4.006399384472096,1.0797043,1.0577132,-0.057421334,108.234436,-93.849976,-2.3716257
5251234952000.0,0.4065221355926962,-2.0573338848696805,-3.421778483294066,1.094976,1.0564915,-0.022602014,107.777214,-94.364075,-2.3939447
5251239790000.0,0.5804996291017523,-1.9208809480857016,-2.8759668430201737,1.0763446,1.0094548,0.032070424,107.3209,-94.90958,-2.3857176
5251244827000.0,0.7562877541288029,-1.751802640537337,-2.2341354948636902,0.98746365,0.9092729,0.09773844,106.88036,-95.46088,-2.361424
5251249803000.0,0.925741590557092,-1.5635205618332677,-1.5421989060055314,0.84788096,0.75900006,0.16737708,106.468605,-96.008385,-2.3189614
5251254784000.0,1.0965780374463705,-1.2754656237240432,-0.923711559233053,0.68691796,0.59559363,0.258396,106.147316,-96.40358,-2.2191179
5251259820000.0,1.2703903876094045,-0.8947337564029518,-0.3650288706845719,0.5103779,0.44929138,0.36987892,105.86662,-96.761856,-2.0953424
5251264827000.0,1.3968072273430785,-0.4940677249320722,0.1695498291845227,0.34055737,0.3145956,0.46517387,105.682076,-96.959145,-1.9291437
5251269918000.0,1.342308356878762,0.0006143004196045,0.6306940738866723,0.16920967,0.21960606,0.5039638,105.52992,-97.11195,-1.7496879
5251275619000.0,1.2778038122104165,0.5559018750043547,1.139785134854555,0.035124753,0.17928895,0.5027421,105.44,-97.095146,-1.5531566
5251279806000.0,1.1555748639392092,0.992433929489636,1.3563050350461592,-0.056505036,0.19120082,0.49602258,105.36431,-97.04492,-1.349579
5251284821000.0,1.0091745354032398,1.515292361121756,1.6156428185333565,-0.08399397,0.23609942,0.4813618,105.3081,-96.83777,-1.2522357
5251289882000.0,0.7864529729872332,1.903560791412328,1.8174125456413328,-0.099571034,0.29932398,0.48747048,105.25106,-96.610054,-1.1518849
5251294830000.0,0.5170529933782166,2.1871396731597845,1.9733809478755235,-0.0842994,0.3472769,0.49541172,105.192444,-96.38666,-1.056053
5251299798000.0,0.255962151530782,2.296021503248971,1.989506723452141,-0.060170226,0.39858958,0.49449542,105.140465,-96.08714,-1.0222208
5251304783000.0,0.0009342794009983,2.2751176376302653,1.9017102608459584,-0.07880162,0.43371433,0.45875978,105.09076,-95.787315,-0.993482
5251309780000.0,-0.3594985334098029,2.0784583912076804,1.7024958984355736,-0.10629055,0.4728097,0.41416663,105.059494,-95.489845,-0.93757075
5251314832000.0,-0.9902496273804952,1.4330387144012129,1.2184311587003538,-0.17592919,0.5204572,0.34116822,105.020485,-95.18093,-0.8991716
5251319766000.0,-1.434409176908752,0.8568139862707047,0.8821222052337548,-0.2593123,0.5510005,0.2434298,104.97378,-94.90456,-0.88445914
5251325749000.0,-1.501798702979516,0.3064653241144761,0.8484273776947957,-0.3484986,0.5561928,0.14294247,104.92251,-94.61266,-0.89133114
5251329815000.0,-1.5165408282462376,-0.022264282972094,0.8390877667201089,-0.4361578,0.5714644,0.047647487,104.80534,-94.435745,-0.96013373
5251334786000.0,-1.458936588520003,-0.3138857592739922,0.8606893650760039,-0.5305365,0.5448918,-0.028099801,104.69709,-94.240906,-1.0553101
5251339777000.0,-1.401100587620056,-0.6066805265688573,0.8823778739060728,-0.61453044,0.52595496,-0.10048734,104.572655,-94.05317,-1.1802512
5251344883000.0,-1.336929601008475,-0.7836354341981914,0.9429430073585532,-0.68600166,0.49266282,-0.14446963,104.45919,-93.85709,-1.3224539
5251349847000.0,-1.2716562561289713,-0.8849216930495716,1.0239720144396571,-0.73792523,0.42821655,-0.19822577,104.35884,-93.66699,-1.4918834
5251355452000.0,-1.1979541815823114,-0.9992870195729368,1.1154642756583495,-0.7797695,0.31764993,-0.2501493,104.28137,-93.47992,-1.6648145
5251359826000.0,-1.1404389498129823,-1.088534823000805,1.1868625184006438,-0.77763146,0.1957823,-0.28496864,104.22574,-93.322014,-1.8518996
5251364830000.0,-1.0506779197481273,-1.0500176797090437,1.203748805352296,-0.7675522,0.08093964,-0.30909783,104.19998,-93.196106,-2.054604
5251369894000.0,-0.9243152036912388,-0.8025574111605689,1.1247721215611768,-0.7144069,-0.055283304,-0.32620203,104.21576,-93.12506,-2.2691739
5251374948000.0,-0.7867749462753497,-0.5334430767619303,1.0164542568034267,-0.6774496,-0.11148291,-0.33658674,104.26005,-93.05613,-2.4650962
5251379809000.0,-0.6465648817348236,-0.25925450176695,0.8918230774780804,-0.643852,-0.25350907,-0.34025195,104.369255,-93.04714,-2.6673512
5251384769000.0,-0.5034992738103206,0.0205182470450439,0.7646536371461081,-0.6203337,-0.40591997,-0.32436943,104.493835,-93.0716,-2.844809
5251389853000.0,-0.4459313979335471,0.2030333293558729,0.6816922356980473,-0.58093286,-0.5552765,-0.30940324,104.65943,-93.142815,-3.024742
5251395085000.0,-0.4556673147857767,0.3101283283182745,0.6330126971844943,-0.5317582,-0.7101309,-0.32406402,104.87144,-93.256676,-3.209388
5251399799000.0,-0.4821207163236888,0.3461840436938214,0.5986394678529142,-0.47433686,-0.8677341,-0.34483343,105.11483,-93.36113,-3.3471107
5251404812000.0,-0.5261542219778204,0.3301718537396815,0.5706181479729843,-0.3857614,-1.0198395,-0.37751472,105.4017,-93.492386,-3.4914865
5251409839000.0,-0.5664947806152021,0.3199364325972375,0.5307584763130243,-0.32436943,-1.1676689,-0.42058071,105.729904,-86.35331,-3.644385
5251414819000.0,-0.578618972734514,0.3522675918888229,0.405475235113126,-0.26389378,-1.2754866,-0.4813618,106.09054,-86.17691,-3.809906
5251419790000.0,-0.5907212536632489,0.3845403213744597,0.280418409409372,-0.22540927,-1.3322971,-0.5357288,106.47289,-85.97367,-3.9965541
5251424911000.0,-0.5277808985639523,0.5207300982792548,0.0083599067050449,-0.21074851,-1.319469,-0.5696318,106.86631,-85.75641,-4.193102
5251429771000.0,-0.4449636600879213,0.681492946635964,-0.2936793824513294,-0.20555615,-1.2434162,-0.58246,107.257965,-85.52839,-4.397578
5251434805000.0,-0.3639701118198691,0.8741790102276058,-0.596948371046205,-0.19730948,-1.1343768,-0.57971114,107.6184,-85.29851,-4.610176
5251439786000.0,-0.2847540141643059,1.06988939490085,-0.8951737205099151,-0.19181168,-1.0158689,-0.55924714,107.95363,-85.070435,-4.8201413
5251444817000.0,-0.1519009387965679,1.3892042231109882,-1.197225427705508,-0.1872302,-0.90010995,-0.5216789,108.22271,-84.91307,-4.9785113
5251449920000.0,-0.0031118690395792,1.7453962125103792,-1.503821049847772,-0.17898351,-0.7626653,-0.44959682,108.4467,-84.77494,-5.118116
5251454679000.0,0.212605111426415,2.2062433075471697,-1.789164335471698,-0.16157386,-0.6426302,-0.35460728,108.5856,-84.74584,-5.166742
5251459696000.0,0.4871584853408086,2.77089083574124,-2.089619023698113,-0.14080444,-0.5204572,-0.23335053,108.67547,-84.740746,-5.1892195
5251464679000.0,0.7543511342269884,3.3553142602323502,-2.1679101176050044,-0.089186326,-0.45875978,-0.09010262,108.67812,-84.826836,-5.1301103
5251469671000.0,1.020185270896634,3.9486939339886806,-2.172657152219243,-0.05222898,-0.35705075,-0.018325957,108.62899,-84.909195,-5.068341
5251474722000.0,1.2407985806881014,4.613740746672128,-1.9776351638337089,-0.05131268,-0.27488935,0.14935656,108.537964,-85.08389,-4.911264
5251479697000.0,1.4408220063485562,5.291869007986893,-1.7141896067990987,-0.07452556,-0.19730948,0.32834008,108.415886,-94.746086,-4.7459345
5251484677000.0,1.5657470543696683,6.199997278255924,-1.3278828116018957,-0.1469131,-0.09560041,0.5357288,108.295105,-94.525826,-4.517854
5251489923000.0,1.675274882199052,7.223844230445497,-0.8850094748625592,-0.2874121,0.03176499,0.75747293,108.14552,-94.27177,-4.2460194
5251494687000.0,1.7338453773877962,8.62669169383762,-0.5100636953900151,-0.5222898,0.21288654,1.0054842,108.007866,-93.90715,-3.8701813
5251499678000.0,1.7772322435804335,10.304316246979324,-0.1292236191658092,-0.86590147,0.46517387,1.2565498,107.817535,-93.48495,-3.4440706
5251504740000.0,1.9628679467015704,12.280670219704902,-0.2325463897265111,-1.3307699,0.82253003,1.4834863,107.62638,-92.95074,-2.9364872
5251509785000.0,2.211226693298429,14.37332325302237,-0.554493025346216,-1.8472565,1.3130548,1.7290541,107.33019,-87.6257,-2.373613
5251514754000.0,2.486875385256933,15.854427745513869,-1.240006064070147,-2.2892175,1.9721785,2.0366247,106.95023,-88.14962,-1.7449442
5251519752000.0,2.784566925754486,16.96223077650897,-2.17212185322186,-2.5576928,2.699719,2.3521366,106.41508,-88.34959,-1.0812678
5251524784000.0,2.4824780488607594,17.719298835443038,-1.97742870278481,-2.5546384,3.306919,2.4996605,105.691475,-88.13572,-0.39018434
5251529802000.0,1.8449700881113924,18.274076211645568,-1.150128396172152,-2.2971587,3.4144313,2.2999077,104.91483,-87.609406,0.24266192
5251534748000.0,1.7535675348360655,18.61568231913756,0.583656163667142,-1.8072448,2.8454103,1.8246545,104.060684,-87.22073,0.8110726
5251540893000.0,1.9685380194672129,18.91454426274056,3.2996244571899505,-1.1902709,1.9459113,1.3118331,103.29581,-86.899124,1.2812505
5251544766000.0,2.315020792061253,19.057332643360876,4.384795711847673,-0.6068946,1.1820242,0.95264435,102.76692,-86.64915,1.5376376
5251549764000.0,2.9901249119484183,19.19235366874874,5.108121568970381,-0.21044308,0.68752885,0.6985244,102.4376,-86.55769,1.6815506
5251554780000.0,3.4179033825769856,19.298360402755268,5.279773398055105,-0.023823744,0.42271876,0.45112398,102.552025,-86.209175,1.7962002
5251559863000.0,3.5263855800445705,19.36739384501621,4.732431509400325,0.01038471,0.30604348,0.18692477,102.763115,-85.97205,1.8359959
5251564810000.0,3.5817258,19.41705065263543,4.257235754355784,-0.025961773,0.28802297,-0.0888809,103.09674,-85.65267,1.8911597
5251569788000.0,3.5817258,19.44758827745241,3.842798759956077,-0.11026118,0.24007004,-0.2284636,103.462494,-85.359436,1.9088889
5251574852000.0,3.653518351836589,19.477205267156425,3.7021178407095503,-0.16707164,0.15057829,-0.4636467,103.78754,-85.177246,1.8285435
5251579809000.0,3.895940476805232,19.50272391381473,4.237998717819387,-0.29046643,-0.007330383,-0.6621779,104.140816,-84.9667,1.7242013
5251584881000.0,4.099562837255232,19.52737959912598,4.757376087335071,-0.3924809,-0.28619036,-0.80664754,104.49033,-84.815125,1.5817466
5251589853000.0,3.68338918004034,19.53138093301958,4.865421169812589,-0.45081854,-0.6084218,-0.91965765,104.8955,-84.649704,1.4042276
5251595172000.0,3.23817041843012,19.535661523321288,4.981006808126733,-0.45662177,-0.8402451,-0.8564331,105.397095,-84.37162,1.2802838
5251599801000.0,2.753367171356517,19.536686,5.037109731705159,-0.39522982,-0.9334021,-0.75716746,105.94273,-84.100075,1.1477464
5251604795000.0,2.190502406503849,19.536686,5.079430357490487,-0.28955013,-0.9224065,-0.70829827,106.512764,-83.83888,1.029773
5251610082000.0,1.7224927351210542,19.536686,5.220991549494331,-0.14538592,-0.8857546,-0.713796,107.06094,-83.59928,0.89018357
5251614818000.0,1.4479674035856571,19.536686,5.457291896414342,0.040011674,-0.8885035,-0.74036866,107.60433,-83.40165,0.7661669
5251621327000.0,1.1402949364892954,19.536686,5.778301177405945,0.21380283,-0.9334021,-0.7593055,108.10768,-83.24971,0.5951353
5251624812000.0,1.3969736617543131,19.536686,5.927452440656828,0.42332962,-0.95203346,-0.7425067,108.59184,-83.15881,0.43391743
5251629788000.0,1.7634681630222406,19.536686,6.14041562170027,0.47311515,-0.9477574,-0.6612616,109.07694,-83.038246,0.26784852
5251634796000.0,2.3462169722460784,19.536686,6.024232162650074,0.5510005,-0.8573494,-0.514654,109.52611,-82.9828,0.13010837
5251639835000.0,2.9636562271930598,19.536686,5.859299523617562,0.63224554,-0.7287622,-0.35460728,109.946396,-82.94135,0.023943229
5251644817000.0,3.556188225998783,19.536686,5.567795304197931,0.6960809,-0.5729916,-0.18661933,110.31906,-82.8855,-0.0050953217
5251649804000.0,4.137322243733522,19.536686,5.190058119346988,0.7333437,-0.43127087,-0.021991149,110.64207,-82.847565,0.0073151328
5251654791000.0,4.522596418359375,19.536686,4.855751437304687,0.75319684,-0.3368922,0.13164146,110.89695,-82.83162,0.118734375
5251659836000.0,4.791537288476563,19.536686,4.544346348925781,0.77304995,-0.29168814,0.31215215,111.11106,-82.82444,0.27660662
5251664821000.0,4.785991656507721,19.367726238248768,4.018321228915663,0.79076505,-0.27977628,0.50518554,111.27106,-82.846596,0.5173836
5251669806000.0,4.5834616297386725,19.07608343619549,3.3337696174698794,0.79534656,-0.36865717,0.5946773,111.43971,-82.86093,0.77347904
5251674851000.0,4.383793301920391,18.828230683310053,2.693279543400838,0.8350528,-0.51923543,0.7641924,111.59242,-82.901184,1.1271787
5251680226000.0,4.190581053971718,18.738364117754887,2.203508989760824,0.87781334,-0.67011917,0.84329945,111.767334,-82.92594,1.4730395
5251685452000.0,4.005985799609152,18.656700054148683,1.7387311865808972,0.981355,-0.8332202,0.79779,111.92737,-83.04094,1.8084785
5251690098000.0,3.893673355508509,18.67481533059197,1.5068603391254785,1.2235631,-0.8738427,0.75747293,112.09061,-83.17659,2.1578357
5251695084000.0,3.7731417484732512,18.6942563052683,1.25802089758163,1.2950343,-0.9654725,0.6582073,112.272675,-83.3342,2.4574013
5251699834000.0,3.657441561206386,18.63616677133846,1.045367065819042,1.4272866,-1.0656544,0.5644395,112.46728,-83.550064,2.7383068
5251704841000.0,3.534562793317564,18.49438270451409,0.8468706060023654,1.5183055,-1.2098186,0.46395215,112.70013,-83.75944,2.983726
5251709816000.0,3.4296516560296846,18.293814912801484,0.6194008371985157,1.5650368,-1.3469579,0.40561453,112.93434,-84.004524,3.1989741
5251714855000.0,3.3450939951144094,18.015272268089053,0.3508060624665017,1.5845845,-1.4718798,0.3817908,113.20264,-84.24451,3.3907042
5251719804000.0,3.204700038389487,17.578656446339533,0.2392336162659024,1.6022996,-1.5812247,0.3915646,113.48638,-84.48792,3.561056
5251724854000.0,3.0041177519362505,16.970148507945385,0.2775470901230253,1.6096299,-1.6410894,0.45875978,113.784004,-84.691666,3.7353725
5251729799000.0,2.8077059882706554,16.374292714804977,0.3150639471969803,1.5818355,-1.7446312,0.52198434,114.11156,-84.87472,3.902931
5251734802000.0,2.608990507255697,15.771448117619649,0.3530208402083042,1.5216653,-1.9190332,0.51893,114.46904,-85.013145,4.064919
5251739853000.0,2.342969110392625,14.915464869213425,0.1739932601061148,1.4150693,-2.0815234,0.40317106,114.85848,-85.11713,4.203607
5251744794000.0,1.850258983741212,13.198824885528586,-0.7737676008807535,1.2840388,-2.10046,0.18997909,115.24877,-85.202324,4.306254
5251749796000.0,1.3514660160200291,11.460991815625416,-1.7332292132378295,1.1435398,-1.8640553,-0.0036651916,115.61127,-85.296234,4.3412127
5251754688000.0,0.9138778794114464,9.838004929676512,-2.62320987473764,1.0253373,-1.4068227,-0.16401732,115.90629,-85.40853,4.320933
5251759693000.0,0.7116335077518122,8.551938150492264,-3.297357816369144,0.9468411,-1.1517864,-0.23518312,116.18269,-85.52613,4.2705607
5251764683000.0,0.5800170778596027,7.420982536158941,-3.850112202357616,0.91538155,-0.65179324,-0.3475823,116.17243,-85.77754,4.099921
5251769702000.0,0.5969940348185431,6.606088832582781,-4.1514530953112585,0.86529064,-0.17134771,-0.45937067,116.08622,-86.02412,3.9094024
5251774767000.0,0.6079575825865097,5.775272372192956,-4.448581530327446,0.80878556,0.27122417,-0.50823987,115.836716,-86.28455,3.6953168
5251779707000.0,0.5395419300092965,4.856547899101332,-4.648941725348621,0.7519751,0.69974613,-0.5140431,115.44888,-86.53635,3.4629185
5251784708000.0,0.4891798723204193,3.9513977055801046,-4.820628629914705,0.7257079,1.0641272,-0.49571714,114.9541,-93.24157,3.2295136
5251789703000.0,0.5727493124344878,3.223851753108622,-4.771470150827253,0.7290677,1.3692545,-0.44715336,114.35281,-93.069466,3.0059872
5251794712000.0,0.6535706537632262,2.513316248432821,-4.657691302465562,0.7858781,1.5378532,-0.37690386,113.691,-92.9743,2.7983937
5251799701000.0,0.7203406847674186,1.8933092445398283,-4.247532803813137,0.88147855,1.6013832,-0.28344148,112.97466,-92.97056,2.6140926
5251804701000.0,0.7808866401557286,1.3159293474332592,-3.826988947886541,0.9761627,1.563815,-0.17348573,112.27754,-93.09271,2.4778888
5251809722000.0,0.8109732652391546,0.9482036993617908,-3.358974361040045,1.0228939,1.4419475,-0.06963864,111.58924,-93.30799,2.3674977
5251814736000.0,0.8410179452169078,0.5809907140141825,-2.89161225419911,1.0091494,1.2363913,0.010995574,111.000336,-93.60082,2.3126516
5251819758000.0,0.8604150054604727,0.1983158118775468,-2.2880312545792583,0.9263771,0.97433007,0.06811147,110.463905,-93.935425,2.2783985
5251824785000.0,0.8555105052974735,-0.2185670041299917,-1.3757936967746536,0.7648033,0.64660084,0.093462385,110.00563,-94.278336,2.2531374
5251830107000.0,0.8186110910600255,-0.6085614242230737,-0.4311887085227757,0.52931476,0.27672195,0.110872045,109.70908,-94.5611,2.265371
5251834759000.0,0.7427468038314176,-0.8788279443805875,0.3653863469859514,0.21960606,-0.10445796,0.11484267,109.50853,-94.79175,2.272884
5251839758000.0,0.6645055702169687,-1.1657801336651372,0.6211876089509293,-0.111177474,-0.47647488,0.10323623,109.497284,-94.89372,2.3125973
5251844784000.0,0.589642770608912,-1.4502587299634495,0.1832402922171241,-0.38453966,-0.7431176,0.08735373,109.56419,-94.93235,2.3462417
5251849707000.0,0.5163141668543433,-1.7289073828835837,-0.2457319800233299,-0.5491679,-0.8249735,0.062002823,109.75202,-94.83227,2.390255
5251854760000.0,0.50757074,-1.7621324,-0.8962418750339392,-0.54183745,-0.7959574,0.043676864,109.98421,-94.70768,2.4302077
5251859807000.0,0.4999493530472031,-1.7889596886695784,-1.5440520900890309,-0.39461896,-0.61758476,0.019547688,110.19659,-94.57494,2.4646056
5251864984000.0,0.3958440225600538,-2.155410542079624,-1.8355471058961867,-0.2742785,-0.301462,-0.010079277,110.318855,-94.512825,2.485927
5251869853000.0,0.2979323257970771,-2.5000597994204603,-2.109699941894843,-0.015577064,0.090713486,-0.032070424,110.32388,-94.60036,2.5024018
5251874860000.0,0.2392240329974301,-2.6338180450354334,-2.1483840845728523,0.23640485,0.50426924,-0.06872234,110.2314,-94.711464,2.5135832
5251879791000.0,0.1987711396651351,-2.6742709076473794,-2.0858659473717,0.45723262,0.8940013,-0.10995574,110.032814,-94.87774,2.525599
5251884819000.0,0.1589088391069924,-2.7011435842459983,-1.9705308272114568,0.6230826,1.2287555,-0.14630222,109.70341,-95.14437,2.5238142
5251889862000.0,0.1283933572072451,-2.6299408427127213,-1.502626778496209,0.7266242,1.4624114,-0.17837265,109.290215,-95.45615,2.5203192
5251894946000.0,0.1179922160875706,-2.545117611299436,-1.0261927091101697,0.75777835,1.5851953,-0.19394971,108.81847,-95.78612,2.513431
5251900481000.0,0.1728965339265536,-2.410352348587571,-0.4921234204237288,0.7296785,1.5830573,-0.19303341,108.31483,-96.1367,2.5080266
5251904851000.0,0.2185195987793008,-2.29801248145835,-0.0892641661781166,0.6462954,1.4636332,-0.16065755,107.84231,-96.414925,2.5085564
5251909811000.0,0.287869687967394,-2.124637288660881,0.222811273387136,0.55924714,1.2394456,-0.09621128,107.40107,-96.69476,2.5175037
5251914772000.0,0.3572337590283072,-1.951227141187444,0.534949631387785,0.44348818,0.9410379,-0.03023783,107.05389,-96.86123,2.5414996
5251919791000.0,0.3650300518387959,-1.6520821185463908,0.7684972750272304,0.35979962,0.5864306,0.04550946,106.78899,-97.02272,2.5787685
5251924863000.0,0.3361716223863749,-1.276922415130211,0.9560771016239232,0.29077184,0.20952678,0.12980886,106.617966,-97.166534,2.6275108
5251929790000.0,0.2991923004192035,-0.8372876237758259,0.9748154848787304,0.23762658,-0.1432479,0.19272798,106.57232,-97.225044,2.6952558
5251934816000.0,0.255954724537379,-0.3424575870116777,0.8931445149016868,0.19517145,-0.38423425,0.24556783,106.60462,-97.27615,2.7759714
5251939866000.0,0.2700127547222222,0.2383560918055555,0.7364830327777778,0.1572978,-0.49418998,0.2947425,106.717964,-97.27272,2.858918
5251944808000.0,0.3183466755269608,0.8570303497732845,0.5383139403186274,0.09865474,-0.5183192,0.32895094,106.87646,-97.25703,2.9481242
5251949804000.0,0.2662982098765058,1.3315339045079173,0.5096473289658308,0.021380283,-0.5112942,0.3472769,107.05664,-97.22579,3.026464
5251954845000.0,0.1602277633729828,1.730212497734677,0.5718265534608683,-0.05100725,-0.50518554,0.33322698,107.24366,-97.18107,3.10478
5251960119000.0,0.0434011572219085,2.108741572783738,0.6341781834443817,-0.14355333,-0.49541172,0.30879238,107.44035,-97.00478,3.01235
5251964857000.0,-0.1274059632975719,2.0147976359872013,0.6597992640071523,-0.21380283,-0.4859433,0.28099802,107.632286,-96.82132,2.9281282
5251970682000.0,-0.3343557133991064,1.8932511380119137,0.6842835347431124,-0.24953845,-0.43493605,0.17623462,107.8073,-96.594826,2.8243678
5251974935000.0,-0.4480847493819806,1.7302394749069248,0.6160460973194342,-0.31612277,-0.4083634,0.12644911,107.98744,-96.35365,2.73862
5251979875000.0,-0.5801847817721519,1.5408960430379746,0.5367860594936709,-0.3222314,-0.3222314,0.0571159,108.12649,-96.14981,2.6681185
5251984866000.0,-0.6240846375557275,1.3013167773065015,0.5031863090913312,-0.3295618,-0.20311269,-0.00580322,108.24754,-95.92527,2.589791
5251989859000.0,-0.6388886738699691,1.0459473962848298,0.4846812849535603,-0.30879238,-0.110872045,-0.050396383,108.35084,-95.70253,2.5015655
5251994806000.0,-0.6505190975627977,0.7965848289550845,0.4699673172929312,-0.28191432,-0.03848451,-0.09407325,108.411705,-95.50688,2.401754
5251999860000.0,-0.6459993802595948,0.5615618133756652,0.4744870015603697,-0.24404067,0.01863139,-0.15027285,108.44954,-95.31331,2.2884998
5252005123000.0,-0.6373576409875967,0.3283773140550813,0.4732907066784476,-0.18661933,0.049480084,-0.19914207,108.46613,-95.14777,2.1779969
5252009882000.0,-0.5856910573419579,0.2463185885566818,0.406428041951187,-0.11942416,0.08002335,-0.23090707,108.46586,-94.99019,2.0574493
5252014833000.0,-0.5319400055181382,0.1609492357635369,0.3368678290777541,-0.050701816,0.10048734,-0.26389378,108.4581,-94.851845,1.931043
5252020162000.0,-0.48132434647651,0.0861364393837347,0.2478646317291749,0.010079277,0.13591751,-0.2874121,108.43709,-94.72722,1.7985817
5252024893000.0,-0.5081549111577182,0.1889869253436636,0.0287483854066324,0.07238753,0.19517145,-0.30085114,108.403175,-94.62004,1.6598792
5252030148000.0,-0.5369492708227115,0.3044418510019312,-0.2106179852746234,0.115453534,0.32406402,-0.3231477,108.32956,-94.554794,1.5285608
5252034919000.0,-0.5475381266280417,0.4279785794615681,-0.3659213106349941,0.17654006,0.48502702,-0.34208453,108.229744,-94.513145,1.3957317
5252039983000.0,-0.5587772726767092,0.5591020321799922,-0.5307622327949014,0.22052236,0.657291,-0.3494149,108.065834,-94.5338,1.2492381
5252044952000.0,-0.5489002685640172,0.7207915729003525,-0.6507222563283085,0.24862215,0.8136725,-0.36285394,107.859795,-94.57174,1.0987134
5252049859000.0,-0.5121004343676586,0.9231907066111982,-0.715121957766249,0.28344148,0.9578367,-0.36560285,107.608086,-94.63109,0.95274585
5252054840000.0,-0.4317745142618961,1.2202298717555875,-0.6212547446061644,0.2968805,0.9969321,-0.34483343,107.32163,-94.74854,0.7963659
5252059825000.0,-0.2768850248738284,1.6762933071377073,-0.2512409856164382,0.29810223,1.0231993,-0.32467487,106.99752,-94.88136,0.64335245
5252064825000.0,-0.0489481252761533,2.334425942365172,0.2968747862897986,0.25473082,0.9437868,-0.26267207,106.69822,-95.030106,0.5020646
5252069792000.0,0.6117185073830409,4.188928937207603,1.9002470558845028,0.1282817,0.7257079,-0.1777618,106.432,-95.16402,0.37292072
5252074830000.0,1.281828935274529,6.069940833325211,3.5265384781148468,-0.099265605,0.3549127,-0.05467244,106.3052,-95.13407,0.28789532
5252079805000.0,1.7207875691190293,7.002900374015209,3.529716472972741,-0.46883908,-0.12950343,0.1255328,106.27971,-95.03538,0.24098347
5252084915000.0,2.0636803147398104,7.51305778946424,2.7561170093309406,-0.87109387,-0.56077427,0.33964106,106.350365,-94.868195,0.23609124
5252089772000.0,2.2493329657823606,8.035576539793773,1.839411216712384,-1.1612549,-0.8399397,0.5739079,106.82422,-94.03439,0.4955636
5252094836000.0,2.1570873567324056,8.657020947041746,0.513986583519872,-1.2409728,-0.9459248,0.83199847,107.37399,-93.22596,0.8177755
5252099800000.0,1.9978640979479083,9.333743224151538,-0.4268746286187845,-1.210735,-0.93126404,1.0705414,107.88358,-92.72106,1.2183517
5252104793000.0,1.7028033057042404,10.146876041257086,-0.6704712869512808,-1.20371,-0.8772025,1.2819008,108.41267,-92.41245,1.6727374
5252109792000.0,1.4073879441127932,10.96098598572146,-0.9143606710899046,-1.2846496,-0.9245446,1.4749341,108.78676,-92.54029,2.1341743
5252114803000.0,0.9377422037156532,12.455397800598206,-0.4131422676969092,-1.459357,-1.2116512,1.6175711,109.212616,-92.80896,2.6243708
5252119786000.0,0.3287374969914257,14.496515083748754,0.695436622432702,-1.7467692,-1.7122552,1.7150042,109.71116,-93.19321,3.1398108
5252124867000.0,-0.1115108638650361,15.94692512809069,0.978290977648844,-2.187203,-2.2583687,1.745242,110.250824,-93.56247,3.558173
5252129909000.0,-0.4002888246812461,16.869290686780325,0.5645195604391681,-2.690556,-2.5977044,1.6835446,110.86616,-86.02036,3.9666493
5252134775000.0,-0.6560274458073485,17.638667963853027,-0.5546940023435948,-2.9791899,-2.473088,1.4483615,111.57308,-85.61409,4.248153
5252139842000.0,-0.8680562167924528,18.154282764150945,-3.421901590566038,-2.7165177,-1.6630806,0.977079,112.16137,-85.19635,4.444854
5252144881000.0,-0.7594330158449096,18.593672896330084,-5.028089777192619,-1.9178114,-0.4718934,0.46792278,112.51556,-84.92725,4.4910674
5252149810000.0,0.0675926523968486,18.85793035237404,-3.789997997522289,-1.2082914,-0.021685716,0.29840767,112.84339,-84.67669,4.5112424
5252154766000.0,0.8875851072827012,19.07223204672278,-2.1384185877423625,-1.0525209,0.3979787,0.29626966,112.60074,-84.86971,4.322886
5252159837000.0,1.7051760439761656,19.19624876421073,0.3051680624326112,-1.1667526,0.39767328,0.35033122,112.363594,-85.122894,4.1230974
5252164808000.0,2.487668539680957,19.30159206979063,2.191379735992024,-1.6190983,0.1826487,0.45142943,112.19889,-85.09094,4.0801635
5252169802000.0,3.2159260469591224,19.357945102691925,2.533834108673978,-1.8979583,-0.084910266,0.52595496,112.05821,-85.04874,4.0528884
5252174913000.0,4.002842269655231,19.41467867259817,2.9274756299854565,-1.6933185,-0.46914452,0.52626044,112.23198,-84.64491,4.1993833
5252179811000.0,5.387304982718796,19.45480799623578,3.958799959816922,-1.1957687,-0.960891,0.46028697,112.51295,-84.244736,4.3513875
5252184820000.0,6.803142820557789,19.4958467430918,5.013496482504919,-0.6731735,-1.3377949,0.40500367,112.922356,-83.77785,4.5989366
5252189884000.0,7.542090906083875,19.514717788147276,4.90210127802717,-0.23304509,-1.3942999,0.40133846,113.371994,-83.407394,4.838017
5252194838000.0,7.985793589781452,19.524059087221893,4.318281741760189,0.093462385,-1.1548407,0.41722095,113.83328,-83.13435,5.0605025
5252199801000.0,8.111763232004055,19.52981629604596,4.024755630576208,0.29138273,-0.83199847,0.37965274,114.40058,-82.685616,5.4368153
5252204789000.0,8.083511665258532,19.533851872930043,3.871390855483272,0.36896262,-0.6762278,0.26725355,114.93006,-82.30985,5.775244
5252209803000.0,8.065066318387812,19.536686,3.710663979404108,0.33200526,-0.7663304,0.08368854,115.396034,-81.99554,6.1106477
5252214917000.0,8.069788792401889,19.536686,3.5312136158518945,0.27672195,-1.0424415,-0.14019357,115.86338,-81.73874,6.3878903
5252219784000.0,7.989605726300273,19.536686,3.372639167803748,0.28069258,-1.3200798,-0.38515055,116.33336,-81.556816,6.5938506
5252225863000.0,7.536027330385344,19.536686,3.225532616045483,0.32834008,-1.4895949,-0.6209445,116.84693,-81.42852,6.7343264
5252229775000.0,7.18749778717398,19.536686,3.109846823074563,0.40378192,-1.5039502,-0.58246,117.36526,-81.314804,6.881141
5252234994000.0,6.614938523023422,19.536686,2.9155856289148,0.5348125,-1.5140295,-0.4783075,117.92426,-81.25916,6.980355
5252239862000.0,6.216551721351445,19.536686,2.6535793036224318,0.6542367,-1.4352279,-0.42180246,118.43178,-81.25231,7.0401545
5252244874000.0,6.020108729362591,19.536686,2.256513772518286,0.7849618,-1.3035865,-0.39278635,118.91372,-81.25177,7.117292
5252249826000.0,5.841237045410475,19.536686,1.870686801994755,0.9077458,-1.2296717,-0.37843102,119.35656,-81.31423,7.1504593
5252254848000.0,5.833592733656521,19.536686,1.5534443520384646,0.9660834,-1.1047498,-0.3594942,119.736,-81.37601,7.1864033
5252259800000.0,5.826054973440356,19.536686,1.2406238398553604,1.0671816,-1.0311406,-0.34055737,120.073906,-81.50104,7.2042
5252265053000.0,6.003637437108232,19.536686,0.6093418478896782,1.138042,-0.95081174,-0.30940324,120.364815,-81.614586,7.2259154
5252269847000.0,6.2882243088591725,19.536686,-0.1644785669452571,1.169807,-0.82558435,-0.22693644,120.612045,-81.711075,7.263136
5252274823000.0,6.583615271277337,19.536686,-0.9676763942749688,1.1826351,-0.7247916,-0.12461651,120.81559,-81.81222,7.313058
5252279974000.0,6.6849462068405465,19.53338238521066,-1.4805659349383775,1.1841623,-0.6844745,-0.028099801,120.99301,-81.88403,7.380757
5252284838000.0,6.69829722929206,19.528932431642303,-1.8365921934651763,1.1728612,-0.7489208,0.027183503,121.165306,-81.92837,7.4623547
5252289873000.0,6.6415005284591055,19.21329688659089,-2.1716827282198103,1.1817188,-0.9431759,0.04153884,121.32597,-81.964676,7.5857015
5252295658000.0,6.523130509443638,18.61671165455944,-2.531527081736604,1.2168436,-1.1746938,0.043066,121.51262,-81.96864,7.7167597
5252299834000.0,6.393865030521701,18.139594496804403,-2.755677030588585,1.2547172,-1.3655893,0.021380283,121.730675,-81.96225,7.843355
5252304843000.0,6.122927453686088,17.44442562841855,-2.9303605451843047,1.2928963,-1.5234979,-0.016187929,122.00205,-81.93597,7.961502
5252309782000.0,5.855776187566884,16.75897163741082,-3.102602884690844,1.3365731,-1.6533068,-0.08155051,122.31001,-81.90457,8.060081
5252314791000.0,5.507037056041336,15.857931606518283,-3.2728889532988874,1.350623,-1.7241671,-0.1853976,122.64068,-81.86529,8.131303
5252319786000.0,5.098262317070747,14.797970172694754,-3.439250694107711,1.3472633,-1.7079792,-0.26725355,122.97642,-98.189575,8.18474
5252324803000.0,4.730662941176471,13.26239330931048,-3.5198214931047915,1.2944235,-1.602605,-0.3313944,123.290306,-98.23198,8.192394
5252329855000.0,4.396116529411764,11.32579265329178,-3.529245332917803,1.1994339,-1.4569136,-0.36102137,123.578995,-98.28698,8.18377
5252334831000.0,3.848177782988004,9.911225996728463,-3.4376488699382044,1.0842859,-1.2675453,-0.38148534,123.812836,-98.331154,8.13656
5252340138000.0,3.0352873177480912,8.91820643129771,-3.2344264103689566,0.93309665,-1.0629056,-0.44012842,123.99146,-98.370926,8.070472
5252344838000.0,2.423629903540604,8.020569956355434,-3.056965454766575,0.7632761,-0.95386606,-0.5180137,124.15108,-98.41281,7.992298
5252349845000.0,2.0144750609847,7.023548871518242,-2.873551128638682,0.6649268,-0.71685034,-0.5543602,124.20784,-98.45978,7.9141994
5252354813000.0,1.6356197700020805,6.023851283711254,-2.736388700436863,0.4196644,-0.4801401,-0.6068946,124.22069,-98.39234,7.7449055
5252359822000.0,1.3312528398169337,4.986010033409611,-2.726409411556064,0.16920967,-0.26267207,-0.6411031,124.1646,-98.318115,7.57585
5252365198000.0,1.058830044101756,3.9794371597178446,-2.779174001988593,-0.047036625,-0.043982297,-0.6282749,124.0521,-98.19479,7.383148
5252369803000.0,0.8999783816749212,3.264604592405824,-2.9115504737355544,-0.22235495,0.15332718,-0.5766568,123.88054,-98.05253,7.197588
5252374830000.0,0.7265696287933363,2.484265110130572,-3.0560578621116616,-0.33017266,0.31703907,-0.5039638,123.6638,-97.88948,7.0054317
5252379800000.0,0.5787604543621643,1.624834639443128,-3.349301040768168,-0.3827071,0.4370741,-0.42852196,123.40408,-97.728485,6.8329396
5252384896000.0,0.439019248564376,0.6996515525236966,-3.7251566515896526,-0.36682457,0.50885075,-0.36346483,123.11393,-97.5813,6.6811247
5252389947000.0,0.3297118858321479,0.0207474799999999,-4.070156512375533,-0.28099802,0.5693264,-0.31978795,122.75504,-97.40811,6.497687
5252394826000.0,0.2383218351342461,-0.519284635,-4.390021592220839,-0.14905111,0.5907067,-0.2837469,122.39302,-97.26259,6.3313446
5252399790000.0,0.1753888233628706,-0.9755327887260924,-4.6842053342165295,0.0009162979,0.5580254,-0.25320363,122.07866,-97.24223,6.210496
5252404793000.0,0.1585743759431479,-1.290803650412353,-4.932218590577294,0.16920967,0.49418998,-0.2134974,121.76783,-97.2641,6.1016393
5252409833000.0,0.1517186662143191,-1.604206987880206,-5.149185271455311,0.3286455,0.4364632,-0.17287487,121.45764,-97.387665,6.0123034
5252414836000.0,0.2189803841647168,-1.8844641069879893,-5.123027681773514,0.4859433,0.37843102,-0.105068825,121.16694,-97.5757,5.941298
5252419857000.0,0.2864840991015442,-2.1657295467321798,-5.096775981235377,0.6227771,0.35246924,-0.04153884,120.86949,-97.856125,5.8822937
5252424927000.0,0.3313107050541516,-2.3117708694529298,-5.016541730908081,0.7134906,0.3539964,0.021685716,120.58264,-98.200806,5.8431606
5252429997000.0,0.3582778886281588,-2.352221718730908,-4.895189605456817,0.77640975,0.3707952,0.09407325,120.301216,-98.609406,5.825844
5252435138000.0,0.3856227191516245,-2.3932390394682037,-4.772138071542628,0.82802784,0.43554693,0.16462818,120.01392,-99.086525,5.8473244
5252439963000.0,0.3860303142721893,-2.456728635976331,-4.505553320118343,0.8958339,0.54733527,0.2415972,119.71254,-99.61758,5.895718
5252445278000.0,0.3759907195680473,-2.5370452573274163,-4.149147713362919,0.99296147,0.6017023,0.31948254,119.41376,-100.198715,5.9669127
5252449838000.0,0.3621935332507469,-2.6089962121402026,-3.723768534722728,1.0476339,0.7141015,0.3576616,119.08366,-100.792564,6.0667663
5252454852000.0,0.3446980529417766,-2.689475497558843,-3.202403146979523,1.1835514,0.77854776,0.43127087,118.75974,-101.460175,6.20161
5252459842000.0,0.3272863164555855,-2.7695695610289293,-2.683533325511914,1.3008375,0.7516697,0.50946164,118.45813,-102.114296,6.3575454
5252465060000.0,0.330089371353005,-2.826531338399289,-1.043955200730287,1.3775011,0.6899723,0.59895337,118.156105,-102.81347,6.5408993
5252469853000.0,0.3346192837580183,-2.876360469456232,0.5641648855718939,1.402852,0.5919284,0.70463306,117.88136,-103.55065,6.749251
5252474891000.0,0.3660426799310032,-2.755344260099864,1.0978297977212892,1.353372,0.44409904,0.79351395,117.68636,-104.213165,6.985468
5252480914000.0,0.4079354418120744,-2.582536379482524,1.5481770808987745,1.2617421,0.2779437,0.8906415,117.53497,-104.89262,7.247642
5252484898000.0,0.4089496974328669,-2.2841385769010167,1.6496625934909186,1.1252137,0.14110987,0.9584476,117.50792,-105.31907,7.547925
5252489941000.0,0.4047526171860606,-1.8686274133397065,1.7378013663248455,0.98563105,0.07238753,0.99082345,117.5131,-105.733116,7.8605323
5252494883000.0,0.405876559972,-1.326426008976,1.78721220478,0.8671232,0.054367006,0.9728029,117.56468,-106.0556,8.179961
5252499858000.0,0.415405485922,-0.564112211576,1.77768323903,0.7498371,0.07849618,0.91690874,117.622635,-106.345665,8.497733
5252504795000.0,0.430597980877162,0.1796082267702082,1.742517353247441,0.625526,0.11178834,0.8436049,117.68905,-106.56132,8.795053
5252509832000.0,0.4561389534724673,0.9160394780691846,1.6616376326244264,0.5332854,0.16401732,0.7819075,117.73902,-106.75137,9.084214
5252514830000.0,0.4833895070067469,1.6229116162654995,1.5788319241338438,0.45937067,0.2452624,0.72326446,117.77323,-106.857475,9.331244
5252519790000.0,0.526698180237965,2.120961460175055,1.4748911174234136,0.38606682,0.35033122,0.6789767,117.781265,-106.934814,9.570303
5252524869000.0,0.5710459123632385,2.6309604838074394,1.368456569584245,0.30787608,0.4605924,0.623388,117.77255,-106.8876,9.711621
5252529813000.0,0.5615462476095019,2.8025507148341187,1.372968752390498,0.23671028,0.5552765,0.54611355,117.734184,-106.81421,9.839041
5252534823000.0,0.5471191348501553,2.946821942858575,1.3873958651498446,0.1386664,0.61544675,0.42485678,117.6682,-106.70035,9.942149
5252539959000.0,0.5498482920081065,2.8202729968014806,1.4799537576438453,0.03573562,0.6536258,0.28863382,117.5943,-106.448654,9.915962
5252544801000.0,0.5539341908185743,2.6772664531060006,1.5739294729491586,-0.0711658,0.66614854,0.20586158,117.51028,-106.16919,9.875442
5252550460000.0,0.6162927097175328,2.3411487451700568,1.642364364638063,-0.12034045,0.6743952,-0.07086037,117.403175,-105.822975,9.7453165
5252554846000.0,0.6854747351313515,2.0194522421147987,1.680414494869472,-0.26847526,0.6747007,-0.15668693,117.30697,-105.458534,9.6491
5252559820000.0,0.7182337060323647,1.6018160441243752,1.6584768712022366,-0.310625,0.6640105,-0.29077184,117.184586,-105.09948,9.526161
5252564800000.0,0.5848902926628823,0.9916688744217572,1.3998714583410998,-0.34055737,0.66981375,-0.35979962,117.0615,-104.71315,9.400503
5252569865000.0,0.4492709374989409,0.3711075462001187,1.1368520976700838,-0.36468655,0.6795876,-0.40958515,116.92523,-104.35916,9.310344
5252574877000.0,0.2747882536132899,0.1204883296660387,0.913221286960096,-0.3594942,0.6924158,-0.45631635,116.78761,-103.99741,9.203205
5252579821000.0,0.0963929621770851,-0.0700702800685049,0.6983360465559171,-0.34025195,0.6768387,-0.5036584,116.65767,-103.628815,9.082241
5252584867000.0,-0.0831168831439685,-0.2419344803684163,0.4875034115818653,-0.30757064,0.6740898,-0.54061574,116.48034,-103.365295,8.987383
5252590127000.0,-0.2678020385065724,-0.3995925407994277,0.2757911443548242,-0.26236662,0.66431594,-0.5742133,116.30961,-103.10063,8.879002
5252594905000.0,-0.4160747191200641,-0.5295615162707957,0.1077798665684506,-0.19150625,0.66706485,-0.6236934,116.10784,-102.87997,8.737589
5252599796000.0,-0.5240446372178793,-0.6328370792343155,-0.0095787245443976,-0.14355333,0.6554584,-0.66920286,115.91269,-102.65779,8.586164
5252604786000.0,-0.6061459181863927,-0.7072801601740224,-0.1448919924964881,-0.10567969,0.64599,-0.6985244,115.69824,-102.46261,8.387573
5252609823000.0,-0.6162598329395115,-0.7022232001572491,-0.3218857177016458,-0.09315695,0.63804877,-0.6939429,115.48673,-102.27085,8.184371
5252614907000.0,-0.6295304178073675,-0.6762334630509418,-0.536525997689524,-0.07971791,0.64476824,-0.6569856,115.26486,-102.10117,7.95959
5252620678000.0,-0.6500436640883362,-0.6095654809130556,-0.8442243438340911,-0.067500606,0.6969972,-0.605062,115.03339,-101.94005,7.74095
5252624856000.0,-0.6599954079827951,-0.5351980642822775,-1.0811682084056282,-0.073303826,0.79443026,-0.54061574,114.780914,-101.81854,7.531988
5252629830000.0,-0.6565227096376759,-0.3650357293344025,-1.407602106677845,-0.06383542,0.9370673,-0.47525316,114.50301,-101.716415,7.341495
5252634949000.0,-0.6529487766202523,-0.1899128920609462,-1.743552071546257,-0.06261369,1.0375546,-0.43676865,114.199425,-101.667625,7.145641
5252640126000.0,-0.450332746191839,0.5642889527086412,-1.8699113355059085,-0.058337633,1.3616186,-0.3921755,113.794586,-101.64012,6.9864416
5252644871000.0,-0.097939481933161,1.738933143541359,-1.806983926994092,-0.05955936,1.4596626,-0.3652974,113.426414,-101.62087,6.8268847
5252649800000.0,0.3019333433070866,2.908182196850394,-1.39806292992126,-0.073303826,1.6484199,-0.28802297,112.937515,-101.696396,6.6818185
5252654846000.0,0.786977021695942,3.991167623293242,-0.2105422149779354,-0.16432275,1.7455474,-0.22296582,112.44731,-101.76467,6.5418763
5252660237000.0,1.3316334173389477,5.155041487073684,1.0089906129347368,-0.36132678,1.6716328,-0.15363261,112.12262,-101.7292,6.336035
5252664837000.0,2.058744939023158,6.216030809178948,1.5617437733557895,-0.6960809,1.3796391,-0.03573562,111.83086,-101.66979,6.169252
5252669851000.0,2.8512964976589474,7.372509170273684,2.164244718214737,-1.1682798,0.87689704,0.17654006,111.73811,-101.25681,6.1696506
5252674904000.0,3.3606905822895063,8.017150017834924,1.9626774630754875,-1.6453656,0.3622431,0.4642576,111.754425,-100.824875,6.220644
5252679840000.0,3.697267639444214,8.356994948569058,1.3156650237280525,-1.9599612,-0.046120327,0.7333437,111.90155,-100.38841,6.318458
5252684806000.0,4.035890343218582,8.698905387391124,0.6647201749032217,-2.0357084,-0.26511553,0.93401295,112.24779,-99.90501,6.663773
5252690155000.0,3.88851223694564,10.131767389040132,-0.3366162978440326,-1.956296,-0.3304781,1.0195341,112.677864,-99.51765,7.0386305
5252694852000.0,3.608039793747256,11.703993576183366,-1.3044439962764554,-1.8466456,-0.2669481,0.9963212,113.13816,-99.24801,7.4313183
5252699843000.0,3.468686505345231,13.295357382742788,-1.660925919258425,-1.8277088,-0.10598512,0.9193522,113.46595,-99.23362,7.8960032
5252704852000.0,3.5144001069392705,14.799751060902713,-1.2328800732998353,-1.9559906,-0.01863139,0.8014552,113.79479,-99.271645,8.327889
5252709803000.0,3.5776262679811115,16.17356064261453,-0.8760719228150111,-2.172237,-0.07360926,0.66645396,113.98358,-99.29041,8.560388
5252714863000.0,3.750248434164527,16.90017974459448,-0.9081876644271394,-2.3200662,-0.22510384,0.5128214,114.17278,-99.29307,8.7471895
5252719816000.0,3.9192202897191617,17.61143358097921,-0.9396242786968768,-2.3090706,-0.35308012,0.38759398,114.42029,-99.20294,8.843851
5252724880000.0,3.934717416438869,18.107432541471635,-1.038345687932971,-2.0711386,-0.34055737,0.27947086,114.66734,-99.12802,8.906628
5252729857000.0,3.894558869125632,18.51348063452537,-1.158821446353679,-1.5952746,-0.17837265,0.17256944,114.90424,-99.07176,8.940198
5252734844000.0,3.629947182457096,18.792560031054208,-0.6700965092254608,-1.0781772,-0.0571159,0.096516706,115.123344,-99.03956,8.964218
5252739957000.0,3.207556277308635,18.99263975755925,0.2413784503859075,-0.8579602,0.19547687,0.06383542,115.25498,-99.01586,8.976869
5252744872000.0,3.0291153490821547,19.150472566957568,1.1767598313572074,-0.5742133,0.30726522,-0.055588737,115.35554,-98.94548,8.91858
5252749802000.0,3.175932816230314,19.259401384291305,2.199746106710804,-0.6065892,0.40103304,-0.16982053,115.38823,-98.873764,8.858941
5252754784000.0,3.571449260734408,19.346135786283277,2.6420692475616865,-0.9034697,0.5375614,-0.23915374,115.390625,-98.75047,8.74835
5252759960000.0,4.375618344861084,19.399105061589275,2.160530943384496,-1.3200798,0.69913524,-0.26511553,115.360214,-81.37211,8.626299
5252764810000.0,5.037419337218847,19.439359691512067,1.8460941831062223,-1.5570955,0.75625116,-0.28863382,115.36448,-81.44454,8.526832
5252769782000.0,5.541642542308324,19.462812005746184,1.7835548553439502,-1.4407257,0.57879484,-0.32162055,115.39477,-81.488655,8.42323
5252774869000.0,6.057528190797898,19.486806760876703,1.7195690226153342,-1.1798862,0.19975294,-0.35735616,115.46342,-81.43817,8.390335
5252779825000.0,6.413302661951952,19.501838345345345,1.5751919775075076,-0.9388999,-0.19333886,-0.4025602,115.59243,-81.38229,8.349445
5252784855000.0,6.760483583773774,19.516304001001,1.420889351181181,-0.75502944,-0.40866885,-0.42730024,115.7803,-81.32857,8.308892
5252789994000.0,6.73569647014028,19.522054197995992,0.8606727531703406,-0.59437186,-0.4792238,-0.43982297,116.032074,-81.23251,8.321427
5252794819000.0,6.6801357248998,19.526684844288575,0.3004343982354709,-0.51159966,-0.5186246,-0.46822822,116.33286,-81.15314,8.32435
5252799843000.0,5.93799265936318,19.53096853250066,0.7660838544603746,-0.54061574,-0.68111473,-0.4700608,116.66554,-81.047356,8.361036
5252804762000.0,5.146569648210044,19.53511175916967,1.3213229692083737,-0.62125,-0.9129381,-0.4202753,117.024124,-80.93806,8.404958
5252809826000.0,4.683325697211155,19.536686,1.637939149800797,-0.64965516,-1.0995574,-0.3640757,117.36167,-80.86908,8.434238
5252814847000.0,4.427893357742364,19.536686,1.803970261584772,-0.5699373,-1.0732902,-0.30695978,117.6986,-80.79001,8.477943
5252819796000.0,4.376273345061467,19.536686,1.957660638081108,-0.40683624,-0.8213083,-0.2742785,118.00783,-80.765274,8.440449
5252824861000.0,4.660718720856295,19.536686,2.098169800049456,-0.19425514,-0.47403142,-0.2443461,118.273834,-80.73797,8.418997
5252829833000.0,4.939941308902077,19.536686,2.236099030712166,0.049785517,-0.29840767,-0.22204952,118.493195,-80.740875,8.377947
5252834786000.0,5.268777577146221,19.536686,2.3006124977970237,0.27763826,0.0076358155,-0.22204952,118.57116,-80.763985,8.331928
5252839993000.0,5.658719487715462,19.536686,2.3048054178003867,0.38240165,0.20280726,-0.21410827,118.62708,-80.793045,8.294725
5252844861000.0,6.0014594700969015,19.515213658250307,2.216317644544834,0.57635134,0.28710666,-0.16737708,118.63555,-80.806526,8.298618
5252849802000.0,6.250098992561758,19.39573748642009,1.7061223623331512,0.6719518,0.32650748,-0.10598512,118.599785,-80.81577,8.305352
5252854805000.0,6.501858460461307,19.2747621195578,1.189525115438788,0.6786713,0.35643986,-0.06383542,118.55077,-80.79322,8.355377
5252859804000.0,6.701302180227211,19.134577496258228,0.753206231479578,0.6609562,0.36835176,-0.018936822,118.49345,-80.76427,8.420186
5252864801000.0,6.731505713443332,18.93178291750068,0.5762999558750338,0.5992588,0.39553526,0.03268129,118.42157,-80.72,8.494751
5252870174000.0,6.756387661604811,18.74467567737596,0.3894396267208989,0.51343226,0.4120286,0.09132435,118.33037,-80.660904,8.610433
5252875720000.0,6.697546080596661,18.895982687742343,0.2339296252167444,0.40622538,0.40408736,0.16432275,118.23731,-80.57545,8.741126
5252879795000.0,6.654311417306323,19.00715760069637,0.1196665065493392,0.3304781,0.3491095,0.22724187,118.144135,-80.473114,8.888403
5252884798000.0,6.572028053340873,19.129917392234475,-0.0226725988817265,0.29932398,0.24007004,0.24953845,118.06937,-80.35723,9.041715
5252889974000.0,6.455239766845726,19.24203381556875,-0.1721613919410046,0.34025195,0.05467244,0.21319197,118.03364,-80.2421,9.193808
5252895124000.0,6.284777253163297,19.33155153023812,-0.3326998057736375,0.45723262,-0.1957823,0.16920967,118.03421,-80.14659,9.336301
5252899807000.0,6.061363113480124,19.385170643817872,-0.4935581123204144,0.61483586,-0.45631635,0.14080444,118.09179,-80.06443,9.471781
5252904778000.0,5.656795400084476,19.089892813121832,-0.6863066717064014,0.7806858,-0.61544675,0.13103059,118.18539,-80.0182,9.583085
5252909906000.0,4.928490550300357,18.131112279988734,-0.9260019060672048,0.93309665,-0.68966687,0.1142318,118.327576,-79.98878,9.683248
5252914767000.0,4.324134856472369,17.26240873050719,-1.0610971595230885,1.0103711,-0.66737026,0.09773844,118.46856,-79.99092,9.7529125
5252919784000.0,4.000427876131719,16.505880071006814,-0.8792393142323998,1.0250319,-0.6310238,0.06383542,118.62271,-79.99996,9.810433
5252924860000.0,3.6729140965405,15.740454622407269,-0.6952428177812264,0.9859365,-0.6062838,0.0018325958,118.74346,-80.06954,9.799907
5252929824000.0,3.3537163485863464,14.927291071914098,-0.4551082281591961,0.89949906,-0.61544675,-0.023518313,118.85832,-80.12682,9.788582
5252934856000.0,3.030895678071126,14.058523286277214,-0.1702663939816767,0.8524625,-0.6844745,-0.08674286,118.979034,-80.20296,9.747849
5252940077000.0,2.7414744709991874,13.188141198934922,-0.0108647777145951,0.7684685,-0.7779369,-0.13316862,119.1162,-80.29268,9.679162
5252945724000.0,2.463238844922827,12.270451454373138,0.0574738064467912,0.6921103,-0.8793405,-0.21044308,119.27045,-80.40214,9.584239
5252949985000.0,2.3007339411810337,11.548197748957628,0.0423606306040919,0.6041457,-0.90469146,-0.2443461,119.43667,-80.52611,9.4673815
5252954847000.0,2.183345847124988,10.681331859885582,-0.0705125262406671,0.5870415,-0.906524,-0.27763826,119.61925,-80.66684,9.331138
5252959813000.0,2.083746059183673,9.782720393867448,-0.202097908900788,0.54428095,-0.88361657,-0.30482176,119.793816,-80.82438,9.175217
5252964828000.0,2.035223375510204,8.841381637805618,-0.3767793269246312,0.5027421,-0.838718,-0.33200526,119.95644,-99.01315,9.013141
5252969785000.0,1.9735952624258817,7.883581693435973,-0.5347799233225841,0.4352415,-0.7351763,-0.31703907,120.096054,-98.86692,8.866298
5252974891000.0,1.8769465382190784,6.8306193777176745,-0.6619493070633518,0.3359759,-0.600786,-0.29565877,120.20844,-98.71835,8.716714
5252979786000.0,1.7517809050428348,5.847582426207166,-0.7826223754088785,0.2284636,-0.49968776,-0.2770274,120.30881,-98.595406,8.592089
5252984855000.0,1.5674693607866044,4.874039326713396,-0.9054967711448598,0.1133155,-0.4343252,-0.2593123,120.377266,-98.47986,8.475517
5252990068000.0,1.3565911997610107,3.8405908786275176,-1.1347715088426085,0.014966198,-0.42058071,-0.24984388,120.44316,-98.38322,8.377763
5252994870000.0,1.1273585733356095,2.8357355725844995,-1.5147324065824517,-0.05100725,-0.42943826,-0.23793201,120.49478,-98.29296,8.287279
5252999821000.0,0.8910131477978833,1.799700874496415,-1.9064830114783204,-0.09682214,-0.47433686,-0.22235495,120.56209,-98.21118,8.204949
5253004844000.0,0.6565315922001662,0.953751337581202,-2.19841615861878,-0.08307768,-0.5152648,-0.18967366,120.62915,-98.138794,8.132064
5253009874000.0,0.4297069071387683,0.4155986023037576,-2.331842446680824,-0.040011674,-0.5540548,-0.16035213,120.70691,-98.07093,8.063818
5253015464000.0,0.1906020657415427,-0.1091039567334463,-2.4573240610368416,0.013133603,-0.5849035,-0.12370021,120.71686,-97.95208,7.9424744
5253019854000.0,0.0243648614548421,-0.3993594178976965,-2.5180138203414297,0.06078109,-0.59986967,-0.11911872,120.73009,-97.834984,7.821719
5253024836000.0,-0.1642897517015,-0.7287563899979915,-2.586887711196887,0.074830994,-0.58123827,-0.12705997,120.801094,-97.77558,7.7502856
5253030162000.0,-0.3776421846762745,-1.091745730264573,-2.664311343407185,0.064751714,-0.46273044,-0.17134771,120.84485,-97.71145,7.6694913
5253034902000.0,-0.655923730686169,-1.4969626614325662,-2.761954017960852,0.017715093,-0.40103304,-0.20097467,120.89695,-97.652596,7.5899806
5253039956000.0,-0.9254672456718864,-1.8727419356317128,-2.828557897720751,-0.00030543262,-0.24831672,-0.25625798,120.89329,-97.57421,7.479431
5253044887000.0,-1.088079044486349,-2.031482012052144,-2.7549953986308107,-0.032070424,-0.112399206,-0.30787608,120.87519,-97.49259,7.3611474
5253049850000.0,-1.2517461216545052,-2.191252241067476,-2.6809555115930146,-0.021380283,0.0015271631,-0.35002577,120.81101,-97.38678,7.2042785
5253054859000.0,-1.2206867752066115,-2.261471900826446,-2.394676594214876,0.020463986,0.1151481,-0.38789943,120.70606,-97.27731,7.0338354
5253059851000.0,-1.124904301477586,-2.301381230152767,-2.0394833131730525,0.07849618,0.22724187,-0.4089743,120.56706,-97.17378,6.8562107
5253064817000.0,-1.0073756037026556,-2.307807495806124,-1.7325904326948192,0.14874569,0.32467487,-0.42638394,120.40084,-97.054634,6.647182
5253069843000.0,-0.8467225988833261,-2.251928236714555,-1.5090732504571178,0.20738874,0.4025602,-0.42210788,120.20641,-96.95482,6.4379997
5253074865000.0,-0.68619745160862,-2.1960934497750686,-1.2857339569438395,0.2452624,0.441961,-0.41416663,120.0237,-96.86313,6.2473288
5253079927000.0,-0.4500187034,-2.055182761904762,-1.0387643552380952,0.25778514,0.4746423,-0.39614612,119.81944,-96.79094,6.0605526
5253085176000.0,-0.1550318702545454,-1.852077011640212,-0.7679567555459356,0.24770586,0.47616947,-0.35246924,119.61209,-96.742325,5.882372
5253089943000.0,0.0577395170238246,-1.6124121797217423,-0.543669519468946,0.2171626,0.44532076,-0.27488935,119.42864,-96.717766,5.7538524
5253094878000.0,0.233944231431845,-1.320170248467764,-0.3287857124352096,0.20647246,0.36346483,-0.20341812,119.25933,-96.711815,5.634549
5253099842000.0,0.387771617526085,-0.9498793432451234,-0.1185580599984878,0.19639318,0.23304509,-0.13897185,119.13647,-96.73002,5.5788627
5253104844000.0,0.4928065717631937,-0.4138388294964464,0.0806461815514895,0.18784106,0.06261369,-0.0720821,119.04966,-96.767586,5.5420833
5253109796000.0,0.5967915964297597,0.1168434224194767,0.2778591771843339,0.18692477,-0.13439035,-0.03268129,119.02788,-96.80651,5.5414486
5253114858000.0,0.6227478390771297,0.4802018952455871,0.3385507772217959,0.1881465,-0.31123585,0.0033597588,119.05032,-96.86023,5.556523
5253119847000.0,0.6089972715684958,0.7506299989121259,0.3293837290253261,0.18906279,-0.3912592,0.009468411,119.101456,-96.916885,5.5727887
5253124879000.0,0.5673223317971187,0.9614876549532156,0.2832390828739046,0.1908954,-0.52778757,0.0125227375,119.15545,-96.772514,5.488179
5253129828000.0,0.5074882602643696,1.1269112692410514,0.2128460666211198,0.17928895,-0.6236934,0.002443461,119.22554,-96.63469,5.408335
5253134791000.0,0.4474849268602406,1.2928028428338036,0.1422539187806327,0.15943582,-0.6704246,-0.016493361,119.33191,-96.5108,5.334131
5253139949000.0,0.3895864945576652,1.4102767470110271,0.0540163378424674,0.13103059,-0.6740898,-0.036957346,119.45448,-96.38836,5.2621665
5253144786000.0,0.3358163155211011,1.5139763562391175,-0.0304796691302545,0.0870483,-0.64873886,-0.060170226,119.58264,-96.26225,5.1901
5253149988000.0,0.3144880066595727,1.5786264824670542,-0.0665767187889007,0.024129177,-0.6017023,-0.0729984,119.716675,-96.142654,5.1084332
5253154784000.0,0.3295261851911271,1.5936646531472538,-0.0477789920913481,-0.02565634,-0.55924714,-0.07666359,119.84358,-96.02014,5.028427
5253159949000.0,0.3477617834390069,1.6041087103724223,-0.0221375838709346,-0.087659165,-0.50976706,-0.07086037,119.9517,-95.88529,4.93178
5253164965000.0,0.3970459312752642,1.525254071775931,0.0862875506319893,-0.160963,-0.4783075,-0.060170226,120.051926,-95.74742,4.841514
5253169826000.0,0.4442226867062262,1.4265268761934284,0.1937660036072978,-0.25045475,-0.47586402,-0.05375614,120.154396,-95.60078,4.7564726
5253174872000.0,0.4870218924984501,1.0884132800371975,0.3307234174519529,-0.31429017,-0.48349985,-0.03023783,120.25134,-95.46087,4.6848526
5253179796000.0,0.5287863176512266,0.7584744477991321,0.464369534330883,-0.37720928,-0.5036584,-0.0009162979,120.36435,-95.302925,4.6216955
5253184847000.0,0.4933950372800615,0.5428059065501345,0.4608346191087207,-0.41325033,-0.52595496,0.018020526,120.48203,-95.15511,4.568306
5253189854000.0,0.4418149276189013,0.3549069691663465,0.4276759799316174,-0.41905355,-0.5564982,0.032375857,120.60996,-95.02185,4.5273795
5253194793000.0,0.3858698949013089,0.1638025956014959,0.3727851088718055,-0.39187005,-0.57696223,0.041233405,120.76434,-94.90386,4.5094657
5253200770000.0,0.2966730674059837,-0.0918949608217328,0.2122308305568252,-0.3436117,-0.5830709,0.049785517,120.925835,-94.80757,4.501018
5253204774000.0,0.2360948396159482,-0.2460708073955657,0.1039833975354458,-0.25717425,-0.5635232,0.056199603,121.10531,-94.77138,4.519851
5253209828000.0,0.1577981379198781,-0.4026642338719193,-0.0341872587401275,-0.16371189,-0.5357288,0.06811147,121.28404,-94.75026,4.544351
5253214803000.0,0.0846005142151167,-0.5448716706597613,-0.1450480442332808,-0.059253927,-0.48655418,0.073303826,121.443665,-94.761246,4.5745997
5253219795000.0,0.0271871171748104,-0.6381684524656609,-0.1522247214861517,0.019547688,-0.45845437,0.08674286,121.60121,-94.78437,4.6112485
5253224839000.0,-0.0308243360846656,-0.7324370757487053,-0.1594761557937401,0.05100725,-0.42546764,0.099265605,121.72624,-94.81049,4.635039
5253229764000.0,-0.0799281446155921,-0.7173064037766388,-0.1335982235305278,0.09743301,-0.36987892,0.12064589,121.83669,-94.85014,4.6656313
5253234838000.0,-0.1236227033045589,-0.6037005429727542,-0.0767952963223631,0.105374254,-0.32742378,0.1563815,121.94143,-94.896904,4.7041388
5253239849000.0,-0.1656360354886753,-0.3230407649279341,-0.0227983207329444,0.06780604,-0.2751948,0.19547687,122.02284,-94.941734,4.738809
5253245085000.0,-0.2069352783740563,0.3549551112560055,0.0288257308972546,0.0125227375,-0.2134974,0.24862215,122.08961,-94.99952,4.787959
5253249803000.0,-0.2441487672841455,0.9658765291008924,0.0753425902538778,-0.04153884,-0.12461651,0.29840767,122.137886,-95.05296,4.840189
5253254813000.0,-0.2306180637196652,1.6076213269874478,0.1991762197210599,-0.102319926,-0.028710667,0.3494149,122.16675,-95.116035,4.9082074
5253259834000.0,-0.1348118285068738,2.239942447579199,0.4386918052520423,-0.18234327,0.02565634,0.37659842,122.18221,-95.18034,4.9837165
5253264820000.0,0.0184399351077542,2.926182279456193,0.577395638549849,-0.27763826,0.09040806,0.38973203,122.15881,-95.1563,4.9924655
5253271058000.0,0.3247153892679666,3.899700732683328,0.5555188132161494,-0.41050145,0.172264,0.43585235,122.11639,-95.14581,5.0195465
5253274845000.0,0.5106523669677734,4.494557336914062,0.5232266065429687,-0.57818395,0.31673363,0.5198463,122.07084,-95.14146,5.0683923
5253279828000.0,0.7553168843188476,5.290687775683594,0.4144868246582031,-0.7654142,0.46578476,0.61819565,122.00393,-95.16644,5.1363697
5253284782000.0,0.998557506224772,6.082184904654948,0.306379885172526,-0.94897914,0.58062744,0.74372846,121.92963,-95.24214,5.2388935
5253289969000.0,1.2432828839957244,7.211274133320376,0.2669119607015839,-1.1191051,0.5992588,0.88361657,121.84718,-84.62112,5.3742547
5253294775000.0,1.4669061433874258,8.351752737537653,0.2534945623360218,-1.271516,0.5354234,1.0082331,121.76292,-84.42055,5.5399966
5253299821000.0,1.8226923775233503,9.887087838806869,0.1036280287375715,-1.4291192,0.43401974,1.1261301,121.68205,-84.126656,5.7655497
5253304686000.0,2.220427552676509,11.520141351411066,-0.1022584048116902,-1.5745052,0.28130344,1.2666291,121.639854,-83.76406,6.027842
5253309712000.0,2.755600439583746,13.323435596134786,-0.2779048855569871,-1.7333301,0.035430185,1.4208726,121.66837,-83.326866,6.336392
5253314683000.0,3.3453712109018827,15.16352095837463,-0.4336044044598612,-1.8903224,-0.106595986,1.4804319,121.71298,-82.85609,6.650052
5253319676000.0,4.189473032646819,16.428786375917618,-1.1628936481188823,-1.9434677,-0.3659083,1.4785993,121.841225,-82.35091,7.0079184
5253324712000.0,5.177848723429854,17.387658130811584,-2.210276825586256,-2.0152445,-0.3268129,1.20371,121.92743,-81.88624,7.2910004
5253329681000.0,6.375798283606557,18.00620180327869,-3.2641210909836067,-1.9911152,0.11759156,0.657291,121.96455,-81.47302,7.5290885
5253334677000.0,7.679790422704918,18.481717602459018,-4.332806288237705,-1.7947221,0.5558874,0.092240654,121.998085,-81.15349,7.671518
5253339802000.0,7.730382509931811,18.78400501334124,-3.3965238843759264,-1.4694363,0.6441574,-0.1957823,121.951065,-80.91693,7.829096
5253344687000.0,7.351275806700267,19.0105451383536,-1.8292410787133115,-1.0876455,0.4801401,-0.33261612,121.86487,-80.82033,7.8618803
5253349674000.0,6.893160948499999,18.828275018653848,-0.3156773598846154,-0.77549344,0.32284227,-0.45875978,121.74908,-80.773384,7.9472356
5253354716000.0,6.401012589,18.475413072692305,1.1793395377692306,-0.5696318,0.3830125,-0.5647449,121.62395,-80.79146,7.992562
5253359765000.0,6.415919580719667,18.250583188243457,2.481308949861221,-0.48899764,0.6273586,-0.63407815,121.610825,-80.7395,8.005615
5253364735000.0,6.708445021143933,18.09960268764869,3.6561289599722446,-0.5467244,0.89980453,-0.6728681,121.57315,-80.71692,7.9917045
5253369722000.0,6.973220929955157,18.390406382062785,4.583279206278027,-0.75594574,1.1346822,-0.6627888,121.59749,-80.597,7.9377203
5253374781000.0,7.224277346507224,18.955283180667664,5.370244844544096,-1.072374,1.3240504,-0.6197228,121.55578,-80.44955,7.875307
5253379734000.0,6.829464164304063,19.219515836457045,5.750013867814671,-1.3365731,1.4049901,-0.6056729,121.59027,-80.10698,7.8751793
5253384723000.0,6.043077299248407,19.31042803253734,5.89547262211017,-1.3799446,1.2263119,-0.5849035,121.64226,-79.73638,7.8852572
5253389766000.0,5.1480213293136,19.379575119201352,5.645809680679448,-1.2000448,0.7476991,-0.5384777,121.79262,-79.26654,7.936281
5253394793000.0,4.162883929412933,19.42739728429522,5.028903401420482,-0.88361657,0.1255328,-0.48441613,122.028694,-78.81962,8.000566
5253399723000.0,3.2995643729969504,19.46156659855836,4.722085421153313,-0.44318274,-0.34391713,-0.48472157,122.28417,-78.517586,7.972793
5253404748000.0,2.521299468644303,19.483802722761297,4.704296521790962,0.027183503,-0.57360244,-0.50823987,122.63756,-78.28993,7.967925
5253409844000.0,1.8113231327996808,19.50182382543168,4.74947691820541,0.36865717,-0.657291,-0.5421429,122.96676,-78.290375,7.853953
5253414770000.0,1.265126866302026,19.511240701167782,4.904860284509432,0.44104472,-0.6835582,-0.5375614,123.33421,-78.32765,7.756061
5253419748000.0,0.8372866956951658,19.51914587195365,4.929600097692769,0.3885103,-0.7858781,-0.48899764,123.6707,-78.477104,7.5800247
5253424770000.0,0.6499420892109469,19.523950178385935,4.694218325679185,0.25809056,-0.99021256,-0.39828414,124.03349,-78.60753,7.430808
5253429729000.0,0.6506969872190737,19.52865952667579,4.3797916056869255,0.18509217,-1.2330315,-0.27885997,124.388306,-78.74365,7.263182
5253434787000.0,1.029352389486027,19.53339232010944,3.892272811100254,0.18081611,-1.3820826,-0.14844026,124.7623,-78.83923,7.1376734
5253439862000.0,1.46106172339821,19.536686,3.4366354380664865,0.23457226,-1.4291192,-0.07391469,125.136154,-78.94649,7.0167613
5253444835000.0,1.9989539507032248,19.536686,3.0645086881659327,0.2828306,-1.3933836,-0.0027488936,125.51483,-79.02163,6.9408364
5253449796000.0,2.535548227731212,19.536686,2.6932798914121325,0.30634892,-1.3060299,0.080634214,125.86205,-79.09353,6.9186954
5253454834000.0,3.2205769051598314,19.536686,2.272941680367972,0.34147367,-1.1881329,0.1563815,126.17971,-79.16162,6.9141893
5253459832000.0,4.0471059104635625,19.536686,1.8104790880768835,0.40439278,-1.0998629,0.19517145,126.47179,-79.22779,6.9219146
5253464808000.0,4.964974823064467,19.536686,1.3016654758081163,0.50732356,-1.0635164,0.19700404,126.73459,-79.287796,6.9964323
5253469798000.0,5.966105377664204,19.536686,0.750318219417063,0.64812803,-1.0662653,0.19425514,126.976395,-79.3587,7.076107
5253474874000.0,6.871648161852312,19.536686,0.2989548567426492,0.8231409,-1.0754282,0.17959438,127.21591,-79.436455,7.2114353
5253479804000.0,7.667510890901254,19.536686,-0.0582790107317306,1.0015136,-1.0775663,0.1731803,127.44827,-79.53503,7.3427267
5253484798000.0,8.268565975059149,19.463098430205047,-0.3694132225492902,1.1585059,-1.0516045,0.16035213,127.701385,-79.63469,7.5451365
5253490233000.0,8.673923266315063,19.293772248225554,-0.6464929569292193,1.2660183,-0.9981538,0.14294247,127.94217,-79.74573,7.7362742
5253494812000.0,8.809135653296655,18.941816988552667,-0.7851128555949951,1.3622295,-0.9245446,0.129198,128.18791,-79.834625,7.9846873
5253499815000.0,8.719849706362588,18.31681180832372,-0.827630186706895,1.4340062,-0.8671232,0.098043874,128.41884,-79.92226,8.213766
5253504826000.0,8.572806519772199,17.56069055570707,-0.8671661320486084,1.4804319,-0.8359691,0.03573562,128.64047,-79.99268,8.452511
5253509826000.0,8.188720131707708,16.270161158097377,-0.8940521711919467,1.5030339,-0.8197812,-0.037873644,128.84587,-80.05426,8.669842
5253514773000.0,7.808705059356702,14.99331137210235,-0.9206532183203656,1.4862351,-0.782213,-0.07666359,129.03862,-80.093834,8.8765955
5253519787000.0,7.466986510963794,14.176926826109128,-0.9854539026134626,1.4596626,-0.74464476,-0.14874569,129.22375,-80.137405,9.046634
5253525878000.0,7.075327859935408,13.443186516063232,-1.0846079642869286,1.3933836,-0.72021013,-0.21685717,129.39711,-80.161255,9.200781
5253529838000.0,6.808335567795335,12.981552427389014,-1.1483247212039127,1.3170254,-0.7144069,-0.26847526,129.56982,-80.18758,9.322098
5253534793000.0,6.454847582844244,12.428111737020316,-1.22687761503386,1.2345587,-0.7067711,-0.2996294,129.7307,-80.20174,9.427296
5253539903000.0,6.090301951542513,11.85735857298721,-1.3078877638675697,1.1343768,-0.7415904,-0.32467487,129.89899,-80.22789,9.498326
5253544842000.0,5.631099727590328,11.115846457387148,-1.3800595259170727,1.0323622,-0.7611381,-0.35918877,130.05649,-80.24529,9.556709
5253549841000.0,5.120532880969018,10.283974619196467,-1.4504825075480372,0.89369583,-0.78801614,-0.3753767,130.22185,-80.24498,9.613157
5253554783000.0,4.596285727730777,9.447551584508366,-1.5551228705959768,0.74220127,-0.8063421,-0.40775254,130.38577,-80.27804,9.623115
5253559964000.0,4.027257004239519,8.556694755123143,-1.6997121711317915,0.57848936,-0.8081747,-0.43676865,130.54868,-80.30067,9.630177
5253564799000.0,3.301873204236984,7.390038035188509,-2.064003053177738,0.43188173,-0.8026769,-0.4709771,130.71278,-80.36121,9.591297
5253569808000.0,2.242566646822262,5.650364223608618,-2.8046564101166966,0.30726522,-0.7632761,-0.51007247,130.86397,-80.42209,9.54435
5253574835000.0,1.2799416077169132,4.047382575369852,-3.498885004398241,0.20769419,-0.66156703,-0.5513059,130.98694,-80.52821,9.44877
5253579852000.0,0.8428901712265094,3.1924905897640943,-3.9359365161135536,0.1386664,-0.5195409,-0.5910121,131.0832,-80.63916,9.344569
5253584851000.0,0.4140467716851097,2.35919089497185,-4.337337996971462,0.10842858,-0.37507126,-0.634689,131.07727,-80.87812,9.1138115
5253589863000.0,0.0180157783750728,1.618379979848573,-4.565638245777519,0.12889257,-0.24923302,-0.659429,131.02946,-81.11907,8.878066
5253595813000.0,-0.3932354341025904,0.7849902889833111,-4.830199573052115,0.18417588,-0.13561209,-0.679893,130.87445,-81.454765,8.544836
5253599857000.0,-0.5518454698802089,0.3131254091512235,-4.996740163202621,0.2519819,-0.030848695,-0.6844745,130.67775,-98.21192,8.211622
5253604799000.0,-0.7277674890077637,-0.2301280758502177,-5.18288436563151,0.3051272,0.012217305,-0.6743952,130.52711,-97.92435,7.914476
5253609861000.0,-0.7966149544688506,-0.5789552453692484,-5.26550117081992,0.35308012,0.116675265,-0.6569856,130.32234,-97.65347,7.6179624
5253614981000.0,-0.8603486061467577,-0.919180623119454,-5.336298890750853,0.36957347,0.22388211,-0.62888575,130.11069,-97.42234,7.3319497
5253619803000.0,-0.8367072946723549,-1.0610284919658703,-5.222032466928328,0.39950588,0.30207285,-0.59131753,129.87305,-97.2319,7.053796
5253624884000.0,-0.8117961574675767,-1.2104953151945392,-5.101628547508533,0.4025602,0.3539964,-0.52503866,129.61218,-97.099724,6.7934413
5253629848000.0,-0.7095859839321966,-1.293816515433133,-4.928738865536612,0.43127087,0.35827246,-0.4202753,129.34009,-97.03486,6.555132
5253634832000.0,-0.5731719539489504,-1.3502637168522715,-4.731173832482507,0.47800204,0.3268129,-0.3109304,129.06148,-97.03599,6.3372307
5253639853000.0,-0.4365359254355965,-1.3823674231103915,-4.451317861924517,0.54825157,0.2947425,-0.19150625,128.79552,-97.11811,6.1604624
5253644829000.0,-0.3015245387230598,-1.4016546971769706,-4.133076706971568,0.6026186,0.23945917,-0.079107046,128.54552,-97.27263,6.0118804
5253649801000.0,-0.171958984204632,-1.406243808463591,-3.7395107058139536,0.66950834,0.19456059,0.030543262,128.32028,-97.50432,5.916041
5253654792000.0,-0.0444008856786122,-1.4039659868471217,-3.309002134883721,0.7425067,0.13988814,0.13500121,128.11551,-97.803825,5.84905
5253659809000.0,0.0838217110565192,-1.40167629919939,-2.87625088255814,0.79534656,0.12736541,0.23640485,127.93798,-98.14215,5.832673
5253665660000.0,0.23335936573008,-1.3990059857796415,-2.3715613116279077,0.8237518,0.14508049,0.34208453,127.770615,-98.53255,5.8461947
5253669807000.0,0.3359053840294295,-1.3749425442955048,-2.0030699621648864,0.8145888,0.19028452,0.44501534,127.60563,-98.96186,5.8864727
5253674839000.0,0.4573287003446885,-1.3263732968857085,-1.5465182554928445,0.7464773,0.26175576,0.54000485,127.43256,-99.41611,5.9553742
5253679806000.0,0.5084941635046304,-1.224565323442891,-1.142041655311422,0.63071835,0.36468655,0.6151413,127.29949,-99.79541,6.103642
5253684797000.0,0.4911352398356637,-1.068334833693481,-0.7818436232613037,0.50793445,0.48533243,0.66339964,127.145065,-100.17226,6.27437
5253689845000.0,0.4678335138947369,-0.857046799448725,-0.39149759582637,0.38087448,0.6206391,0.6719518,126.98801,-100.48399,6.4851837
5253694891000.0,0.4311246606315789,-0.5214230967509496,0.0594967557004884,0.2556471,0.7480045,0.65240407,126.80118,-100.77268,6.7063127
5253699776000.0,0.4219959325498997,-0.1939049533511603,0.504823299640913,0.12767084,0.8173377,0.59773165,126.61492,-100.975494,6.927072
5253704689000.0,0.4444631599064081,0.1386098989170088,0.9631545781854648,0.04886922,0.82741696,0.5705481,126.4107,-101.16399,7.152758
5253709707000.0,0.4945096138675995,0.4753518694682454,1.437382836178687,0.043982297,0.7825184,0.5161811,126.221176,-101.26068,7.3515043
5253714717000.0,0.5978030704553283,0.8058908744628633,1.9228620287513456,0.045814894,0.6603453,0.47769663,126.050705,-101.34121,7.5435476
5253719676000.0,0.6876618227674859,1.0604295120982987,2.3154039739886576,0.09865474,0.49510628,0.45662177,125.92991,-101.33389,7.710572
5253724716000.0,0.7652176381172022,1.238351754064272,2.616503053761815,0.17470746,0.32589662,0.4334089,125.843506,-101.32624,7.8599486
5253729676000.0,0.8014997279648793,1.3628586395108184,2.8095839817811226,0.24770586,0.15974127,0.42363504,125.82656,-101.2611,8.00847
5253734679000.0,0.7664428226675029,1.3979155657259328,2.8196002837671164,0.31764993,0.014660766,0.39950588,125.8501,-101.20711,8.140225
5253739692000.0,0.702403233270565,1.3642869264222002,2.708380724826561,0.34391713,-0.06566802,0.36865717,125.91725,-101.12177,8.27723
5253744698000.0,0.602624127482656,1.2455022365113977,2.4470543772547075,0.35338554,-0.07452556,0.32650748,126.00319,-101.04483,8.4017105
5253749689000.0,0.5154845496826719,1.0962648868998055,2.165462179655842,0.31429017,-0.016493361,0.26267207,126.09031,-100.953804,8.506353
5253754721000.0,0.4441506681543158,0.9045550442131556,1.853376506161532,0.25717425,0.07666359,0.2003638,126.16757,-100.857704,8.60071
5253759732000.0,0.3692821096677429,0.704290763276742,1.5263420630559317,0.18753563,0.19486602,0.11728613,126.204865,-100.76246,8.657014
5253764740000.0,0.2843606383876679,0.4794986634871367,1.1566839316946151,0.098043874,0.33353242,0.016187929,126.2068,-100.63924,8.694189
5253769707000.0,0.2237041112843029,0.2737957573304062,0.85337652830955,0.009773844,0.4728097,-0.07971791,126.1574,-100.527504,8.702012
5253774739000.0,0.206071291913648,0.0974675765122575,0.6638237258287596,-0.06078109,0.605062,-0.15821409,126.06833,-100.38664,8.689744
5253779744000.0,0.1950529265838243,-0.0654680147355115,0.4811947688344938,-0.112399206,0.70341134,-0.2134974,125.93079,-100.261116,8.650919
5253784756000.0,0.2156202363599357,-0.1683045625422603,0.3269399643053026,-0.15210545,0.7583892,-0.23151793,125.767624,-100.117714,8.602397
5253789756000.0,0.2340387382903379,-0.2548032371385055,0.2258603886939552,-0.17104226,0.7620544,-0.23060162,125.57794,-100.00288,8.556426
5253794768000.0,0.2477461933041408,-0.3050639166549262,0.2441369985597334,-0.16768251,0.73884153,-0.22357668,125.38079,-99.88313,8.507322
5253799750000.0,0.2512815693933755,-0.359349444068664,0.266777498061965,-0.16187929,0.7128797,-0.22418754,125.17818,-99.78483,8.463151
5253804794000.0,0.2153266721697059,-0.4312592525949014,0.3072267691710085,-0.14905111,0.65576386,-0.2275473,124.99223,-99.68954,8.418547
5253809923000.0,0.1731899698184977,-0.5054479076903424,0.3465189116974962,-0.13133603,0.5928447,-0.23640485,124.81543,-99.60188,8.380694
5253814826000.0,0.0772163694392437,-0.5870254848237098,0.3657136280654062,-0.09101892,0.55680364,-0.25350907,124.64785,-99.516754,8.338717
5253819862000.0,-0.0303349833791006,-0.659415819143863,0.3761528687245959,-0.064751714,0.5186246,-0.26236662,124.49735,-99.429985,8.295854
5253824849000.0,-0.2022968199282285,-0.6479516765698512,0.3188322635909745,-0.044898596,0.50793445,-0.27580565,124.34938,-99.34267,8.2465925
5253829857000.0,-0.3749827789091855,-0.6364392590822532,0.2612702843430949,-0.02565634,0.54244834,-0.29779682,124.196396,-99.238655,8.175113
5253834786000.0,-0.4736045499517501,-0.5175911489297307,0.1783651985591718,-0.0009162979,0.59620446,-0.32559118,124.041016,-99.13298,8.098067
5253840109000.0,-0.5317417124660058,-0.3163471510641285,0.0710350578030528,0.03848451,0.7012733,-0.35735616,123.8608,-99.02498,8.015161
5253844828000.0,-0.5185657349012776,-0.0338358224099883,-0.0043629526913472,0.069027774,0.81092364,-0.39461896,123.65332,-98.87271,7.8693624
5253849801000.0,-0.3802804284165698,0.4639912905613627,-0.0458485451180797,0.10934488,0.9416488,-0.4129449,123.40961,-98.72322,7.721585
5253854754000.0,-0.215894537173913,1.0175357434782608,-0.0250870686304347,0.129198,1.0861185,-0.3839288,123.12329,-98.569244,7.5536532
5253859824000.0,0.0319257114650283,1.7564072576559546,0.1814298039574669,0.13194689,1.2391402,-0.31978795,122.797554,-98.42303,7.3923955
5253864846000.0,0.2813840361751534,2.497854203449992,0.41975610586001,0.06627888,1.3805555,-0.22082779,122.48873,-98.18043,7.150747
5253869790000.0,0.5483972986332726,3.27926074277658,0.8359826586681043,-0.09437868,1.4618006,-0.119729586,122.156136,-97.95173,6.9363446
5253876406000.0,0.9151065345452946,4.333288328153887,1.36713114188749,-0.36926803,1.4688255,0.0027488936,121.90025,-97.589226,6.660234
5253879826000.0,1.2149813838101946,4.976289124878951,1.338297010185756,-0.6939429,1.3585643,0.14782938,121.661514,-97.26733,6.4463935
5253884845000.0,1.655060877512105,5.919920995862312,1.2959816572585616,-0.9477574,1.16492,0.3567453,121.48045,-97.02659,6.4076614
5253889908000.0,2.0888763473024525,6.829378172752044,0.8860781706721164,-1.0476339,0.98807454,0.6420194,121.34284,-96.87279,6.44279
5253894868000.0,2.503053646485013,7.674989922070845,0.0922383021889192,-1.0461067,0.8258898,0.9114109,121.27009,-96.80709,6.5398493
5253899803000.0,2.8363574700313228,8.535074659139132,-0.64271240898252,-0.98624194,0.7504479,1.0259482,121.260086,-96.884865,6.745216
5253904787000.0,2.9521036057896333,9.456221044104272,-1.231088515156108,-0.95233893,0.591623,1.1917981,121.331474,-97.094475,7.038135
5253909796000.0,3.038689546531303,10.715209932053725,-1.5843204689403552,-0.96486163,0.43676865,1.2971723,121.32679,-97.445305,7.4205117
5253914811000.0,3.048847679357022,12.833182164234348,-1.3252879227791878,-1.1523973,0.25045475,1.353372,121.381096,-97.826004,7.8204985
5253920750000.0,3.101741393043405,14.777585605736878,-1.1192933791218034,-1.5381587,0.025045475,1.3090842,121.42133,-98.186554,8.186379
5253924858000.0,3.167928329348923,15.714131163946838,-1.0497970631729474,-2.026851,-0.16982053,1.1343768,121.50846,-81.47923,8.516696
5253930189000.0,3.265070751144325,16.89822461622295,-1.0390321091857389,-2.4535403,-0.20861048,0.72051555,121.63405,-81.308464,8.662021
5253934825000.0,3.455160609341429,17.634390812704343,-1.7751982334890235,-2.6267207,0.0125227375,0.111177474,121.741905,-81.21393,8.700153
5253939900000.0,3.663250779822513,18.440267311225284,-2.581074652997042,-2.4422393,0.4382958,-0.41050145,121.79744,-81.208786,8.612152
5253944837000.0,3.815149508106943,18.947758226821904,-2.008794043704183,-1.9040669,0.81581056,-0.56413406,121.807434,-81.23736,8.471749
5253949813000.0,3.907622105950841,19.127565847347995,0.1951352035575677,-1.3026701,0.9746355,-0.52320606,121.76507,-81.333565,8.257426
5253954899000.0,4.344095480291971,19.233374175182483,1.9566745781021897,-0.9251554,1.0577132,-0.54458636,121.53356,-81.54637,7.982929
5253959840000.0,4.99170955520073,19.28518344543796,3.346886329945256,-0.8026769,1.1548407,-0.5525276,121.25769,-81.75549,7.737528
5253964851000.0,5.644116056767273,19.340977731833,4.469526964370596,-0.8081747,1.1746938,-0.53878313,121.123985,-81.80046,7.5636687
5253969792000.0,6.281073829940056,19.400692177200547,5.161223109033547,-0.88086766,1.0567969,-0.5131268,121.008675,-81.83168,7.4014635
5253974877000.0,6.819288571792653,19.445427178976725,5.086613342412003,-0.95081174,0.88270026,-0.48197266,121.02434,-81.609,7.389222
5253979808000.0,7.228029727543759,19.472676668397767,4.255506238776688,-1.0005972,0.6704246,-0.42546764,121.083885,-81.35833,7.3903723
5253984833000.0,7.265387204689916,19.494001631506613,3.503699624033671,-0.95417154,0.35430184,-0.35246924,121.26184,-80.96831,7.484877
5253990759000.0,6.6901635886445625,19.50862574935578,2.772483042174884,-0.8045095,-0.09865474,-0.30879238,121.53376,-80.58651,7.587063
5253994847000.0,6.254494482935855,19.518003614103616,2.2682195835526318,-0.6017023,-0.34880406,-0.31245756,121.78189,-80.25532,7.7184916
5253999796000.0,5.3726475978618415,19.52287630345395,1.6592093184210523,-0.37018433,-0.8145888,-0.31795537,122.213615,-79.95827,7.8728538
5254004848000.0,4.5728337582803,19.52761920322444,1.227838450572762,-0.25473082,-0.9810496,-0.3491095,122.52792,-79.807625,7.9339128
5254009831000.0,4.350121212416914,19.530993351718287,1.8757295058973271,-0.038789943,-0.752586,-0.31306845,122.85203,-79.706764,8.011125
