timestamp,acc_x,acc_y,acc_z,gyro_x,gyro_y,gyro_z,ori_azimuth,ori_pitch,ori_roll
2688570323000.0,-3.434349781199904,9.79605364537286,0.2333276838838971,5.6312613,-4.32065,3.2464433,289.64502,-1.0294961,-7.293723
2688575325000.0,-3.4023522897255294,9.787327178285173,0.1809681220063164,5.6312613,0.7504479,0.031154128,290.5888,-0.9032078,-8.729338
2688580316000.0,-3.370425164585865,9.77861990174886,0.128723705106875,-1.1801916,0.75991637,0.03756821,290.01447,-1.595181,-7.760808
2688585320000.0,-3.3384148792324524,9.769889945470016,0.0763432077787233,-1.1847731,0.75869465,0.03634648,290.33047,-4.0802593,-8.256409
2688590739000.0,-3.3037498639786262,9.76043598202576,0.01961860445713,-1.1939361,0.7654142,0.03604105,290.62042,-4.6219044,-8.754314
2688595327000.0,-3.274400705465146,9.752431777507908,-0.0284073191522944,-1.1960741,0.7648033,0.036957346,290.8841,-5.1564717,-9.24656
2688600333000.0,-3.242377626232695,9.743698332037903,-0.0808087519310167,-1.1927143,0.75747293,0.027794369,291.12524,-5.6823125,-9.735541
2688605178000.0,-3.211384454262814,9.735245766456169,-0.1315248809387894,-1.1911873,0.75136423,0.03604105,291.33643,-6.201371,-10.22004
2688610190000.0,-3.1793229933932485,9.72650185341269,-0.1839891200692243,-1.1792754,0.73792523,0.03573562,291.52942,-6.717419,-10.696523
2688615244000.0,-3.1469928610638824,9.71768466735488,-0.2368930036616459,-1.1707232,0.6957755,0.03176499,291.69943,-7.227637,-11.158337
2688620197000.0,-3.115308819625942,9.70904368545058,-0.2887396470002421,-1.1178834,0.7602218,0.05375614,291.83624,-7.7500377,-11.640713
2688625164000.0,-3.083535221034735,9.700378279208172,-0.3407328384928338,-1.235475,0.7654142,0.064751714,291.9602,-8.221667,-12.089831
2688630153000.0,-3.0516208897741084,9.691674491863017,-0.3929563199417043,-1.239751,0.74128497,0.08093964,292.054,-8.737116,-12.542328
2688635156000.0,-3.0196170013602144,9.682946280179753,-0.4453263495445705,-1.2339478,0.7333437,0.09010262,292.1257,-9.218772,-12.99492
2688640204000.0,-2.987325250667963,9.67413956169542,-0.4981674267852798,-1.2370021,0.7079928,0.09896017,292.17566,-9.69421,-13.429096
2688645162000.0,-2.9556092245324272,9.665489856813222,-0.5500664087503029,-1.2302825,0.69974613,0.10903945,292.20364,-10.171423,-13.859216
2688650199000.0,-2.923387840174885,9.65670232888026,-0.6027923410128728,-1.2324207,0.66431594,0.13439035,292.2099,-10.644041,-14.266997
2688655164000.0,-2.891627035462716,9.64804041182901,-0.6547645970548936,-1.2250903,0.59528816,0.16218472,292.19818,-11.119345,-14.6558895
2688660751000.0,-2.855887334369688,9.63829335632743,-0.7132477782244346,-1.149343,0.46822822,0.21410827,292.16202,-11.614165,-15.009179
2688665243000.0,-2.827152282050037,9.63045663298519,-0.7602688002064605,-0.9682214,0.42332962,0.2321288,292.1121,-12.137405,-15.360028
2688670198000.0,-2.7954554467330586,9.621812161889732,-0.8121363789956273,-0.9025534,0.33475417,0.27122417,292.03885,-12.653184,-15.65237
2688675165000.0,-2.7636818481418515,9.613146755647325,-0.864129570488219,-0.75808376,0.26267207,0.31306845,291.94928,-13.240021,-15.9290695
2688680160000.0,-2.73172913524411,9.604432500728691,-0.916415858288802,-0.625526,0.14782938,0.33658674,291.85217,-13.841001,-16.161718
2688685169000.0,-2.6996868651931023,9.59569382147195,-0.9688486942433806,-0.4269948,-0.14110987,0.2828306,291.77472,-14.494183,-16.323048
2688690247000.0,-2.6672032063152784,9.58683476512024,-1.022003803242652,0.07544186,-0.19700404,0.26053402,291.66437,-15.268701,-16.507652
2688695173000.0,-2.635691882244353,9.57824088729658,-1.0735678179985422,0.15485434,-0.23151793,0.18387043,291.60028,-15.9697,-16.622501
2688700227000.0,-2.603361749914987,9.56942370123877,-1.126471701590964,0.16768251,-0.26297748,0.09040806,291.54706,-16.782644,-16.72229
2688705212000.0,-2.5714730064124365,9.560726892275934,-1.1786533121386928,0.22113322,-0.2843578,0.062308256,291.49503,-17.623117,-16.812597
2688710250000.0,-2.5392452251153754,9.551937619747394,-1.231389712126548,0.26511553,-0.28802297,0.06291912,291.45874,-18.454416,-16.901146
2688715323000.0,-2.5067935509351478,9.543087286373575,-1.2844924824993924,0.27305678,-0.2910773,0.07971791,291.4244,-19.284632,-16.981562
2688720259000.0,-2.475218257469031,9.534475962594126,-1.3361611745081368,0.27885997,-0.25259277,0.08674286,291.3855,-20.120314,-17.069433
2688725243000.0,-2.443335910906,9.525780898226866,-1.3883323173305802,0.267559,-0.22449298,0.121256754,291.33276,-20.952099,-17.145428
2688730590000.0,-2.409131475297547,9.516452545664322,-1.4443032444316248,0.25473082,-0.18784106,0.14660765,291.27277,-21.779207,-17.230116
2688735215000.0,-2.3795456300218607,9.508383791110033,-1.492716473876609,0.23090707,-0.17195857,0.14874569,291.20642,-22.59537,-17.311455
2688740268000.0,-2.3472218946320136,9.499568349647804,-1.5456098897437454,0.20433442,-0.16462818,0.13744467,291.13135,-23.402235,-17.394665
2688745254000.0,-2.315326754189944,9.490869796089386,-1.5978019680167597,0.17256944,-0.16187929,0.124005646,291.05292,-24.194935,-17.476568
2688750649000.0,-2.280815265484576,9.481457702939034,-1.6542753459315034,0.16065755,-0.14385876,0.09162979,290.978,-24.976505,-17.563808
2688755305000.0,-2.2510311150837987,9.473334865921789,-1.7030130748603352,0.11362094,-0.12950343,0.08155051,290.89917,-25.734331,-17.645456
2688760272000.0,-2.219257516492592,9.464669459679378,-1.755006266352927,0.10598512,-0.08582657,0.051618114,290.82632,-26.487879,-17.741657
2688765335000.0,-2.186869811707554,9.455836572261354,-1.8080043594729167,0.111177474,-0.011301007,0.024129177,290.7196,-27.295961,-17.92251
2688770355000.0,-2.120991669887516,9.4417200839019,-1.8424059687073573,0.12644911,0.06994407,0.01740966,290.60324,-28.097212,-18.111849
2688775283000.0,-2.033965080029504,9.424314420615897,-1.864162593453808,0.14569137,0.14049901,0.027794369,290.47516,-28.89301,-18.31268
2688780312000.0,-1.933435390848485,9.411961021818184,-1.866853356969697,0.17745635,0.204029,0.03176499,290.31897,-29.7074,-18.510586
2688785268000.0,-1.8183743918181816,9.40716721818182,-1.8428823363636364,0.22235495,0.24312437,0.05009095,290.14395,-30.52616,-18.709139
2688790283000.0,-1.740209400118273,9.408540271042774,-1.8024199787699584,0.26419923,0.25350907,0.07544186,289.9462,-31.360178,-18.876457
2688795351000.0,-1.7115073170904789,9.418107332347722,-1.7402320822590185,0.30695978,0.23090707,0.08368854,289.74286,-32.199818,-19.037518
2688800725000.0,-1.7179349026619963,9.423578,-1.7025952290017512,0.34330627,0.20066923,0.1001819,289.52142,-33.05759,-19.145517
2688805340000.0,-1.7605064187302977,9.423578,-1.6987250948511383,0.3735441,0.17867808,0.11178834,289.29922,-33.91886,-19.242088
2688810312000.0,-1.8083961658211491,9.423159230125806,-1.686300807548453,0.3912592,0.1731803,0.11881329,289.07172,-34.78866,-19.297352
2688815361000.0,-1.8708723647806869,9.419870942264536,-1.6172481358721522,0.38240165,0.1853976,0.1432479,288.83746,-35.65589,-19.339169
2688820347000.0,-1.9325690033253995,9.416623684733084,-1.549057083985039,0.3659083,0.19333886,0.14019357,288.60544,-36.525505,-19.365137
2688825333000.0,-1.966792259216528,9.426322104373492,-1.476732253877113,0.36377025,0.15302174,0.13500121,288.3763,-37.391716,-19.371588
2688830300000.0,-1.885959431821841,9.490137459350684,-1.3873907569090422,0.35246924,0.11178834,0.124311075,288.14957,-38.24266,-19.373886
2688835748000.0,-1.7960118982678133,9.560604868611794,-1.2933231332678132,0.34972036,0.04795292,0.10476339,287.9429,-39.08794,-19.33583
2688840316000.0,-1.6912129432800984,9.630470857309582,-1.3040717382800984,0.33536503,-0.005192355,0.08552113,287.7488,-39.917828,-19.286903
2688845318000.0,-1.576457169889435,9.7069747267199,-1.3158415548894349,0.321926,-0.03359759,0.07269296,287.5757,-40.765953,-19.146011
2688850277000.0,-1.4626879015479115,9.782820925921376,-1.3275101915479115,0.2959642,-0.0580322,0.07696902,287.42047,-41.598015,-18.991138
2688855302000.0,-1.3987087861974226,9.841401419048864,-1.198686474409629,0.2657264,-0.05589417,0.074830994,287.27704,-42.414207,-18.836048
2688860270000.0,-1.358249013318506,9.891198087590764,-1.0088367609014195,0.22999077,-0.04184427,0.07422013,287.1424,-43.21411,-18.673992
2688865310000.0,-1.317202866919605,9.941716446981095,-0.8162356022699025,0.17989981,-0.023518313,0.0729984,287.02106,-44.05464,-18.399237
2688870307000.0,-1.291921453368412,9.959879,-1.075876120952299,0.17623462,-0.008246681,0.06627888,286.9087,-44.886833,-18.127117
2688875281000.0,-1.275485629146899,9.959879,-1.589494673233848,0.15332718,0.004276057,0.042455133,286.80637,-45.68866,-17.86142
2688885296000.0,-1.2910624047784696,9.886800019223728,-1.5094633784694251,0.14721853,-0.027794369,0.03634648,286.7639,-46.532238,-17.397726
2688890312000.0,-1.3115836487184185,9.831099644269498,-1.1781921184181618,0.1518,-0.059864793,0.030848695,286.7372,-47.35635,-16.947035
2688895341000.0,-1.3280050093032425,9.777466963634572,-0.8863760693998226,0.14721853,-0.07666359,0.021380283,286.6855,-48.272633,-16.48221
2688900358000.0,-1.2617139104464374,9.7679966159456,-1.3977645109786143,0.14263703,-0.07941248,0.024129177,286.6525,-49.17717,-16.016056
2688905570000.0,-1.1936982240988672,9.757858625128732,-1.8807822371781668,0.15118915,-0.073303826,0.032070424,286.7052,-50.11305,-15.280151
2688910313000.0,-1.143577442114168,9.744493162351038,-1.653568044122407,0.13652839,-0.08032878,0.046731193,286.77957,-51.02331,-14.554301
2688916305000.0,-1.080258081867,9.727608099529204,-1.3665203011769895,0.13622294,-0.099265605,0.055283304,286.90027,-52.140347,-13.548153
2688920281000.0,-1.052000301450494,9.724804435148204,-1.1913904173680891,0.13836098,-0.112399206,0.057421334,287.0476,-53.224915,-12.563895
2688925355000.0,-1.046892808997267,9.740126699180156,-1.0024130686020605,0.13530666,-0.1518,0.07666359,287.228,-54.280643,-11.590499
2688930244000.0,-1.035797946164151,9.749189,-0.9552353962614988,0.1423316,-0.18845193,0.09132435,287.4048,-55.284557,-10.6307955
2688935307000.0,-1.0141459681075289,9.749189,-1.128450967496651,0.14660765,-0.21044308,0.10629055,287.60675,-56.25931,-9.687168
2688940347000.0,-1.008856098101685,9.746951066220293,-1.3005706630932237,0.14752395,-0.21746802,0.12186762,287.84204,-57.259,-8.61987
2688945436000.0,-1.0913324962622324,9.732607432712824,-1.4726952761680523,0.13439035,-0.24862215,0.12003502,288.11124,-58.21896,-7.5783086
2688950341000.0,-1.1708268434773013,9.718782413582517,-1.6385964801633437,0.13591751,-0.2751948,0.11178834,288.4969,-59.378292,-6.102035
2688955300000.0,-1.2060547881277788,9.709182015478346,-1.7317020509797465,0.13591751,-0.28955013,0.10598512,288.9168,-60.464035,-4.681902
2688960308000.0,-1.1823626930182778,9.70523325736868,-1.727753375333443,0.12003502,-0.31764993,0.09101892,289.37674,-61.476986,-3.3177772
2688965755000.0,-1.1557066041592396,9.703069034462269,-1.7207382041592396,0.13561209,-0.33658674,0.08674286,290.14276,-62.794395,-1.0450683
2688970286000.0,-1.1256266511388393,9.720257938007526,-1.6906582511388393,0.12370021,-0.34422258,0.077579886,290.95474,-63.91924,1.0777701
2688975707000.0,-1.0929919244285615,9.735905213808914,-1.6545217363967364,0.1133155,-0.33444872,0.06414085,291.76907,-64.86397,2.982352
2688980298000.0,-1.110779162834603,9.682543312858202,-1.6219117683635629,0.106901415,-0.16157386,0.0852157,292.56937,-65.658104,4.7569957
2688986380000.0,-1.1343430887735149,9.61185128898928,-1.57871119646686,0.0571159,-0.09101892,0.101098195,293.3765,-66.295845,6.3483515
2688990667000.0,-1.1573898770240238,9.564505634670336,-1.5482642801037143,0.061391957,-0.08735373,0.090713486,294.17886,-66.830696,7.832349
2688995279000.0,-1.2415287860302675,9.536459266589056,-1.5155435824214205,0.08460484,-0.12156218,0.05955936,294.99274,-67.25136,9.223533
2689000332000.0,-1.3244414040819366,9.518295056759776,-1.4829839954860335,0.08582657,-0.14660765,0.027794369,295.7855,-67.571495,10.472875
2689005260000.0,-1.345533868111732,9.581572779217876,-1.4724377451173185,0.07819075,-0.17562376,-0.0018325958,296.60767,-67.818954,11.647116
2689010254000.0,-1.366908820499069,9.645697971173185,-1.4617502503240225,0.06566802,-0.17806722,-0.018936822,297.4375,-68.00007,12.736459
2689015330000.0,-1.3932881416129033,9.694347470303606,-1.4922609047912714,0.047036625,-0.16249016,-0.01863139,298.2852,-68.11778,13.76087
2689020354000.0,-1.4252424022580643,9.721736850189751,-1.5744288061195446,0.03176499,-0.12583824,-0.013744468,299.141,-68.18124,14.720764
2689025327000.0,-1.4553488433377686,9.739613,-1.6558100105113096,0.03390302,-0.101098195,-0.0106901415,300.01404,-68.198296,15.633198
2689030319000.0,-1.4826101828549707,9.739613,-1.7375942662801749,0.028710667,-0.06627888,-0.023823744,300.88406,-68.17209,16.482798
2689035302000.0,-1.505405525531736,9.738689517948718,-1.8105978000672551,0.024740042,-0.016798794,-0.02687807,301.83008,-68.07401,17.376059
2689040390000.0,-1.513598339050021,9.734593025641026,-1.8556583171920973,0.0106901415,0.011911872,-0.032070424,302.77957,-67.94315,18.20342
2689045359000.0,-1.5215995360571668,9.730592343589745,-1.8996649425052543,0.015577064,0.049785517,-0.032986723,303.76312,-67.765465,19.026896
2689050317000.0,-1.5192192343106248,9.716064210188906,-1.877840838011796,0.012217305,0.08002335,-0.045814894,304.74503,-67.56503,19.784164
2689056016000.0,-1.5145540335926146,9.697403504743995,-1.84051918355415,0.025045475,0.11209377,-0.040317107,305.71628,-67.3451,20.487728
2689060346000.0,-1.5404388636027944,9.661943327944112,-1.8068308977944112,0.031154128,0.12156218,-0.04520403,306.69995,-67.114655,21.139275
2689065358000.0,-1.593132340528942,9.60445938942116,-1.7637180439421156,0.03176499,0.1282817,-0.061086524,307.67505,-66.87706,21.737158
2689070304000.0,-1.6462083990032188,9.581848573045376,-1.7278543967189284,0.034513887,0.12980886,-0.07696902,308.64984,-66.631065,22.288057
2689075349000.0,-1.7013911443567646,9.591881999480844,-1.6977547460076836,0.02321288,0.118202426,-0.093462385,309.62503,-66.38631,22.78921
2689080265000.0,-1.7276431269463577,9.584507179294512,-1.6549745445627215,0.008857546,0.13500121,-0.10842858,310.5844,-66.14626,23.241133
2689085324000.0,-1.7343847996938704,9.564282090656093,-1.601041092186739,-0.0030543262,0.15424347,-0.1282817,311.5435,-65.9143,23.647219
2689090359000.0,-1.7410944898072775,9.544152950253949,-1.5473635012175606,-0.04428773,0.1777618,-0.13713925,312.49377,-65.689,24.0104
2689095364000.0,-1.72843745167019,9.529775008794926,-1.4857566549767445,-0.08246681,0.19272798,-0.15668693,313.4362,-65.47842,24.329018
2689100380000.0,-1.708125727019027,9.5175877194926,-1.4207590936744183,-0.124311075,0.204029,-0.18051068,314.3668,-65.27764,24.610098
2689105295000.0,-1.6768291706190876,9.5128133324904,-1.3349181848459306,-0.18387043,0.2171626,-0.18661933,315.2879,-65.07667,24.866724
2689110338000.0,-1.6225489296244264,9.521860220380256,-1.203741002688021,-0.25473082,0.17531833,-0.17745635,316.21625,-64.8875,25.091473
2689115335000.0,-1.567118477152247,9.528197728870474,-1.0984317760662998,-0.3191771,0.10354166,-0.14630222,317.1203,-64.709015,25.287477
2689120355000.0,-1.5052937538543971,9.524762954275916,-1.0846929646067014,-0.39400807,-0.0015271631,-0.1160644,318.04227,-115.460915,25.460403
2689125798000.0,-1.4382594970993785,9.521038755447597,-1.0697964803886548,-0.473726,-0.103847094,-0.06536258,318.90424,-115.59408,25.585592
2689130270000.0,-1.3668415556121318,9.437448052247069,-1.0658496641133497,-0.55833083,-0.19792034,-0.022907447,319.79294,-115.72171,25.696426
2689135316000.0,-1.2634239513172458,9.230612694708878,-1.0729819101173346,-0.6582073,-0.26236662,0.025045475,320.70074,-115.851944,25.802471
2689140391000.0,-1.1594119929746882,9.02258862821932,-1.0801551460408825,-0.768163,-0.4007276,0.076052725,321.60324,-115.95458,25.87671
2689145325000.0,-1.169721831592432,8.97050090421758,-1.244118574950729,-0.8240572,-0.54641896,0.09254608,322.5257,-116.04854,25.936531
2689150496000.0,-1.2282811645348837,8.980260988372093,-1.4832357959302325,-0.90316427,-0.675617,0.12156218,323.4845,-116.14493,25.995201
2689155313000.0,-1.2789390363636364,9.014387090909093,-1.7394963636363636,-0.91782504,-0.7703011,0.14049901,324.43176,-116.241196,26.04915
2689160325000.0,-1.3298600810837278,9.06139084902889,-2.021520589293292,-0.86406887,-0.8011498,0.16065755,325.39682,-116.333786,26.093647
2689165432000.0,-1.3857603491662345,9.117669762877046,-2.2915170096272144,-0.75136423,-0.79534656,0.18020524,326.52158,-116.498314,26.184038
2689170315000.0,-1.451609846083154,9.197382666049062,-2.495997022559846,-0.60231316,-0.7275405,0.18875736,327.62695,-116.65253,26.252068
2689175273000.0,-1.5184707524345955,9.278319912399022,-2.7036177278885347,-0.4728097,-0.6392705,0.17531833,328.78467,-116.80179,26.289661
2689180255000.0,-1.6011530438549455,9.41765413401298,-2.843715586080147,-0.34391713,-0.5369505,0.16340645,329.90292,-116.94684,26.305984
2689185282000.0,-1.6996528067870749,9.6146535534782,-2.918439525821928,-0.25045475,-0.45875978,0.14844026,330.98615,-117.079346,26.294804
2689190314000.0,-1.798250540440243,9.811848914279668,-2.9932377881614225,-0.16707164,-0.36713,0.1301143,332.0638,-117.19347,26.23815
2689195468000.0,-1.850649040740077,9.968808766956366,-2.961462470137085,-0.07422013,-0.26206118,0.09743301,333.09482,-117.2974,26.155079
2689200315000.0,-1.879762135193979,10.09773783782815,-2.8866002706836307,0.008246681,-0.16340645,0.07360926,334.0819,-117.39616,26.053219
2689205285000.0,-1.8906743275951328,10.233279900595392,-2.737333051281388,0.11056661,-0.07513642,0.03604105,335.04407,-117.449776,25.885042
2689210300000.0,-1.878241593450686,10.374184999827422,-2.4969665981793083,0.20372356,-0.024129177,-0.004276057,335.9681,-117.498344,25.697233
2689215281000.0,-1.8590409753446449,10.512404620466596,-2.2505687754506893,0.29046643,-0.022907447,-0.028099801,336.86826,-117.53424,25.48402
2689220313000.0,-1.7926065689819723,10.640162458006362,-1.949058859437964,0.35124752,-0.016798794,-0.04642576,337.73203,-117.56497,25.252281
2689225354000.0,-1.7149308117740092,10.740993839557156,-1.6634141631666814,0.38637227,-0.004886922,-0.0571159,338.55014,-117.575485,25.005093
2689230298000.0,-1.6067644671645724,10.761795042966346,-1.4304405546612775,0.40042216,0.029321533,-0.06414085,339.34357,-117.58377,24.7462
2689235646000.0,-1.4896623029069769,10.780428749715002,-1.176672677640219,0.37904188,0.06566802,-0.05497787,340.08673,-117.57232,24.488508
2689241305000.0,-1.363009276744186,10.690845012083903,-0.8584954800547195,0.34025195,0.09437868,-0.05955936,340.80762,-117.55131,24.219452
2689245295000.0,-1.2737098290697677,10.627682065777472,-0.634157784637483,0.31306845,0.14508049,-0.042455133,341.40833,-117.49214,23.955956
2689250352000.0,-1.1605300529069766,10.54762817618559,-0.3498280288166895,0.25870144,0.17745635,-0.036957346,341.99777,-117.41821,23.68515
2689255299000.0,-1.0649426603331331,10.497486519207682,-0.1514900207022809,0.1908954,0.18387043,-0.02076942,342.5752,-117.34365,23.420624
2689260294000.0,-0.9859814319942978,10.479540797418966,-0.0438156150150059,0.10140363,0.1704314,-0.012217305,343.14236,-117.25575,23.153597
2689266574000.0,-0.8845912602293121,10.454414849723555,0.0788426468793619,0.023823744,0.13072516,0.034513887,343.5482,-117.10943,22.908274
2689270346000.0,-0.7929150002492522,10.40202873388924,-0.0324785125224327,-0.0888809,0.121256754,0.053450707,343.94727,-116.93985,22.65835
2689275437000.0,-0.6691812145762712,10.33132414329738,-0.1827266627118644,-0.124311075,0.063224554,0.080634214,344.33127,-116.77023,22.427748
2689280294000.0,-0.6448593899490892,10.27109435104606,-0.3557283614589134,-0.18875736,0.011301007,0.10995574,344.7186,-116.58449,22.202269
2689285260000.0,-0.6826912438684273,10.214346216609655,-0.5524539844578793,-0.22174409,-0.04520403,0.1423316,345.12747,-116.40552,21.97987
2689290515000.0,-0.7287797315068207,10.147550735603458,-0.7648809811829637,-0.21868975,-0.089186326,0.17165314,345.56592,-116.26463,21.785973
2689295334000.0,-0.8152851523794648,10.03701583265646,-0.9907562378735812,-0.18203785,-0.089491755,0.19792034,346.0098,-116.130196,21.597822
2689300286000.0,-0.9057691604249376,9.924158360199502,-1.210573387361596,-0.16035213,-0.06963864,0.21746802,346.5328,-116.038315,21.41825
2689305259000.0,-1.005533215349626,9.814893241197009,-1.3625947481695762,-0.122478485,-0.040011674,0.23854288,347.05157,-115.95885,21.244236
2689311546000.0,-1.1299234211678832,9.702738481751824,-1.5144286317518247,-0.0870483,0.004581489,0.2501493,347.65646,-115.93732,21.084135
2689315313000.0,-1.2022093314441105,9.66917729912695,-1.5531532246171462,-0.05681047,0.050701816,0.24190263,348.24402,-115.91588,20.92181
2689320410000.0,-1.3000169461714612,9.623766800629742,-1.6055501584728782,-0.04917465,0.084910266,0.24037547,348.8969,-115.93564,20.768095
2689325257000.0,-1.3858692546596858,9.574325454450262,-1.6318644211867364,-0.039095376,0.106901415,0.2275473,349.526,-115.9485,20.605455
2689330300000.0,-1.4617265359162304,9.51111105340314,-1.615007247574171,-0.04917465,0.12767084,0.20463985,350.13275,-115.94924,20.436619
2689335355000.0,-1.534316637381245,9.452309,-1.5927932069992892,-0.046731193,0.1282817,0.17745635,350.755,-115.93795,20.241365
2689340307000.0,-1.5619014184579592,9.452309,-1.503908983539068,-0.062308256,0.124311075,0.15882497,351.3593,-115.91224,20.039051
2689345359000.0,-1.5900432427712792,9.452309,-1.413229844419311,-0.073303826,0.13927728,0.1255328,351.95065,-115.86351,19.813768
2689350646000.0,-1.6159285744230107,9.4539601029969,-1.3208488913709957,-0.095294975,0.13255776,0.09437868,352.5367,-115.80125,19.57848
2689355294000.0,-1.5507614289183604,9.496126733379263,-1.3016820556148812,-0.11881329,0.1441642,0.057421334,353.0989,-115.7236,19.332575
2689360263000.0,-1.4810937124784709,9.541205473992422,-1.281191520573545,-0.14874569,0.15515977,0.029626964,353.64597,-115.61622,19.074081
2689365364000.0,-1.3688353560326998,9.582464397616468,-1.2675124991726583,-0.17531833,0.18967366,0.01863139,354.1721,-115.49755,18.811342
2689370545000.0,-1.2320001604747366,9.621560459371617,-1.2577385602777504,-0.21288654,0.2144137,-0.0009162979,354.6862,-115.360794,18.53752
2689375267000.0,-1.133928541779497,9.647666875564152,-1.203645944874275,-0.24281894,0.2434298,0.004581489,355.17758,-115.22641,18.28267
2689381166000.0,-1.0298600105277702,9.67368398121028,-1.1047808890853827,-0.26908615,0.24984388,0.005192355,355.6588,-115.078476,18.020662
2689385313000.0,-0.9698314698584906,9.684164073490566,-1.0424218964103773,-0.28221974,0.2415972,0.01160644,356.11728,-114.937004,17.783741
2689390437000.0,-0.9096493647641508,9.688793559150945,-0.9729809891839624,-0.29810223,0.22724187,0.012217305,356.56882,-114.7874,17.544811
2689395314000.0,-0.8613086837761194,9.707727137313434,-0.9187695322574628,-0.29871312,0.21044308,0.01160644,356.9795,-114.62746,17.315905
2689400294000.0,-0.8301661980298507,9.756664928358209,-0.8876270418656717,-0.2919936,0.19517145,0.004276057,357.38916,-114.46446,17.084099
2689405333000.0,-0.7980098267564298,9.802083418930904,-0.8497445048697896,-0.27305678,0.18906279,0.0027488936,357.7606,-114.29191,16.857206
2689410315000.0,-0.7633887788389905,9.829011042570343,-0.7843491974925422,-0.24953845,0.18906279,0.0106901415,358.13226,-114.12284,16.630499
2689415309000.0,-0.7286843401999515,9.856003526001771,-0.7187963743207288,-0.2171626,0.19639318,0.020463986,358.4797,-113.95054,16.403532
2689420390000.0,-0.6886681746337043,9.87890715186815,-0.6221668577556303,-0.20922135,0.19822577,0.026572637,358.82712,-113.77997,16.177965
2689425310000.0,-0.6480107491095004,9.899235849771332,-0.516457556487186,-0.19394971,0.18661933,0.040011674,359.1757,-113.62188,15.957224
2689430297000.0,-0.6255237350612551,9.901385352362697,-0.4228281211434286,-0.19120082,0.1881465,0.062002823,359.5038,-113.45776,15.747757
2689435301000.0,-0.6335114393932828,9.87342817659805,-0.3509386153412784,-0.2134974,0.18875736,0.070249505,359.83392,-113.29247,15.537783
2689440694000.0,-0.643012473480663,9.844273773961088,-0.2756776916814797,-0.2275473,0.18203785,0.09896017,0.14405881,-113.121025,15.345459
2689445331000.0,-0.6643469432780847,9.833606706141405,-0.2436760166882857,-0.2519819,0.19181168,0.108123146,0.44754833,-112.941826,15.152074
2689451066000.0,-0.6907332241252302,9.820413772359675,-0.2040966321538954,-0.2657264,0.23243423,0.13683382,0.73562044,-112.75788,14.9735365
2689455295000.0,-0.7184523550852511,9.80547953368117,-0.1549947198267027,-0.3191771,0.23732115,0.14508049,1.0295122,-112.55966,14.790033
2689460302000.0,-0.7586610282325538,9.783141400074536,-0.0790450142485791,-0.33933565,0.25534168,0.16554448,1.3112909,-112.375084,14.622549
2689465270000.0,-0.8397416987826399,9.7320472928264,0.0268473469670014,-0.3894266,0.25503623,0.18906279,1.5971645,-112.170105,14.452981
2689470363000.0,-1.0076889380860832,9.620082400860833,0.1982934809239598,-0.4529566,0.23884831,0.19028452,1.8819548,-111.95952,14.283298
2689475289000.0,-1.1701291699354377,9.511788849354376,0.3641178783070301,-0.5161811,0.21410827,0.19058995,2.1591659,-111.72575,14.110742
2689480297000.0,-1.2811896337245423,9.439257159561617,0.474475070945806,-0.5910121,0.1872302,0.18142697,2.4409037,-111.47706,13.934733
2689485330000.0,-1.3477412863306868,9.397662593847084,0.5368673060700725,-0.65301496,0.18325958,0.17287487,2.72325,-111.22075,13.7591505
2689490283000.0,-1.407740195115781,9.355532462444057,0.6286421943646624,-0.7431176,0.19211712,0.15088372,3.0223973,-110.90323,13.5446615
2689495401000.0,-1.4506597391321268,9.307843886553805,0.8289332968632029,-0.82527894,0.20311269,0.14080444,3.3228457,-110.57868,13.331355
2689500320000.0,-1.471260679590612,9.264634080677425,1.0807073225296706,-0.9147707,0.23854288,0.12889257,3.6244433,-110.22161,13.10555
2689505294000.0,-1.3982105681757568,9.232873177090278,1.6047625301973598,-1.0002918,0.28802297,0.10934488,3.9183269,-109.84942,12.877281
2689510278000.0,-1.3250135928457127,9.201048419655956,2.1298713269435927,-1.106277,0.35369098,0.100792766,4.1861176,-109.42818,12.648032
2689515366000.0,-1.2287112674300975,9.162520658876554,2.669850630531675,-1.2235631,0.43310347,0.09407325,4.436603,-108.98959,12.419178
2689520505000.0,-1.0356459989500042,9.096796276020363,3.23261543891161,-1.382388,0.514654,0.0852157,4.669345,-108.524994,12.192893
2689525280000.0,-0.8562557173791838,9.035727210416493,3.755519108889074,-1.5809193,0.5867361,0.087964594,4.7981114,-107.94426,11.991556
2689530338000.0,-0.6152385520176405,8.953110514884234,4.288054936163175,-1.8099937,0.61636305,0.10720685,4.9209156,-107.33812,11.794965
2689535259000.0,-0.3665741826019846,8.867747945424476,4.800229384068357,-2.0861049,0.6646214,0.11881329,5.0224333,-106.69566,11.602738
2689540284000.0,-0.0707354626897959,8.795309663571429,5.4058105443673465,-2.2241604,0.67103547,0.1301143,5.063945,-106.01063,11.456848
2689545311000.0,0.3615655162428571,8.7707473825,6.280237394142857,-2.5476136,0.6243043,0.17134771,5.114749,-105.271,11.320922
2689550286000.0,0.7538303510953942,8.744055867086423,7.064926102898051,-2.9064968,0.48349985,0.21471913,5.125599,-104.5156,11.244259
2689555316000.0,1.0571344486458514,8.710817042263239,7.646604908228394,-3.3313537,0.27947086,0.27030787,5.1760483,-103.75874,11.175549
2689560724000.0,1.36337595003158,8.654127339835783,8.132149649914284,-3.810272,0.0061086523,0.31673363,5.2203526,-103.016884,11.181669
2689565347000.0,1.2395393658034828,8.19872817782189,5.831186235676261,-4.234823,-0.3191771,0.36010507,5.3457627,-102.35607,11.191586
2689570323000.0,1.106246948948841,7.708555945466029,3.3545273671388616,-4.5017715,-0.60139686,0.3717115,5.4910717,-101.84071,11.26015
2689575294000.0,0.6375282424852071,7.26203401035503,1.262769074013807,-4.5882087,-0.7870999,0.4098906,5.70901,-101.52745,11.341365
2689580259000.0,0.0560630494674556,6.830624572781065,-0.697331302169625,-4.52926,-0.8060367,0.4474588,5.964418,-101.431404,11.42183
2689585267000.0,-0.5880775939116141,6.440900435644521,-2.052451070118944,-4.3569965,-0.61911196,0.46731192,6.274529,-78.47172,11.503856
2689590325000.0,-1.2626048240595689,6.066162846436515,-3.162610462808239,-4.1587706,-0.23060162,0.46670106,6.5332723,-78.25276,11.587375
2689595280000.0,-2.024308972366621,5.786958987688099,-3.389744073050616,-3.9382482,0.301462,0.46853364,7.0719576,-78.16357,11.587844
2689600323000.0,-2.8548803792749657,5.551001383623217,-3.149067169073676,-3.7180314,0.8188649,0.44776422,7.488836,-78.084854,11.569338
2689605285000.0,-3.507993067205317,5.469978583084642,-2.720908860741513,-3.4837644,1.2327261,0.39736784,7.5638165,-78.018974,11.459634
2689610290000.0,-4.057678223294455,5.488717770091874,-2.1618541437609955,-3.215289,1.5607607,0.31337386,7.511361,-77.960396,11.327797
2689615359000.0,-4.614392320440477,5.507696579070828,-1.5956506751547537,-2.9223793,1.772731,0.22388211,7.3730564,-77.99373,11.047585
2689620279000.0,-4.921758205315366,5.698282447950589,-0.6291350960134757,-2.6138923,1.8457294,0.14538592,7.1763453,-78.047905,10.742841
2689625343000.0,-5.030678751076175,6.047736548792813,0.7369123133071305,-2.3060162,1.767844,0.11301007,6.9585557,-78.12672,10.425353
2689630282000.0,-4.75030379527559,6.433647564823293,1.9121364487273396,-2.05098,1.6792686,0.100792766,6.7576623,-78.292496,9.9477625
2689636493000.0,-3.6556517244094486,7.005480720893609,3.0884790354513827,-1.9260582,1.1673635,0.04520403,6.6993957,-78.473366,9.466375
2689640360000.0,-2.8317454257261367,7.400658661409295,3.5891871626986505,-1.5894713,0.93584555,0.005192355,6.70714,-78.68654,8.963769
2689645280000.0,-1.334145366835582,8.027013460809595,3.4949984466566715,-1.4944818,0.42577308,-0.035124753,6.9472365,-78.86711,8.477233
2689650352000.0,0.2184524696468951,8.83473182623065,2.902207216176726,-1.3503176,-0.036957346,0.018936822,7.365358,-78.985016,8.185203
2689655339000.0,1.7760994967498698,10.20546112715255,0.5553523410158285,-1.2174544,-0.3539964,0.15454891,7.8843293,-79.10381,7.916233
2689660249000.0,3.309696228868499,11.555026169768656,-1.75526675604453,-1.1044444,-0.44348818,0.33536503,8.155361,-78.90803,7.889323
2689665376000.0,3.466804,11.994687315431245,-1.6434749076039563,-1.0085385,-0.37934732,0.5045747,8.467212,-78.71263,7.9012527
2689670444000.0,3.362197262336005,12.317424422677352,-1.2022354720193926,-0.96791595,-0.24281894,0.61300325,8.77712,-78.50936,7.9442673
2689675318000.0,1.5979992022172755,12.5067754888691,0.1647870794597803,-0.9954049,-0.12675454,0.63346726,9.247816,-78.566124,8.313369
2689680527000.0,-0.2327883549585337,12.691900485818543,1.5920635144385469,-1.1154399,-0.07086037,0.61544675,9.649792,-78.49421,8.676792
2689685329000.0,-0.980309804961851,12.56604252695306,2.3281433292834635,-1.2852604,-0.06169739,0.6282749,10.001456,-78.37681,9.034437
2689690314000.0,-1.7563186405025708,12.43538823187925,3.09227449900481,-1.4107933,-0.004886922,0.6310238,10.333821,-78.296936,9.063206
2689695342000.0,-2.2137225968731564,12.357200178564405,3.604659158879056,-1.4523321,0.12064589,0.58368176,10.6352005,-78.21248,9.074103
2689700331000.0,-2.4533207199705016,12.314917790363817,3.942915272064897,-1.4288138,0.22907446,0.5036584,10.917461,-78.12659,9.071095
2689706244000.0,-2.3490667327994306,12.408587943762235,3.954934734080797,-1.3341297,0.3005457,0.4196644,11.195181,-78.03884,8.908321
2689710312000.0,-2.1237331613098416,12.529921346858872,3.8093346141662217,-1.1899655,0.3491095,0.36896262,11.447267,-77.971115,8.73088
2689715322000.0,-1.8059360015858263,12.70053125210572,3.570684456200988,-1.028697,0.34147367,0.35124752,11.714773,-77.89092,8.513546
2689720456000.0,-1.391805149729887,12.921877033981993,3.1958246931745573,-0.8897252,0.29260445,0.36163223,11.979178,-77.834114,8.292872
2689725315000.0,-0.9998569983531804,13.131366545890211,2.84104409548359,-0.7965683,0.28130344,0.3921755,12.219575,-77.76477,8.126012
2689730267000.0,-0.891890467039069,13.423816924688278,2.4458122499750625,-0.7473936,0.2947425,0.40194935,12.463223,-77.715675,7.958969
2689735261000.0,-1.0151343501446384,13.781621457356607,2.020422084588529,-0.7284568,0.37293324,0.43249258,12.684997,-77.66903,7.805359
2689740342000.0,-1.2247850923318844,14.097552347238922,1.682682445990195,-0.6600399,0.47769663,0.44684792,12.866424,-77.61409,7.7394867
2689745381000.0,-1.87202783945056,14.160045548885394,1.843377186069744,-0.5543602,0.57971114,0.40866885,13.021385,-77.57706,7.6636724
2689750267000.0,-2.499618246757932,14.220641258995467,1.999192724872815,-0.43004912,0.64568454,0.3585779,13.116163,-77.585754,7.5638175
2689755340000.0,-2.9022243224874096,14.342109660608712,1.503624725749945,-0.28191432,0.64904433,0.2837469,13.199579,-77.63298,7.447613
2689760275000.0,-3.250361047141518,14.467674297094655,0.9768702193064668,-0.09132435,0.6575964,0.2049453,13.2627535,-77.72481,7.3164597
2689765313000.0,-3.3950596312652297,14.630460245548266,0.2533770153889411,0.11789699,0.659429,0.13897185,13.32438,-77.86959,7.073281
2689770341000.0,-3.537712614147247,14.795686881831308,-0.455823602041658,0.3567453,0.6914995,0.06841691,13.3472595,-78.124565,6.758569
2689775876000.0,-3.6470292636626103,15.052580968240877,-0.8876242591874612,0.6020077,0.79412484,0.004276057,13.34851,-78.431206,6.4324107
2689780301000.0,-3.741139822064505,15.299748137633635,-1.1541493797933695,0.8341365,0.93828905,-0.095294975,13.308455,-78.877495,6.0595503
2689785270000.0,-3.912147436995778,15.983779133051836,-0.6881535197349743,1.0931433,1.0830641,-0.18997909,13.235711,-79.38774,5.6752877
2689790279000.0,-4.084531647740545,16.673316516036294,-0.218406435204384,1.3399329,1.1582005,-0.23548855,13.133603,-79.98964,5.2707024
2689795382000.0,-4.216489357993517,17.291179308991637,0.8911512159239039,1.582141,1.0958922,-0.23793201,13.025109,-80.64808,4.8631916
2689800303000.0,-4.337102261960417,17.87414064963317,2.057075580640676,1.8322903,0.89461213,-0.21930063,12.929997,-81.35843,4.463074
2689805320000.0,-4.434003193759513,18.31062110755961,3.193529073076273,2.0210476,0.61636305,-0.17348573,12.878214,-82.05565,4.058455
2689810264000.0,-4.506069707001522,18.598888163876204,4.266520217469981,2.1206186,0.29932398,-0.12583824,12.889176,-82.77155,3.681079
2689815330000.0,-4.581855459897173,18.871850671837603,5.257165395612091,2.1533,-0.0015271631,-0.09407325,12.987331,-83.3477,3.319647
2689820308000.0,-4.6663752455012855,19.02398569461927,5.667085801994504,2.146275,-0.24312437,-0.07849618,13.153989,-83.91724,2.9873695
2689825259000.0,-4.750436607197944,19.175295557574685,6.074782855429483,2.1676552,-0.34697145,-0.10995574,13.392041,-84.32344,2.6758387
2689830315000.0,-4.625008238208025,19.252520306271915,5.722318352902221,2.186592,-0.46975538,-0.12186762,13.696437,-84.71115,2.3916657
2689835248000.0,-4.477778346825088,19.318773936112198,5.287990282859369,2.2531765,-0.5198463,-0.15760323,14.003582,-85.11223,2.1019957
2689840292000.0,-4.266628381195496,19.383079721784775,4.423561157141648,2.3246477,-0.5589417,-0.19303341,14.339783,-85.446785,1.8177047
2689845641000.0,-3.9109802957751247,19.44379999737533,2.59327454338752,2.4217753,-0.56199604,-0.21991149,14.671866,-85.79738,1.5350463
2689850312000.0,-3.6004115526458387,19.496823816272965,0.994981633900601,2.5439484,-0.44929138,-0.204029,14.956404,-86.2348,1.2723767
2689855309000.0,-3.4073167789831995,19.508600102448664,0.457475226984737,2.6710083,-0.26175576,-0.16401732,15.212557,-86.68604,1.0159072
2689860293000.0,-3.2432008741136427,19.51819939018625,0.0207227355753049,2.763249,-0.10140363,-0.1001819,15.436352,-87.14289,0.7773566
2689865352000.0,-3.2202979101257445,19.52278056651224,-0.0342445310522832,2.8334985,0.03023783,-0.023518313,15.583024,-87.8641,0.5738897
2689870632000.0,-3.20241449711756,19.52569959478603,-0.0617447301367437,2.879619,0.1282817,0.021380283,15.683179,-88.63227,0.40114796
2689875326000.0,-3.2377934960550907,19.51243217579931,0.1682192201200196,2.934902,0.16829337,0.014049901,15.756224,-89.39706,0.24019967
2689880598000.0,-3.269138522187105,19.466824551517067,0.4308715442541087,2.9938505,0.19730948,-0.03940081,15.80117,-90.224335,0.08617738
2689885271000.0,-3.1736648047882428,18.975311425647917,0.7279008864522756,3.0216448,0.21288654,-0.113926366,15.833465,-90.95909,-0.07064381
2689890276000.0,-3.07140801994311,18.448878043457647,1.0460331050916565,3.0085113,0.19364429,-0.17959438,15.860571,-91.67843,-0.23700826
2689895317000.0,-2.707010018452468,17.524772512301645,1.2557886355510264,2.9773571,0.1600467,-0.21533,15.882877,-92.38797,-0.41025275
2689900414000.0,-2.0390204907555685,16.139049660503712,1.3410639165089533,2.9239066,0.12583824,-0.25442538,15.906196,-93.07521,-0.5973705
2689905259000.0,-1.404056931467463,14.821838120978308,1.422123115300626,2.8753426,0.09101892,-0.27183503,15.931624,-93.68567,-0.7643062
2689910254000.0,-0.738523347342922,13.58330674517411,1.2588789238380016,2.8124237,0.08368854,-0.2959642,15.955559,-94.265045,-0.9394611
2689915359000.0,-0.0538468918925056,12.366618057390234,0.9905597567108252,2.7684412,0.12370021,-0.2947425,15.973493,-94.821434,-1.1070453
2689920299000.0,0.6077544648597542,10.99631079892846,0.933447414907028,2.7403414,0.2144137,-0.28710666,15.944695,-95.2792,-1.1530443
2689925304000.0,1.2774618791154533,9.485692276762263,1.0039429056308435,2.7458394,0.26175576,-0.27275133,15.916382,-95.71987,-1.1941383
2689930309000.0,1.7032912581064863,8.37646758794922,1.2489110234889156,2.7461448,0.344528,-0.2593123,15.831058,-96.14101,-1.1315217
2689935274000.0,2.0246281089559783,7.442488621707826,1.564241582163835,2.7391198,0.3903429,-0.24770586,15.742627,-96.54949,-1.0620896
2689940371000.0,2.354508054329565,6.483678794732521,1.887955551462136,2.7305677,0.3811799,-0.22204952,15.629869,-96.920555,-0.8869448
2689945350000.0,2.6511001145843367,5.3144541772179945,2.250035734553511,2.7009406,0.33322698,-0.1826487,15.514948,-97.275986,-0.7008452
2689950345000.0,2.927583060109816,3.9504719667373087,2.650935993536268,2.6661212,0.32406402,-0.1518,15.391308,-97.620285,-0.5057838
2689955295000.0,3.0629783863962823,2.726300450739332,3.044153354938741,2.6258042,0.3827071,-0.13103059,15.226423,-98.08624,-0.30103344
2689961380000.0,3.03343464452894,1.4017597084495144,3.5217757764427544,2.6010642,0.47800204,-0.10354166,15.0533905,-98.53918,-0.07806226
2689965310000.0,2.985672998269016,0.5478195199979636,3.891588659464413,2.5692992,0.5531385,-0.065973446,14.850195,-99.01301,0.1765901
2689970672000.0,2.640580443743,-0.6024894500661846,4.994839732593422,2.4871378,0.5131268,-0.035430185,14.651545,-99.46113,0.44403973
2689975607000.0,2.211128294165125,-1.5600240624323398,6.267607899143542,2.3420575,0.26450464,-0.00061086525,14.498001,-99.82463,0.73380464
2689980308000.0,1.35976293494827,-2.0720771134703666,8.497814800890716,2.0754147,-0.20341812,0.026572637,14.416018,-100.12847,1.0247165
2689985268000.0,0.4614918901247005,-2.6123415536211034,10.850894195203836,1.604743,-0.82924956,0.03573562,14.479732,-100.16046,1.2930388
2689990457000.0,-0.3735196885694561,-2.830680570016108,12.631117614558564,0.8900307,-1.3903292,0.023518313,14.651916,-100.05305,1.5450913
2689995324000.0,-0.8347247880563013,-1.969049319206873,12.205664835544988,0.076052725,-1.7446312,0.026572637,14.936139,-99.79372,1.7839514
2690000310000.0,-1.307206527534709,-1.0863508567998774,11.769809574365269,-0.64965516,-1.8664987,0.007941248,15.363355,-99.012,1.7138352
2690005375000.0,-1.641748571858217,0.0218795642320085,10.117572375939847,-1.2284501,-1.8723019,0.029626964,15.864204,-98.05348,1.6450639
2690010269000.0,-1.8754817914684672,1.222908391882768,7.776644963480129,-1.600467,-1.7626517,0.13775012,16.373793,-96.965706,1.5958004
2690015590000.0,-2.11736049431952,2.46877110788426,5.319150295715808,-1.7999145,-1.5143349,0.28619036,16.89552,-95.821495,1.4656843
2690020499000.0,-2.133178083463242,2.6032207257163686,4.536178999966355,-1.8106046,-1.144456,0.410196,17.358866,-94.65869,1.3622669
2690025314000.0,-2.1486927894577468,2.735095834671676,3.768200432226771,-1.6850718,-0.9251554,0.45204028,17.808805,-93.86283,1.2227222
2690031435000.0,-2.1684156379296806,2.90274018397914,2.791918643413896,-1.5628988,-0.15607607,0.49418998,18.000473,-93.0903,1.1311878
2690035327000.0,-2.1933670143309434,2.883588221705932,2.275802025197877,-1.0403035,0.09040806,0.47067168,18.281115,-92.472336,1.0215116
2690040374000.0,-2.238374984467828,2.730560869457119,1.7132014820467456,-0.8445212,0.42730024,0.36163223,18.320488,-91.81802,0.9058418
2690045296000.0,-2.1656049892609803,2.4939224245200315,1.5179663333830105,-0.52442783,0.3539964,0.21594086,18.420366,-91.53242,0.7588945
2690050471000.0,-1.7832716158937494,2.016005571710353,2.2391862625931447,-0.39003745,-0.12858713,0.045814894,18.546274,-91.23594,0.57305133
2690055589000.0,-1.4017951837482274,1.5748249114305972,2.8766301704112176,-0.4175264,-0.8564331,-0.13072516,18.788094,-91.07909,0.33741242
2690060283000.0,-1.001625855999685,1.6421100031432172,2.324184088073105,-0.52564955,-1.4905112,-0.258396,19.143122,-90.970245,0.06496194
2690065420000.0,-0.5636902282527179,1.715745179139751,1.719600465369466,-0.6719518,-1.9281962,-0.34147367,19.647114,-90.85456,-0.19323578
2690070297000.0,-0.1203862209331437,1.8699874861925083,0.916184893826458,-0.8231409,-2.1410828,-0.36743546,20.266922,-90.81504,-0.47843638
2690075265000.0,0.3623829315675674,2.1226516744144144,-0.1621499643243242,-0.945314,-2.1545217,-0.35185838,20.952845,-90.90178,-0.78227824
2690080296000.0,0.8463255073394496,2.320410056897724,-1.1067052746941894,-1.0305296,-2.008525,-0.30573806,21.574604,-90.96261,-0.9455657
2690085268000.0,1.3155272174311925,2.409396608511723,-1.7700594034403667,-1.0797043,-1.7690657,-0.21746802,22.172619,-88.90065,-1.0935882
2690090584000.0,1.8248220340632415,2.475611448656305,-2.463361300957048,-1.0952814,-1.4862351,-0.09040806,22.707808,-88.83246,-1.1651268
2690095346000.0,2.40443994233979,2.0670855902381136,-2.826495393277697,-1.0986412,-1.1798862,0.051618114,23.158585,-88.785965,-1.2129657
2690101312000.0,3.130605511591762,1.5552701195697114,-3.281442473240946,-1.067487,-0.8405506,0.18784106,23.424583,-88.95615,-1.0395913
2690105342000.0,3.352949080539059,1.2493860433165829,-3.299754592964824,-1.0118983,-0.5195409,0.30818152,23.607178,-89.15943,-0.8313016
2690110258000.0,3.284125529693924,0.9267758901507538,-2.955637063316583,-0.94989544,-0.24862215,0.39675698,23.70644,-89.38985,-0.5944719
2690115318000.0,3.178973388033357,0.6389368812533398,-2.60399820570804,-0.88453287,-0.099571034,0.4550946,23.687195,-89.825264,-0.15313987
2690120341000.0,2.9374977161282487,0.5298833176341997,-2.265153238450328,-0.81031275,-0.06872234,0.5112942,23.627718,-89.68634,0.31361824
2690125265000.0,2.7007813696299894,0.422979127456886,-1.9329866808598493,-0.7348709,-0.036651913,0.5403103,23.5405,-90.772736,0.77187485
2690130272000.0,2.411988880429302,0.3627659664942735,-1.7515878016062811,-0.70005155,-0.07422013,0.58093286,23.46702,-91.25446,1.2510929
2690135261000.0,2.1056931370669165,0.3214676691867751,-1.6311344105020529,-0.64568454,-0.1337795,0.6078109,23.393389,-91.74536,1.736182
2690140747000.0,1.753230516278792,0.2674953638252858,-1.504053698174373,-0.61391956,-0.17165314,0.61941737,23.350496,-92.17289,2.1629066
2690145311000.0,1.1193409910134788,0.0363121306500597,-1.515239975737929,-0.58368176,-0.17562376,0.6133087,23.316177,-92.60606,2.593432
2690150266000.0,0.4311458556739462,-0.2146766774970141,-1.527384586896434,-0.56046885,-0.13255776,0.59040123,23.306608,-92.94773,2.9347203
2690155292000.0,0.0428751218733419,-0.3475642725746548,-1.5007593474253451,-0.52687126,-0.05375614,0.56779927,23.288565,-93.28993,3.2751577
2690160278000.0,-0.1390171054322835,-0.3995334784382015,-1.4487901415617983,-0.49388456,0.05375614,0.55680364,23.25054,-93.63064,3.613288
2690165326000.0,-0.3231711293871165,-0.452148911891708,-1.396174708108292,-0.44257188,0.18997909,0.54702985,23.225142,-93.80599,3.7877603
2690170687000.0,-0.4727507154938989,-0.4037292655858996,-1.068634687387178,-0.38423425,0.34391713,0.5626069,23.1645,-93.986855,3.9665873
2690175417000.0,-0.5868080143608367,-0.3203797029672671,-0.6738209735773775,-0.32742378,0.49205196,0.58123827,23.067133,-94.167725,4.143854
2690180308000.0,-0.5978594637540741,-0.2509563177822222,-0.1900166000399999,-0.29077184,0.59712076,0.6038403,22.955143,-94.29428,4.2672653
2690185268000.0,-0.5415620382133334,-0.19114029396,0.3483276143599999,-0.27275133,0.6035349,0.5934556,22.829578,-94.417915,4.3861437
2690190367000.0,-0.483686922722963,-0.1296479743088889,0.90175849122,-0.25809056,0.5494733,0.5751296,22.699413,-94.50211,4.473923
2690195263000.0,-0.2288330453501957,0.0205057425200069,1.5431212308896547,-0.29077184,0.41813725,0.539394,22.58975,-94.57678,4.552434
2690200315000.0,0.0537887723027046,0.184426392036918,2.2157611521817864,-0.33505958,0.27916542,0.50885075,22.498026,-94.64714,4.625941
2690205339000.0,0.3348441982504819,0.3474385343910274,2.884673061241895,-0.43035457,0.17898351,0.4978552,22.45593,-94.677795,4.6644416
2690210276000.0,0.598825551716645,0.5135690598174707,3.1998463339330727,-0.5513059,0.11728613,0.505491,22.44322,-94.70462,4.6981764
2690215351000.0,0.8565170027162103,0.6909959561668839,3.140704079261191,-0.6835582,0.10170906,0.52442783,22.446466,-94.73186,4.7305503
2690220372000.0,1.0894591647784375,0.8526595619917771,2.968097086158063,-0.8011498,0.10781772,0.55924714,22.537027,-94.75273,4.752353
2690225352000.0,1.2274456978985837,0.9543338415714938,2.314476712014619,-0.8454375,0.10720685,0.5726862,22.631523,-85.22858,4.771414
2690230378000.0,1.3667068054210447,1.0569472811633926,1.6548188805999695,-0.9101892,0.14019357,0.59681535,22.660833,-85.05227,4.9404964
2690235317000.0,1.308246746111869,1.1426188951568894,1.1733744143246931,-0.95722586,0.21930063,0.6246097,22.675549,-84.86487,5.1081166
2690240339000.0,1.0926593625219256,1.217605792038589,0.8171865929643345,-0.97494096,0.30390546,0.6267477,22.677996,-84.6723,5.2690096
2690245282000.0,0.8657750627311248,1.2909801012326656,0.5619807045223421,-0.9764681,0.38973203,0.6044512,22.601484,-84.37397,5.5327716
2690250299000.0,0.6205437017189908,1.3650121591679507,0.4000354908224191,-0.97097033,0.47311515,0.5571091,22.500303,-84.080284,5.785786
2690255302000.0,0.4394799625596874,1.419452843220952,0.4362013072753581,-0.9654725,0.56046885,0.49418998,22.3856,-83.84427,5.9851747
2690260349000.0,0.3450636719649833,1.4474280553103749,0.7474253473317899,-0.94714653,0.6047566,0.4392121,22.259556,-83.62083,6.1706276
2690265357000.0,0.2513769703009695,1.4751870927868616,1.0562444463218057,-0.89369583,0.62858033,0.39522982,22.149958,-83.49364,6.272182
2690270342000.0,0.1300180525354592,1.7115822917930157,2.219991470898953,-0.86070913,0.64934975,0.33292156,22.029852,-83.3872,6.3514757
2690275337000.0,-0.0056806966624278,2.05316885786951,3.815621622958036,-0.89644474,0.6264423,0.2742785,21.916689,-83.29083,6.4188595
2690280316000.0,-0.3744786657374978,2.8051502925317444,5.43044074621171,-1.058324,0.4792238,0.19486602,21.83208,-83.18991,6.437519
2690286741000.0,-1.0372966059794186,4.104865889510743,7.533684350803394,-1.3087788,0.1685988,0.09407325,21.804323,-83.090935,6.4345627
2690290374000.0,-1.4120853339014263,4.83978678660408,8.722958127532046,-1.5418239,-0.34269542,-0.02107485,21.954773,-82.98021,6.311548
2690295256000.0,-1.9153128944818871,6.074333582561079,9.476944204170175,-1.674687,-0.8979719,-0.102319926,22.216242,-82.83004,6.1726756
2690300365000.0,-2.4408653838142373,8.01166412289385,8.06001357387321,-1.754405,-1.1004738,-0.11056661,22.53063,-82.62609,6.021268
2690305124000.0,-2.8709079872787915,9.997695267858797,7.30108419839711,-1.6835446,-0.96883225,-0.086437434,23.065308,-82.32756,5.5361757
2690310153000.0,-3.2189685113314184,12.420732514500138,7.501888352265357,-1.4764613,-0.8772025,-0.081855945,23.687654,-81.921684,5.054864
2690315174000.0,-3.638712217296179,14.635618105366278,7.862321880069664,-1.2892311,-0.8237518,-0.08674286,24.312386,-81.672005,4.48108
2690320162000.0,-4.335464366245782,16.044721318602374,8.83985445078916,-1.269378,-0.91690874,-0.08277224,24.960907,-81.35095,3.9340215
2690325127000.0,-4.954145893436216,17.175130613488328,10.216445019841668,-1.4413365,-1.0442741,-0.06719518,25.661457,-81.03969,3.3153844
2690330156000.0,-5.446429658813508,17.831508093796973,12.335195628319472,-1.8148806,-1.2095132,0.00061086525,26.395407,-80.611885,2.7587898
2690336296000.0,-5.233209152992383,18.435852674646355,13.154947459194776,-2.1933117,-1.6065756,0.12767084,27.286592,-80.027016,2.1498122
2690340268000.0,-4.537074051914136,18.691729786922544,12.473863994559304,-2.450486,-2.3817637,0.17867808,28.323341,-79.33955,1.6193109
2690345153000.0,-3.3900054823087595,18.950825091954023,10.22305504086405,-2.5460863,-2.8771753,0.21838433,29.41537,-78.30277,1.1006912
2690350159000.0,-1.670344253180737,19.112340517241385,5.273091089774078,-2.3909266,-2.7253752,0.32834008,30.520098,-77.28937,0.674875
2690355861000.0,0.1296044685543765,19.25681889323608,0.5686831649867374,-2.0247128,-2.1896465,0.4343252,31.531696,-76.4089,0.4753114
2690360224000.0,1.3329217450246302,19.32410936453202,-2.008157539901478,-1.5421293,-1.38025,0.4382958,32.409924,-75.64049,0.27115437
2690365287000.0,2.5465511791438384,19.39210099897855,-4.050688126474139,-1.0897835,-0.5702427,0.3051272,33.022526,-75.62773,0.26317662
2690370243000.0,3.16798617752809,19.42735997752809,-3.111924346067416,-0.766025,-0.060170226,0.23823744,33.46194,-75.69884,0.24439174
2690375247000.0,3.773276571023719,19.46166894445015,-2.0968477066844646,-0.548557,0.13255776,0.30176744,33.546654,-76.08576,0.45682663
2690380218000.0,4.125227913779649,19.481221680562687,-0.3322027833555807,-0.36926803,0.15302174,0.40591997,33.532463,-76.52813,0.6359667
2690385223000.0,4.3235709434258265,19.499586508481222,1.2156507268457692,-0.310625,0.18906279,0.5323691,33.47287,-76.91243,0.8768529
2690390281000.0,3.454424387979214,19.509085074419065,1.2109012950975586,-0.2843578,0.27763826,0.61300325,33.377132,-77.30751,1.125708
2690395220000.0,2.5905123785112583,19.517904971125827,1.133957388,-0.23243423,0.43401974,0.7119634,33.236923,-77.5013,1.4503456
2690400235000.0,1.555743644347903,19.522146354790287,0.3069905746666667,-0.049480084,0.6808093,0.795652,33.038067,-77.71777,1.7729768
2690405202000.0,0.5308789778295804,19.52634714295806,-0.5120611026666666,0.23365596,1.0537425,0.8750645,32.779366,-77.94365,2.0149863
2690410212000.0,-0.4599925152569433,19.53038109662398,-1.138420012622651,0.5311473,1.258077,0.9138544,32.496063,-78.20636,2.2611737
2690415285000.0,-1.4537936539664065,19.5344205983702,-1.7282369176700485,0.8368854,1.6142114,0.9101892,32.065285,-78.53008,2.486388
2690420301000.0,-2.0111294,19.536686,-2.0590134,1.0079277,1.8869628,0.88270026,31.618465,-78.947,2.6130302
2690425378000.0,-2.0111294,19.536686,-2.0590134,1.3826935,2.0317378,0.8564331,31.114262,-79.483795,2.7337744
2690430292000.0,-1.9514669403159173,19.536686,-1.4623888246415553,1.74738,2.0305161,0.84329945,30.583107,-80.0964,2.7469258
2690435298000.0,-1.8388461736573516,19.536686,-0.3361811986067233,2.0925188,1.969735,0.8402451,30.036545,-80.787476,2.7613027
2690440335000.0,-1.7125889156883671,19.536686,0.8255779740467644,2.3961189,1.8472565,0.8558222,29.513365,-81.53328,2.7940476
2690445354000.0,-1.4141292866595518,19.536686,2.3645105518773653,2.6725354,1.645671,0.88056225,29.037619,-82.33219,2.844322
2690450590000.0,-1.1088448059998302,19.536686,3.9285686437664658,2.8860328,1.3023647,0.9282097,28.673073,-83.020424,2.9424942
2690455318000.0,-0.9241419320642476,19.536686,4.721251856276027,3.0311134,0.8164214,0.9691377,28.412046,-83.70941,3.064039
2690460252000.0,-0.7313915132829099,19.536686,5.54847245071811,3.0592132,0.3115413,0.9615019,28.284986,-84.19707,3.245045
2690465299000.0,-0.6942149659068474,19.536686,5.570183886475815,2.9275718,-0.052839845,0.8720101,28.253405,-84.62236,3.4233806
2690470311000.0,-0.7459054945257112,19.536686,5.135122000987167,2.7189612,-0.17684549,0.68569624,28.291323,-84.98606,3.5765572
2690475257000.0,-0.7958670894257345,19.464161475995496,4.412762030862933,2.474615,-0.06352998,0.4120286,28.359097,-85.210175,3.7037637
2690480252000.0,-0.8448343491247825,19.287879238816664,3.266927335807145,2.25562,0.2180789,0.12003502,28.406609,-85.40547,3.7696905
2690485254000.0,-0.7580419286999135,18.708718905736525,2.304957146266936,2.087021,0.5543602,-0.105374254,28.406837,-85.60944,3.773531
2690490312000.0,-0.5066983851888152,17.638181808590375,1.5555809838570194,1.9950858,0.83108217,-0.15332718,28.340878,-85.793274,3.7445138
2690495266000.0,-0.2770022589341099,16.569647484528577,0.9631088319767018,1.9449949,1.0494665,-0.08552113,28.19437,-86.004875,3.6862898
2690500322000.0,-0.0698894289610484,15.445950104113578,0.5929497311685475,1.9327776,1.2348641,0.008552114,27.979458,-86.1827,3.6259646
2690505304000.0,0.1127248237957752,14.36226056341573,0.2766944016773033,1.9504927,1.3683381,0.065973446,27.709545,-86.30885,3.6075604
2690510261000.0,0.2023353337186517,13.38507924449438,0.1700152257438202,2.0002782,1.4114041,0.11209377,27.414686,-86.362915,3.6176472
2690515693000.0,0.3021870465262988,12.28947232010326,0.0644835226895772,2.0732768,1.4853189,0.13591751,27.065557,-93.66925,3.668367
2690520312000.0,0.4235164352637948,10.812108496127784,0.2250665491408519,2.169488,1.5033394,0.13683382,26.723228,-93.77102,3.7312791
2690525431000.0,0.5579795530267828,9.174822197160374,0.4030324535366247,2.2180517,1.5125023,0.14019357,26.36379,-93.960815,3.8259447
2690530260000.0,0.7072974057797449,7.977091273105962,0.6225273489976568,2.2962425,1.5070046,0.15760323,26.006575,-94.21735,3.931241
2690535261000.0,0.8860204078338975,7.108414144493622,0.9051590831684456,2.3872614,1.4816537,0.17959438,25.655693,-94.52734,4.0447783
2690540289000.0,1.0670332485416028,6.194747227755603,1.2154546720908812,2.4492643,1.4337007,0.22785273,25.319052,-94.91874,4.219297
2690545313000.0,1.2541509485108997,5.091737617111861,1.6487799423805138,2.475226,1.3423764,0.29352075,25.004322,-95.349266,4.411157
2690550292000.0,1.4287942201909258,3.973853970796551,2.061034592393759,2.4987442,1.2311989,0.35369098,24.694342,-95.8256,4.639788
2690555274000.0,1.565924869687949,2.7690636407411207,2.413656123722028,2.4743097,1.0867293,0.4288274,24.42153,-96.32383,4.8957667
2690560263000.0,1.6559459521277315,1.6773937755835195,2.714471094722955,2.4055874,0.95203346,0.4841107,24.123808,-96.83234,5.1330028
2690565330000.0,1.6165502242405791,0.8861963804952304,2.875336980738786,2.3115141,0.81489426,0.54183745,23.869827,-97.35193,5.394859
2690570345000.0,1.5775587943305596,0.103118635011163,3.0345519833773085,2.193617,0.7263188,0.5925393,23.620968,-97.87304,5.687959
2690575242000.0,1.461498555716993,-0.7067195489576753,3.159801803706044,2.060143,0.6918049,0.6432411,23.396173,-98.38376,6.0010314
2690580309000.0,1.1651741219835756,-1.6467832863234364,3.2211102097388924,1.897042,0.66767573,0.6963864,23.193802,-98.87393,6.332088
2690585217000.0,0.7993371469423476,-2.3947294411209663,3.305276891734289,1.7076738,0.64476824,0.73853606,23.036259,-99.33822,6.7439327
2690590365000.0,0.2969261907434422,-2.9343559358558218,3.4308796396489902,1.5015068,0.59773165,0.7675522,22.887592,-99.77522,7.1681275
2690595340000.0,-0.3310019683532934,-3.2098931976047904,3.642111143712575,1.3045027,0.52687126,0.7611381,22.721987,-100.165,7.5004363
2690600338000.0,-1.280929447108982,-2.935560758922156,4.0556571646706585,1.0839803,0.43249258,0.6963864,22.572939,-100.504776,7.8264203
2690605679000.0,-2.26071936002457,-2.625647488864865,4.497658992506143,0.86926126,0.34880406,0.5708536,22.452154,-100.73106,8.046446
2690611271000.0,-2.278263447100737,-1.823002841945946,4.962578834275184,0.64965516,0.31306845,0.42302418,22.339392,-100.89559,8.242636
2690615319000.0,-2.290963458632268,-1.2419753865225225,5.2991302504914,0.45906523,0.23884831,0.3494149,22.313726,-100.8063,8.215709
2690620312000.0,-2.1833257872773757,-0.4973427274699616,5.659090562948444,0.36865717,0.16462818,0.2134974,22.290565,-100.64367,8.12535
2690625354000.0,-1.9611308839284192,0.2803397006374095,5.971809538593949,0.1704314,0.0842994,0.11636983,22.28928,-100.41331,8.019711
2690630271000.0,-1.7308544267117034,1.0340485940368815,6.200074198539346,-0.05589417,0.03390302,0.05589417,22.31025,-100.06334,7.851376
2690635304000.0,-1.4272388625251051,1.7820868524192075,6.050466458645244,-0.28099802,0.028099801,0.01985312,22.34249,-99.660164,7.6578856
2690640672000.0,-1.0999780684643463,2.561016052043087,5.883388890056085,-0.45234573,0.047036625,-0.006414085,22.427568,-99.231606,7.4655857
2690646095000.0,-0.7069862595673463,3.004865646140835,5.578242429894062,-0.54153204,0.07880162,-0.013133603,22.520853,-98.784485,7.263562
2690650265000.0,-0.4047963567274993,3.3461624942668924,5.343600951215169,-0.5531385,0.062308256,-0.00061086525,22.63535,-98.38641,7.0843697
2690655316000.0,-0.0224341609206065,3.5487459346654773,5.0999855455843,-0.5027421,-0.01282817,0.040011674,22.768497,-98.00146,6.906082
2690660288000.0,0.3598521501088314,3.671927079429081,4.874861280463872,-0.45204028,-0.1563815,0.07513642,22.936058,-97.62898,6.723734
2690665303000.0,0.7714449228876912,3.401712713299722,4.516941239986092,-0.43371433,-0.3539964,0.10781772,23.085855,-97.33979,6.615889
2690670436000.0,1.2201204796592489,2.7094704614047287,4.01271537023644,-0.47342056,-0.59498274,0.1386664,23.294357,-97.07337,6.5123143
2690675269000.0,1.5529792194906866,2.099089084036714,3.5073975799154145,-0.55955255,-0.88422745,0.1600467,23.537153,-96.91084,6.491372
2690680437000.0,1.508443131953568,1.6314603276612976,2.8304492911725005,-0.6768387,-1.1921035,0.18081611,23.85628,-96.76802,6.474421
2690685671000.0,1.4572673041845494,1.1690127130901289,2.1418087113733906,-0.8032878,-1.4486669,0.17348573,24.205118,-96.77574,6.5697913
2690690385000.0,1.287731143490701,0.9792936018597996,1.4596273267525035,-0.9111055,-1.5793921,0.15271631,24.604748,-96.793655,6.6634073
2690695358000.0,1.1088802043454935,0.7791508059012875,0.7399650387339056,-1.0045679,-1.5858061,0.1282817,25.04587,-96.84848,6.7604227
2690700309000.0,0.9020405627398328,0.6764591162521891,0.075924938381008,-1.1078042,-1.4749341,0.1001819,25.48757,-96.8975,6.8468356
2690705323000.0,0.6824597747032497,0.6063801681260946,-0.5781454441428294,-1.1951579,-1.2974777,0.0852157,25.908928,-96.94867,6.9266906
2690710294000.0,0.4817020861207959,0.5413982009420673,-1.0306104460512415,-1.2586879,-1.1801916,0.07666359,26.327074,-96.98176,6.9708543
2690716391000.0,0.2452229143792921,0.4642854084099313,-1.472723643534073,-1.278541,-0.74189585,0.07360926,26.598515,-97.01293,7.0100713
2690720268000.0,0.093954713152478,0.3965370135241807,-1.6873313128397285,-1.3051136,-0.569021,0.062002823,26.897017,-97.04594,7.045893
2690725301000.0,-0.1035075939328537,0.2857654761390887,-1.8847936350119905,-1.3090842,-0.21471913,0.03634648,27.01626,-82.921555,7.076471
2690730294000.0,-0.2610422208254477,0.1949575138370942,-1.9720253966734609,-1.3054191,0.14202617,0.009773844,27.079954,-82.89293,7.0976973
2690735296000.0,-0.362162649912651,0.1321931118108895,-1.8988002746906392,-1.287704,0.4914411,-0.044898596,27.044092,-82.874596,7.1027017
2690740317000.0,-0.4636671829887902,0.0691903004207308,-1.8252970085019653,-1.2568552,0.7846564,-0.10415252,26.930387,-82.892456,7.0675354
2690745662000.0,-0.4944509808784743,0.0230832311314668,-1.4886581953337392,-1.2486086,0.96852684,-0.14813483,26.74817,-82.917435,7.0194674
2690750313000.0,-0.4899326509129641,-0.0085451003298843,-1.091044875289105,-1.2644911,1.0555751,-0.17134771,26.510147,-82.94945,6.958763
2690755293000.0,-0.3825499044727273,-0.0985540491127272,-0.3727641661818182,-1.2983941,1.069625,-0.19150625,26.248337,-83.012115,6.855897
2690760323000.0,-0.2268445696767677,-0.2153330516323232,0.487507811919192,-1.3631458,1.0525209,-0.2049453,25.971182,-83.070816,6.74656
2690765310000.0,-0.10534488,-0.3179995463349977,1.2169639052019974,-1.4486669,0.9673051,-0.19822577,25.711388,-83.10275,6.6301513
2690770305000.0,-0.10534488,-0.3722847846055379,1.4905615271266457,-1.5451837,0.8155051,-0.19303341,25.476717,-83.11786,6.508426
2690775295000.0,-0.10534488,-0.4265156832982296,1.7638852775578755,-1.6297885,0.605062,-0.17562376,25.340218,-83.08958,6.380194
2690780254000.0,-0.10534488,-0.4804096766082614,2.0355110247299137,-1.6945401,0.33108896,-0.15241088,25.270704,-83.024895,6.2570877
2690785845000.0,-0.10534488,-0.5411721925583295,2.3417541286699954,-1.7272215,0.043066,-0.13225232,25.272118,-82.92347,6.142291
2690790353000.0,-0.1114118027166731,-0.5913799282938205,2.2896348422852704,-1.7321084,-0.21319197,-0.12522738,25.347172,-82.791534,6.033412
2690795347000.0,-0.1188469467773027,-0.6471435184531675,2.196695512413525,-1.6978999,-0.43218717,-0.13225232,25.497627,-82.63902,5.9297523
2690800258000.0,-0.1129856709034142,-0.6876112982030549,2.081918718598383,-1.6459764,-0.6273586,-0.16065755,25.740746,-82.42985,5.806909
2690805256000.0,-0.0613793302354896,-0.6790102476370171,1.8840943759568731,-1.5922203,-0.7101309,-0.17837265,26.018139,-82.203964,5.685242
2690810528000.0,0.0038913767737946,-0.6682042116616261,1.6375104438267214,-1.541213,-0.88086766,-0.19761491,26.356564,-81.93585,5.579878
2690815349000.0,0.2585192747089485,-0.627135183899662,0.7298852347624978,-1.5030339,-0.8863655,-0.204029,26.674212,-81.6587,5.469355
2690820407000.0,0.5256646610926882,-0.5840472057996798,-0.2223587618039495,-1.4764613,-0.82986045,-0.21166481,27.009354,-81.38318,5.3793736
2690825265000.0,0.6091617004885682,-0.484068742954012,-0.5277400737981396,-1.4242324,-0.67256266,-0.25137106,27.320303,-81.11772,5.2734203
2690830251000.0,0.6423704023541685,-0.3636872149456663,-0.6564237794401461,-1.3976597,-0.45814893,-0.33841935,27.602869,-80.85129,5.1458287
2690835260000.0,0.6693242401885856,-0.1199966842441687,-0.6766900254888337,-1.3655893,-0.27152961,-0.46853364,27.748568,-80.61002,5.125037
2690840332000.0,0.6886090162084367,0.280162705119603,-0.5609812938560794,-1.3600914,-0.11881329,-0.6258314,27.848444,-80.3829,5.06578
2690845312000.0,0.6503214677474747,1.081467743539945,-0.4355485962277319,-1.3393221,0.032986723,-0.7791586,27.898392,-80.21314,4.973527
2690850265000.0,0.5414281617777777,2.3838317360606056,-0.2961651634949495,-1.2883148,0.22021692,-0.9077458,27.901693,-80.06768,4.8366323
2690855674000.0,0.3805803223403324,3.8691571091061534,-0.2848108467191601,-1.1756102,0.38087448,-0.9049969,27.960066,-80.10579,4.6402926
2690860273000.0,0.1654352195450568,5.249939027544473,-0.5384893932545932,-0.97433007,0.61361414,-0.7449502,27.943632,-80.170944,4.4436274
2690865270000.0,-0.0683286592694663,6.750214575801983,-0.814121421312336,-0.72082096,1.0036516,-0.46853364,27.99662,-80.60318,4.1389966
2690870451000.0,0.0140928727269303,8.015527660263652,-1.111894299717514,-0.4260785,1.500285,-0.12370021,27.930704,-81.03092,3.9036074
2690875260000.0,0.3566855482043314,8.952237087664782,-1.3981109685734463,-0.13836098,1.9669861,0.19120082,27.742666,-81.45705,3.7426531
2690880255000.0,0.8434274262834023,9.655917079575149,-1.6223714374188656,0.13897185,2.3243423,0.37048978,27.4118,-82.008736,3.5655859
2690885259000.0,1.5382468516564107,9.934652491865464,-1.731441933515974,0.34208453,2.6209173,0.4184427,26.95726,-82.54403,3.4533713
2690890427000.0,2.266326285674931,10.256707269972452,-1.825080823140496,0.3567453,2.8893926,0.33536503,26.334553,-83.05148,3.4634404
2690895513000.0,3.1902570519716646,11.24964538866588,-1.5413842235183,0.16035213,3.0766227,0.14935656,25.657433,-83.50545,3.474256
2690900256000.0,4.051877898323495,12.175619729397877,-1.2768201314994096,-0.20525073,3.2391129,-0.09193522,24.842524,-83.8082,3.6521742
2690905313000.0,4.60014228002594,13.408467555642025,-0.3445696056204064,-0.63621616,3.286455,-0.2706133,24.020544,-84.011284,3.8055751
2690910263000.0,4.743608174967575,14.87591720544747,1.258148157025508,-0.9434814,3.2107077,-0.31581733,23.202969,-84.13588,3.9390998
2690915322000.0,4.883448186629527,16.239950534163526,3.217887120989677,-1.0070114,2.6569583,-0.2938262,22.433067,-84.03803,4.261963
2690920391000.0,4.990830503899721,16.95185682459446,6.7336687343191866,-0.7984009,1.1878275,-0.090713486,21.962782,-83.8827,4.6315627
2690925353000.0,5.09594612005571,17.648735698754713,10.175236768515484,-0.028710667,-1.3787229,0.3753767,21.956282,-83.570274,5.017982
2690930323000.0,2.4995617751164168,18.096497541190416,12.393865811531624,0.87964594,-3.7531562,0.9773844,22.315292,-83.25179,5.50583
2690935392000.0,-1.129689566912201,18.462300288883245,14.210546742951486,0.9398162,-4.5185704,1.2776246,22.93871,-82.88232,6.0295267
2690940330000.0,-4.3748205623581065,18.770237604840435,14.177701427714714,-0.5103779,-3.6822958,1.1172725,23.859291,-82.13866,6.463605
2690945322000.0,-7.170157251499251,19.00062230734633,11.131501556221888,-2.543643,-1.9874501,0.7877107,24.723738,-81.30433,6.904902
2690950598000.0,-8.689313361058602,19.088713776639143,7.394578266570491,-3.6871827,-0.44165558,0.47616947,25.709913,-80.74529,6.5360374
2690955315000.0,-8.905047005671078,19.043769228236,3.64170579986071,-3.8588357,0.28221974,0.13347405,26.41783,-79.90056,6.0966125
2690960257000.0,-8.659122829405728,18.959524833566565,0.8061439187797369,-3.5005634,0.21777347,-0.31520647,27.00305,-79.33226,5.2317114
2690965346000.0,-7.890725893534845,18.83221674979009,-0.9170656869017636,-2.982244,0.030848695,-0.8536842,27.42147,-78.66414,4.295501
2690971144000.0,-7.031991789617601,18.856986424410685,-2.701377842608696,-2.4333818,0.16554448,-1.2538009,27.69206,-78.28058,3.3824017
2690975276000.0,-6.435000992383447,19.02696248894709,-3.812443898260869,-1.8777997,0.54275376,-1.4291192,27.928349,-77.97655,2.4277809
2690980247000.0,-5.155420353998727,19.20143597416068,-4.4314387354198885,-1.3084733,0.9416488,-1.4767667,28.031952,-77.90781,1.553527
2690985273000.0,-3.101522521244655,19.337194677281413,-4.085473103994177,-0.7861836,1.2238685,-1.4926492,28.045647,-77.92469,0.65593445
2690990261000.0,-1.2487409661703164,19.44626795931873,-3.806166091562044,-0.33444872,1.3814718,-1.5030339,27.908371,-78.148445,-0.14629684
2690995380000.0,0.0156165122043798,19.47012374481752,-3.739369792525548,0.03573562,1.500285,-1.5289958,27.685982,-78.440025,-0.94759274
2691000354000.0,1.208065902506812,19.49132272479564,-3.545067687520436,0.32986724,1.6978999,-1.5268577,27.336273,-78.802444,-1.4896495
2691005463000.0,2.279058287193461,19.504654384196183,-2.794039861580381,0.59528816,1.8894062,-1.4871514,26.946905,-79.22294,-2.017475
2691010460000.0,3.3243459136691884,19.517583051925723,-2.057615403716816,0.8445212,1.9333885,-1.4477507,26.514389,-79.712105,-2.3936546
2691015315000.0,4.167754451796768,19.521580747077028,-1.1982180496061727,0.9804387,1.87444,-1.4330899,26.052652,-80.2085,-2.755972
2691020335000.0,5.039826719850413,19.52571430622421,-0.3096135763547973,1.2211196,1.6242907,-1.4318681,25.634386,-80.727325,-2.9644158
2691025321000.0,5.853177061816137,19.53033268289191,0.4158531783294815,1.4798211,1.276403,-1.3833044,25.257694,-81.26351,-3.1385372
2691030267000.0,6.633018430197362,19.535176010021477,1.05522622829594,1.7730364,0.98624194,-1.2589933,24.931614,-81.84934,-3.2736375
2691035263000.0,7.081917419347278,19.536686,1.5050644201406418,2.0650299,0.79076505,-1.0180069,24.683973,-82.42973,-3.234006
2691041317000.0,7.442581085394879,19.536686,1.944133171655247,2.3075435,0.6722572,-0.45998153,24.476814,-83.10383,-3.0596929
2691045305000.0,7.362584527687616,19.536686,2.299044914350349,2.450486,0.5861252,-0.22327125,24.295675,-83.77247,-2.8370717
2691050300000.0,7.000296445657519,19.536686,2.7977792796498475,2.4572055,0.47616947,0.2864958,24.122036,-84.55286,-2.3813164
2691055253000.0,6.547781219249537,19.33246773060744,3.2061926050816085,2.4443772,0.27183503,0.7699956,23.977827,-85.34265,-1.8459611
2691060256000.0,5.971344533165068,18.864868645128723,3.508519441797072,2.4086416,0.0076358155,1.1377366,23.864532,-86.130905,-1.2083303
2691065332000.0,5.376749196651876,18.36444431827349,3.7898599126260586,2.3628268,-0.26939157,1.385137,23.801693,-86.80482,-0.5246793
2691070303000.0,4.675809220875353,17.55788402763211,3.756253225494151,2.3420575,-0.51923543,1.534188,23.789925,-87.348114,0.22196802
2691075351000.0,3.977585157697161,16.735498308727653,3.7045495137223976,2.3564126,-0.7510588,1.5848899,23.851124,-87.63943,0.91856134
2691080263000.0,3.4235764828706623,15.90448501240799,3.4918498417981074,2.4037547,-0.9502009,1.5916094,23.960073,-87.636345,1.6321546
2691085260000.0,2.8997765685670704,15.08182528458385,3.2388526366383834,2.4468207,-1.0797043,1.5409076,24.115232,-87.41797,2.2591639
2691090332000.0,2.557089589217276,14.354773015730766,2.808178376899609,2.4593434,-1.1325442,1.4553864,24.29224,-87.02567,2.8665988
2691095347000.0,2.226874685555966,13.641841603435536,2.3722001429996307,2.4517076,-1.0763446,1.3655893,24.469381,-86.58755,3.3964608
2691100349000.0,1.9791300787587731,12.987088210934614,1.841318869117104,2.42147,-0.9059132,1.2779301,24.616396,-93.89475,3.89295
2691105266000.0,1.735595446287403,12.343461175563354,1.3194589683413374,2.4049764,-0.78954333,1.2544118,24.737244,-94.382256,4.3431215
2691110636000.0,1.624800868396369,11.363945273600605,0.830055600033283,2.4129176,-0.35033122,1.183246,24.706676,-94.85851,4.7490954
2691115323000.0,1.5399171711649016,10.487945328139183,0.4090325156550681,2.4199426,-0.19486602,1.1643091,24.715773,-95.358055,5.157471
2691120271000.0,1.5058820292794668,9.63665493523532,0.1293965794793836,2.4275784,0.109650314,1.1386528,24.555105,-95.845,5.5229187
2691125322000.0,1.621726114723032,8.966774212099125,0.2905709285860058,2.4587326,0.4098906,1.1230757,24.347963,-96.342064,5.884706
2691130227000.0,1.7624372781009083,8.30057790380887,0.4986511276085795,2.5137105,0.61422503,1.099252,24.07342,-96.86959,6.2351246
2691135274000.0,1.961662065307992,7.584844384772155,0.8122456963544767,2.5851817,0.75747293,1.0903945,23.73186,-97.41086,6.588383
2691140279000.0,2.159228948599344,6.875067039264178,1.1232306015601865,2.6939158,0.84391034,1.1487321,23.34114,-97.99385,6.9718394
2691145279000.0,2.2801870413492065,6.023694976455027,1.4105116562962965,2.839607,0.88606006,1.2525792,22.92648,-98.60386,7.369345
2691150298000.0,2.373436741904762,5.116629341269841,1.6902608022222223,2.9733865,0.95356065,1.3692545,22.48523,-99.24575,7.7913656
2691155258000.0,2.3400496077529342,4.301760678685857,1.9498848065535848,3.0983086,1.0497719,1.4957036,22.054493,-99.98311,8.286689
2691160264000.0,2.1593397836288872,3.5748144294268824,2.192200294448728,3.1859677,1.1468995,1.6233743,21.608374,-100.76104,8.820661
2691165275000.0,1.8960376757903856,2.7980659007795583,2.510620751580771,3.2357533,1.219287,1.7073684,21.197973,-101.62484,9.41441
2691170309000.0,1.066096850054136,1.6810386112862712,3.351001050108272,3.2030718,1.2351695,1.720502,20.777344,-102.49934,10.030153
2691175269000.0,-0.5158431885173708,0.3130495824367966,5.152148681259174,3.1242702,0.94225967,1.6111571,20.450872,-103.357925,10.61432
2691180615000.0,-4.319547192032296,-1.8956877073006035,9.765862477833958,2.8680124,-0.02076942,1.1972959,20.299316,-104.111206,11.092187
2691185250000.0,-7.617371370163921,-3.810670374328821,13.765967873854184,1.5952746,-0.7318166,0.59986967,20.14021,-104.46787,11.384509
2691190352000.0,-8.402679666077738,-3.839973068568904,13.135986393551237,0.013133603,-1.0656544,0.01160644,20.126535,-104.62826,11.538341
2691195366000.0,-8.589322715547702,-3.4412359587809185,11.48165208524735,-1.2257011,-1.1673635,-0.47616947,20.2237,-104.50906,11.530101
2691200262000.0,-8.21889231787032,-2.85834808313126,9.170761179546652,-2.1138992,-1.1297953,-0.8023715,20.538044,-103.21448,10.732361
2691205301000.0,-7.415024393252504,-2.110445465366368,6.260555129256721,-2.4550674,-0.84971356,-0.8790351,20.809341,-101.78092,9.885225
2691210296000.0,-6.631885966735113,-1.4366792600078224,4.0982020323653074,-2.9025261,-0.35705075,-0.9279043,21.051846,-100.25306,8.930551
2691215362000.0,-5.844394471047228,-0.7867617881196833,2.262303595189205,-3.089451,0.17806722,-0.90285885,21.214249,-98.76851,7.985051
2691220325000.0,-5.240043904717232,-0.2635143307549341,1.0678762223294096,-3.1227431,0.6927212,-0.83199847,21.256407,-97.564896,7.159855
2691225361000.0,-4.723565935905833,0.2017426955482785,0.2056568013328612,-3.0628784,1.1200215,-0.7883216,21.179749,-96.44717,6.3317137
2691230298000.0,-4.259196860687245,0.6301672907687828,-0.3489929044263249,-2.892447,1.4413365,-0.75961095,20.976088,-95.64326,5.638223
2691235295000.0,-3.86103312342125,1.0163861857642067,-0.4126991082095016,-2.656653,1.5784758,-0.7507534,20.708809,-85.00812,4.9416556
2691240815000.0,-3.422963061646804,1.4368877181654025,-0.4659225549859155,-2.4162774,1.4950926,-0.7315111,20.397554,-85.41996,4.3401284
2691245309000.0,-3.088791680444204,1.70111621345251,-0.2910654140422535,-2.1978931,1.2244794,-0.7290677,20.104137,-85.6949,3.729035
2691250279000.0,-2.719225199674973,1.993331527555074,-0.0976875790422535,-2.0167716,0.77671516,-0.7623598,19.877726,-85.795074,3.1850293
2691255313000.0,-2.149656783922046,2.130625621559074,-0.0223400487393422,-1.8640553,0.25442538,-0.8035932,19.75363,-85.7939,2.6404488
2691260220000.0,-1.529565290316687,2.2117145436662606,0.0110494893160779,-1.7464638,-0.22724187,-0.8555168,19.749567,-85.70738,2.0869262
2691265363000.0,-0.80257674335841,2.034548006835702,-0.2655729238404384,-1.6163495,-0.56505036,-0.91446525,19.8654,-85.54298,1.5930294
2691270336000.0,-0.0771587948314294,1.7868442947896348,-0.6238586203689049,-1.5039502,-0.74097955,-0.97097033,20.077133,-85.33122,1.0915524
2691275646000.0,0.7402473498214469,1.5144631747973318,-1.090565851133915,-1.4202617,-0.81581056,-0.9822713,20.400345,-85.20177,0.69823676
2691280310000.0,1.4781911587162648,1.2715375981118524,-1.5397490624628014,-1.3683381,-0.782213,-0.9627236,20.745447,-85.059555,0.3009438
2691285292000.0,2.1915023895385524,1.1048115125961349,-1.806438622303293,-1.3310753,-0.6979135,-0.8940013,21.071436,-84.98352,0.066247724
2691290355000.0,2.879944738079274,0.9805093962334844,-1.9737683261684085,-1.2886202,-0.623388,-0.79290307,21.387772,-84.913124,-0.15354538
2691296170000.0,3.4471630533314825,0.993097851013326,-2.052111373588746,-1.2449434,-0.5366451,-0.65179324,21.56502,-84.78913,-0.18874234
2691300341000.0,3.7872451098833984,1.0485460388395336,-2.074290702757727,-1.2009611,-0.49235737,-0.49296826,21.729902,-84.68301,-0.18880299
2691305295000.0,4.04797613449489,1.113292188239236,-1.8913432274752888,-1.1746938,-0.35735616,-0.410196,21.809248,-84.61518,-0.037499446
2691310291000.0,4.160195970112246,1.177417802613503,-1.4865502161166024,-1.1175779,-0.22052236,-0.23273966,21.868877,-84.567116,0.18708175
2691315363000.0,4.241635190441047,1.2214240414426285,-1.0901876109207522,-1.0543534,-0.14019357,-0.05009095,21.890028,-84.53813,0.5209269
2691320270000.0,4.064099137181515,1.097561631079775,-0.8218190946538395,-0.98654735,-0.12767084,0.11575896,21.88751,-84.503334,0.90019107
2691325288000.0,3.88254708597786,0.970897360608856,-0.5473798823800738,-0.929126,-0.16493362,0.28252518,21.898012,-84.43018,1.3421159
2691330512000.0,3.583649629304096,0.7718692651957231,-0.306760670287876,-0.86284715,-0.23701571,0.41141775,21.908775,-84.33695,1.8189816
2691335223000.0,3.2933940595868068,0.5797282957412107,-0.0982672704443639,-0.79229224,-0.3417791,0.5290093,21.932531,-84.20832,2.3392801
2691340315000.0,2.957487112664065,0.3773513246293012,0.0664805034661227,-0.70952,-0.47708577,0.6227771,21.996616,-84.04667,2.8340366
2691345308000.0,2.613998645867329,0.1822837635943597,0.1894578840222597,-0.6200282,-0.6081163,0.6835582,22.081945,-83.85926,3.350858
2691350333000.0,2.193859948707753,0.0295871924532803,0.2925400396023856,-0.535118,-0.7415904,0.70829827,22.218939,-83.65526,3.8104904
2691355308000.0,1.649214751888668,-0.0461895269701789,0.3588446636580517,-0.4334089,-0.83077675,0.7098254,22.37325,-83.44609,4.2776527
2691360227000.0,1.1115168649521692,-0.1053129137975528,0.471766924538376,-0.3231477,-0.8527679,0.6640105,22.549252,-83.239075,4.664365
2691365336000.0,0.5547091378131257,-0.1346185854416017,0.6852796628476084,-0.22937989,-0.7834347,0.591623,22.719208,-83.042564,5.039542
2691370656000.0,-0.0120780973083622,-0.1654357589583157,0.9330524372588146,-0.15424347,-0.6759224,0.4908302,22.905165,-82.95748,5.2647395
2691375314000.0,-0.3703965979841042,-0.1956099497657901,1.4196112531986134,-0.13652839,-0.53786683,0.37507126,23.058935,-82.892426,5.4589605
2691380311000.0,-0.7547928083483555,-0.2279801583241735,1.94158085458358,-0.18020524,-0.41416663,0.26206118,23.214567,-82.98644,5.4475803
2691385308000.0,-1.014679892727806,-0.2121925701671881,2.513288287436449,-0.28344148,-0.2959642,0.16768251,23.331648,-83.08989,5.4049187
2691390332000.0,-1.2075492977493156,-0.1698553644104419,3.1154173890398904,-0.43463063,-0.18997909,0.10140363,23.4171,-83.1917,5.3360205
2691395275000.0,-1.0632660099130935,-0.1613780215843759,3.408926213016904,-0.59864795,-0.13958271,0.076052725,23.5171,-83.17955,5.1950994
2691400359000.0,-0.6866289278922739,-0.1753275445793143,3.5065727574539203,-0.7128797,-0.047036625,0.069027774,23.578506,-83.15152,5.035725
2691405294000.0,-0.3770537169263607,-0.2003420103064491,3.4040955215734106,-0.7669413,0.036651913,0.050701816,23.642826,-83.088455,4.789498
2691410300000.0,-0.1175746789967983,-0.2368883556654978,3.108070187894496,-0.838718,0.094989546,0.056199603,23.695337,-82.97365,4.5453258
2691415282000.0,0.1406603523585912,-0.2732594888214666,2.813464072754993,-0.86009824,0.18051068,0.054061573,23.692244,-82.8763,4.327211
2691420310000.0,0.4122461374248709,-0.2061263169355794,2.4765494466435283,-0.8518516,0.2910773,0.054061573,23.676407,-82.75633,4.109983
2691425362000.0,0.6866553301853889,-0.1242131213645983,2.132514020113434,-0.83016586,0.40469822,0.05131268,23.646725,-82.62441,3.8899155
2691430294000.0,0.97950961214189,0.1195419593347775,1.7827425909919667,-0.79901177,0.51923543,0.08277224,23.564384,-82.49146,3.7687888
2691435626000.0,1.3205784061196857,0.5435734728612691,1.3909743361675242,-0.7819075,0.6597345,0.1386664,23.449541,-82.35577,3.6507323
2691440285000.0,1.5794302423476814,0.9590587552224994,1.0632684924516531,-0.7309003,0.8597928,0.23518312,23.253918,-82.23511,3.6378555
2691445308000.0,1.7694867645040548,1.509222299700561,0.7431733522145977,-0.6579019,1.0818423,0.35918877,23.014437,-82.116066,3.6450012
2691450264000.0,1.8866309,1.9917289092265944,0.4749810403799185,-0.59895337,1.2571607,0.48624873,22.678991,-81.88401,3.8157032
2691455261000.0,1.8866309,2.3769954847670736,0.2845121655296246,-0.57757306,1.3784174,0.6078109,22.293364,-81.64732,4.014467
2691460287000.0,1.838076441217328,2.768055998519466,0.1223244091438493,-0.63071835,1.3933836,0.7012733,21.870659,-81.46364,4.273708
2691465339000.0,1.5418238738621826,3.1792723155730216,0.1090593650795101,-0.68203104,1.3582588,0.75716746,21.427103,-81.2706,4.555768
2691470668000.0,1.2138215397142256,3.6278389523744488,0.0774998874200462,-0.6542367,1.3106114,0.7892379,20.992035,-81.162636,4.8440275
2691475282000.0,0.6752906619667998,4.259219963069973,-0.2381906247144358,-0.54183745,1.3142766,0.7968737,20.553537,-81.04748,5.1427307
2691480354000.0,0.1363254059722222,4.971216251736111,-0.5715269859953704,-0.4364632,1.320996,0.7846564,20.158989,-80.95784,5.374363
2691485266000.0,0.1617334991574074,5.84598080099537,-0.7530133713040124,-0.37018433,1.2437216,0.72692966,19.792011,-80.88306,5.6004567
2691490384000.0,0.1882071597685185,6.757431322800926,-0.9421109527391976,-0.3585779,1.0595458,0.60231316,19.491163,-80.884705,5.6973476
2691495294000.0,0.4214424430865962,7.644621272077736,-0.9748061521577592,-0.3399465,0.9324858,0.39553526,19.205513,-80.92282,5.7578487
2691500300000.0,0.8781585890292465,8.562620665047156,-0.85149283004668,-0.3539964,0.6951646,0.28344148,19.008623,-80.9567,5.822512
2691505818000.0,1.4131016858636554,10.006994253032204,-0.4692475572982016,-0.40866885,0.45723262,-0.05009095,18.85898,-81.08064,5.7738376
2691510257000.0,1.8753758845322737,11.60717423100516,0.0878521100864352,-0.38698313,0.39584067,-0.15149458,18.724592,-81.19065,5.7635403
2691515313000.0,2.401904009891259,13.429771655792557,0.7223859957130908,-0.28924468,0.20463985,-0.33322698,18.69163,-81.34177,5.7383623
2691520258000.0,2.6465972337064363,14.862455041889255,1.9926473526244384,0.20219639,-0.16829337,-0.34055737,18.725954,-81.5569,5.743229
2691525296000.0,2.6343235327652,15.98345383015348,3.915528491079454,0.9447031,-0.59712076,-0.07086037,18.827574,-81.809944,5.784601
2691530268000.0,2.1641253288429425,17.03977857558648,6.049391958791253,1.713477,-0.9230174,0.37995818,18.967651,-81.980774,5.9626274
2691535258000.0,-0.8836829820119285,17.818832057892642,9.519029473224652,2.0665572,-1.0375546,0.6478226,19.16291,-82.158424,6.1604137
2691540318000.0,-3.974246118870776,18.60881414616302,13.037339257399603,1.423316,-0.65270954,0.49266282,19.340307,-82.12646,6.256595
2691545325000.0,-4.545131491793893,18.985974647423664,14.322654428435117,-0.031154128,-0.24831672,-0.03176499,19.540432,-82.0412,6.3156395
2691550304000.0,-3.7579992913740456,19.14067094217557,14.404552327099235,-1.6584991,0.0009162979,-0.6236934,19.675596,-81.86635,6.2989655
2691555297000.0,-2.2461356436302142,19.256577637593523,13.459498782617608,-2.7495046,-0.2941316,-1.0308352,20.224998,-81.711685,5.4148026
2691560265000.0,-0.1444716914317925,19.339473531823305,11.66991438659424,-3.285844,-1.135293,-1.201572,20.859926,-81.137794,4.5251923
2691565322000.0,1.3026004512605045,19.397718308246372,8.614840013297627,-3.4562755,-1.9016235,-1.210735,21.498499,-80.14699,3.784744
2691570507000.0,2.2976411655462186,19.43898763320713,4.611749966201867,-3.3985488,-2.158187,-1.1560625,22.232721,-78.97355,3.087848
2691575449000.0,2.904931182606993,19.46867428684752,0.7600931177945356,-3.1334333,-1.5861117,-1.0974194,22.754244,-77.87064,2.752099
2691580301000.0,3.1142609839193027,19.486876770835373,-3.0624510428949168,-2.6847527,-0.43676865,-0.97097033,23.181055,-76.8386,2.4425285
2691585233000.0,3.195813144847755,19.50145310098056,-5.877579303457767,-2.1303926,0.8927795,-0.7067711,23.260044,-76.36917,2.303333
2691590366000.0,3.056280668054361,19.50990934981937,-6.976926796731464,-1.5464053,1.9019289,-0.4428773,23.103046,-76.039276,2.143639
2691595346000.0,2.910771797159533,19.517860894357977,-7.942252450729572,-1.0369438,2.2327125,-0.2782491,22.663454,-76.12994,2.0819356
2691600301000.0,2.6338083125291827,19.52247752762646,-7.58220012315175,-0.84238315,2.6331346,-0.2284636,21.926443,-76.2837,1.986775
2691605611000.0,2.335782496036944,19.527381762216624,-7.154053361376994,-0.5338962,2.7840183,-0.050396383,21.145771,-76.69044,1.9634387
2691610269000.0,2.05861628225021,19.531126935012598,-6.232663220235096,-0.20891592,2.7568347,0.011301007,20.320448,-77.14788,1.9087052
2691615313000.0,1.7584818077246012,19.53518246347607,-5.234919151553316,0.21380283,2.473088,0.13133603,19.529129,-77.66434,1.8954962
2691621299000.0,1.4169646171728971,19.536686,-3.640876043808411,0.7339546,1.9761491,0.24831672,18.812876,-78.28339,1.9179643
2691625311000.0,1.1925362196261684,19.536686,-2.447664788161993,1.3158038,1.2855659,0.32436943,18.237406,-79.01713,1.9940065
2691630293000.0,1.009040706459308,19.536686,-0.6192941980823197,1.9593502,0.441961,0.3943135,17.868055,-79.784454,2.0967913
2691635294000.0,0.8970350583278766,19.536686,1.4789447842609915,2.6306913,-0.462425,0.41874814,17.718218,-80.69261,2.2461133
2691640446000.0,0.7970204680717564,19.536686,3.5842620420525657,3.2333097,-1.2990049,0.3735441,17.818012,-81.589775,2.394776
2691645375000.0,1.151494131848978,19.536686,3.9505515161451816,3.658472,-1.9721785,0.2669481,18.130753,-82.57865,2.5555232
2691650258000.0,1.502659662428035,19.536686,4.313422585732165,3.8224893,-2.415972,0.13652839,18.637863,-83.354095,2.6922002
2691655296000.0,1.9259895563994105,19.536686,4.317827009421265,3.7293322,-2.5503623,0.032070424,19.232172,-84.12429,2.803142
2691660315000.0,2.3880737969108505,19.536686,4.077543228802154,3.3899968,-2.4312437,-0.03604105,19.861883,-84.820885,2.8787594
2691665271000.0,2.8443578168300965,19.536686,3.8402755625841194,2.9648345,-2.1578815,-0.07391469,20.442614,-85.36409,2.9591138
2691670270000.0,3.4076202067983674,19.536686,3.063762761345761,2.5219572,-1.8057177,-0.09437868,20.947979,-85.776276,3.012155
2691675271000.0,4.082803584121684,19.536686,1.7045117269523278,2.1539109,-1.4107933,-0.12705997,21.3473,-86.07884,3.0399044
2691680242000.0,4.551237241451247,19.536686,0.7103688847800453,1.9312505,-1.0167851,-0.13103059,21.607334,-86.24522,3.139215
2691685296000.0,4.588866931882086,19.536686,0.4720475458866213,1.8472565,-0.70066243,-0.09315695,21.767574,-86.33541,3.2338614
2691691098000.0,4.6320658760609,19.536686,0.1984542715970196,1.8377881,-0.57940567,-0.026572637,21.83641,-86.34806,3.412356
2691695258000.0,4.65328138221558,19.42993295311041,0.0354823102223052,1.9016235,-0.3717115,0.0106901415,21.787466,-86.303535,3.5855613
2691700299000.0,4.648771980291426,18.969982432280965,-0.0592132185036428,1.9495764,-0.22357668,0.08979719,21.71875,-86.179665,3.785463
2691705278000.0,4.633830153695123,18.39276098311474,-0.1320031889122752,2.05098,-0.12370021,0.1704314,21.623419,-86.00295,3.9966927
2691710297000.0,4.52058278261211,16.66007549603393,-0.0112059063724181,2.1832323,-0.032070424,0.2489276,21.488276,-94.24635,4.225857
2691715335000.0,4.406906700620435,14.920830729364642,0.1100486681316264,2.3209825,0.05467244,0.32711834,21.332983,-94.57394,4.48059
2691720292000.0,4.357447,14.164097,0.16280572,2.4578164,0.122783914,0.40103304,21.157671,-94.968315,4.7537713
2691725360000.0,4.357447,14.164097,0.16280572,2.6050348,0.15424347,0.46303585,20.969347,-95.4237,5.0431004
2691730295000.0,4.308515886074288,12.926548468434175,0.3279481267804174,2.7296515,0.160963,0.5323691,20.74784,-95.93689,5.3648624
2691735294000.0,4.233113099849062,11.019487707245045,0.5824323720009188,2.8710666,0.15485434,0.59681535,20.521717,-96.501,5.7036033
2691740326000.0,4.15721255568316,9.099837827208294,0.8385965492262766,3.026532,0.15302174,0.65148777,20.299482,-97.114,6.0561533
2691745457000.0,4.04041298837578,7.346780685204637,1.0317308124021405,3.157868,0.18906279,0.7122689,20.068819,-97.768295,6.4293175
2691750406000.0,3.9042053362203935,5.778042486681201,1.1773322707759388,3.2940907,0.2855795,0.7480045,19.82134,-98.457466,6.8120346
2691755296000.0,3.775257868937876,4.387482746192385,1.2563945588176353,3.4235942,0.4373795,0.7800749,19.541252,-99.20303,7.238229
2691760628000.0,3.638815479492318,2.988948966733467,1.2947689752839011,3.5228598,0.6646214,0.8038987,19.209843,-99.972374,7.6824336
2691765319000.0,3.496946975611544,1.7635634624544207,1.3401879556390288,3.5937202,0.9483683,0.8323039,18.856005,-100.81114,8.147898
2691770276000.0,3.257737369491525,0.4892287247457629,1.4358717254237288,3.630983,1.2895365,0.8582657,18.418877,-101.66608,8.638853
2691775335000.0,3.0086671540265835,-0.8120667975527756,1.558166598123534,3.6233473,1.593442,0.89766645,17.899887,-102.55063,9.169061
2691780307000.0,2.385081557466771,-2.1476569005590305,3.5685325023455827,3.5802813,1.6533068,0.93431836,17.353813,-103.43824,9.72344
2691785714000.0,1.627473546851162,-3.522627031949619,5.834546319762285,3.5097263,1.0958922,0.8356637,16.961344,-104.37078,10.229978
2691790351000.0,-0.7004422695050556,-3.06570962128792,9.462313593400744,2.6352727,0.7703011,0.61086524,16.478662,-105.11705,10.73753
2691795316000.0,-3.193024117296434,-2.576471979723257,13.34669239728579,0.8707884,0.41172317,0.5155703,16.177578,-105.51834,11.163382
2691800316000.0,-4.117066992368796,-1.8184300052525884,12.922748838093538,0.09468412,0.2657264,0.43157628,15.892807,-105.899704,11.531959
2691805297000.0,-4.385295309460907,-0.9541385464119958,10.717315504819709,-1.1545353,0.21930063,0.44257188,15.676084,-105.85146,11.890721
2691810327000.0,-4.503704880465116,-0.0609230658033826,8.127692365200847,-2.0592268,0.4728097,0.49663344,15.439715,-105.02078,11.76776
2691815420000.0,-4.44699018,0.8671363420454545,5.085719806363636,-2.6074784,1.0494665,0.5375614,15.124433,-104.0926,11.648618
2691820321000.0,-4.416347857439276,1.6341136686891533,3.208672919382437,-2.8325822,1.7531832,0.57360244,14.7756605,-103.25659,11.470871
2691825350000.0,-4.402139461176124,2.330325580125873,2.0388474035401707,-2.809064,2.3402247,0.5849035,14.29677,-102.46131,11.298417
2691830256000.0,-4.330951394090785,2.8306640904283498,1.3603858244040552,-2.6038132,2.7030787,0.528093,13.744462,-101.862656,11.105122
2691835280000.0,-4.207909141903371,3.1866074470088592,1.0703579076262673,-2.3102922,2.8835895,0.4370741,13.077807,-101.332794,10.899469
2691840264000.0,-4.011843868699621,3.357075790278722,1.0523270833640868,-1.9553796,2.8765645,0.35002577,12.392146,-100.88956,10.6527195
2691845351000.0,-3.666466012731864,3.17255878450034,1.5632972380110712,-1.5769486,2.5842655,0.27030787,11.74125,-100.48143,10.370571
2691850342000.0,-3.255667943938731,2.88193772273523,2.0445937962144423,-1.2516629,1.9758437,0.19486602,11.204322,-100.11133,10.065604
2691855191000.0,-2.6917062191466083,2.3484603452407,2.466294932986871,-1.0714576,1.1704178,0.11728613,10.816436,-99.74524,9.732328
2691860143000.0,-2.111395489587765,1.7462147209055,2.487399250460853,-1.039998,0.32620203,0.05681047,10.652367,-99.44252,9.440959
2691865206000.0,-1.5122402336878356,1.053748472439988,1.96191067020156,-1.1026118,-0.33383787,-0.0018325958,10.677264,-80.870735,9.128733
2691870167000.0,-0.9690665937252166,0.4242209699053502,1.3456591947912724,-1.2095132,-0.7690793,-0.06505715,10.930406,-81.09677,8.899962
2691875164000.0,-0.4732060939623393,-0.1526936180332768,0.6066363707581948,-1.3246613,-1.010982,-0.16279559,11.3207245,-81.3503,8.641187
2691880130000.0,-0.0265324668517898,-0.5120179259150217,-0.1302336770090331,-1.4740179,-1.069625,-0.29535335,11.718253,-81.51453,8.4667635
2691885141000.0,0.3668230866309802,-0.608349907947474,-0.876806472796922,-1.6297885,-1.0769554,-0.37048978,12.170233,-81.688324,8.276147
2691890225000.0,0.7729830961996852,-0.6584566172295929,-1.636458107038453,-1.7040086,-0.9193522,-0.48808134,12.448379,-81.77031,8.146716
2691895183000.0,1.2587987522824375,-0.1032387054508657,-2.405221371216551,-1.8387043,-0.65057147,-0.52931476,12.697611,-81.8181,8.017983
2691900178000.0,1.6714909780897194,0.4057288162593666,-3.0190995994504948,-1.9315559,-0.30726522,-0.4596761,12.865499,-81.77844,7.980003
2691905147000.0,1.89019504182236,0.7860837386312318,-3.2282948469677293,-1.9932534,0.036957346,-0.32253686,12.956111,-81.70719,7.948666
2691910240000.0,2.045504762924476,1.0892378608554465,-3.3426051142326965,-1.9969184,0.32986724,-0.18081611,12.95944,-81.56771,8.00881
2691915226000.0,2.0322138207830767,1.1778441880590091,-3.2141259143440344,-1.9404135,0.5540548,-0.040011674,12.883345,-81.38442,8.106184
2691920263000.0,2.0015145069582503,1.2312575007952289,-3.050108347713718,-1.8396207,0.66798115,0.070249505,12.756007,-81.15863,8.266583
2691925224000.0,1.8692784108747516,1.070685094885686,-2.686459108141153,-1.7046194,0.6365216,0.1554652,12.606893,-80.91033,8.460114
2691930228000.0,1.7283090974093265,0.8939901693358455,-2.317542249034385,-1.4990633,0.49205196,0.21777347,12.46043,-80.65809,8.672408
2691935206000.0,1.5351905535751296,0.6155401188619878,-1.9357961474234573,-1.2956452,0.22876903,0.25900686,12.359029,-80.40425,8.906501
2691940620000.0,1.3207943721088689,0.3127347856693205,-1.539324964136271,-1.0958922,-0.09132435,0.27214047,12.315391,-80.161095,9.130624
2691945222000.0,1.0923127662506944,0.0556930025106461,-1.400604017755971,-0.8961393,-0.40194935,0.26511553,12.346722,-79.935036,9.366167
2691950188000.0,0.8457591689687094,-0.2216797691464543,-1.2509107931309018,-0.7257079,-0.6554584,0.24801129,12.449415,-79.72492,9.5744
2691955238000.0,0.5986020900839328,-0.4053837188968825,-1.2339038304556356,-0.54641896,-0.82558435,0.23762658,12.618829,-79.53687,9.787347
2691960212000.0,0.3558576002398081,-0.5672133854196643,-1.24342321558753,-0.37293324,-0.93279123,0.20463985,12.844929,-79.37553,9.992739
2691965298000.0,0.1328805382233834,-0.6281034303331156,-1.2678791841280208,-0.18600847,-0.9425651,0.17928895,13.088944,-79.250046,10.156624
2691970371000.0,-0.0847168053018568,-0.6689029322440981,-1.2950788804702809,-0.004886922,-0.89736104,0.14110987,13.349486,-79.150894,10.308657
2691975224000.0,-0.2381130019663831,-0.6900741041312272,-1.177622425754354,0.15882497,-0.829555,0.106901415,13.613039,-79.10845,10.409457
2691980283000.0,-0.375473652454435,-0.7047913068043743,-0.996110080164034,0.321926,-0.7632761,0.060170226,13.865255,-79.09164,10.494677
2691985209000.0,-0.427259987368421,-0.6994093252631579,-0.7286101692982456,0.4578435,-0.71929383,0.040011674,14.114441,-79.131996,10.525891
2691990269000.0,-0.4490587541700405,-0.6863300788394062,-0.4190677990778227,0.5207626,-0.6282749,-0.004886922,14.331971,-79.19337,10.533791
2691995347000.0,-0.4027924324139,-0.6075423713807012,0.0137347854586823,0.61086524,-0.5421429,-0.041233405,14.53918,-79.28485,10.504777
2692000268000.0,-0.295562697285138,-0.4710681547067948,0.5450093859344296,0.6704246,-0.4709771,-0.06414085,14.724623,-79.38099,10.464337
2692005262000.0,-0.0157409022941176,-0.2321955068678601,1.1675916118670078,0.6805039,-0.40500367,-0.07513642,14.878344,-79.47619,10.406875
2692010268000.0,0.3929674893529411,0.0825099564501278,1.854221741585678,0.6270532,-0.35094208,-0.07849618,15.014817,-79.57201,10.343216
2692016101000.0,0.7431514365446225,0.3758768953135011,2.4679220206102213,0.52106804,-0.2574797,-0.06352998,15.112197,-79.65241,10.281568
2692020485000.0,0.8200113332951945,0.4879642585354691,2.6536667501906943,0.3707952,-0.11056661,-0.03604105,15.17774,-79.72562,10.221354
2692025324000.0,0.9048482494393592,0.6116847764713959,2.8586892744698704,0.19853121,0.07727446,0.0036651916,15.182554,-79.716866,10.232572
2692030263000.0,0.914719144324547,0.7465081654036244,3.063880819456343,-0.0061086523,0.26633725,0.015577064,15.143769,-79.703415,10.242473
2692035252000.0,0.8753627356383855,0.888191244892916,3.268534161062603,-0.2275473,0.4147775,0.023518313,15.062693,-79.67425,10.261568
2692040335000.0,0.827379675360219,1.02387341689608,3.444664732576672,-0.45631635,0.52534413,0.023518313,14.917066,-79.59118,10.312166
2692045310000.0,0.7468405805361025,1.1197532764308138,3.4791814531755616,-0.7086037,0.5861252,0.014049901,14.745784,-79.49348,10.360088
2692050568000.0,0.661720065845609,1.221087206367222,3.51566163747887,-0.9419542,0.63407815,-0.004581489,14.546143,-79.38443,10.383791
2692055275000.0,0.5685753466808143,1.315445877591763,3.2189338516859234,-1.119716,0.6728681,-0.024740042,14.336838,-79.251465,10.400955
2692060316000.0,0.4623309961235557,1.4178957731902853,2.774984238057062,-1.2486086,0.7171558,-0.03604105,14.117913,-79.09046,10.411426
2692065357000.0,0.3589782234997247,1.5217051484676087,2.3616786048265737,-1.3350459,0.7806858,-0.05589417,13.893591,-78.91901,10.384218
2692070268000.0,0.2726656951064415,1.6295958258579557,2.111372217058176,-1.4022411,0.8356637,-0.073303826,13.666015,-78.71581,10.350192
2692075665000.0,0.1800118608839103,1.7459885265235782,1.8412419936863544,-1.4498887,0.86742866,-0.09468412,13.445285,-78.542885,10.28182
2692080315000.0,0.1416401177067209,1.8052903415008617,1.7017083735234215,-1.4724907,0.9098838,-0.110872045,13.211792,-78.349014,10.206198
2692086037000.0,0.0944222436293279,1.8782634566191447,1.530007002647658,-1.5008959,0.9483683,-0.116980694,12.98717,-78.18273,10.098925
2692090293000.0,0.0333303665485127,1.9523982348330435,1.4286264111359683,-1.4920384,0.9804387,-0.11484267,12.75838,-78.00586,9.987144
2692095277000.0,-0.0694951300473941,2.0631333902228848,1.3416202412130251,-1.4895949,1.0858129,-0.10903945,12.503531,-77.8107,9.869764
2692100747000.0,-0.2916451137645195,2.2362122526399157,1.4051663448257656,-1.4679092,1.2513574,-0.12095132,12.24243,-77.65398,9.7301
2692105307000.0,-1.4176025207338965,2.8241695197993666,2.8270238611932417,-1.4077389,1.4575244,-0.12950343,11.945467,-77.493416,9.587079
2692110231000.0,-2.6334389838736363,3.459060217933826,4.362380530183034,-1.3994923,1.7730364,-0.1563815,11.611245,-77.39468,9.388718
2692115315000.0,-3.2604661367951127,4.266398110037594,5.896430017565789,-1.3600914,2.2446244,-0.20005837,11.182792,-77.31031,9.169974
2692120300000.0,-3.641850730075188,5.114418011729323,7.381586470526315,-1.3084733,2.5864034,-0.25625798,10.712794,-77.23007,8.934641
2692125294000.0,-3.479378246862904,5.991800837429111,7.383567009865874,-1.4126259,2.2296581,-0.2846632,10.559461,-77.31784,8.283786
2692130262000.0,-2.965442828229364,6.882622402646502,6.424220942785129,-1.6600263,1.2290609,-0.34880406,10.531238,-77.3487,7.648284
2692135277000.0,-2.234405249761106,7.925811886042493,4.990313718430416,-2.0775528,0.32436943,-0.5155703,10.584241,-77.041176,6.833325
2692140335000.0,-1.1461540543356714,9.215955642675612,2.774417544230965,-2.4917192,0.073303826,-0.70341134,10.768238,-76.60531,6.0349317
2692145313000.0,-0.1344270558646917,10.662472617493997,1.49502940331265,-2.7345383,0.07696902,-0.81306165,11.050425,-76.14027,5.394034
2692150347000.0,0.8064137399319455,12.37046065392314,1.4516060649019216,-2.8124237,-0.13500121,-0.8585711,11.483225,-75.58427,4.7653675
2692155903000.0,1.7505271913780214,14.03560628233242,2.735647274806878,-2.7076602,-0.6001751,-0.9440922,11.972707,-75.52296,4.411063
2692160262000.0,2.412820739845502,15.159077975579368,4.850825720184401,-2.4312437,-1.3903292,-1.028697,12.608146,-75.468864,4.0898137
2692165502000.0,3.137736277224864,16.4772357679178,7.402768422350544,-1.8564194,-2.6316075,-1.067487,13.395859,-75.52861,4.008365
2692170319000.0,2.534454395482337,17.11185711056386,9.913831580570651,-0.86742866,-4.147775,-0.82894415,14.45109,-75.74333,4.0426064
2692175285000.0,1.9125117289402167,17.76610863383152,12.50256723423913,0.269697,-5.277876,-0.26419923,15.562276,-75.49856,4.321447
2692180276000.0,1.7453770812726832,18.1984634478587,14.212046342850227,0.39584067,-5.5961366,0.3286455,16.840588,-75.23548,4.703866
2692185309000.0,1.823125382853456,18.51334439196709,15.456018924590694,-1.7910569,-5.770233,0.55924714,18.36468,-74.639175,5.1826982
2692190316000.0,2.1677665162951576,18.803519758647194,15.909835836279786,-3.4413095,-5.015509,0.8940013,19.74402,-73.82953,5.601274
2692195377000.0,3.7557434739623368,18.98979256725596,12.733882309953882,-6.0368757,-4.4128904,1.0381655,21.179968,-72.22338,6.0631366
2692200262000.0,5.1671163943696605,19.086637115713177,9.598846892699974,-6.624528,-4.3860126,1.0106765,22.524717,-70.60163,6.565303
2692205296000.0,5.338714253947709,18.30976698783329,5.633375943049444,-5.627596,-4.4388523,0.80481493,23.692171,-68.79501,7.051285
2692210323000.0,5.51007349910044,17.53397713228061,1.6734191564198806,-4.269032,-4.1422772,0.50823987,24.619291,-67.30198,7.731947
2692215519000.0,5.666778460196257,16.796357342706358,-2.2780149139111074,-3.1554244,-3.2675183,0.35918877,25.404161,-66.068214,8.326758
2692220358000.0,5.418387127517111,17.35046015172755,-3.2219016269481324,-2.2623394,-2.0748038,0.49663344,26.018467,-65.17469,8.833243
2692225535000.0,5.152645873274512,17.943266566751877,-4.231718017399191,-1.6200147,-0.82558435,0.5561928,26.382154,-65.100624,9.219685
2692230292000.0,4.740035310550352,18.388598292050467,-4.081454838416286,-1.3808609,0.06261369,0.38453966,26.532984,-65.1603,9.470191
2692235294000.0,4.1912566330366126,18.789058745026704,-3.187835555143587,-1.2217305,0.5332854,0.15027285,26.460178,-65.35911,9.616895
2692240544000.0,3.642300829452225,19.195035236678542,-2.2719014613988566,-0.8622363,0.6291912,-0.021991149,26.355759,-65.69253,9.70637
2692245334000.0,3.71072816466396,19.263462730670422,-1.899352870116848,-0.42302418,0.5748242,-0.13622294,26.184593,-66.09747,9.711973
2692250297000.0,3.7816268837987903,19.33436161432005,-1.5133489748073257,-0.046120327,0.52870387,-0.183565,25.979092,-66.55157,9.566473
2692255299000.0,3.698212613881962,19.3851245358271,-1.2184659941612634,0.25442538,0.61941737,-0.1731803,25.751875,-67.08944,9.404178
2692260294000.0,3.50336879156276,19.420912070739817,-0.991810897752286,0.56046885,0.81581056,-0.1337795,25.504742,-67.70951,9.238746
2692265375000.0,3.2451016747503805,19.454352299712305,-0.7010760544051446,0.92149025,1.0140363,-0.10629055,25.218239,-68.34999,9.081623
2692270340000.0,2.738150009451684,19.4744694142833,-0.1619370015916398,1.3136657,1.1991285,-0.13439035,24.880005,-69.058304,8.911923
2692275291000.0,2.23262781511254,19.49452980385852,0.3756818202572348,1.6927075,1.3716979,-0.18967366,24.493773,-69.80623,8.717809
2692280292000.0,1.475084931259553,19.50588493044404,1.2632352213504885,2.067168,1.4669929,-0.28252518,24.082512,-70.63732,8.509298
2692285221000.0,0.6713779982006385,19.515017670794236,2.217637176642159,2.2516494,1.6639969,-0.33567044,23.595764,-71.49166,8.287752
2692290259000.0,-0.4434412515856842,19.52346933675789,4.0567239813894735,2.5876253,1.829236,-0.47555858,23.109924,-72.43786,7.968632
2692295421000.0,-1.6965005287781052,19.53179547974737,6.2672701715368415,2.8875601,1.9758437,-0.64873886,22.583063,-73.404564,7.6313014
2692300263000.0,-2.3790230930970644,19.536686,7.92938120523671,3.084564,2.0696115,-0.840856,22.040682,-74.36747,7.1735854
2692305402000.0,-2.227164487807458,19.536686,8.96201982993917,3.2143729,2.0479257,-1.0137309,21.509151,-75.3782,6.696947
2692310270000.0,-2.024035768104553,19.536686,9.847671274536603,3.291342,1.8613064,-1.1652255,21.048222,-76.244316,6.054328
2692315347000.0,-1.2390819560092252,19.536686,9.8767437889297,3.338073,1.5280794,-1.273654,20.670616,-77.11605,5.417233
2692320301000.0,-0.4731451458614502,19.536686,9.905111966259502,3.2690454,1.1001683,-1.351234,20.41811,-77.84096,4.812503
2692325293000.0,0.5711088689153823,19.536686,9.29984773335272,3.1768048,0.7593055,-1.3933836,20.256111,-78.549286,4.2235217
2692330247000.0,1.6931612022681009,19.536686,8.499695343123001,3.0998356,0.5421429,-1.4056009,20.193125,-79.21821,3.6568508
2692335294000.0,2.5114022858069345,19.536686,7.509804622100274,3.0216448,0.3933972,-1.4062119,20.197039,-79.79456,3.2111673
2692341149000.0,3.2899886676145336,19.536686,6.269661390205371,2.9061913,0.37232238,-1.3564262,20.225922,-80.3145,2.7919621
2692345291000.0,3.764182416713034,19.536686,5.383291319443586,2.8124237,0.37232238,-1.2608259,20.24788,-80.83215,2.530201
2692350317000.0,4.1659109333333335,19.536686,4.287217200000001,2.742785,0.3866777,-1.1392636,20.26666,-81.30333,2.296545
2692355247000.0,4.479852466485919,19.536686,3.368772931799895,2.7232373,0.37293324,-0.9990701,20.252243,-81.8258,2.1960976
2692360296000.0,4.644779813381144,19.536686,2.734437219975512,2.7101038,0.31581733,-0.8194757,20.23747,-82.30314,2.1457424
2692365470000.0,4.798869631427475,19.48110298311589,2.107853047198772,2.7546968,0.18203785,-0.5992588,20.21343,-82.84744,2.1960568
2692375539000.0,4.809321284182661,18.292707729759535,1.3340304316986544,2.9993484,-0.22235495,-0.11362094,20.266106,-83.37443,2.384479
2692380299000.0,4.521038126891684,16.56300969608059,1.0859728726722553,3.1871893,-0.35002577,0.082161374,20.251822,-83.965836,2.5501313
2692385241000.0,4.221732378292522,14.767176149349217,0.8284307599183764,3.2797356,-0.6386596,0.14385876,20.37324,-84.53623,2.8279352
2692390338000.0,3.9193367587292336,13.061617483823955,0.6147578487583795,3.460246,-0.91690874,0.22266038,20.519964,-85.04048,3.1631358
2692395356000.0,3.63920609214029,11.79169150927815,0.5493940330545031,3.6370916,-1.1551461,0.23915374,20.733963,-85.42223,3.4963918
2692400599000.0,3.376269334723514,10.551373878210171,0.5104337266764433,3.769344,-1.352761,0.2406809,21.00837,-85.67009,3.819352
2692405296000.0,3.22181276201445,9.676119898991344,0.5554835578632235,3.8799107,-1.4926492,0.22113322,21.325378,-85.71776,4.13947
2692411157000.0,3.0290791080549395,8.583962442699764,0.6116975371235425,3.9593232,-1.5839735,0.17623462,21.675035,-85.571976,4.4258657
2692415331000.0,2.9270251616192278,7.721151972725782,0.8478635822680667,4.132198,-1.6511687,0.15699236,22.04486,-94.789185,4.7113767
2692420333000.0,2.848437303970142,6.581629206176688,1.374401801802149,4.194812,-1.7351627,0.11942416,22.432428,-95.301094,4.975391
2692425655000.0,2.7649248495966465,5.333830121526416,1.9561120625988613,4.30996,-1.8600847,0.09101892,22.82136,-95.93117,5.222089
2692430295000.0,2.694636445926922,3.379810033453021,2.9893529066355584,4.4009786,-1.9620992,0.05375614,23.209648,-96.63658,5.452992
2692435240000.0,2.6197277915849417,1.2973468145903198,4.090511521670358,4.385096,-2.0402899,0.023518313,23.651043,-97.398186,5.6174197
2692440322000.0,2.526578240641502,-0.3208014935458635,5.140001413749267,4.255287,-2.078469,-0.02107485,24.095566,-98.191055,5.7636304
2692445378000.0,2.4129377433991785,-1.2536008416546058,6.07753580029337,4.022242,-2.1044307,-0.05009095,24.544847,-98.98351,5.9021173
2692450334000.0,2.344430671144525,-1.949522958403403,7.149885370313582,3.712839,-2.0665572,-0.06841691,24.986399,-99.68451,6.0201583
2692455312000.0,2.3397147437135226,-2.322081422425561,8.456197711890395,3.249803,-1.9868392,-0.03359759,25.412117,-100.306465,6.146641
2692460237000.0,2.346359988546256,-2.430357217180617,9.613383537444934,2.5827382,-1.890017,0.048563786,25.727882,-100.65259,6.2885127
2692465363000.0,2.373967455112944,-2.0668587152029243,10.57044314715531,1.6756034,-1.7550159,0.19975294,26.002832,-100.84601,6.4652977
2692470336000.0,2.32502861804463,-1.649941307731578,11.165336921014609,0.516792,-1.505172,0.35827246,26.221094,-100.743164,6.6317887
2692475320000.0,2.041509589372291,-1.0330959236314017,10.728564413067907,-0.8035932,-1.3521502,0.47952923,26.427004,-100.43505,6.8288274
2692480632000.0,1.7393320050409375,-0.3756555784588216,10.263047646973831,-2.021353,-0.820392,0.5357288,26.473032,-99.882,7.021859
2692485272000.0,1.4400962733327167,0.2093636612071038,9.371889667801314,-2.976441,-0.6374379,0.5390886,26.577322,-99.21955,7.216255
2692490299000.0,1.106112781195079,0.8461588606326891,8.271971001054482,-3.3228016,-0.28527406,0.5015204,26.484781,-98.60387,7.4242177
2692495326000.0,0.7044659584584037,1.6448796411191733,7.426078327363085,-3.7491853,0.005192355,0.42943826,26.406042,-98.017235,7.5185924
2692500319000.0,0.25771139021966,2.552646891819899,6.765451772825763,-3.8246274,0.14019357,0.36560285,26.281124,-97.694374,7.59335
2692505288000.0,-0.2199763502525252,3.262450482828283,5.770122679292929,-3.540575,0.17623462,0.3576616,26.180433,-82.387955,7.61077
2692510257000.0,-0.7225036819138353,3.826883329859198,4.521087454277625,-2.9993484,0.2275473,0.3885103,26.045755,-82.251434,7.6112995
2692515445000.0,-1.2471790283937865,4.416192569222528,3.21700318231558,-2.3463335,0.42638394,0.4352415,25.921867,-82.020195,7.5509715
2692520344000.0,-1.4791858606868993,4.0201612316124855,2.125449141969975,-1.7363845,0.73548174,0.48716503,25.756535,-81.70582,7.491404
2692525350000.0,-1.6941013770423037,3.61247911302524,1.1142800156715251,-1.2412782,1.1676689,0.52503866,25.549313,-81.58607,7.31435
2692530316000.0,-1.768490644742268,3.29801529257732,0.8944934848247422,-0.9089675,1.6316211,0.552833,25.248974,-81.49014,7.139589
2692535259000.0,-1.842535378983292,2.9850079094774262,0.6757248940120868,-0.75411314,1.9996674,0.54458636,24.897478,-81.65498,6.867986
2692540316000.0,-1.878673858948349,2.6602229750232893,0.7933057288044716,-0.77671516,2.2107213,0.5122105,24.467041,-81.83255,6.6013165
2692545313000.0,-1.819232472425215,2.328341745098851,1.7295082182589794,-0.9300423,2.0540345,0.44135013,24.047915,-82.012886,6.334197
2692550707000.0,-1.776019359419446,1.92160553013391,2.530810740281128,-1.1887437,1.3136657,0.33964106,23.751026,-82.13511,6.1012335
2692555314000.0,-1.7650103422440322,1.5142730058720786,2.9564915626382766,-1.4969252,0.18784106,0.23854288,23.618902,-82.22739,5.8692064
2692560828000.0,-1.7361576099929128,1.0214214725903614,3.40707114897236,-1.842675,-0.9969321,0.17928895,23.769653,-82.27952,5.6134844
2692565344000.0,-1.490947931608788,0.5424962719879518,2.943471583274273,-2.1627684,-2.11451,0.15118915,24.230158,-82.27557,5.3675046
2692570326000.0,-1.2204353944720057,0.0141514204819277,2.432033798440822,-2.3863451,-2.9965994,0.14019357,24.95334,-82.08599,5.1605263
2692575420000.0,-0.8830778708121311,-0.3545250788723794,1.2284296381599835,-2.538756,-3.3102787,0.15974127,25.833063,-81.82027,4.9646034
2692580314000.0,-0.5348762456747406,-0.640718189965398,-0.1977660553633216,-2.5705209,-3.7110064,0.16187929,26.987755,-81.51619,4.783053
2692585273000.0,-0.2696631552017484,-0.8036954854238287,-1.67091811756409,-2.5503623,-3.7858374,0.16218472,28.045046,-80.95598,4.7730565
2692590356000.0,-0.0305957372525292,-0.92322921262155,-3.1913869358019844,-2.4049764,-3.5460727,0.15088372,29.124405,-80.406456,4.7650237
2692595277000.0,0.1713280833013366,-0.9236521015889336,-4.331836181082344,-2.1584923,-3.0650163,0.16982053,30.070429,-79.8699,4.9163504
2692600350000.0,0.3665869965006075,-0.8737021363865782,-5.36262160678568,-1.8594738,-2.4388795,0.22571471,30.904383,-79.37789,5.063809
2692605341000.0,0.4935895198807157,-0.8497781787939033,-6.079768250497017,-1.5335772,-1.7828102,0.30115658,31.554686,-79.11665,5.2748404
2692610263000.0,0.5694514629480261,-0.8453157145697245,-6.561714666287986,-1.210735,-1.1777482,0.37507126,32.040653,-78.92672,5.475086
2692615364000.0,0.5345619225020131,-0.804381670071005,-6.623566590147134,-0.904386,-0.6612616,0.40133846,32.34274,-78.93493,5.7133484
2692620306000.0,0.3648012596896274,-0.7212335926886758,-6.15932319186004,-0.6249151,-0.22204952,0.38606682,32.49803,-79.01076,5.935492
2692625467000.0,0.1875178155830466,-0.634400887838372,-5.674507291706317,-0.4016439,0.10598512,0.34697145,32.533432,-79.19701,6.165749
2692630422000.0,0.154621735,-0.4593407597362192,-5.077368907567736,-0.22021692,0.35338554,0.30207285,32.473564,-79.4331,6.3748264
2692635274000.0,0.169092825,-0.256745512580193,-4.447876532232949,-0.1151481,0.54611355,0.26358834,32.342625,-79.69575,6.564578
2692640351000.0,0.2048702451673915,-0.044095737106908,-3.7396321843430766,-0.043676864,0.66920286,0.22204952,32.185608,-79.9442,6.6745396
2692645277000.0,0.3527852754617174,0.1658481677625164,-2.780570226904016,-0.008552114,0.7144069,0.19792034,31.999489,-80.20266,6.7758613
2692650283000.0,0.5127254519472655,0.3750453432591074,-1.796703721535451,0.028710667,0.7189884,0.1777618,31.797527,-80.390434,6.8478513
2692655309000.0,0.723500850941023,0.5633978236802385,-0.7607650136606727,0.055283304,0.63438356,0.17379116,31.610064,-80.578835,6.9205704
2692660456000.0,0.9481478820469134,0.7526372619621207,0.3160004663974958,0.052534413,0.46853364,0.17989981,31.442793,-80.655495,6.999926
2692666174000.0,1.390777156418892,0.8828223333306918,1.8608633389816944,0.027794369,0.25503623,0.19883664,31.314034,-80.72776,7.0870624
2692670307000.0,1.710711887265235,0.9769207768365163,2.9774982204770586,-0.041233405,0.028710667,0.23426682,31.283838,-80.84102,7.0982943
2692675271000.0,1.9679725912615629,0.9467712800432986,3.766593334343633,-0.1328632,-0.059864793,0.2519819,31.273098,-80.93928,7.1145515
2692680310000.0,2.0961907941940563,0.766316071875615,3.989787910431018,-0.20555615,-0.2275473,0.28955013,31.345686,-81.01086,7.1563487
2692685285000.0,2.1493375812628086,0.5952723480569924,4.078408362525618,-0.34055737,-0.39278635,0.3313944,31.413258,-80.782776,7.2952194
2692690323000.0,2.116378136664389,0.4304749972343125,4.012489473328779,-0.47861293,-0.5225952,0.3747658,31.517199,-80.537895,7.44435
2692695264000.0,2.037608921511455,0.2870335125450759,3.881917710800357,-0.6072,-0.65026605,0.41447207,31.669136,-80.24745,7.618958
2692700604000.0,1.8803794189824456,0.1602355615542993,3.638465612020232,-0.6985244,-0.7816021,0.45906523,31.856295,-79.937294,7.8036423
2692705244000.0,1.7169658342864331,0.0710350738775784,3.378656565948348,-0.78038037,-0.93462384,0.52106804,32.106922,-79.63229,7.992625
2692710309000.0,1.497332000603723,0.0059584011658561,3.0207348966124434,-0.8249735,-1.0760391,0.5653558,32.387466,-79.322556,8.183317
2692715552000.0,1.2689563930888117,-0.051828993831084,2.6467137889198957,-0.84696466,-1.1688906,0.6032294,32.71351,-79.077225,8.340066
2692720278000.0,1.0482720990748804,0.0348684165737919,2.258545840501088,-0.8414669,-1.2461652,0.63499445,33.06806,-78.830605,8.501283
2692725291000.0,0.8141861139094472,0.1268307776316935,1.8468052722777533,-0.8219192,-1.2843442,0.6753115,33.45388,-78.67002,8.61887
2692730267000.0,0.5818278728994342,0.2181143819851981,1.4381036829142355,-0.7828238,-1.2492194,0.698219,33.831463,-78.51734,8.731097
2692736135000.0,0.307816989007401,0.3257615263474097,0.9561380626599912,-0.7086037,-1.1801916,0.70188415,34.2272,-78.34616,8.869676
2692740329000.0,0.1909381695141463,0.5535338054400001,0.668763843689756,-0.6188065,-1.0665708,0.68783426,34.59072,-78.19117,8.99652
2692745277000.0,0.1447078855765853,0.99734446752,0.3960051650790244,-0.50793445,-0.91965765,0.6575964,34.917007,-78.06275,9.1067
2692750268000.0,0.151181619145317,1.4718436971860565,0.2130145636854263,-0.40591997,-0.7819075,0.6386596,35.19965,-77.92235,9.244369
2692755257000.0,0.2515148617387652,1.9935765963880725,0.1929479193574128,-0.31673363,-0.65301496,0.63194007,35.440342,-77.80739,9.367315
2692760237000.0,0.3638095782362667,2.39200586294323,0.2847969604023516,-0.2556471,-0.55833083,0.61727935,35.706974,-77.90833,9.370576
2692765339000.0,0.4939735775785412,2.647845432665809,0.5181944649898953,-0.25137106,-0.5174029,0.59437186,35.943245,-78.01084,9.366816
2692770331000.0,0.6484296445833334,2.8363309479166667,0.8126319708333334,-0.2950479,-0.56382865,0.54183745,36.189598,-78.10206,9.378672
2692775268000.0,0.8662693598497596,2.874216142878605,1.2625183704927885,-0.39645153,-0.61819565,0.50976706,36.41769,-78.17741,9.388819
2692780257000.0,1.124602605215124,2.8726799843111688,1.838006033202955,-0.47158796,-0.66706485,0.44868052,36.638317,-78.1503,9.446332
2692785261000.0,1.4821284015645373,2.768546258626684,2.72661382329422,-0.6637051,-0.50426924,0.41263947,36.80945,-78.08852,9.493082
2692790267000.0,1.839797093915689,2.664370912748081,3.6155767723743297,-0.95386606,-0.14172074,0.42913285,36.904953,-77.85623,9.608637
2692795311000.0,2.641025090371389,2.9356404195323247,6.055584776066024,-1.35551,0.20280726,0.5112942,36.956615,-77.566826,9.723345
2692800270000.0,3.821543884230694,3.5375650381116133,9.83044524957752,-1.7672331,0.3747658,0.6114761,36.952583,-77.217865,9.836972
2692805643000.0,4.863273296957906,4.947804387265653,12.749439838344536,-2.132225,0.3472769,0.72418076,36.888603,-76.57704,10.045401
2692810260000.0,5.571012892155996,6.758209214839052,14.333055731429075,-2.5900686,-0.34300083,0.7892379,36.9656,-75.82475,10.285639
2692815274000.0,5.955574672519395,8.777979504287464,14.240422391690483,-2.8209758,-1.781894,0.83658,37.288956,-74.53967,10.654726
2692820327000.0,5.002167039608003,11.000950808084934,7.818506610044916,-3.232088,-2.5442538,1.0183123,37.60444,-73.085464,11.072689
2692825402000.0,4.138811707541141,12.790526341508228,1.9989215592746448,-3.5747833,-2.8066204,1.260215,38.155617,-71.37881,11.610465
2692830269000.0,3.535610470841988,13.449579494168397,-2.078271183000479,-3.6453383,-2.9813278,1.409877,38.877026,-69.67593,12.204671
2692835225000.0,2.921378843745007,14.120684368749002,-6.230021179038184,-3.2027664,-2.9846876,1.527774,39.601147,-68.952324,12.786087
2692840312000.0,2.7517148944993925,15.074915991150442,-9.314507439406558,-2.4126122,-2.0720549,1.743104,40.08995,-68.27488,13.345786
2692845329000.0,2.730872101856672,16.100381911504424,-11.982386899947944,-1.7492126,-0.31581733,1.9333885,40.3272,-67.673965,13.829028
2692850380000.0,2.5075013884741115,17.00879751049246,-12.913013963619107,-1.2644911,1.5125023,1.9935588,40.247517,-67.62094,14.364654
2692855262000.0,2.073635633987135,17.753271878941263,-11.92202510819361,-0.516792,2.5821273,1.813659,39.921978,-67.75257,14.778753
2692860293000.0,2.832380874244453,18.28681746843917,-7.292814747379495,0.6954701,1.5781704,1.1829406,39.790524,-68.37281,15.137193
2692865336000.0,4.541395745657995,18.637858692042844,0.185280277084928,2.5738807,-1.7608191,0.46211955,40.076527,-69.24925,15.481507
2692870312000.0,6.6514378524532365,18.90332000411321,5.841421567956126,3.068376,-3.2513304,0.11789699,40.173973,-70.06635,15.549668
2692875863000.0,9.520072662011556,19.1011565351092,10.058470983625504,2.2602015,-3.8093557,0.1469131,40.995953,-70.95355,15.661891
2692880292000.0,11.068084302660465,19.23298872745632,8.855276812766705,-1.8225164,-2.8002062,0.2180789,41.618587,-70.93333,15.662024
2692885306000.0,11.932402104398982,19.351042034506985,2.016627930020196,-2.6600127,-1.0015136,0.25809056,42.13536,-71.27996,15.640263
2692890359000.0,12.561695598778485,19.45360327938298,-3.863889393219012,-2.819143,-0.40133846,0.26297748,42.638607,-70.54593,16.001925
2692895395000.0,11.96124280197322,19.47248542048391,-4.588964005825699,-1.9419407,-0.6899723,0.26419923,42.88051,-69.85836,16.31348
2692900291000.0,11.377482497533476,19.490842641061786,-5.293881659384543,-1.1734722,-0.84696466,0.22204952,42.967876,-69.51433,16.730354
2692905260000.0,10.470743376986489,19.50319532761112,-5.390618860372228,-0.56230146,-0.22815818,0.16126843,42.909622,-69.30785,17.078844
2692910277000.0,9.339701295317411,19.51136143630492,-5.063964279935413,-0.03573562,0.77946407,0.15302174,42.773106,-69.21183,17.389576
2692915335000.0,7.933002831502233,19.51855443879013,-4.242594964259837,0.41874814,1.6820174,0.21868975,42.52901,-69.2396,17.634714
2692920314000.0,5.763588600286461,19.52257237307271,-1.984797127677142,0.7162395,2.160325,0.2669481,42.116108,-69.31329,17.831602
2692925311000.0,3.5863315379475944,19.52660483292611,0.2811630630044659,0.8481864,2.3112087,0.18142697,41.568203,-69.4927,17.868788
2692930297000.0,1.4771156650404973,19.531042130344694,2.837994330834432,0.9425651,2.3671029,-0.09315695,40.92101,-69.72555,17.851406
2692935260000.0,-0.6133313919099641,19.535518085138445,5.425314063203993,0.9450085,2.4165828,-0.55863625,40.251354,-70.01531,17.755558
2692940346000.0,-0.706087917337763,19.536686,5.667546636798034,0.68630713,2.4367414,-1.097114,39.596664,-70.46656,17.308405
2692945313000.0,-0.1129491344880315,19.536686,5.100384857076545,0.30573806,2.4153612,-1.4819591,38.970055,-70.96177,16.79416
2692950268000.0,0.7948523404305938,19.536686,4.245304739166339,0.109650314,2.3652701,-1.6438384,38.3693,-71.56722,15.988347
2692955303000.0,1.9799491754335428,19.536686,3.136054046283917,0.1518,2.3096814,-1.6548339,37.816982,-72.176765,15.143874
2692960292000.0,2.9514953583756345,19.536686,2.3412770112025205,0.34513888,2.1569653,-1.6126842,37.341404,-72.73928,14.374125
2692965320000.0,3.739562894416244,19.536686,1.8271367281638369,0.6640105,1.9388863,-1.5173893,36.92054,-73.28979,13.644716
2692970271000.0,4.50123845397218,19.536686,1.4287085810819165,1.0421361,1.8005253,-1.4602734,36.53394,-73.81204,13.069314
2692975311000.0,5.227358758145286,19.536686,1.393894618794436,1.244638,1.4535538,-1.3594806,36.27448,-74.30877,12.571771
2692980296000.0,5.87286847165044,19.536686,1.3340509935249576,1.6526959,1.0259482,-1.2660183,36.084087,-74.82732,12.213515
2692985301000.0,6.343224890403338,19.536686,1.211832389522485,2.0528126,0.62858033,-1.1798862,35.983112,-75.34004,11.908979
2692991267000.0,6.903893500649049,19.536686,1.0661468367794775,2.3176227,0.34208453,-1.074512,35.979347,-75.7786,11.744592
2692995302000.0,7.0096240390625,19.536686,1.01648829296875,2.4853053,0.16523905,-0.93370754,36.04558,-76.21018,11.633327
2693000302000.0,7.090509300886825,19.536686,0.9639128917863176,2.588236,0.064446285,-0.7635816,36.15717,-76.60724,11.573298
2693005256000.0,6.882072785260116,19.37057037283237,0.8731829068983876,2.6673431,0.036651913,-0.6249151,36.28829,-76.90258,11.62104
2693010257000.0,6.077046205202312,18.8605984566474,0.7019781905993306,2.6810875,0.06658431,-0.537256,36.413895,-77.13191,11.703373
2693015320000.0,5.262039291618497,18.34430415317919,0.5286509603209614,2.6734517,0.09712757,-0.5357288,36.524284,-77.3107,11.805398
2693020321000.0,4.636293634016555,17.382755019511233,0.2880950417619236,2.6471846,0.080634214,-0.5858198,36.62605,-77.438194,11.91601
2693025549000.0,4.059046703232164,16.183857880764684,0.0068721225660228,2.595872,0.015882496,-0.6795876,36.722298,-77.53545,12.012939
2693030300000.0,3.698060004329553,15.2495673263509,-0.1382350401247498,2.5509732,-0.02107485,-0.79534656,36.785637,-77.73182,11.975753
