timestamp,acc_x,acc_y,acc_z,gyro_x,gyro_y,gyro_z,ori_azimuth,ori_pitch,ori_roll
6885097207000.0,-2.615582070445478,9.561884575239182,-0.4331839436844679,-1.1759156,0.74372846,0.029932396,201.82524,-84.96085,-3.1649106
6885102176000.0,-2.61510207618733,9.562124578633354,-0.4322239496548837,-1.1759156,0.75716746,0.032986723,201.91496,-85.89897,-2.2679877
6885107123000.0,-2.614624207079851,9.562363519424451,-0.4312682059510492,-1.1878275,0.7629707,0.038789943,201.7377,-85.44901,-2.4071937
6885112456000.0,-2.614109051237889,9.562621104069477,-0.4302378883499679,-1.1945469,0.7483099,0.03573562,201.5557,-85.004295,-2.5515704
6885117066000.0,-2.613663735574765,9.562843767713495,-0.4293472519087557,-1.1972959,0.74220127,0.027488936,201.36331,-84.56373,-2.6995373
6885122056000.0,-2.613181712763704,9.563084785410604,-0.4283832007500466,-1.178359,0.7348709,0.03359759,201.16942,-84.13525,-2.8471215
6885127096000.0,-2.6126948600647566,9.563328218114696,-0.4274094897600879,-1.1563679,0.7425067,0.028099801,200.96819,-83.711365,-3.003488
6885132094000.0,-2.6122120644716333,9.56356962221292,-0.4264438930283789,-1.1606439,0.77182823,0.03726278,200.75748,-83.29597,-3.1571584
6885137070000.0,-2.6117313940291806,9.56380996370807,-0.4254825466224197,-1.1976013,0.788627,0.040011674,200.54424,-82.88371,-3.3166106
6885142059000.0,-2.611249467815877,9.56405093310504,-0.4245186886603355,-1.2321151,0.77579886,0.047647487,200.3268,-82.48035,-3.4744136
6885147054000.0,-2.610766962016028,9.564292192302844,-0.4235536715185015,-1.2153164,0.77732605,0.05131268,200.09698,-82.08815,-3.635899
6885152335000.0,-2.610256829257468,9.564547265340602,-0.4225334001419197,-1.2464706,0.7672467,0.061391957,199.87029,-81.68464,-3.7949126
6885157187000.0,-2.6097881369369733,9.564781617618433,-0.4215960101174595,-1.2428054,0.7687739,0.06811147,199.63687,-81.30197,-3.9563286
6885162171000.0,-2.6093066937124583,9.5650223455147,-0.4206331181385004,-1.2483032,0.7632761,0.06963864,199.40533,-80.91741,-4.117743
6885167132000.0,-2.608827472236372,9.565261962507757,-0.419674669681916,-1.2458596,0.7489208,0.07971791,199.17279,-80.54544,-4.276335
6885172126000.0,-2.6083450630342795,9.56550317340542,-0.4187098457367069,-1.2473868,0.74372846,0.089491755,198.93686,-80.17881,-4.4363804
6885177435000.0,-2.607832225538503,9.565759598847093,-0.4176841648546254,-1.2586879,0.72295904,0.103847094,198.70674,-79.81966,-4.592488
6885182180000.0,-2.607373869178085,9.56598878300997,-0.4167674468690394,-1.2589933,0.6826419,0.099571034,198.48222,-79.46913,-4.7513103
6885187151000.0,-2.6068936817244213,9.566228883004424,-0.4158070664462051,-1.1930199,0.61086524,0.10293079,198.26982,-79.14278,-4.902671
6885192127000.0,-2.606413011281969,9.566469224499574,-0.4148457200402459,-1.0867293,0.5467244,0.09621128,198.06572,-78.832016,-5.057413
6885197113000.0,-2.6059313748619384,9.56671004899612,-0.4138824416680367,-0.95539325,0.4914411,0.09101892,197.87776,-78.55193,-5.208172
6885202272000.0,-2.605433027029821,9.566959229416838,-0.412885740279704,-0.8231409,0.44990227,0.07880162,197.70357,-78.303444,-5.3601756
6885207621000.0,-2.604916325623736,9.567217586864098,-0.4118523315326228,-0.6976081,0.38240165,0.06963864,197.55159,-78.09152,-5.5079384
6885212245000.0,-2.604469657592003,9.567440926710074,-0.4109589903386608,-0.5555819,0.13072516,0.005497787,197.46643,-77.91242,-5.661484
6885217409000.0,-2.6039708267710977,9.567690348631489,-0.4099613229672031,-0.070554934,0.07422013,-0.009162978,197.34262,-77.85986,-5.8086095
6885222232000.0,-2.603504935785577,9.567923300205264,-0.4090295356448676,0.037873644,0.099265605,-0.0070249503,197.29239,-77.74014,-5.9833503
6885227566000.0,-2.6029896833458577,9.568180933150428,-0.4079990248471613,-0.02107485,0.099571034,-0.0015271631,197.2658,-77.69699,-6.151921
6885232273000.0,-2.602534997700233,9.568408281908,-0.4070896483333249,-0.04062254,0.09315695,-0.007941248,197.23492,-77.686424,-6.3191996
6885237259000.0,-2.6020533612802037,9.568649106404548,-0.4061263699611158,-0.035124753,0.08246681,-0.009468411,197.20482,-77.66682,-6.478679
6885242226000.0,-2.60157356021757,9.56888901319844,-0.4051667623247815,-0.025350908,0.07513642,-0.0027488936,197.17554,-77.64205,-6.6329656
6885247227000.0,-2.601090474831174,9.569130562197085,-0.4042005860031974,-0.02565634,0.064751714,-0.0076358155,197.15083,-77.61261,-6.7858434
6885253194000.0,-2.6005140760108127,9.569418769130678,-0.4030477817418714,-0.02687807,0.043676864,-0.0125227375,197.1309,-77.58489,-6.9316907
6885257285000.0,-2.600118894583949,9.569616365002194,-0.4022574143490299,-0.011301007,0.026572637,-0.004886922,197.11232,-77.56107,-7.0709524
6885262251000.0,-2.599639190119073,9.569856223495949,-0.4012979999093206,-0.0106901415,0.023823744,-0.01038471,197.0964,-77.52946,-7.2109303
6885267224000.0,-2.599158809469894,9.57009642009068,-0.4003372330932364,-0.008552114,0.015882496,-0.005497787,197.08571,-77.50385,-7.340831
6885272224000.0,-2.5986758206812555,9.570337920789184,-0.3993712499682773,-0.0027488936,0.01160644,-0.0027488936,197.07492,-77.477104,-7.4691567
6885277311000.0,-2.598184427887695,9.57058362359984,-0.398388458736944,0.010995574,0.018936822,0.0009162979,197.06255,-77.45289,-7.592403
6885282262000.0,-2.597706172389185,9.5708227575915,-0.3974319422466096,0.0143553335,0.031154128,0.00030543262,197.04982,-77.42668,-7.7126117
6885287234000.0,-2.5972258883377632,9.571062905886093,-0.3964713686271503,0.010995574,0.03848451,0.004276057,197.0358,-77.40282,-7.8272514
6885292225000.0,-2.596743768928944,9.571303971883337,-0.3955071242718162,0.004886922,0.05100725,0.009162978,197.01665,-77.37851,-7.9394045
6885297220000.0,-2.5962612631290947,9.571545231081142,-0.3945421071299821,0.010079277,0.071776666,0.0021380284,196.99332,-77.35393,-8.051451
6885302605000.0,-2.595741084203731,9.571805327333433,-0.3935017433044013,0.004886922,0.100792766,0.008857546,196.96303,-77.32862,-8.156299
6885307587000.0,-2.595259834174732,9.57204595862942,-0.3925392377186921,0.005497787,0.10140363,-0.00030543262,196.93596,-77.30099,-8.264345
6885312241000.0,-2.594810268210267,9.572270747479587,-0.3916401006259803,-0.002443461,0.07666359,-0.008552114,196.90752,-77.2713,-8.36771
6885317222000.0,-2.594329114779026,9.572511330475438,-0.3906777882368961,-0.014049901,0.059253927,-0.015577064,196.87718,-77.239075,-8.471009
6885322479000.0,-2.5938213003666517,9.572765244309844,-0.3896621535793142,-0.03145956,0.044898596,-0.012217305,196.8528,-77.20418,-8.569989
6885327481000.0,-2.5933381183824977,9.573006841608626,-0.3886957840611051,-0.030543262,0.03390302,-0.01985312,196.83304,-77.167274,-8.670744
6885332319000.0,-2.592870778430611,9.573240517684498,-0.3877610987893948,-0.0290161,0.035430185,-0.021685716,196.81305,-77.128815,-8.766303
6885337243000.0,-2.59239513107156,9.573478347572385,-0.3868097986079352,-0.028099801,0.036957346,-0.028710667,196.79643,-77.08823,-8.862452
6885342223000.0,-2.591914074238076,9.573718882268096,-0.385847679415476,-0.022296581,0.037873644,-0.034208454,196.7792,-77.04923,-8.95628
6885347224000.0,-2.5914309888516804,9.573960431266736,-0.384881503093892,-0.027794369,0.03390302,-0.040011674,196.76291,-77.00701,-9.049596
6885352628000.0,-2.59090897456892,9.57422144522168,-0.3838374685324363,-0.022602014,0.021685716,-0.046731193,196.74864,-76.96724,-9.141981
6885357190000.0,-2.5904682955981664,9.574441790458996,-0.3829561055292236,-0.022296581,0.025350908,-0.048258353,196.73058,-76.92567,-9.232721
6885362189000.0,-2.589985403407286,9.57468324285736,-0.3819903156008896,-0.029932396,0.018020526,-0.050396383,196.71907,-76.88257,-9.322091
6885367167000.0,-2.589504539769317,9.57492368095279,-0.3810285828016804,-0.03573562,0.022296581,-0.046120327,196.70253,-76.841415,-9.408479
6885372171000.0,-2.589021164589648,9.575165374851853,-0.3800618268902214,-0.044898596,0.025350908,-0.046120327,196.68828,-76.79737,-9.494038
6885377605000.0,-2.588496252374156,9.575427837810986,-0.379011996430016,-0.046120327,0.03268129,-0.048258353,196.67104,-76.75482,-9.57725
6885382216000.0,-2.5880508401132736,9.575650549755146,-0.3781211667921788,-0.035430185,0.044593163,-0.04734206,196.65103,-76.71412,-9.65789
6885387186000.0,-2.587570749257367,9.575890601449458,-0.3771609795659695,-0.04153884,0.046120327,-0.04550946,196.63156,-76.67031,-9.736739
6885392302000.0,-2.5870765551288324,9.576137704964168,-0.3761725856325114,-0.049785517,0.049480084,-0.03726278,196.60748,-76.63033,-9.812203
6885397140000.0,-2.5866092151769458,9.57637138104004,-0.375237900360801,-0.05222898,0.059253927,-0.03268129,196.58089,-76.590546,-9.886695
6885402306000.0,-2.586110191160525,9.576620899561734,-0.3742398465960934,-0.049480084,0.070249505,-0.03145956,196.55247,-76.55182,-9.958288
6885407216000.0,-2.5858895637894035,9.575139789348386,-0.3716261654599528,-0.060170226,0.07238753,-0.026572637,196.5232,-76.51242,-10.025967
6885412249000.0,-2.5866112483230523,9.56720121677547,-0.362725352385159,-0.051923547,0.07971791,-0.020463986,196.48898,-76.47823,-10.09213
6885417184000.0,-2.5873188805848355,9.559417220024557,-0.3539978513869258,-0.05955936,0.09621128,-0.025961773,196.48886,-76.42654,-10.180089
6885422224000.0,-2.588041568852189,9.551467606321497,-0.3450846588780918,-0.06872234,0.093462385,-0.023518313,196.49101,-76.38013,-10.261161
6885427582000.0,-2.58880985530784,9.543016409849075,-0.3356090863657244,-0.07422013,0.092240654,-0.02565634,196.48793,-76.33178,-10.3435755
6885432227000.0,-2.589475904316145,9.535689831346948,-0.3273944476348645,-0.0693332,0.0870483,-0.027488936,196.48618,-76.28529,-10.422699
6885438050000.0,-2.5903108673678905,9.526505188372164,-0.3170965270041225,-0.06688975,0.08002335,-0.026572637,196.48476,-76.238525,-10.499363
6885442164000.0,-2.5909007760051708,9.52001615845661,-0.3098209567697291,-0.07666359,0.053145275,-0.027794369,196.49022,-76.1906,-10.573927
6885447164000.0,-2.591617728651354,9.512129636925795,-0.3009785038839812,-0.060170226,0.047036625,-0.030543262,196.49127,-76.14883,-10.647226
6885452579000.0,-2.592394188367172,9.503588534107925,-0.2914021274087161,-0.050701816,0.03604105,-0.03176499,196.50084,-76.10518,-10.717027
6885457317000.0,-2.593073572694696,9.496115266305324,-0.2830230190541813,-0.045814894,0.022602014,-0.025350908,196.51205,-76.06584,-10.78307
6885462258000.0,-2.5937820652996546,9.488321805728576,-0.2742849071124852,-0.038789943,-0.00030543262,-0.022602014,196.52882,-76.02853,-10.847632
6885467195000.0,-2.5944899843424967,9.480534654369048,-0.2655538691330977,-0.03023783,-0.009162978,-0.023518313,196.54471,-75.99394,-10.909577
6885472241000.0,-2.595213532953025,9.472575576840152,-0.2566300656808009,-0.022296581,-0.0106901415,-0.015271631,196.56393,-75.96412,-10.965641
6885477533000.0,-2.5959723556337466,9.464228482451938,-0.2472712135465253,-0.015577064,-0.013133603,-0.011911872,196.5856,-75.93522,-11.0211315
6885482200000.0,-2.596641559233695,9.456867203255076,-0.2390176680229682,-0.007330383,0.002443461,-0.008552114,196.6016,-75.91066,-11.073332
6885487222000.0,-2.597361666471522,9.448945981029526,-0.2301363083445229,-0.004886922,0.005497787,0.002443461,196.62088,-75.889496,-11.120152
6885492323000.0,-2.5980931015611586,9.44090015176379,-0.2211152379104829,0.013133603,0.024740042,0.004581489,196.6308,-75.87189,-11.168388
6885497228000.0,-2.5987964321070653,9.43316347414206,-0.2124407916295642,0.0015271631,0.022602014,0.0027488936,196.64534,-75.85166,-11.212453
6885502635000.0,-2.5995717446986486,9.42463498975864,-0.2028785630789163,0.0033597588,0.029321533,0.017104227,196.65073,-75.84147,-11.251212
6885508520000.0,-2.600415597963207,9.415352553916872,-0.192470996032391,0.008857546,0.028099801,0.01985312,196.65933,-75.82726,-11.292057
6885512269000.0,-2.600953169057316,9.409439240073066,-0.1858409248586572,0.007330383,0.02076942,0.03176499,196.66655,-75.81789,-11.325141
6885517242000.0,-2.60166625015921,9.40159530575852,-0.1770462212184923,0.004886922,0.01863139,0.022296581,196.67326,-75.80532,-11.362596
6885522216000.0,-2.602379474651634,9.393749794139666,-0.1682497490877502,-0.0012217305,0.003970624,0.035430185,196.68405,-75.80006,-11.3884735
6885527596000.0,-2.603150915698928,9.38526389697251,-0.1587352697826855,0.002443461,-0.005497787,0.02443461,196.69522,-75.78861,-11.423007
6885532238000.0,-2.603816534535645,9.377942050383302,-0.1505259365235571,0.0033597588,-0.005192355,0.026267206,196.70645,-75.78197,-11.449108
6885537278000.0,-2.6045392228029987,9.369992436680242,-0.1416127440147232,0.008857546,-0.004581489,0.029932396,196.72044,-75.77497,-11.476478
6885542253000.0,-2.6052525906859514,9.362145347757082,-0.132814503393404,0.0030543262,0.0076358155,0.029626964,196.73082,-75.766075,-11.504061
6885547227000.0,-2.6059658151783758,9.354299836138228,-0.1240180312626619,0.003970624,0.0125227375,0.03176499,196.74263,-75.76095,-11.528786
6885552623000.0,-2.606739550474137,9.345788702102174,-0.1144752561083627,0.0015271631,0.023823744,0.034208454,196.74887,-75.75456,-11.553491
6885557236000.0,-2.6074010109855066,9.338512597337845,-0.1063172090759717,0.003970624,0.029626964,0.03390302,196.75513,-75.74926,-11.577592
6885562206000.0,-2.608113661915813,9.330673394936216,-0.0975278109075382,0.009468411,0.03573562,0.030543262,196.75795,-75.74411,-11.601657
6885567184000.0,-2.608827459970354,9.322821574100136,-0.0887242648144876,0.0067195175,0.04642576,0.028099801,196.75764,-75.73833,-11.625314
6885572166000.0,-2.609541831587012,9.314963444046834,-0.0799136447591283,0.011301007,0.03268129,0.029626964,196.76254,-75.73496,-11.647362
6885578229000.0,-2.6104112083657744,9.30540024803857,-0.0691912863898704,0.022602014,0.033292156,0.03390302,196.76015,-75.73246,-11.669702
6885582240000.0,-2.610986347778543,9.29907368046655,-0.0620978706849234,0.026267206,0.033292156,0.029626964,196.76213,-75.72796,-11.692797
6885587206000.0,-2.611698425146733,9.291240787282144,-0.0533155464787986,0.025350908,0.011911872,0.03023783,196.76971,-75.72677,-11.711841
6885592170000.0,-2.612410215733864,9.283411048706354,-0.044536759253828,0.032375857,0.0033597588,0.0290161,196.7738,-75.7261,-11.732525
6885597134000.0,-2.613122006320996,9.275581310130562,-0.0357579720288575,0.036957346,0.00580322,0.029932396,196.78065,-75.72566,-11.751387
6885602596000.0,-2.613905205391687,9.2669660740103,-0.0260984764964664,0.04734206,-0.00580322,0.027488936,196.79411,-75.726326,-11.770005
6885607229000.0,-2.6172794371120283,9.26043330899473,-0.0209148083803274,0.047036625,-0.011301007,0.024129177,196.80496,-75.72609,-11.788376
6885612189000.0,-2.6370290689472418,9.258053836776403,-0.0332880720154888,0.043982297,-0.015271631,0.027488936,196.81842,-75.72817,-11.804508
6885617219000.0,-2.657057425425291,9.255640783296933,-0.0458359583229206,0.043676864,-0.023823744,0.03176499,196.86227,-75.69195,-11.853093
6885622180000.0,-2.6768110390411164,9.253260831346305,-0.0582117165676858,0.04642576,-0.016187929,0.032986723,196.90126,-75.65719,-11.900168
6885627609000.0,-2.698428125983329,9.2506563646783,-0.0717549521070591,0.05100725,-0.021991149,0.0290161,196.94536,-75.623795,-11.944807
6885632309000.0,-2.7171424948594387,9.248401622858516,-0.0834796172452161,0.05589417,-0.022296581,0.036651913,196.98395,-75.59519,-11.984618
6885637242000.0,-2.7367846186181297,9.246035103412346,-0.0957855264210732,0.050701816,-0.015577064,0.036957346,197.0215,-75.56425,-12.025988
6885642225000.0,-2.7566258314074177,9.243644597351071,-0.1082161660771234,0.050701816,-0.025350908,0.03481932,197.0626,-75.53725,-12.063666
6885647561000.0,-2.77787261275272,9.241084745787164,-0.1215274029233374,0.059253927,-0.035124753,0.03940081,197.10048,-75.51353,-12.098158
6885652611000.0,-2.797980604843008,9.238662097661653,-0.1341251814228465,0.06047566,-0.04886922,0.035430185,197.14174,-75.48717,-12.1336975
6885657344000.0,-2.816826372479312,9.236391524675897,-0.1459321686779309,0.062002823,-0.055588737,0.031154128,197.18262,-75.46422,-12.166551
6885662244000.0,-2.836337097477809,9.234040836395696,-0.1581557557368605,0.062308256,-0.0693332,0.03573562,197.2283,-75.44346,-12.195828
6885667227000.0,-2.856178310267097,9.23165033033442,-0.1705863953929108,0.05681047,-0.10262536,0.02565634,197.28136,-75.41849,-12.228076
6885672178000.0,-2.875892106076803,9.229275175706814,-0.1829372075416374,0.069027774,-0.12767084,0.023823744,197.33444,-75.40039,-12.255189
6885677599000.0,-2.89747733877412,9.226674546897229,-0.1964604862041797,0.06291912,-0.15882497,0.028710667,197.39789,-75.37893,-12.280335
6885682241000.0,-2.915960764374737,9.224447629550964,-0.2080404639853126,0.07147124,-0.18509217,0.024740042,197.46638,-75.36016,-12.306356
6885687243000.0,-2.935877630995652,9.222048008575952,-0.2205185012238363,0.08399397,-0.20586158,0.028405234,197.54047,-75.345245,-12.326505
6885692223000.0,-2.955706898443104,9.219658941711582,-0.232941657051075,0.10476339,-0.1908954,0.02321288,197.6109,-75.33098,-12.349348
6885697188000.0,-2.975476439181377,9.217277070831749,-0.2453273937342557,0.124005646,-0.18661933,0.016493361,197.68896,-75.320015,-12.369054
6885702594000.0,-2.997001945169515,9.214683638006692,-0.25881325325274,0.16310102,-0.14844026,0.008552114,197.75182,-75.31465,-12.391254
6885707332000.0,-3.0158676217088782,9.212410666359428,-0.2706327135558438,0.20799962,-0.105068825,0.007330383,197.8107,-75.31393,-12.412529
6885712245000.0,-3.035430109855331,9.2100537415593,-0.2828887305396237,0.24190263,-0.031154128,0.00580322,197.84904,-75.31602,-12.437547
6885717265000.0,-3.0554186485272607,9.207645485402848,-0.2954116707510169,0.26847526,0.025961773,-0.00030543262,197.87929,-75.32253,-12.463972
6885722185000.0,-3.0750090091379967,9.205285202476606,-0.3076851500020237,0.29657507,0.07360926,-0.0030543262,197.89052,-75.33458,-12.491199
6885727592000.0,-3.0965384969067467,9.20269128991925,-0.321173504130112,0.31673363,0.11362094,-0.01282817,197.888,-75.34565,-12.52289
6885732300000.0,-3.115284720027752,9.200432710241047,-0.3329181261450998,0.31520647,0.1459968,-0.013133603,197.87392,-75.35859,-12.553064
6885737183000.0,-3.134727754755846,9.198090177409982,-0.3450993048407638,0.30848694,0.18020524,-0.028710667,197.84915,-75.36668,-12.59077
6885742237000.0,-3.154851673968581,9.19566561035526,-0.3577070617786883,0.28893927,0.20586158,-0.040011674,197.81795,-75.37275,-12.627148
6885747188000.0,-3.174565469778288,9.193290455727652,-0.3700578739274149,0.2565634,0.21380283,-0.053450707,197.7833,-75.37083,-12.668041
6885752614000.0,-3.196170611378664,9.190687428256556,-0.3835936256379766,0.20433442,0.23823744,-0.07269296,197.73772,-75.35842,-12.714226
6885757225000.0,-3.2145306017803112,9.188475382611657,-0.3950962705213898,0.14049901,0.23182335,-0.07666359,197.69933,-75.33997,-12.757912
6885763136000.0,-3.238066906977478,9.185639684974053,-0.409841907889825,0.10445796,0.20158553,-0.09468412,197.66249,-75.3098,-12.809934
6885767174000.0,-3.2541453370884845,9.183702525938244,-0.4199151414702246,0.022602014,0.15760323,-0.1020145,197.63162,-75.26641,-12.858267
6885772158000.0,-3.2739905316583844,9.18131154014467,-0.4323482757358787,-0.046120327,0.093767814,-0.10934488,197.61606,-75.216095,-12.90874
6885777509000.0,-3.2952970397128656,9.178744492596229,-0.4456969317261506,-0.1142318,0.008857546,-0.12797627,197.61983,-75.15107,-12.960998
6885782259000.0,-3.3142104976195723,9.17646576416134,-0.4575463273445007,-0.16065755,-0.09285152,-0.14996742,197.64677,-75.07847,-13.012154
6885787195000.0,-3.3338645667200995,9.174097805518263,-0.4698597203491694,-0.19608775,-0.1853976,-0.16432275,197.69492,-74.997314,-13.062253
6885792241000.0,-3.3539566316879394,9.17167707632196,-0.482447520410263,-0.204029,-0.27550024,-0.1777618,197.77097,-74.91089,-13.113004
6885797166000.0,-3.3735669012017357,9.169314394734206,-0.4947334727092892,-0.19914207,-0.33933565,-0.1826487,197.86426,-74.82285,-13.161047
6885802588000.0,-3.395156115679664,9.166713286192318,-0.5082592459814355,-0.17562376,-0.37568212,-0.18845193,197.97368,-74.736046,-13.208745
6885807265000.0,-3.427233231136455,9.153749739709504,-0.5133784240175749,-0.14630222,-0.3894266,-0.19883664,198.09262,-74.6518,-13.255416
6885812284000.0,-3.507834726893968,9.10304495299676,-0.4963971016515149,-0.09468412,-0.38148534,-0.21197024,198.21324,-74.57537,-13.301777
6885817234000.0,-3.587328132751645,9.05303724344743,-0.4796492344046534,-0.050701816,-0.36071593,-0.23182335,198.30693,-74.438225,-13.447665
6885822226000.0,-3.667496028113571,9.002605226059503,-0.462759264041758,-0.024129177,-0.3494149,-0.2669481,198.39941,-74.30264,-13.597283
6885833349000.0,-3.846123331821642,8.890234366803504,-0.4251256221454268,-0.003970624,-0.28924468,-0.30665436,198.47,-74.16977,-13.752206
6885837232000.0,-3.908481492416665,8.851006096868142,-0.4119878507273333,-0.03145956,-0.2666427,-0.33322698,198.54666,-74.032,-13.907744
6885842186000.0,-3.988039135369986,8.800957977048471,-0.3952264498503734,-0.08155051,-0.26083946,-0.3594942,198.61002,-73.88753,-14.0714445
6885847164000.0,-4.067982200897163,8.75066739560674,-0.3783838471928227,-0.12675454,-0.24404067,-0.38728857,198.6624,-73.736565,-14.239772
6885852597000.0,-4.15523223605368,8.695780145913508,-0.3600017941115705,-0.13713925,-0.18509217,-0.41447207,198.69937,-73.580986,-14.412592
6885857225000.0,-4.229554555712132,8.649025463126781,-0.3443433840876362,-0.2284636,-0.15393804,-0.43768495,198.73808,-73.406525,-14.587014
6885862191000.0,-4.30930490995238,8.598856112496081,-0.3275413823203809,-0.25381452,-0.109650314,-0.4654793,198.75467,-73.235794,-14.768591
6885867170000.0,-4.389264034753467,8.548555428486766,-0.3106953962553055,-0.30543262,-0.069027774,-0.4972443,198.76201,-73.04695,-14.954349
6885872216000.0,-4.470299130906566,8.497577872449208,-0.2936227218860807,-0.34880406,-0.027794369,-0.5170974,198.75461,-72.856445,-15.141772
6885877596000.0,-4.556698024545821,8.443226058838018,-0.2754199894036334,-0.40317106,0.018936822,-0.5522222,198.73344,-72.65052,-15.339758
6885882263000.0,-4.631646655886788,8.396077375915448,-0.259629626486239,-0.4813618,0.04917465,-0.5876524,198.70381,-72.4355,-15.539887
6885887250000.0,-4.711734254879159,8.345695871365448,-0.2427565731609667,-0.5522222,0.0580322,-0.6404922,198.66695,-72.20601,-15.751346
6885892222000.0,-4.791580964762872,8.295465905329232,-0.2259342709485636,-0.65576386,0.04153884,-0.68477994,198.62779,-71.96045,-15.965998
6885897223000.0,-4.871893393589993,8.244942964833031,-0.2090138499179467,-0.7684685,-0.00030543262,-0.73792523,198.594,-71.69442,-16.192608
6885903046000.0,-4.965406545571661,8.186115713781367,-0.1893122679020933,-0.89919364,-0.05681047,-0.7910705,198.56891,-71.407295,-16.42549
6885907229000.0,-5.032582488339877,8.143856673570287,-0.1751594742266142,-1.0488557,-0.14569137,-0.8371908,198.56497,-71.097694,-16.66303
6885912183000.0,-5.112140131293198,8.093808553750616,-0.1583980733496544,-1.2134838,-0.24953845,-0.88239485,198.58124,-70.76259,-16.906744
6885917164000.0,-5.192131374642106,8.043487664606129,-0.1415453204695297,-1.3765849,-0.35643986,-0.91690874,198.6224,-70.40618,-17.15063
6885922158000.0,-5.272331388551852,7.993035442083029,-0.1246485832915851,-1.5406022,-0.4718934,-0.9468411,198.69418,-70.02498,-17.39481
6885927580000.0,-5.359404771695353,7.938259320633238,-0.1063037476931038,-1.6798794,-0.56505036,-0.95814216,198.78648,-69.62893,-17.633286
6885932217000.0,-5.433871624819,7.89141371473824,-0.0906148870014479,-1.8035797,-0.6133087,-0.9611965,198.89482,-69.21515,-17.86818
6885937195000.0,-5.513814690346177,7.841123133296511,-0.0737722843438972,-1.8854356,-0.61911196,-0.93401295,199.01051,-68.800766,-18.089087
6885942167000.0,-5.593661400229889,7.790893167260296,-0.0569499821314942,-1.9434677,-0.61819565,-0.9245446,199.13289,-68.375404,-18.30775
6885947163000.0,-5.673893532687456,7.740420739602024,-0.0400464781385003,-1.9837849,-0.6462954,-0.9282097,199.25807,-67.9525,-18.515007
6885953147000.0,-5.769992227768738,7.679966975169057,-0.0198001675111834,-2.0076087,-0.77091193,-0.9828822,199.40767,-67.52179,-18.722776
6885957219000.0,-5.835385591132873,7.638829319959993,-0.0060229320709369,-2.0485365,-0.8213083,-1.0027353,199.53516,-67.09852,-18.919298
6885962258000.0,-5.916308272368598,7.587922481895535,0.0110260584456154,-2.058005,-0.8933904,-1.0296134,199.70287,-66.67099,-19.11822
6885967384000.0,-5.998628110434549,7.536136720451118,0.0283694054168097,-2.0631974,-0.9584476,-1.047023,199.8769,-66.24495,-19.311356
6885972643000.0,-6.083083831930615,7.483007317517801,0.0461627455887783,-2.0485365,-0.9966267,-1.0586295,200.05833,-65.82578,-19.50146
6885977261000.0,-6.157245558849961,7.436353660406932,0.0617873215374663,-2.0451767,-0.9960158,-1.0809261,200.24211,-65.40771,-19.69174
6885982220000.0,-6.236883498172835,7.386255027749332,0.0785656394520494,-2.0693061,-0.96577793,-1.1798862,200.42796,-64.97747,-19.900179
6885987182000.0,-6.316569615317441,7.336126087388974,0.0953541075892062,-2.0922134,-1.0274754,-1.366811,200.64272,-64.53325,-20.126328
6885992167000.0,-6.396625095761991,7.285764787974145,0.1122203940994293,-2.0176878,-1.2495248,-1.6233743,200.90291,-64.07448,-20.381922
6885997171000.0,-6.476985702410843,7.235211539775187,0.12915096535262,-1.8570304,-1.3771957,-1.8078557,201.15588,-63.613495,-20.663424
6886003141000.0,-6.572859567657376,7.1748992112884205,0.1493499082745923,-1.6844609,-1.3900238,-1.8576412,201.44174,-63.15434,-20.960068
6886007391000.0,-6.620934022938717,7.137327320436775,0.1696939984860126,-1.5201381,-1.3048081,-1.7968601,201.7327,-62.71988,-21.26392
6886012199000.0,-6.342787223998598,7.183223826883719,0.291008441565679,-1.3674219,-1.0647382,-1.6505579,201.96864,-62.335735,-21.559713
6886017167000.0,-6.055384291982269,7.230647671315585,0.4163599709375141,-1.2140946,-0.6062838,-1.4263704,201.72458,-61.55854,-22.360409
6886022167000.0,-5.766130133350698,7.278376983344436,0.5425189175677828,-1.0989466,-0.16737708,-1.1911873,201.40039,-60.85688,-23.11507
6886027399000.0,-5.463454581758622,7.328320935451426,0.674531639321696,-1.056186,0.07696902,-0.9434814,200.97859,-60.240696,-23.806746
6886032237000.0,-5.1835722578667145,7.374503817770543,0.796603036081144,-1.0891727,0.074830994,-0.72112644,200.48578,-59.69465,-24.43746
6886037186000.0,-4.897268491653185,7.421746290816699,0.921475161455784,-1.0366384,-0.065973446,-0.49632803,199.94553,-59.24074,-24.990503
6886042288000.0,-4.60211354818553,7.470449280810939,1.0502077505973102,-0.88331115,-0.11759156,-0.2666427,199.36562,-58.862133,-25.473412
6886047167000.0,-4.319859340192843,7.517023543488692,1.1733136507191264,-0.74189585,-0.071776666,-0.1301143,198.79475,-58.530178,-25.903017
6886052398000.0,-4.017241639432493,7.566957949733276,1.3053011406837136,-0.6844745,0.14721853,0.27947086,198.14677,-58.33697,-26.195045
6886057239000.0,-3.737185763045406,7.61316946963961,1.4274482328111395,-0.56138515,0.4474588,0.40653083,197.48618,-58.146526,-26.526855
6886062182000.0,-3.451229101822235,7.660354667511332,1.5521689674498234,-0.37048978,0.799928,0.6310238,196.70694,-58.099667,-26.736225
6886067184000.0,-3.1618592415272118,7.708103071264995,1.6783783776587442,-0.13591751,1.2024882,0.83199847,195.82764,-58.103428,-26.939003
6886072165000.0,-2.8737042486984405,7.755651011908137,1.8040579202918177,0.09193522,1.566564,0.977079,194.85619,-58.173084,-27.113235
6886077518000.0,-2.56402874646748,7.806750013366225,1.939123688554184,0.30970868,1.8344283,1.0665708,193.80098,-58.30552,-27.262852
6886082244000.0,-2.290625715728919,7.851863759095895,2.0583691249091136,0.54061574,1.9816469,1.1560625,192.68471,-58.49973,-27.380709
6886088190000.0,-1.946644670284256,7.908623456960605,2.208397344241829,0.8371908,2.1184807,1.2965615,191.50604,-58.757217,-27.467102
6886092172000.0,-1.716282658350072,7.946635081060382,2.308870329338176,1.1319333,2.1383338,1.4410311,190.34172,-59.05545,-27.516108
6886097151000.0,-1.428243367184754,7.994163929978712,2.434499408392597,1.4388931,1.9391917,1.5583172,189.2282,-59.40571,-27.514444
6886102509000.0,-1.118278610795162,8.045310660748829,2.569691335601593,1.7290541,1.4727961,1.6459764,188.21976,-59.800255,-27.45251
6886107233000.0,-0.8449912817200538,8.090405314753687,2.688886308377871,2.0289888,1.0497719,1.6145169,187.29703,-60.209087,-27.37184
6886112212000.0,-0.5569519905547358,8.137934163672018,2.814515387432293,2.2834144,0.6936375,1.4495832,186.53691,-60.60948,-27.272417
6886117169000.0,-0.2701854176873963,8.18525300361742,2.939589367121541,2.4630086,0.37018433,1.2229522,185.93657,-60.985256,-27.171452
6886122163000.0,0.0187216359538169,8.232925040471837,3.0655969230158533,2.5549438,0.15271631,1.0870347,185.4471,-61.335533,-27.072996
6886127521000.0,0.3286863923434087,8.284071771241955,3.2007888502248494,2.6090055,-0.14477506,1.0345002,185.11737,-61.640507,-26.989616
6886132239000.0,0.6016266164281587,8.329109150072378,3.3198324322651707,2.6762006,-0.49449542,1.0403035,184.89818,-61.91499,-26.911747
6886137205000.0,0.8889138467810351,8.376513902779433,3.445133498058354,2.758362,-0.8384125,1.0155635,184.79329,-62.155468,-26.841892
6886142171000.0,1.1762010771339115,8.423918655486489,3.5704345638515367,2.8750372,-0.9950995,0.977079,184.75488,-62.38593,-26.765455
6886147155000.0,1.464529622457862,8.471495233716848,3.696189801852588,2.9407053,-1.2538009,0.9465357,184.87079,-62.601223,-26.67523
6886154244000.0,1.874634168565704,8.539165852311353,3.875057956384984,3.069598,-1.4333953,0.7858781,185.02808,-62.767864,-26.629107
6886158532000.0,2.122698535008139,8.580098510307295,3.9832518690151018,3.14168,-1.5289958,0.62796944,185.24947,-62.916027,-26.583471
6886162313000.0,2.341432529765333,8.616191416063511,4.078653264456911,3.0650163,-1.520749,0.5589417,185.50354,-63.034527,-26.552654
6886167166000.0,2.622182616133136,8.662517486318716,4.20110313805625,2.9770517,-1.4337007,0.4370741,185.77408,-63.089905,-26.576744
6886172162000.0,2.9112053714378003,8.710208614897944,4.327161157529214,2.6957483,-1.3402383,0.31795537,186.04504,-63.11053,-26.614824
6886177409000.0,3.2147486855057714,8.76029575494102,4.459552356123018,2.3115141,-1.3014483,0.21288654,186.31119,-63.091587,-26.678774
6886182234000.0,3.493878948585237,8.806354541048862,4.581295739621227,1.8808541,-1.3790283,0.13927728,186.58824,-63.037273,-26.761374
6886187228000.0,3.782786002226452,8.854026577903278,4.70730329551554,1.4691309,-1.5384641,0.057726767,186.88129,-62.94247,-26.869278
6886192162000.0,4.068222005964085,8.901125863013348,4.831796944050289,1.1123856,-1.5903877,0.040317107,187.16238,-62.838593,-26.9738
6886197169000.0,4.357881120417741,8.94892199607904,4.9581325132058405,0.8350528,-1.4437801,0.08307768,187.4261,-62.724945,-27.077955
6886202525000.0,4.667730175143879,9.000049635124345,5.093273976836184,0.6197228,-1.1801916,0.15241088,187.66187,-62.61079,-27.173975
6886207224000.0,4.900365426561329,9.017399676813938,5.1888194649387005,0.42730024,-0.9334021,0.23884831,187.84782,-62.50977,-27.250044
6886212238000.0,4.764013193976743,8.7660979621612,5.0649721959639615,0.23548855,-0.73761976,0.30604348,187.95848,-62.417885,-27.31251
6886217171000.0,4.629863699892225,8.51885596806827,4.943125650720166,0.059253927,-0.5644395,0.40561453,188.89423,-63.18502,-26.490929
6886222227000.0,4.492369306603898,8.265449213125262,4.8182409694404935,-0.099265605,-0.3484986,0.53786683,189.69731,-63.954193,-25.658924
6886228365000.0,4.32545067804303,7.957812610704341,4.666630571162282,-0.26419923,-0.04795292,0.713796,190.36687,-64.73558,-24.804558
6886232214000.0,4.220779807835994,7.764900704103146,4.571559143502975,-0.48349985,0.23060162,0.88056225,190.92851,-65.51894,-23.93255
6886237195000.0,4.085324987232918,7.515252949678478,4.448526984196398,-0.7290677,0.32834008,0.9822713,191.40958,-66.298096,-23.045053
6886242164000.0,3.95019649825948,7.266206635336745,4.325791228405516,-0.92087936,0.44623706,1.0057896,191.75897,-67.06471,-22.153885
6886247163000.0,3.814252180211943,7.015656720787676,4.202314463825397,-1.0170907,0.537256,1.026559,192.05064,-67.81871,-21.24989
6886252555000.0,3.667620501293696,6.745409643522506,4.0691304841062514,-1.2012665,0.5626069,1.0943651,192.29388,-68.53616,-20.340342
6886257223000.0,3.5406774973637294,6.511449451261043,3.953829516500731,-1.3897184,0.5558874,1.1319333,192.49223,-69.20393,-19.448198
6886262174000.0,3.4060385058347524,6.26330529704371,3.831538365983393,-1.4309518,0.60048056,1.1774428,192.63956,-69.84733,-18.55015
6886267166000.0,3.270284547904505,6.013106222543019,3.7082345034540953,-1.5063937,0.6640105,1.2021828,192.75931,-70.42477,-17.660843
6886272154000.0,3.134639367184138,5.763107628069973,3.5850294420966966,-1.5793921,0.71593404,1.2189816,192.84619,-70.95604,-16.775501
6886277430000.0,2.9911622273524108,5.498674471606503,3.454710696362607,-1.6520851,0.766025,1.2140946,192.89487,-71.42345,-15.905549
6886282222000.0,2.860847129916164,5.25849939848805,3.3363468924282333,-1.7079792,0.768163,1.2110404,192.92314,-71.829216,-15.044174
6886287184000.0,2.725909001060017,5.009803924194695,3.213784038688175,-1.7379116,0.75136423,1.187522,192.92668,-72.161224,-14.205126
6886292156000.0,2.59069892917917,4.760607249832228,3.09097418201837,-1.7669277,0.5833763,1.1224649,192.96024,-72.41164,-13.384009
6886297684000.0,2.4403688251250024,4.483543851627135,2.9544309624546763,-1.7046194,0.35888332,1.0140363,193.0042,-72.59798,-12.590093
6886302538000.0,2.3083676809356155,4.240261338080189,2.8345357403558764,-1.5424347,0.21930063,0.8237518,193.06764,-72.7109,-11.844714
6886307237000.0,2.180581653629079,4.004747425604479,2.718469063668142,-1.3744467,0.23396139,0.59895337,193.14839,-72.75808,-11.146986
6886312187000.0,2.045969856402572,3.7566533913940576,2.596202613443779,-1.2244794,0.3481932,0.37232238,193.24275,-72.755775,-10.511638
6886317162000.0,1.910678201614315,3.507306357010857,2.4733186558950497,-1.1136073,0.46486846,0.15760323,193.33783,-72.70844,-9.946966
6886322162000.0,1.774706689264308,3.2567063224548765,2.3498171910219554,-1.0213667,0.48533243,0.007941248,193.43153,-72.63573,-9.437435
6886327544000.0,1.6283469533707606,2.986960445258819,2.2168802142325568,-0.95569867,0.37323865,-0.087659165,193.53468,-72.534874,-8.979008
6886332232000.0,1.5008600633913938,2.751997852859131,2.1010852407675435,-0.88514376,0.21502456,-0.16371189,193.64886,-72.42,-8.561538
6886337179000.0,1.3663298490722968,2.504054178669444,1.978892891422104,-0.79045963,0.12370021,-0.24495697,193.77808,-72.29833,-8.174997
6886342158000.0,1.2309294170741598,2.2545066642585985,1.855910132701476,-0.7464773,-0.03756821,-0.29077184,193.96895,-72.16329,-7.788081
6886347175000.0,1.094495601582163,2.003054589585127,1.7319887628478137,-0.6411031,-0.19456059,-0.37323865,194.18848,-72.04257,-7.4322
6886354130000.0,0.9053592279033033,1.6544699415177575,1.5601982252093394,-0.56779927,-0.30787608,-0.43982297,194.43832,-71.91249,-7.080327
6886357265000.0,0.8201050896598492,1.497343719851158,1.4827628067339091,-0.5348125,-0.37568212,-0.46028697,194.71729,-71.78718,-6.734308
6886362196000.0,0.6860099841802718,1.2502019657720496,1.3609656620760635,-0.5534439,-0.36560285,-0.49938235,195.0086,-71.65137,-6.4134703
6886367457000.0,0.5429407588855941,0.9865206094122474,1.2310174207365931,-0.57940567,-0.27183503,-0.5164866,195.29109,-71.516495,-6.0983434
6886372234000.0,0.4130335759863976,0.7470973363974629,1.1130241211968386,-0.63804877,-0.08155051,-0.5311473,195.54341,-71.35901,-5.8069835
6886377572000.0,0.2678703894015299,0.4795567395054974,0.9811739572983234,-0.70066243,0.21777347,-0.54519725,195.738,-71.1876,-5.5423765
6886382318000.0,0.1388062298789041,0.2416871867049614,0.8639463668407821,-0.8078693,0.58551437,-0.537256,195.85818,-70.98516,-5.303174
6886387191000.0,0.0062883939425866,-0.0025476069732981,0.743581839175464,-0.9202685,0.94959,-0.54519725,195.89801,-70.75924,-5.1030245
6886392179000.0,-0.1293567867777802,-0.2525462014463446,0.6203767778180653,-1.0134255,1.3133603,-0.5900958,195.83893,-70.505775,-4.9484935
6886397176000.0,-0.2652467162203775,-0.5029958759815916,0.496949413823895,-1.0858129,1.6404786,-0.66523224,195.69385,-70.22442,-4.838815
6886402564000.0,-0.4117696179287451,-0.7730424732191157,0.3638642352766483,-1.1267409,1.8762726,-0.77091193,195.48227,-69.922295,-4.7790146
6886407270000.0,-0.4809155444121405,-0.9157699234448882,0.3679475006869009,-1.1502593,1.9776763,-0.8872818,195.22778,-69.6019,-4.764048
6886413297000.0,-0.2181354753290734,-0.5423455866246008,1.091745238881789,-1.1270463,1.9205604,-0.9950995,194.96341,-69.28048,-4.785138
6886417183000.0,-0.0487040254440894,-0.3015745607603834,1.5584248490734824,-1.087951,1.7165314,-1.0855075,194.59698,-68.84406,-5.3019657
6886422153000.0,0.1506173501282051,-0.0484514679608454,2.1453191602564106,-1.0299188,1.3704761,-1.1636983,194.29636,-68.40532,-5.8281374
6886427644000.0,0.3601605978846153,0.1975340922323284,2.787614805769231,-0.9611965,0.91507614,-1.2449434,194.09212,-67.9656,-6.350574
6886432176000.0,0.5224200340368852,0.3975290638661202,3.179885782923497,-0.89949906,0.3567453,-1.3112222,194.04865,-67.45058,-6.796772
6886437227000.0,0.6829063175995316,0.614657526596409,3.3545325854020294,-0.83016586,0.08093964,-1.3695599,194.06357,-66.94461,-7.2438254
6886442154000.0,0.8091661013740089,0.8038211275865403,3.373744499149101,-0.8179486,-0.4202753,-1.3988814,194.32796,-66.3563,-7.5757294
6886447243000.0,0.8610032842409592,0.9404828223747824,3.0014592995552114,-0.8231409,-0.86620694,-1.4407257,194.66373,-65.772575,-7.897144
6886452421000.0,0.8676145200150807,1.043872,2.3448516392399337,-0.8503244,-1.2272283,-1.4703526,195.12878,-65.18353,-8.137549
6886457246000.0,0.7491500882174634,1.043872,0.9825108518398432,-0.8857546,-1.4957036,-1.4789047,195.6934,-64.58895,-8.335725
6886462227000.0,0.6268555110601719,1.043872,-0.4238766014326645,-0.9126327,-1.6691893,-1.4853189,196.32312,-64.06969,-8.494183
6886467200000.0,0.3816403616761755,0.9875896386976196,-1.5929019646665354,-0.9147707,-1.7024814,-1.4978416,196.98985,-63.547913,-8.633468
6886472199000.0,0.0425727962699192,0.888694902616565,-2.591267567361794,-0.88117313,-1.5421293,-1.534799,197.65639,-63.02768,-8.7754755
6886477253000.0,-0.249800186862298,0.8868538916823635,-3.3506964097848715,-0.75411314,-1.3652838,-1.5925257,198.34578,-62.939133,-9.20806
6886482244000.0,-0.4962052482641023,0.9674093837711908,-3.8908919782095768,-0.5849035,-1.2211196,-1.6432275,198.99403,-62.861973,-9.655575
6886487216000.0,-0.6807246260311715,1.1160682693112118,-4.279863603117144,-0.42485678,-1.0338894,-1.6588045,199.55927,-62.9272,-10.266248
6886492197000.0,-0.8102325092448466,1.3271182228154852,-4.534082924484665,-0.31398472,-0.76083267,-1.677436,200.05632,-62.995834,-10.908101
6886497170000.0,-0.9321979363140896,1.6343650839826402,-4.621444211697618,-0.25045475,-0.45906523,-1.6655241,200.48276,-63.134903,-11.679059
6886502084000.0,-1.0461917259386355,2.023843774273314,-4.559697579784013,-0.1731803,-0.095294975,-1.6218473,200.80136,-63.268955,-12.469393
6886507125000.0,-1.37469145990094,2.390183381946831,-4.158474416607702,-0.02107485,0.39736784,-1.4880677,201.0115,-63.433113,-13.386533
6886512068000.0,-1.8819031175174368,2.7203494006267057,-3.469432308046093,0.28955013,1.2174544,-1.2657127,200.99852,-63.62078,-14.316271
6886517056000.0,-3.453716234631086,2.947762671612068,-0.7932043873643333,0.7272351,2.0518963,-1.0262536,200.94533,-63.759075,-15.500902
6886522049000.0,-5.924792652215474,3.085838287214976,3.563317673105645,1.0024298,2.8680124,-0.92271197,200.63351,-63.86067,-16.67669
6886527157000.0,-8.784711592351023,5.386739491105841,7.511015948947525,0.9236283,3.451694,-1.287093,200.19115,-63.67963,-18.004574
6886532244000.0,-11.91409132107916,9.507891427611424,11.011106667822908,0.43493605,4.4177775,-2.3020456,199.43951,-63.277752,-19.526512
6886537057000.0,-12.32908779963377,11.995814321944874,10.116489872224363,0.38973203,4.2742243,-2.6288586,198.75038,-62.217197,-21.053295
6886542053000.0,-10.39699795113724,13.26850319106592,5.283960667829606,0.4822781,3.8179078,-2.5466971,197.94035,-60.965412,-22.757702
6886547054000.0,-8.767746296992481,13.675283731203008,1.7459309988721805,0.79320854,2.7751608,-1.9428569,197.43823,-59.43508,-24.523502
6886553300000.0,-7.232730541680287,12.761117874632234,-0.54192709143511,1.1258247,0.86926126,-1.1633929,197.33333,-58.12361,-25.950048
6886557572000.0,-6.3418045938726575,12.344337282568157,-2.0196108890329456,1.3952162,0.4810564,-1.0479393,197.03049,-57.50612,-27.184525
6886562224000.0,-6.864029248592487,13.847711576502975,-2.810860443495249,1.3548992,0.3136793,-0.93615097,197.14282,-57.10243,-27.971931
6886567177000.0,-7.420043589698961,15.448359228665304,-3.653306497504662,1.0424415,0.7800749,-0.8546005,197.02037,-57.024117,-28.540018
6886572120000.0,-8.926818209275861,16.43452910724138,-3.6869583916206894,0.7556403,1.7232509,-0.84940815,196.79349,-56.941093,-29.086319
6886577251000.0,-10.811876659931034,17.252093800689657,-3.449737576344828,0.68386364,2.9840767,-0.93187493,196.3168,-56.83163,-29.662111
6886582243000.0,-12.705726010207206,17.90208569562111,-2.375715765399612,0.8078693,4.176791,-0.9468411,195.47699,-56.845016,-30.19715
6886587143000.0,-14.636043423701132,18.366702425232216,-0.3160717771378993,0.8567385,4.7119093,-0.8173377,194.44757,-56.827168,-30.715904
6886592129000.0,-16.097875360660325,18.717763464745385,2.406291910243424,0.96669424,4.221384,-0.535118,193.29306,-56.677315,-31.334639
6886597137000.0,-16.996969232699122,18.932473641205,5.850583859342473,1.0910053,3.0140092,-0.1459968,192.20404,-56.57563,-31.827396
6886602332000.0,-17.868039005140613,19.14038570063502,7.933079641971575,1.1157454,1.7650951,0.36071593,191.414,-56.316845,-32.328754
6886607191000.0,-18.576294211269023,19.3092404809999,7.304562775929845,0.8784242,0.6933321,0.7840455,190.96933,-56.15058,-32.64869
6886612208000.0,-19.081517067363983,19.36457909967996,6.867105670049177,0.52656585,-0.018936822,1.1010846,191.03288,-55.941475,-32.85314
6886617235000.0,-19.17546479509796,19.202989164936383,6.81449502099758,0.3304781,-0.35369098,1.2864822,191.29938,-55.83555,-32.920063
6886622808000.0,-19.27961651315276,19.023848383888847,6.75617014589025,0.31795537,-0.45478916,1.3362677,191.6478,-55.75278,-32.96057
6886627465000.0,-19.33370155090973,18.98164725629811,6.723334071509797,0.37720928,-0.58184916,1.3011429,192.09338,-55.710358,-32.93829
6886632251000.0,-19.385822564555635,18.94957285076977,6.691259456656753,0.4538729,-0.7031059,1.2321151,192.55324,-55.690376,-32.893078
6886637187000.0,-19.21464487904688,18.999888564188897,6.325695528360528,0.5647449,-1.0054842,1.1933253,193.09796,-55.668667,-32.848553
6886642167000.0,-18.82348593576793,19.13164681852715,5.633962693861694,0.625526,-1.2641857,1.1368202,193.65971,-55.64066,-32.81147
6886647522000.0,-18.11444268691717,19.253116939385627,4.961536960038399,0.7486154,-1.4022411,1.0778717,194.26572,-55.62406,-32.776207
6886652464000.0,-16.60123383036204,19.305040857652223,4.5535639776467365,0.8170323,-1.5103643,1.0348058,194.93553,-55.610634,-32.728474
6886657259000.0,-15.133035435545803,19.355420296763576,4.157726168952276,0.82863873,-1.6514742,1.0473285,195.63965,-55.665237,-32.634945
6886662216000.0,-13.615233674731604,19.40750181494397,3.748514903530288,0.77182823,-1.7898352,1.1319333,196.36372,-55.73666,-32.519547
6886667233000.0,-12.079060296881122,19.460213732779565,3.334350505986992,0.6976081,-1.9046779,1.2657127,197.10892,-55.832443,-32.37328
6886672273000.0,-10.581105846633417,19.50872024937656,2.943566495012469,0.61727935,-1.9737056,1.4691309,197.8595,-55.97182,-32.172894
6886677263000.0,-9.50855108796557,19.516408967902823,2.785950856125815,0.53969944,-2.0702224,1.6545285,198.63377,-56.14182,-31.92785
6886682211000.0,-8.44502384430054,19.52403297176414,2.62966184185504,0.47678033,-2.159714,1.7895297,199.46202,-56.60501,-31.404097
6886687249000.0,-7.442654616118589,18.882025763332766,2.286220536121997,0.40530908,-2.2406538,1.8304577,200.3013,-57.079853,-30.856882
6886692533000.0,-6.4467876261714085,17.761136218265463,1.7990648165786336,0.3304781,-2.2696698,1.78617,201.1376,-57.55593,-30.301826
6886697167000.0,-5.614425749465974,16.636302131522736,1.2726865621452548,0.26328292,-2.1875083,1.6487253,201.98296,-58.090824,-29.692068
6886702114000.0,-4.848190751602076,15.012268605431796,0.4148887635642355,0.18325958,-1.9523253,1.391551,202.78764,-58.5663,-29.145227
6886707128000.0,-4.038405143798371,13.402634451832991,-0.4798224103411405,0.08582657,-1.6053538,1.1148291,203.52798,-59.016243,-28.64279
6886712123000.0,-3.142086015947047,11.897403409572302,-1.4394682448370673,-0.018936822,-1.201572,0.82741696,204.18338,-59.381996,-28.239618
6886717087000.0,-2.2570337762720403,10.588855631234257,-2.2621721288664984,-0.09254608,-0.7312057,0.6078109,204.69768,-59.691143,-27.936228
6886722089000.0,-1.378607634468514,9.710429338236777,-2.783436017047859,-0.15668693,-0.30940324,0.47891834,205.10532,-59.937275,-27.711853
6886727206000.0,-0.6308980114670572,8.882437155978526,-3.082948490336749,-0.1957823,-0.14782938,0.41447207,205.44041,-60.166115,-27.542095
6886732216000.0,-0.2000398306178624,8.212733902684237,-2.909668507906296,-0.22724187,0.06780604,0.40591997,205.62555,-60.369152,-27.420979
6886737083000.0,0.1391624327819837,7.52428472256828,-2.7385399301293725,-0.33078352,0.17562376,0.44623706,205.78928,-60.603657,-27.268589
6886742090000.0,0.2678284561705798,6.710931520364159,-2.554731400689985,-0.4831944,0.21471913,0.5039638,205.90457,-60.832207,-27.120928
6886747090000.0,0.366721901385902,5.887173162485065,-2.3885380833930703,-0.6579019,0.16432275,0.5540548,205.97702,-61.07797,-26.92582
6886752158000.0,0.3280637988450816,4.998036864595779,-2.301557297172441,-0.81245077,0.10567969,0.56230146,206.03992,-61.315575,-26.72793
6886757147000.0,0.3136309038328642,4.151858850849267,-2.2288835191303504,-0.93492925,0.023823744,0.57360244,206.10423,-61.528023,-26.520878
6886762091000.0,0.4055414761632534,3.444147204455013,-2.2150969426380667,-1.0262536,-0.05100725,0.57360244,206.18593,-61.72855,-26.312635
6886767083000.0,0.5197945804502722,2.723512032845126,-2.2036777744087086,-1.0965031,-0.12980886,0.57757306,206.28894,-61.86789,-26.14481
6886772080000.0,0.8134144680158337,1.951575967352796,-2.21314937650668,-1.1227703,-0.15149458,0.5858198,206.39679,-62.004322,-25.976217
6886777146000.0,1.1244852713938072,1.1406035762775866,-2.19572386597298,-1.1200215,-0.13622294,0.5861252,206.48674,-62.124157,-25.807495
6886782172000.0,1.5566607080305443,0.074301679877486,-1.929148360241672,-1.0711522,-0.15118915,0.5766568,206.59244,-62.24608,-25.637953
6886787048000.0,1.97593795216917,-0.9601766422170006,-1.6705287490307963,-0.98471475,-0.20463985,0.5742133,206.64993,-62.407272,-25.408787
6886792098000.0,2.2436780723541645,-1.5050983017949,-1.6415046973185947,-0.84207773,-0.29626966,0.60903263,206.72176,-62.588604,-25.168375
6886797100000.0,2.4376604717631607,-1.819664539838021,-1.7149034770712488,-0.6609562,-0.33017266,0.66675943,206.79066,-62.790825,-24.92197
6886802132000.0,2.473098162623624,-2.0199717463519318,-1.7277781542078747,-0.5039638,-0.28099802,0.74189585,206.84216,-63.004448,-24.638245
6886807224000.0,2.486747649169621,-2.20651487167382,-1.7323279830565406,-0.39003745,-0.1685988,0.8029824,206.88165,-63.24724,-24.341343
6886812081000.0,2.408203841696751,-2.380631740794224,-1.66650265433213,-0.3145956,-0.016493361,0.8552113,206.89063,-63.529785,-24.021645
6886817101000.0,2.295901623179019,-2.559294489573158,-1.5746190113081333,-0.29565877,0.172264,0.8536842,206.85388,-63.824226,-23.705246
6886822096000.0,2.20390829825621,-2.839621751193376,-1.4737469618217245,-0.31581733,0.34880406,0.8426886,206.77113,-64.126434,-23.390944
6886827148000.0,2.1143556554505603,-3.141272906186069,-1.370054378830979,-0.3390302,0.41172317,0.8155051,206.66751,-64.42941,-23.08274
6886832093000.0,2.130818579806848,-3.436860128504536,-1.2982221036581796,-0.3390302,0.49296826,0.8002335,206.5026,-64.70577,-22.806204
6886837090000.0,2.172833741878841,-3.7356348580821375,-1.2328651361330605,-0.3313944,0.514654,0.7715228,206.34024,-64.9725,-22.538683
6886842077000.0,2.133601307781672,-4.04329717987982,-1.2340797206309464,-0.27366763,0.52412236,0.7449502,206.15575,-65.20346,-22.307503
6886847073000.0,2.0665166108963446,-4.354761529484227,-1.2580385052078118,-0.17898351,0.54519725,0.7315111,205.96315,-65.43784,-22.080587
6886852114000.0,1.9127131945574165,-4.6031668219696975,-1.2677364823763957,-0.07971791,0.6096435,0.7012733,205.75833,-65.649765,-21.878937
6886857091000.0,1.7321686498803828,-4.826471992424242,-1.2724876519936206,-0.014049901,0.70829827,0.66339964,205.53918,-65.86569,-21.684229
6886862045000.0,1.4528140126869418,-4.8841715,-1.2243538425674998,0.016493361,0.852157,0.6169739,205.2851,-66.05164,-21.53339
6886867041000.0,1.135859508702198,-4.8841715,-1.1571210613971696,-0.007330383,1.0454959,0.569021,204.98961,-66.23052,-21.399818
6886872044000.0,0.7343966066634771,-4.592272660463113,-0.7493102142195005,-0.06291912,1.2803736,0.5152648,204.63492,-66.354416,-21.332067
6886877272000.0,0.2840713186604152,-4.180272894507702,-0.1983803761902209,-0.099571034,1.46852,0.42638394,204.24136,-66.45692,-21.294395
6886882075000.0,-0.0613063843433109,-3.5578489596008955,0.5924905702172673,-0.09773844,1.5360206,0.30757064,203.81061,-66.4822,-21.337439
6886887077000.0,-0.3880742108674405,-2.7921392653023824,1.5532855098277334,-0.0711658,1.4379768,0.16310102,203.37947,-66.475136,-21.414644
6886892074000.0,-0.4386792595728291,-2.109366351940776,2.332439107733093,-0.049785517,1.212873,0.044593163,202.97658,-66.356636,-21.566616
6886897062000.0,-0.3669969141666667,-1.464225338095238,3.030147184523809,-0.08307768,0.82863873,-0.06078109,202.65935,-66.19747,-21.745846
6886902178000.0,-0.2341188207749656,-1.026081487547577,3.3203015648224445,-0.17989981,0.36957347,-0.15851954,202.46623,-65.93112,-21.949076
6886907214000.0,-0.0779926341632332,-0.6901736380910339,3.424385715577791,-0.30176744,-0.11942416,-0.24312437,202.40689,-65.62889,-22.16043
6886912087000.0,0.0527306329468021,-0.4870585877425782,3.181512891611875,-0.43371433,-0.5635232,-0.30604348,202.51398,-65.29431,-22.313246
6886917085000.0,0.1767082037836222,-0.3392391577844192,2.7618965355449294,-0.56199604,-0.9138544,-0.36743546,202.75029,-64.915764,-22.467562
6886922053000.0,0.1981504707872742,-0.256894590721668,2.19702728862227,-0.6750061,-1.0458013,-0.4007276,203.07211,-64.55224,-22.56123
6886927244000.0,0.1624080775141547,-0.2077487993879752,1.522389589350229,-0.7131852,-1.2198979,-0.41141775,203.51898,-64.16181,-22.638418
6886932265000.0,0.0371949165970083,-0.1771203680367356,0.7522196726297844,-0.763887,-1.2754866,-0.44776422,203.96083,-63.80981,-22.689932
6886937090000.0,-0.1864254185877694,-0.1669558092762868,-0.1219325877364716,-0.75869465,-1.2131784,-0.47067168,204.42168,-63.453213,-22.732168
6886942081000.0,-0.485059980083607,-0.2491942955359808,-0.9079036106001792,-0.72112644,-1.0629056,-0.50610185,204.84006,-63.1547,-22.79159
6886947254000.0,-0.840085281895093,-0.3971215054822334,-1.6426087569373942,-0.63224554,-0.88117313,-0.5348125,205.23257,-62.857677,-22.85906
6886954080000.0,-1.3059162678781493,-0.5922630193082258,-2.052118628496181,-0.5225952,-0.6545421,-0.58368176,205.55614,-62.575325,-23.059006
6886957239000.0,-1.52104255939777,-0.6825629608173119,-2.145074429022913,-0.37384954,-0.50762904,-0.6435465,205.84863,-62.305454,-23.275127
6886962160000.0,-1.82694707971864,-0.8006008791617819,-2.205208527901524,-0.183565,-0.46609017,-0.69058317,206.05623,-62.049877,-23.604305
6886967163000.0,-2.079710800195389,-0.8754937998876514,-2.097549891735053,-0.0033597588,-0.52870387,-0.74281216,206.25137,-61.798588,-23.951815
6886972134000.0,-2.256249153036437,-0.8992246697031039,-2.0064896278002697,0.12492194,-0.61727935,-0.795652,206.41461,-61.48181,-24.410175
6886977400000.0,-2.2416651655292075,-0.7874140226720647,-1.953015006940428,0.22174409,-0.6630942,-0.83199847,206.58012,-61.1743,-24.872688
6886982172000.0,-2.217132680851064,-0.6725499323404256,-1.9115578382978724,0.25870144,-0.68203104,-0.8491027,206.75519,-60.796776,-25.39329
6886987168000.0,-2.150159426651736,-0.502884233818589,-1.8936982572228445,0.22968534,-0.6780604,-0.8533788,206.93175,-60.415127,-25.913256
6886992190000.0,-2.083980944173336,-0.3235551145988679,-1.8787645802459496,0.16554448,-0.6627888,-0.850019,207.11469,-60.0334,-26.423283
6886997151000.0,-2.032974059047433,-0.036062109366582,-1.901949532432169,0.09468412,-0.6264423,-0.8356637,207.28134,-59.649113,-26.925219
6887002981000.0,-1.97354466401387,0.3368024560732409,-1.9765884868318675,0.011911872,-0.56779927,-0.8164214,207.43599,-59.288307,-27.39284
6887007201000.0,-1.932528969325101,0.7435413707044993,-2.215846676107916,-0.082161374,-0.46731192,-0.8035932,207.55672,-58.923954,-27.851625
6887012190000.0,-1.8840390876184032,1.2243992960825438,-2.498704284235453,-0.20219639,-0.3454443,-0.7834347,207.65569,-58.603455,-28.251753
6887017530000.0,-1.8938296150127707,1.553338857042853,-2.661195401541954,-0.33567044,-0.18875736,-0.77488256,207.70212,-58.282246,-28.639795
6887022153000.0,-1.927335322467127,1.762749386500804,-2.74495956084571,-0.50732356,-0.12583824,-0.75900006,207.72922,-57.95995,-29.004189
6887027380000.0,-2.0177757471229985,1.963266441518564,-2.902288880406476,-0.5925393,-0.043066,-0.7489208,207.68085,-57.75315,-29.291056
6887032233000.0,-2.140447512264649,2.1227397532817176,-3.094474640102059,-0.74006325,-0.0070249503,-0.7333437,207.62494,-57.529488,-29.561241
6887037177000.0,-2.418805341845212,2.281836480126804,-3.4469154712724093,-0.8567385,0.01282817,-0.6780604,207.54709,-57.345985,-29.78903
6887042176000.0,-3.114837511149978,2.433602852306515,-4.226680999868823,-0.9129381,0.082161374,-0.6044512,207.4397,-57.16465,-30.005146
6887047156000.0,-3.856576647961165,2.439574412224184,-4.540616052303618,-0.8897252,0.29810223,-0.5137377,207.26686,-57.002296,-30.225647
6887052376000.0,-4.69931878776699,2.249847223345101,-4.244994413821712,-0.6783658,0.83108217,-0.4279111,206.96552,-56.874176,-30.446283
6887057173000.0,-5.6037178983316585,1.9480631223316585,-3.543260621266332,-0.19242255,1.5601498,-0.32589662,206.45471,-56.752495,-30.762146
6887062201000.0,-7.171688631678393,1.023734703678392,-0.755757331135678,0.47311515,2.2153027,-0.27916542,205.79991,-56.67287,-31.086102
6887067149000.0,-8.873209150912446,1.074662233299159,2.182561423539061,1.0888673,3.3221905,-0.40469822,204.7256,-56.39131,-31.680952
6887072154000.0,-11.325333831043674,5.556301380110724,6.0548546997334425,1.5922203,5.070792,-0.8533788,203.24596,-56.071434,-32.394802
6887077374000.0,-12.8970444140858,8.752629266139023,8.653779883811271,1.4874569,5.490457,-1.4926492,201.84363,-55.111164,-33.579796
6887082223000.0,-11.760687549208534,7.829339285615967,7.27594734273916,1.5900823,3.6774087,-1.8139644,200.6253,-54.18544,-34.730076
6887087361000.0,-10.556603908924066,6.851021298417068,5.815996095878259,2.2122486,1.131017,-1.8310685,199.86876,-53.2316,-35.76866
6887092164000.0,-9.594375626604544,7.00886468488162,4.039875383312731,2.046704,-0.7021896,-1.6713274,199.54233,-52.27726,-36.71743
6887097174000.0,-8.686513798136351,7.802673246448608,1.945862899381953,1.5396858,-1.5216653,-1.5335772,199.77571,-51.403152,-37.538338
6887102522000.0,-9.988333885987815,10.151748579634464,-0.7099423307223671,1.0143417,-1.1114693,-1.6142114,200.15884,-50.670383,-38.22393
6887107228000.0,-12.8017693876889,13.321766812485166,-3.355784006495768,0.47555858,0.44073927,-1.9434677,200.4134,-49.912434,-38.924915
6887112531000.0,-15.851016232891936,16.739358177423835,-6.0190751611677005,0.5348125,1.9257526,-2.4077253,200.43082,-49.386883,-39.49713
6887117171000.0,-16.65341441050097,17.348356995832948,-3.447286964038337,1.6053538,2.9843822,-2.7733283,200.04028,-48.83903,-40.17337
6887122129000.0,-17.510804532178906,17.99909323326234,-0.6992425930539872,2.7091873,3.55829,-2.7070494,198.87032,-48.351513,-40.957626
6887127536000.0,-18.006251329859428,18.37644389554048,3.387371858756665,2.9739974,4.7436743,-1.8295414,197.05168,-47.98118,-41.62243
6887133279000.0,-18.437254246889644,18.7052512921312,7.964007035650346,2.6994135,4.667621,-0.54428095,195.48859,-47.75349,-42.0543
6887137146000.0,-18.664681048665773,18.88660633490113,9.762855866865042,1.6368134,3.0980031,0.35277468,194.36403,-47.620285,-42.273945
6887142225000.0,-18.86077539815704,19.059355225187176,10.028982693799191,0.5122105,0.9089675,0.7703011,193.5305,-47.69357,-42.24602
6887147135000.0,-19.026939480293876,19.200363150531874,9.81918713641999,-0.17623462,-1.112691,0.8335256,193.71605,-47.90971,-42.00917
6887152546000.0,-19.13797989209459,19.275712164077447,8.149618220785184,-0.4196644,-2.420248,0.6627888,194.39168,-48.137547,-41.722824
6887157195000.0,-19.233383121527517,19.340450209535472,6.715165090349736,-0.3830125,-2.7974575,0.4098906,195.42393,-48.318314,-41.437702
6887162249000.0,-19.309395366414304,19.39057090969625,5.019195629061389,-0.204029,-2.4297166,0.269697,196.57903,-48.456486,-41.156742
6887167343000.0,-19.371693364772412,19.430619888442944,3.2392355868101794,-0.00030543262,-1.7846428,0.28252518,197.69296,-48.552147,-40.897034
6887172219000.0,-18.31809165663717,19.4644244580531,2.1151116258761062,0.15393804,-1.0827587,0.39400807,198.45207,-48.63713,-40.69024
6887177386000.0,-15.931504654867256,19.495077571238937,1.5852455154424778,0.23273966,-0.65301496,0.5882632,199.03111,-48.750473,-40.472515
6887182237000.0,-13.862746716539986,19.51837553502974,1.256140989424983,0.29046643,-0.5458081,0.77946407,199.34558,-48.90296,-40.273193
6887187253000.0,-12.35463745778255,19.522344739259747,1.533950640978189,0.36560285,-0.7134906,0.93737274,199.58752,-49.100986,-40.04059
6887192170000.0,-10.876293513342697,19.526235603932584,1.8062772073033704,0.4538729,-1.0519099,1.0500773,199.86734,-49.489735,-39.62799
6887197178000.0,-9.145128251943667,19.400917015819427,1.5033212482666152,0.514654,-1.3955216,1.1252137,200.20638,-49.905006,-39.18423
6887202363000.0,-7.2866900131089025,19.233274017362785,1.019552575902383,0.49602258,-1.597718,1.2082914,200.61014,-50.345016,-38.707973
6887207193000.0,-6.117256357701086,18.769663559481423,0.487277004040902,0.4605924,-1.642922,1.2696834,201.13527,-50.891857,-38.113773
6887212208000.0,-5.113116730658267,18.173318568154844,-0.0959132022770017,0.41325033,-1.5140295,1.2797627,201.66388,-51.43608,-37.52052
6887217180000.0,-4.36164101948575,17.357746586121436,-0.5422169578727799,0.33628133,-1.41904,1.1615603,202.24287,-52.053944,-36.85631
6887222162000.0,-3.8344677879491935,16.3329609157373,-0.867389299227592,0.20769419,-1.2767084,1.0705414,202.7557,-52.66666,-36.201202
6887227524000.0,-3.399905467135944,15.224830629564453,-1.1696301868455787,0.12614368,-1.0473285,0.90102625,203.2056,-53.258457,-35.587433
6887232245000.0,-3.093584971033876,14.246196615134185,-1.4083214544566651,-0.04337143,-0.75961095,0.7501425,203.59155,-53.809574,-35.011875
6887237973000.0,-2.6840218102616062,13.044399542004422,-1.6479738169675755,-0.18967366,-0.34147367,0.56291234,203.8512,-54.280624,-34.539112
6887242218000.0,-2.339500253610906,12.138157734708916,-1.771552195467944,-0.30970868,-0.1777618,0.52534413,204.10272,-54.738213,-34.072895
6887247181000.0,-1.9540691597617916,11.101597273463554,-1.8601653321391136,-0.34605515,0.23273966,0.47403142,204.13072,-55.098015,-33.7401
6887252562000.0,-1.654545472358266,10.134283692710817,-1.5753724078227729,-0.5109888,0.61819565,0.44073927,204.11806,-55.433895,-33.42111
6887257313000.0,-1.396307754590164,9.284965742622951,-1.3230296270983608,-0.70646566,0.8219192,0.4279111,204.02718,-55.727493,-33.152603
6887262241000.0,-1.21836131,8.4726011,-1.048373081,-0.8915578,0.81245077,0.42424592,203.88823,-56.002697,-32.899593
6887267215000.0,-1.0387538393442624,7.652653508196721,-0.7711527765573771,-1.0311406,0.6759224,0.4382958,203.73645,-56.232105,-32.67727
6887272164000.0,-0.7408899494627693,6.522874196206681,-0.8560971690992819,-1.1206323,0.49113566,0.47494772,203.61058,-56.456306,-32.448544
6887277557000.0,-0.3297076658496721,5.063580339400563,-1.210842622400874,-1.1808025,0.32834008,0.5186246,203.52803,-56.677254,-32.210846
6887282310000.0,0.0228701195769857,3.8209251231306776,-1.5166266025157231,-1.1774428,0.23671028,0.5564982,203.48154,-56.8621,-31.989975
6887287238000.0,0.2390729063076326,3.1943034636850687,-1.729164940461216,-1.1377366,0.23945917,0.62796944,203.45563,-57.0649,-31.746632
6887292221000.0,0.4576886705687554,2.5606882589331468,-1.9440753580712788,-1.1001683,0.27000242,0.69058317,203.41994,-57.22672,-31.547623
6887297219000.0,0.6520702421992765,1.9153397263001208,-2.0505936402773592,-1.0754282,0.29718593,0.7281514,203.38376,-57.40179,-31.337952
6887302550000.0,0.8290737058788061,1.215021649020199,-2.0313541464576423,-1.0635164,0.32436943,0.7312057,203.33838,-57.58476,-31.124472
6887308223000.0,1.0208455755659296,0.46603528314102,-2.010023508015503,-1.0442741,0.37812558,0.74097955,203.22511,-57.79503,-30.888683
6887312242000.0,1.3530873103408791,-0.2798134662247863,-1.94560930677354,-1.010982,0.44990227,0.7696902,203.09818,-58.01294,-30.650248
6887317226000.0,1.7651034352770192,-1.204747570937197,-1.8657286451686776,-0.9825767,0.4896085,0.8368854,202.91856,-58.241776,-30.392937
6887322216000.0,1.9572308066730744,-1.7883565118769738,-1.863011081992311,-0.89766645,0.55741453,0.88056225,202.70683,-58.480198,-30.13849
6887327549000.0,1.964243449045723,-2.10392563832212,-1.9296312211451323,-0.8426886,0.6606508,1.0015136,202.46388,-58.759304,-29.846462
6887332201000.0,1.9703606086777428,-2.3791980133873407,-1.987744269586709,-0.7156286,0.7654142,1.1191051,202.1887,-59.049862,-29.546711
6887337249000.0,1.841030058394026,-2.775986638950862,-2.0111294,-0.5522222,0.95386606,1.2308935,201.84805,-59.381752,-29.221355
6887342223000.0,1.634627630072831,-3.2239237467410344,-2.0111294,-0.4156938,1.1957687,1.3228287,201.4533,-59.751297,-28.873379
6887347218000.0,1.1689874014055106,-3.8098098565822434,-1.7982820107848596,-0.28099802,1.4682146,1.4056009,200.97565,-60.138523,-28.531559
6887352587000.0,0.3425520473350962,-4.611201694698024,-1.3009897424227663,-0.18753563,1.7486018,1.4694363,200.41805,-60.556705,-28.176653
6887357190000.0,-0.3659750405371553,-5.29825824728639,-0.8746466037990537,-0.15515977,2.007914,1.4905112,199.76717,-60.929436,-27.880703
6887362257000.0,-0.9992165232699548,-5.781925163652158,-0.4031539092558633,-0.1704314,2.2348504,1.4865406,199.04033,-61.31894,-27.579641
6887367238000.0,-1.51946882489142,-6.067373529099508,0.0618503960718077,-0.24220806,2.3561072,1.4639386,198.27005,-61.70988,-27.278734
6887372220000.0,-1.9502363162512268,-6.217833632777233,0.4730688707262022,-0.29840767,2.341141,1.3924674,197.45345,-61.82319,-27.227503
6887377199000.0,-2.296510765731109,-6.241230535230619,0.8333814128164867,-0.32498032,2.1688771,1.2733486,196.65497,-61.911354,-27.196081
6887382205000.0,-2.5794966920242954,-6.15004662142786,1.0765225128049387,-0.32895094,1.8985692,1.1065824,195.90086,-61.838562,-27.299097
6887387361000.0,-2.7958297301603103,-5.923880321716618,1.1896057139998009,-0.31978795,1.561677,0.90010995,195.23227,-61.715256,-27.44395
6887392162000.0,-2.958133847974487,-5.623372084019996,1.252499721548009,-0.29840767,1.212873,0.67347896,194.67084,-61.464294,-27.693441
6887397154000.0,-3.081752410842958,-5.207189491501465,1.2689821420961904,-0.28252518,0.8854492,0.4334089,194.22212,-61.144646,-28.002071
6887402268000.0,-3.191307520964611,-4.774477976720919,1.2799457743765863,-0.2660318,0.57451874,0.22082779,193.89262,-60.745678,-28.37725
6887407286000.0,-3.205659135836942,-4.315225963625504,1.2584183895326266,-0.25473082,0.2938262,0.02687807,193.67142,-60.276936,-28.813025
6887412252000.0,-3.219862029311632,-3.860733038748693,1.237114086396894,-0.20677789,0.047647487,-0.13836098,193.5532,-59.771793,-29.280207
6887417209000.0,-3.1404730286692666,-3.3847375749167696,1.189795072101208,-0.160963,-0.043066,-0.28099802,193.48692,-59.2109,-29.799213
6887422173000.0,-2.9550731295348616,-2.882800965499857,1.1129219155521737,-0.13255776,-0.18845193,-0.3359759,193.5266,-58.621815,-30.335861
6887427461000.0,-2.714882262231196,-2.469115363220596,1.0750108612619889,-0.07727446,-0.2938262,-0.4343252,193.59938,-58.035725,-30.876232
6887432233000.0,-2.438049123493185,-2.26610455861686,1.1026941462291773,-0.030543262,-0.3820962,-0.5149594,193.72058,-57.43368,-31.427479
6887437183000.0,-2.1552300617791595,-2.133819443746866,1.16389178784475,0.026572637,-0.48441613,-0.5873469,193.8926,-56.89549,-31.918884
6887442168000.0,-1.8775305152943536,-2.1290315239795405,1.2788019622505264,0.08002335,-0.5946773,-0.6435465,194.10379,-56.337444,-32.427883
6887447136000.0,-1.5823059028575144,-2.181812759144914,1.310057542173272,0.10170906,-0.68783426,-0.68569624,194.36125,-55.83144,-32.87962
6887452435000.0,-1.2346298550516002,-2.3402473446188536,1.1956325050559362,0.118202426,-0.7528914,-0.71593404,194.65292,-55.312527,-33.34238
6887457357000.0,-0.9448532560278264,-2.473660367869429,1.0858924759804296,0.08460484,-0.8014552,-0.7519751,194.9993,-54.817104,-33.765182
6887462192000.0,-0.9165350184504244,-2.4984388095787784,0.9513808243865148,0.065973446,-0.84788096,-0.7800749,195.3738,-54.313786,-34.19251
6887467170000.0,-0.8873792404441556,-2.523950098685116,0.8128908550722421,0.025045475,-0.91874135,-0.8210029,195.7778,-53.83754,-34.586136
6887472162000.0,-0.915128594237935,-2.521984917158957,0.606496554568754,0.018020526,-1.0082331,-0.88331115,196.21349,-53.344536,-34.991158
6887477443000.0,-1.0162512729437423,-2.485213068899391,0.3031286048441334,0.024740042,-1.0977248,-0.9767735,196.68524,-52.825306,-35.412968
6887482163000.0,-1.1157802515356687,-2.4120377593562945,-0.0026584920596604,0.027183503,-1.1505647,-1.1074986,197.16399,-52.284992,-35.86152
6887487199000.0,-1.248289958296536,-2.218005685212442,-0.4285825184437247,0.0290161,-1.1603385,-1.2641857,197.6751,-51.708324,-36.341236
6887492268000.0,-1.337443770117818,-1.984831020182376,-0.843088189097805,0.022602014,-1.1184943,-1.400714,198.14677,-51.101437,-36.874523
6887497166000.0,-1.2844498369835378,-1.640370514097805,-1.1989046085781148,0.007941248,-1.001819,-1.5039502,198.61205,-50.456512,-37.447906
6887503753000.0,-1.210834581231884,-1.172464910463768,-1.670830113768116,-0.048563786,-0.8604037,-1.5537357,198.97758,-49.814568,-38.057613
6887507223000.0,-1.144612334311594,-0.8714547566231883,-1.8424058981884055,-0.10354166,-0.72784597,-1.5833627,199.31387,-49.146133,-38.69959
6887512196000.0,-1.0497065032065218,-0.4400647004130434,-2.088298225543478,-0.15241088,-0.6722572,-1.6022996,199.51776,-48.58609,-39.276493
6887517174000.0,-0.9479242539620976,-0.0514621760280832,-2.267824352798508,-0.17165314,-0.5946773,-1.6032158,199.6621,-48.02086,-39.8667
6887522161000.0,-0.8400620009073057,0.3002626141437549,-2.38975557238806,-0.18173242,-0.51007247,-1.6258179,199.78194,-47.441425,-40.471775
6887527593000.0,-0.7506122671274859,0.8870668083533481,-2.6597779673839943,-0.20341812,-0.43401974,-1.6352862,199.69823,-47.065296,-40.909557
6887532234000.0,-0.6951028618753002,1.5403699094629648,-2.992834479152656,-0.22724187,-0.29840767,-1.6374242,199.55801,-46.685738,-41.356606
6887537153000.0,-0.6762021832777887,2.088490181248775,-3.2390850387080965,-0.29443705,-0.11575896,-1.6502525,199.18777,-46.526134,-41.599316
6887542163000.0,-0.7138259966477161,2.441213677131935,-3.337847597912174,-0.39370266,0.12003502,-1.6658295,198.76646,-46.351467,-41.857323
6887547130000.0,-0.7508761877726455,2.777901868167821,-3.3975227323710544,-0.5305365,0.36835176,-1.6832392,198.18504,-46.342064,-41.97693
6887554634000.0,-0.8061990282140108,3.2527561724018472,-3.388302315127021,-0.6606508,0.5858198,-1.7110336,197.57002,-46.29778,-42.12484
6887557260000.0,-0.825559073389787,3.418929866820631,-3.3850756605850654,-0.77488256,0.77366084,-1.7311921,196.91306,-46.268265,-42.257156
6887563020000.0,-0.8870564609153566,3.861821947138543,-3.333266556191435,-0.8552113,0.9266826,-1.7486018,196.22606,-46.20599,-42.41534
6887567227000.0,-0.9556982938434136,4.283033088027569,-3.239664080438318,-0.9111055,0.9935723,-1.7574593,195.53429,-46.117104,-42.590103
6887572134000.0,-1.0357613968094168,4.774329277317432,-3.130487149485015,-0.88606006,0.9083566,-1.7492126,194.90628,-46.069298,-42.71341
6887577601000.0,-1.2337963168704948,5.76898711729975,-2.82831958449016,-0.7171558,0.65209866,-1.7379116,194.34804,-46.008717,-42.84101
6887582269000.0,-1.4437957126427472,6.786398151850652,-2.502458364469102,-0.3680463,0.30695978,-1.7208074,193.88104,-45.94943,-42.962994
6887587246000.0,-1.7810178515269783,7.984368485608352,-1.6119132963215923,0.15821409,0.12889257,-1.7073684,193.54362,-45.961063,-43.015682
6887592221000.0,-2.5201625671089865,9.583523961752366,1.2052041175724455,0.98471475,0.23151793,-1.6902641,193.24802,-46.002533,-43.0647
6887597212000.0,-3.4282089668993763,11.038472341710882,3.4637045681839336,1.8133535,0.64476824,-1.6410894,193.04988,-46.205406,-42.9649
6887602481000.0,-5.292929941366471,11.76181535585963,2.7591500537093925,2.519819,1.4694363,-1.6032158,192.67574,-46.426086,-42.892025
6887607611000.0,-6.991132201179284,12.334101246288968,2.1489056888504043,2.790127,2.409558,-1.7583756,192.63196,-46.63681,-42.773277
6887612215000.0,-7.463827948993898,11.665054732187036,2.279806073148606,2.5189028,2.384207,-1.8371773,192.63145,-46.859127,-42.635693
6887617171000.0,-7.972663771359064,10.944856095373575,2.4207144798779483,2.287385,1.4315627,-1.8173242,192.4554,-46.905956,-42.690228
6887622161000.0,-9.194812317531348,11.539358195217453,1.8906035708432385,1.8347337,0.20525073,-1.7626517,192.41776,-46.89805,-42.75942
6887627470000.0,-11.043399906003824,13.19123710075514,0.8075208730247516,1.3494014,-0.52595496,-1.749518,192.56343,-46.86138,-42.829517
6887632207000.0,-12.692817763716032,14.66513997804503,-0.1588687934974131,0.8597928,-0.42149702,-1.7889189,192.8224,-46.60693,-43.087994
6887637171000.0,-14.421276755838344,16.20967320220948,-1.171568456705356,0.29871312,0.5018258,-1.8387043,193.02243,-46.345924,-43.340805
6887642160000.0,-15.708059473225456,17.39316990181994,-1.434165142758565,-0.103847094,1.5632042,-1.7195857,193.09734,-46.119278,-43.558617
6887647354000.0,-15.888712624187889,17.676193751543522,0.2358759444453408,-0.027183503,2.564107,-1.3530666,192.80847,-45.950783,-43.742718
6887652251000.0,-16.059035781727935,17.9430339117469,1.81042180583108,0.36743546,3.3744197,-0.6835582,191.79964,-45.84722,-43.926025
6887657263000.0,-16.23335876837093,18.216140483717364,3.421943933106008,0.6133087,3.429703,0.011911872,190.71147,-45.842587,-43.99902
6887662238000.0,-16.406394853476453,18.48723090581494,5.021569348747024,0.4981606,2.821892,0.30787608,189.60202,-45.89994,-43.9978
6887667240000.0,-16.557647830642352,18.63622955430364,6.240671649819956,0.25320363,1.969735,0.4071417,188.60385,-46.081974,-43.85645
6887672231000.0,-16.66591409373911,18.55294814792659,6.726478655552329,0.09468412,0.93034774,0.3933972,187.95586,-46.29595,-43.66344
6887677650000.0,-16.783464660703917,18.462524998025323,7.253945729097456,0.10781772,-0.08307768,0.34880406,188.17805,-46.561108,-43.385353
6887682977000.0,-16.936757001540702,18.396913651117007,7.625146004964479,0.23304509,-0.82863873,0.36041048,188.64427,-46.809666,-43.11282
6887687263000.0,-17.66401559214243,18.71662657930326,5.566336574681161,0.39003745,-1.1695015,0.47586402,189.2864,-47.05469,-42.83285
6887692170000.0,-18.496646927672685,19.0826628225627,3.2092255447231013,0.49663344,-1.0442741,0.6640105,190.06142,-47.274048,-42.565636
6887697160000.0,-18.94680630626927,19.280669948454424,1.7872885791762196,0.59895337,-0.61575216,0.86009824,190.78107,-47.518143,-42.272728
6887702951000.0,-19.09587843062693,19.34643710253775,1.0550803809945453,0.6603453,-0.25289822,1.035722,191.41707,-47.79902,-41.944103
6887707346000.0,-19.20544612324558,19.394891926085872,0.5321208410862885,0.6588182,-0.112399206,1.1313224,191.7031,-48.062534,-41.67073
6887712239000.0,-19.27160422954904,19.426024913545387,0.4620711966863217,0.6072,-0.14263703,1.1725558,191.90584,-48.352543,-41.376728
6887717196000.0,-19.33862767793373,19.457565117681256,0.3911053092367743,0.57787853,-0.36682457,1.1774428,192.08954,-48.64053,-41.09245
6887722159000.0,-19.10456546294359,19.47909321702744,0.3426673507025026,0.50823987,-0.68569624,1.210124,192.32005,-48.938328,-40.792477
6887727645000.0,-18.639511411281887,19.49600459451195,0.3046175194994769,0.47739118,-1.0641272,1.2229522,192.65674,-49.225845,-40.495975
6887732245000.0,-18.09374365572976,19.509634664134477,0.249749255033134,0.47433686,-1.4495832,1.2250903,193.11404,-49.50154,-40.205006
6887737196000.0,-16.607003248424114,19.52112991465977,0.0581589428188136,0.48258355,-1.785559,1.2415836,193.68336,-49.780457,-39.901676
6887742133000.0,-15.124466914174882,19.532592659932117,-0.1328896072523032,0.50976706,-2.0207422,1.2617421,194.36525,-50.086147,-39.56511
6887747171000.0,-14.128032937219128,19.41887891870682,-0.3231274506311623,0.5381723,-2.154827,1.3136657,195.115,-50.402603,-39.21134
6887754401000.0,-13.097021552820443,19.15880404916493,-0.5924907824978201,0.552833,-2.1529946,1.3857478,195.88077,-50.72796,-38.846127
6887757209000.0,-12.696595554564356,19.057795718089743,-0.6971065827580655,0.552833,-2.025629,1.4630222,196.67679,-51.173496,-38.365078
6887762243000.0,-11.687636151452864,18.43743217462394,-0.944218738157526,0.5027421,-1.7803668,1.5378532,197.41063,-51.631916,-37.874367
6887767401000.0,-10.515358604970569,17.59283919228254,-1.225749876847613,0.43463063,-1.4645494,1.5836681,198.05792,-52.096863,-37.383953
6887772168000.0,-9.212937847640752,16.241501054275343,-1.190233755465519,0.34208453,-1.1377366,1.5882497,198.6177,-52.612274,-36.854103
6887777630000.0,-7.521863320503081,14.175121843167046,-0.8811600285304297,0.25411993,-0.90102625,1.4957036,199.09457,-53.102062,-36.356026
6887782399000.0,-6.21839599894535,12.596530534995209,-0.6360267037296261,0.22602014,-0.72204274,1.344209,199.49248,-53.59675,-35.866173
6887787240000.0,-5.522013043384468,11.811247696788111,-0.476747619682806,0.18509217,-0.51068336,1.2000448,199.79984,-54.055153,-35.418022
6887792135000.0,-4.817862130872483,11.017205248322147,-0.3156918220357941,0.11362094,-0.28527406,1.069625,200.0777,-54.4632,-35.01753
6887797165000.0,-4.025539461681797,10.218123039655996,-0.1153883875203057,0.06078109,-0.050396383,0.9767735,200.28384,-54.835384,-34.659744
6887802629000.0,-3.125493526596592,9.359745956681,0.1221237344800127,-0.017715093,0.16218472,0.9101892,200.42554,-55.16913,-34.34278
6887807264000.0,-2.3985466433158336,8.643525158943925,0.3171174102640188,-0.09865474,0.27091873,0.88178396,200.54651,-55.485664,-34.041187
6887812245000.0,-1.7960552826645364,7.932149828045348,0.4949612429886632,-0.21410827,0.44012842,0.8756753,200.57866,-55.78075,-33.764206
6887818034000.0,-1.095829928958381,7.105377735981131,0.7016542660047173,-0.28160888,0.5858198,0.86376345,200.57764,-56.09834,-33.45886
6887822166000.0,-0.4757879056758139,6.233652353366286,0.5554417066183739,-0.3943135,0.6881397,0.8918633,200.53702,-56.415394,-33.150593
6887827645000.0,0.4409175549803987,4.856358385784898,0.1306270120393727,-0.52564955,0.73456544,0.9642508,200.47002,-56.734455,-32.838963
6887832240000.0,1.071834695960155,3.7981733876828208,-0.2373797396355443,-0.64812803,0.7657196,1.0934488,200.33478,-57.109516,-32.46157
6887837259000.0,1.1706342803541785,3.0571765444066723,-0.6895778273665902,-0.818254,0.81336707,1.2021828,200.18086,-57.489307,-32.07305
6887842146000.0,1.2668354297731046,2.3356679624001897,-1.129883078361135,-0.9963212,0.77304995,1.2834278,199.99663,-57.926605,-31.623005
6887847159000.0,1.4197511358711568,1.6517817826647143,-1.4126701929721817,-1.1282681,0.66798115,1.3127494,199.81952,-58.374794,-31.155302
6887852699000.0,1.622582459443631,0.9310830835269236,-1.619817074703107,-1.2110404,0.5177083,1.3643675,199.6704,-58.84576,-30.655201
6887857236000.0,1.7865567171680836,0.3803969876054611,-1.7641468870094834,-1.2287555,0.39614612,1.4337007,199.5097,-59.300514,-30.174799
6887862223000.0,1.958353648593852,-0.0686175990729234,-1.8227140078973183,-1.2339478,0.2938262,1.5247196,199.39227,-59.771984,-29.669273
6887867136000.0,2.127601357455853,-0.5109694467470569,-1.880412075858404,-1.1814134,0.22113322,1.6279559,199.26682,-60.26407,-29.143162
6887872182000.0,2.09717401978022,-1.1836124753252588,-1.5635759685249058,-1.0827587,0.18203785,1.704314,199.16306,-60.777397,-28.594675
6887877340000.0,1.9901936989010989,-1.952285822903666,-1.0999946470040909,-0.9786061,0.18692477,1.7504344,199.06786,-61.315556,-28.022482
6887882158000.0,1.8362705687792515,-2.590528061934477,-0.6604747588728549,-0.8915578,0.22693644,1.7608191,198.96275,-61.867863,-27.439146
6887888126000.0,1.4461762871879875,-3.086505172698908,-0.0920516561895475,-0.84971356,0.30024028,1.7550159,198.84683,-62.4346,-26.84533
6887892162000.0,1.135249376187606,-3.4537693157845166,0.2391315453324543,-0.870483,0.38545597,1.736079,198.70255,-62.903446,-26.328295
6887897181000.0,0.5603406141683933,-4.037731620192126,0.4383125267140704,-0.97494096,0.44348818,1.7415768,198.544,-63.374065,-25.805439
6887902362000.0,-0.0699819314667918,-4.66388453121333,0.5727316927552217,-1.1383474,0.4908302,1.7394388,198.35263,-63.731274,-25.36866
6887907267000.0,-0.9666191239568176,-5.446604731401079,0.1207383294484862,-1.3338243,0.5290093,1.6832392,198.14725,-64.05869,-24.947771
6887912255000.0,-1.878428770468591,-6.242569738238285,-0.3389034434717985,-1.4776831,0.6722572,1.6096299,197.86313,-64.22153,-24.669361
6887917226000.0,-2.7429559473466574,-6.793034425105838,-0.671605045928916,-1.4749341,0.82527894,1.426065,197.56935,-64.32137,-24.444849
6887922193000.0,-3.567211968090972,-7.125546980771881,-0.8917188465885597,-1.3924674,0.88361657,1.2608259,197.2614,-64.38677,-24.243042
6887927529000.0,-4.35333580029035,-7.220586961520068,-0.985198244940222,-1.2284501,0.8237518,1.1181889,196.87727,-64.18463,-24.344612
6887932237000.0,-4.9655415251067465,-7.089674890264731,-0.9505450933603758,-0.9578367,0.6569856,0.9593639,196.516,-63.938946,-24.504974
6887937226000.0,-5.583457348734873,-6.882089177117711,-0.8949309962046205,-0.6200282,0.43035457,0.8029824,196.15741,-63.523758,-24.868105
6887942160000.0,-6.023308062604722,-6.294288650723534,-0.7349852839680122,-0.32162055,0.19883664,0.62949663,195.86172,-63.07407,-25.282812
6887947155000.0,-6.468596736252857,-5.69922103229246,-0.5730621318354913,-0.01863139,-0.035124753,0.43249258,195.62569,-62.4914,-25.858925
6887952649000.0,-5.99552595149122,-5.335235091870297,-0.4858679056396915,0.26725355,-0.2284636,0.22602014,195.46155,-61.878605,-26.48541
6887957150000.0,-5.402794476344885,-5.098943423041903,-0.4338036263012171,0.52198434,-0.33658674,0.020158553,195.35739,-61.23044,-27.16748
6887962188000.0,-4.61327790517065,-4.873409101850647,-0.4145956594029573,0.6914995,-0.35246924,-0.15363261,195.2991,-60.51272,-27.930359
6887967181000.0,-3.755035346693946,-4.673300778043337,-0.4190425172342602,0.75961095,-0.28008172,-0.310625,195.26001,-59.75066,-28.750135
6887972175000.0,-2.969578141238012,-4.475132279773322,-0.4055489620575414,0.7663304,-0.16584991,-0.47433686,195.25038,-59.077488,-29.483952
6887977670000.0,-2.1942033636442897,-4.259495448910201,-0.3688448245074106,0.7309003,-0.029321533,-0.6404922,195.21982,-58.35412,-30.273428
6887982209000.0,-1.565539810893202,-4.028043074778986,-0.347491816982014,0.66737026,0.08307768,-0.799928,195.1952,-57.746628,-30.944374
6887987178000.0,-0.9272404300884056,-3.5493186275378514,-0.361998620861701,0.6026186,0.17287487,-0.93309665,195.1402,-57.08823,-31.667288
6887992166000.0,-0.2980649875373878,-3.034577801096709,-0.3664775614955134,0.5332854,0.22602014,-1.0564915,195.09564,-56.526325,-32.285583
6887997166000.0,0.2891469765702891,-2.3900768539381856,-0.3330589971884347,0.47311515,0.26633725,-1.1554517,195.02997,-55.921787,-32.94479
6888002336000.0,0.8362054691912444,-1.717778549388552,-0.1963703024375706,0.44929138,0.25473082,-1.2186762,194.98666,-55.438187,-33.47984
6888007258000.0,1.1655979901654503,-1.0589934568595212,0.2589664718836707,0.4804455,0.110872045,-1.2336423,194.9757,-54.933735,-34.029835
6888012295000.0,1.398809944969296,-0.4540121096721776,0.6617578206027397,0.5164866,-0.16615535,-1.244638,195.04135,-54.57661,-34.422535
6888017166000.0,1.3679606617855455,-0.0397493944487482,0.8953314787945206,0.56596667,-0.5036584,-1.235475,195.1759,-54.22099,-34.80646
6888022207000.0,1.3016011701322885,0.3703563816413522,1.0908457040176385,0.6386596,-0.82558435,-1.1994339,195.47263,-53.98777,-35.03689
6888027503000.0,1.0232815849250367,0.6884358594032337,1.0162958243900049,0.69058317,-1.1071932,-1.1670581,195.87384,-53.759228,-35.250484
6888032259000.0,0.7710801276128187,0.9470023876062786,0.9301358592787068,0.70921457,-1.3170254,-1.1145236,196.39627,-53.592857,-35.380184
6888037231000.0,0.4908035123610202,1.0181837703400916,0.6987964199775765,0.7351763,-1.45783,-1.0699304,196.99373,-53.440178,-35.488647
6888042636000.0,0.1924806621722846,1.0897115122347063,0.4426493398626716,0.7244862,-1.5500705,-1.0125091,197.62073,-53.310005,-35.571808
6888047210000.0,0.044044426142322,1.0545555459247369,0.1496830899072588,0.70921457,-1.5732834,-0.9816604,198.27246,-53.190243,-35.64111
6888052073000.0,-0.1137704876779025,1.017178312832174,-0.1617937079793115,0.68416905,-1.5531249,-0.93828905,198.85469,-53.0886,-35.707363
6888057154000.0,-0.1945505629278861,0.942075014144228,-0.4913693302290313,0.65148777,-1.475545,-0.89675015,199.42001,-52.99877,-35.761757
6888062212000.0,-0.2395268697988239,0.8521224004023522,-0.8211956449736924,0.59895337,-1.3768903,-0.8546005,199.96495,-52.92324,-35.800674
6888067056000.0,-0.2204187441042345,0.8153208092814135,-1.0478233266725892,0.53878313,-1.2800682,-0.80848014,200.21123,-53.010757,-35.71391
6888072099000.0,-0.1822816726058632,0.7914851402171553,-1.2575772522692723,0.4896085,-1.1734722,-0.7651087,200.42502,-53.10166,-35.625774
6888077063000.0,-0.1297519769775703,0.8101659805805338,-1.4150463776819242,0.44776422,-1.0436633,-0.71959925,200.56056,-53.179916,-35.573463
6888082142000.0,-0.0705124344301228,0.8447223718085862,-1.5582085573936872,0.40439278,-0.9056077,-0.677755,200.66423,-53.26105,-35.518044
6888087062000.0,0.006447508829908,0.9763932093462768,-1.6950107107611276,0.35430184,-0.7467828,-0.63316184,200.70679,-53.3495,-35.468925
6888092056000.0,0.0904144370215842,1.1393878692450683,-1.833309181937416,0.3118467,-0.5354234,-0.57604593,200.6925,-53.445396,-35.415653
6888097060000.0,0.1820202973156498,1.367029512944297,-2.0426186100265253,0.24037547,-0.40561453,-0.516792,200.67076,-53.542603,-35.362785
6888102096000.0,0.2758340489195402,1.6100923868965518,-2.26862453862069,0.1600467,-0.12064589,-0.48288897,200.53313,-53.640167,-35.319443
6888107134000.0,0.3761930339592854,1.9376939538014124,-2.563134731948484,0.118202426,0.21319197,-0.39064834,200.36554,-53.77075,-35.251835
6888112120000.0,0.4803422881262982,2.324534068820108,-2.905339375384296,0.0012217305,0.5842926,-0.29138273,200.09698,-53.898518,-35.187054
6888117105000.0,0.5796484050075934,2.792493836245824,-3.2231486234686644,-0.103847094,0.9801333,-0.17867808,199.72488,-54.090477,-35.077293
6888122104000.0,0.6765897094360636,3.3062826748101646,-3.5285137303938443,-0.20341812,1.3674219,-0.07360926,199.24051,-54.29458,-34.95651
6888127107000.0,0.6867612327603048,3.761372677905841,-3.660927563625708,-0.31306845,1.6667458,0.027183503,198.66849,-54.574253,-34.771404
6888132156000.0,0.6537007378101192,4.191158816360618,-3.708156771674155,-0.36835176,1.7846428,0.087964594,198.04735,-54.859146,-34.576195
6888137155000.0,0.556870806755431,4.520448408319151,-3.525550568265092,-0.34880406,1.6643023,0.08155051,197.43689,-55.21962,-34.307194
6888142126000.0,0.4234263844569026,4.792103182370608,-3.211003016347983,-0.22296582,1.4107933,0.028405234,196.86142,-55.570942,-34.03796
6888147101000.0,0.2623241642411988,5.499277106731684,-2.73850666808595,-0.042455133,1.0946705,-0.079107046,196.41156,-55.926872,-33.75318
6888152160000.0,0.0817734145642245,6.482702542768792,-2.1622808319854108,0.15943582,0.73731434,-0.22327125,196.09384,-56.247173,-33.493008
6888157181000.0,-0.115827398921878,7.354005600134694,-1.6997606848085434,0.45570546,0.32467487,-0.3173445,195.98418,-56.52894,-33.257072
6888162196000.0,-0.4531394380011545,7.427936851722148,-2.069417666480662,1.0558805,0.16279559,-0.35124752,195.93175,-56.790977,-33.04684
6888167373000.0,-0.8948501957529641,7.609051674004601,-2.4048529319589456,1.5968018,0.23579398,-0.45356745,196.05194,-57.075825,-32.80059
6888172120000.0,-2.3791136955937,8.984710769279774,-2.179598835657406,1.5839735,0.26847526,-0.5635232,196.25095,-57.33957,-32.56773
6888178507000.0,-4.446726874904846,10.852928189545802,-1.923898068561279,1.3839152,0.0036651916,-0.84971356,196.50313,-57.459274,-32.481358
6888182179000.0,-6.811354802841918,12.215191738898756,-2.566363058969805,1.2153164,-0.77274454,-1.5830573,196.93477,-57.411827,-32.5502
6888187137000.0,-10.004117675040176,14.054544319969551,-3.43383076660746,1.1545353,-1.7595973,-2.8958068,197.5142,-56.98,-32.991592
6888192126000.0,-12.732598770771514,15.62701121884273,-5.612911014985164,1.2690725,-2.1099286,-4.3343945,198.14308,-56.31719,-33.661324
6888197122000.0,-14.745608205701568,16.78816770930479,-9.735269559368376,1.3435981,-1.7116444,-5.159368,198.84511,-55.487347,-34.494736
6888202648000.0,-16.250868090114984,17.654358135840983,-11.294672696987254,1.4947872,1.8881844,-5.0454416,198.23395,-54.229294,-35.769714
6888207280000.0,-17.037711078616635,18.10511255174258,-10.626448998261878,1.8445076,7.3199983,-3.9532144,196.78903,-126.91931,-36.902573
6888212876000.0,-17.785982140635934,18.271051075954286,-7.696210719077976,2.117259,9.962907,-2.5867088,194.63155,-128.05518,-37.921513
6888217227000.0,-18.106684632511858,17.911475411257094,-2.678345975355671,1.3603969,9.861503,-2.03693,191.53638,-129.09903,-38.70535
6888222132000.0,-18.468221227007696,17.50611603747182,2.978428689769105,-0.17989981,5.984341,-2.0512855,189.01009,-129.92444,-39.25773
6888227574000.0,-18.36157064112796,17.49563930247406,5.340673560654429,-1.4272866,2.0115793,-2.1615467,186.65714,-130.57558,-39.627285
6888232240000.0,-18.10400677910792,17.63036493216281,6.085627955174249,-1.7580702,0.07269296,-1.921782,185.03798,-131.08182,-39.952213
6888237224000.0,-17.78802837720808,17.900068592082615,5.597602284364526,-1.9297233,-0.38789943,-1.3402383,185.0382,-131.37653,-40.45004
6888242162000.0,-17.428178840293505,18.311324950086057,3.644131586783223,-1.8008307,-0.089186326,-0.7147123,185.42516,-131.61967,-40.9106
6888247277000.0,-16.79315665891772,18.68568478672712,1.8022244820681008,-1.3283265,0.1591304,-0.2687807,186.0382,-131.74458,-41.230564
6888252185000.0,-15.464723396450276,18.903312712260057,0.5327317215780845,-0.6740898,-0.0070249503,0.1020145,186.66315,-131.75464,-41.388752
6888257235000.0,-14.25922802240074,19.102856468716208,-0.5403713058458212,-0.2180789,-0.2648101,0.59315014,187.07129,-131.5982,-41.31421
6888262203000.0,-13.788817596323188,19.191058615479687,-0.5624217811370308,-0.026572637,-0.50915617,1.1404854,187.51921,-131.3467,-41.12431
6888267160000.0,-13.31944873922447,19.27906546763479,-0.5844234329120964,-0.05589417,-0.8081747,1.641395,188.02483,-130.8976,-40.714672
6888272216000.0,-13.249819303565364,19.34521853921901,-0.3273739709745331,-0.14049901,-1.1038336,2.098933,188.6154,-130.3248,-40.177563
6888277575000.0,-13.48508213310696,19.39749881417657,0.156221442950764,-0.17592919,-1.4382823,2.4556782,189.31801,-129.65723,-39.545517
6888282195000.0,-13.852657225626082,19.42179208717908,0.4067616212309025,-0.14294247,-1.7082846,2.7140744,190.09521,-128.86458,-38.783916
6888287186000.0,-14.78617900677272,19.380385810993857,0.1357390523720271,-0.051923547,-1.8894062,2.8735101,190.93756,-128.02136,-37.967834
6888292157000.0,-15.715959967317689,19.339145458576155,-0.1341974713301307,0.10629055,-2.0112739,2.9352076,191.83281,-127.16987,-37.13888
6888297161000.0,-16.31023390078438,18.746762223548064,-0.397861817569259,0.31306845,-2.0589213,2.9342911,192.73317,-126.3152,-36.299442
6888302195000.0,-16.748723276785714,17.89392138392857,-0.6593460459821429,0.44104472,-2.0818288,2.9269607,193.63658,-125.466934,-35.460835
6888307221000.0,-17.057478625621066,16.906835595644253,-0.8237893738406757,0.74189585,-1.9914207,2.891225,194.42531,-124.73346,-34.73084
6888312308000.0,-17.06151292497516,15.58361194617423,-0.759241890046373,0.9129381,-1.745242,2.7855456,195.14716,-124.03756,-34.03669
6888317169000.0,-17.06536799263001,14.31917511502153,-0.6975620554239814,0.9450085,-1.5048665,2.6041186,195.76535,-123.4801,-33.47971
6888322171000.0,-16.778894047925238,12.877477856052812,-0.2949383962585734,0.97524637,-1.3362677,2.3441954,196.31764,-122.98649,-32.98607
6888327160000.0,-16.45119365312071,11.419212061556928,0.1556493835459533,1.0348058,-1.318858,2.042428,196.83623,-122.56651,-32.565834
6888332266000.0,-15.780042936812354,9.927760312809124,0.6562398583446049,1.1059716,-1.4159856,1.7498235,197.28772,-122.30593,-32.304787
6888337236000.0,-14.857607274654285,8.476845693045322,1.1751099854062783,1.1652255,-1.568702,1.5201381,197.75026,-122.118546,-32.116737
6888342217000.0,-13.836579510446894,7.391927604643064,1.5457510280325013,1.2046263,-1.72264,1.3836098,198.21843,-122.05034,-32.048332
6888347182000.0,-12.74651587362159,6.587028488276262,1.8033188317179336,1.1881329,-1.8301523,1.2776246,198.71677,-122.04045,-32.038437
6888352779000.0,-11.337225369841269,5.736898897896825,1.8558141648412696,1.1145236,-1.8689423,1.1777482,199.22926,-122.07367,-32.072266
6888357294000.0,-10.080369411507936,5.089167546855158,1.7399946502579366,1.0057896,-1.7944167,1.073901,199.73157,-122.140045,-32.139236
6888362171000.0,-8.625972534224381,4.456302821709194,1.371298664803564,0.82253003,-1.5558738,0.9795224,200.19609,-122.18459,-32.18442
6888367214000.0,-7.017089272498987,3.874366306490482,0.7257892929566626,0.5888741,-1.2321151,0.9034697,200.59998,-57.74254,-32.257442
6888372160000.0,-5.592533627558615,3.326962930359137,0.0941508316244882,0.36743546,-0.88453287,0.8668178,200.93571,-57.724213,-32.275444
6888377163000.0,-4.304220444436174,2.796481034164496,-0.5433189627688874,0.17256944,-0.5439755,0.84757555,201.15883,-57.683384,-32.315525
6888382294000.0,-2.8319929535401527,2.025796796488211,-1.10442094018791,-0.02076942,-0.26053402,0.85154617,201.31042,-57.729706,-32.268974
6888387310000.0,-1.137361655486616,0.8889461478372629,-1.4961447532706966,-0.21655174,-0.06505715,0.8707884,201.3721,-57.769478,-32.228863
6888392208000.0,0.4019962810447325,-0.1291912325933145,-1.8296852878471883,-0.4279111,0.00061086525,0.9007208,201.39456,-57.91473,-32.083702
6888397180000.0,0.9588528964545366,-0.3612148433447033,-1.7415163335932171,-0.5849035,-0.019242255,0.9761627,201.37997,-58.073593,-31.924755
6888402380000.0,1.5183441706728955,-0.5878395946469747,-1.659528364554291,-0.6404922,-0.14263703,1.0711522,201.40462,-58.37311,-31.624977
6888407276000.0,1.8009938550674405,-0.6302370362384146,-1.6913264291462586,-0.71837753,-0.3399465,1.128879,201.46051,-58.682545,-31.314514
6888412249000.0,2.088088806148745,-0.6733012676588049,-1.7236245858488433,-0.745561,-0.54733527,1.2596041,201.57736,-59.08797,-30.907125
6888417220000.0,2.348283596475907,-0.7128202321278125,-1.8135045899106133,-0.73456544,-0.73426,1.4080443,201.75137,-59.51652,-30.4753
6888422243000.0,2.570691229774992,-0.7474169510017467,-1.9914307791225725,-0.677755,-0.87689704,1.5711454,201.97704,-59.988552,-29.998648
6888427251000.0,2.714290070304367,-0.8241629863431849,-2.143828518623732,-0.6059783,-0.9114109,1.7324139,202.23732,-60.545395,-29.436356
6888432277000.0,2.765246926202029,-0.9515552591089546,-2.266974342390825,-0.5412266,-0.8707884,1.8759671,202.51704,-61.147972,-28.827639
6888437297000.0,2.816023509721552,-1.105856879832609,-2.3608471363592467,-0.5122105,-0.7357872,1.9978348,202.77863,-61.822247,-28.148605
6888442203000.0,2.865177752615484,-1.362970919491389,-2.3381604989377114,-0.5235115,-0.5216789,2.0683897,203.00058,-62.528336,-27.438772
6888447183000.0,2.9150734170288106,-1.6239631570577822,-2.31513166600676,-0.58001655,-0.25228736,2.1108449,203.15828,-63.267857,-26.697742
6888452250000.0,2.95171229875314,-1.9864529252332253,-2.0565280814585574,-0.6966918,0.046120327,2.1114557,203.24031,-64.02021,-25.944883
6888457232000.0,2.981671109750628,-2.384478035046645,-1.7013014262917114,-0.8668178,0.33444872,2.0650299,203.24332,-64.77526,-25.189856
6888462236000.0,2.9410750761818005,-3.133907903566977,-1.4566699988589509,-1.0274754,0.61758476,2.0015,203.15463,-65.517395,-24.447945
6888467230000.0,2.821841111468021,-4.271216342727011,-1.3374360820308755,-1.2305881,0.9068295,1.8719965,202.97856,-66.230034,-23.734564
6888472160000.0,2.676092435868332,-5.068087420204313,-1.228755413166856,-1.4321736,1.2009611,1.706452,202.71347,-66.88428,-23.074707
6888477253000.0,2.4777089575766174,-5.335674516978812,-1.1318704340049186,-1.6303993,1.4776831,1.5063937,202.36836,-67.492714,-22.458582
6888482189000.0,2.267130370477976,-5.532384434051859,-1.015742913683224,-1.8005253,1.6902641,1.2983941,201.93643,-67.953186,-21.985203
6888487319000.0,1.995981904686036,-5.557964452796002,-0.8315666184629803,-1.8982637,1.7605137,1.094976,201.46692,-68.35567,-21.566257
6888492209000.0,1.706637309088455,-5.549792577971745,-0.6764200349248628,-1.87444,1.7449366,0.8888089,200.9513,-68.64239,-21.258377
6888497192000.0,1.3545145310537208,-5.481085738198506,-0.5561829890947538,-1.7504344,1.6074919,0.7883216,200.4536,-68.898,-20.97802
6888502224000.0,0.9966902948312458,-5.402834574487802,-0.4540784848193731,-1.6471981,1.3417655,0.57971114,199.99529,-69.0092,-20.832846
6888507261000.0,0.6230200921032361,-5.26314474036053,-0.4855086902048794,-1.4052955,1.0467176,0.38759398,199.58983,-69.1002,-20.710918
6888512193000.0,0.2571393218323318,-5.126366844407443,-0.5162837096532252,-1.1386528,0.795652,0.2171626,199.24263,-69.06913,-20.705654
6888517211000.0,-0.1753451431665268,-4.917429011661074,-0.5981045382969798,-0.91904676,0.65484756,0.050701816,198.9548,-68.98625,-20.754833
6888522185000.0,-0.7098406228053691,-4.587740232214766,-0.7679442093959732,-0.75808376,0.6160576,-0.1020145,198.71515,-68.86277,-20.8497
6888527229000.0,-1.146689645247857,-4.298976006559822,-0.884410784010436,-0.6411031,0.6374379,-0.22235495,198.4865,-68.62867,-21.062592
6888532283000.0,-1.457878769716735,-4.064456749645919,-0.9340206539880732,-0.5589417,0.68752885,-0.3475823,198.26318,-68.350685,-21.3254
6888537937000.0,-1.699695473030001,-3.790678400890049,-0.8289335182122305,-0.50701815,0.7272351,-0.5009095,198.02333,-67.96647,-21.706059
6888542222000.0,-1.7626688627714264,-3.570271454599862,-0.5675938965364843,-0.45814893,0.73548174,-0.68111473,197.77885,-67.537315,-22.136696
6888547131000.0,-1.834812706468196,-3.3177679074963558,-0.2681968830461136,-0.3924809,0.67347896,-0.8921687,197.53667,-67.012886,-22.668505
6888552193000.0,-1.7096334675410454,-3.025601302311757,-0.0777440068654463,-0.31123585,0.54183745,-1.1087204,197.31427,-66.4324,-23.258808
6888557288000.0,-1.4932425966220042,-2.7171293396301186,0.0603777990413285,-0.24801129,0.36682457,-1.2965615,197.12506,-65.79563,-23.905947
6888562213000.0,-1.2487295719863896,-2.3464612676016183,0.0790046916404267,-0.20586158,0.19425514,-1.4401149,196.99164,-65.09986,-24.599281
6888567308000.0,-0.9705231084679052,-1.9112026894794925,0.0161838692264116,-0.18936823,0.047036625,-1.5228871,196.90671,-64.36352,-25.332287
6888572216000.0,-0.7545007671052631,-1.5185050427435192,-0.0959636657647289,-0.17715092,-0.041233405,-1.5473217,196.87602,-63.668423,-26.019154
6888577160000.0,-0.6103747102631578,-1.1605145127356638,-0.2819327626916731,-0.15088372,-0.0870483,-1.5332718,196.87985,-62.957085,-26.721432
6888582229000.0,-0.4945615708970587,-0.83860635590021,-0.4831589487268907,-0.13591751,-0.09407325,-1.4975362,196.91084,-62.3512,-27.320429
6888587214000.0,-0.4343846302352941,-0.5978985461260504,-0.6987930201344539,-0.10934488,-0.074830994,-1.4532484,196.94751,-61.750523,-27.915249
6888592161000.0,-0.3858177405515947,-0.4200390973714821,-0.8940182708649156,-0.0729984,-0.054061573,-1.3906348,196.97812,-61.244987,-28.423214
6888597167000.0,-0.3498391395534709,-0.3121032849849906,-1.0694140188236398,-0.054367006,0.013744468,-1.3646729,196.9852,-60.741093,-28.93129
6888602199000.0,-0.3240743738080974,-0.2071418328231713,-1.2167283127065418,-0.016187929,0.09315695,-1.3170254,196.958,-60.322033,-29.363432
6888608068000.0,-0.3186432832119045,-0.0930890817209392,-1.319918875243985,0.03848451,0.20891592,-1.2525792,196.89143,-59.91757,-29.784058
6888612179000.0,-0.3225592118245096,-0.0004645978242986,-1.3564342136258174,0.10262536,0.24495697,-1.2443326,196.79782,-59.56257,-30.159859
6888617240000.0,-0.3481172297996203,0.1477718930876397,-1.3053181670006329,0.118507855,0.3182608,-1.2275337,196.64749,-59.23018,-30.515062
6888622130000.0,-0.3694864228276659,0.2811784113816441,-1.234740951485639,0.1459968,0.38362336,-1.2174544,196.47093,-58.944374,-30.823807
6888627195000.0,-0.3855004595807197,0.4012837162925058,-1.1226426691317268,0.16371189,0.4156938,-1.215011,196.2779,-58.663033,-31.127281
6888632695000.0,-0.40222588,0.5332512527286702,-0.9997248849859084,0.19242255,0.41508293,-1.2064588,196.04947,-58.48955,-31.30983
6888637248000.0,-0.40222588,0.6747596359364592,-0.8731121337518148,0.22785273,0.41722095,-1.1945469,195.81273,-58.31519,-31.49405
6888642234000.0,-0.40222588,0.8297257678657444,-0.7344582401315227,0.25870144,0.39553526,-1.174083,195.5984,-58.18906,-31.620907
6888647220000.0,-0.4069288055209347,0.989404476296657,-0.5976521254819863,0.30451632,0.37843102,-1.1612549,195.38658,-58.059017,-31.753546
6888652191000.0,-0.4146545962560857,1.1516460494660825,-0.4624508239191821,0.3203988,0.33292156,-1.144456,195.19543,-57.930256,-31.884182
6888657219000.0,-0.4253215680018455,1.36945774554987,-0.3109758873785756,0.34330627,0.28863382,-1.1181889,195.04042,-57.774155,-32.047485
6888662227000.0,-0.4534840167225904,1.916613862117272,-0.0695834817750188,0.3463606,0.25442538,-1.1032226,194.89839,-57.619514,-32.20828
6888667138000.0,-0.4811009867041356,2.453172106618572,0.1671333920107373,0.37323865,0.23060162,-1.0488557,194.7942,-57.524464,-32.302635
6888672224000.0,-0.506730497697036,2.845597091966992,0.27562672127484,0.4089743,0.22418754,-0.97585726,194.69662,-57.437477,-32.38925
6888677721000.0,-0.533327187866285,3.209085152374537,0.3421184351263051,0.44806966,0.23548855,-0.91599244,194.6019,-57.36126,-32.46608
6888682213000.0,-0.595004426074074,3.649898518138138,0.713741492044044,0.47342056,0.15363261,-0.8677341,194.602,-57.373127,-32.446667
6888687196000.0,-0.7239807069629629,4.3568796747147145,1.6070217753293292,0.5128214,-0.09865474,-0.81153446,194.65738,-57.400623,-32.410744
6888692209000.0,-0.917987731630757,5.171027117157541,2.292311659853726,0.6420194,-0.3136793,-0.7831292,194.76596,-57.458687,-32.346634
6888697161000.0,-1.213276666250247,6.141262326487448,2.62509765922119,0.7675522,-0.9062186,-0.7031059,195.08536,-57.545357,-32.243637
6888702170000.0,-1.4846520330594577,6.7803793,2.353580505090556,1.1301007,-1.4318681,-0.61911196,195.56102,-57.610004,-32.165684
6888707219000.0,-1.706789342971994,6.7803793,0.9353195989097978,1.5109752,-1.5036448,-0.6105598,196.07898,-57.684395,-32.08004
6888712238000.0,-1.9759076454725024,6.843588784062792,-0.3579041613390165,1.6603317,-1.4382823,-0.68966687,196.77255,-57.81964,-31.923716
6888717217000.0,-2.6798242652458675,7.478104955733444,-0.5859335410707973,1.4804319,-1.6206255,-0.79259765,197.56396,-57.95312,-31.764004
6888722206000.0,-3.6451816052708073,8.478221056099214,-0.7506311075283403,1.1743884,-2.1065688,-0.9245446,198.27863,-58.095474,-31.621822
6888727225000.0,-5.899221070186998,11.281799151438811,-0.6016036780428253,0.86315256,-2.8567114,-1.2388347,199.14607,-58.15071,-31.550648
6888732201000.0,-8.178444954733646,13.909094401876898,-0.7354104579078111,0.54702985,-3.8832703,-1.8719965,200.25746,-58.003082,-31.65836
6888737200000.0,-10.852085020848284,15.234902423037996,-3.298933661378231,0.2742785,-4.6685376,-2.7424796,201.5402,-57.702778,-31.894808
6888742155000.0,-13.502192347833288,16.549040999723985,-5.839893347954733,0.12186762,-4.235434,-3.3808336,202.70955,-57.20692,-32.32614
6888747191000.0,-15.322160549206348,17.45110015873016,-9.70014966031746,0.73853606,-2.140472,-3.2018502,203.5473,-56.75614,-32.7634
6888752135000.0,-17.03569719301587,18.300353796825394,-13.596942970793652,1.8805487,1.6575829,-2.132225,203.61487,-56.43201,-33.155296
6888757206000.0,-18.08101,18.916226468992647,-12.192489043223937,2.92299,6.0341268,-0.5861252,202.38905,-56.037247,-33.744965
6888762196000.0,-18.08101,19.153707899782585,-3.009859581271352,3.5100317,9.678244,0.7415904,200.12375,-55.88358,-34.071346
6888767376000.0,-18.27283800328677,19.252871584223502,1.7953916168447002,3.3402112,9.963212,1.2965615,197.19128,-124.2547,-34.239227
6888772159000.0,-18.630403607230896,19.2058236852917,1.78598203705834,2.0042489,9.767124,0.8891144,193.36418,-124.3768,-34.139874
6888777161000.0,-18.47951633417273,19.067894947118077,3.666194026086551,-0.20341812,4.641965,0.118507855,191.87733,-124.34859,-34.02113
6888782194000.0,-17.845659225144562,18.84761881589256,7.294011078474165,-1.464244,-0.7733554,-0.22693644,190.63373,-124.31027,-33.918335
6888787180000.0,-17.409201685648327,18.788818527510585,8.076041086648711,-1.428203,-2.4309382,-0.05955936,189.84311,-124.36427,-33.975597
6888793316000.0,-17.25093231281262,19.031875781069644,3.47491426848788,-0.9981538,-4.2852197,0.29352075,190.93442,-124.44059,-34.213547
6888797184000.0,-17.170011826776058,19.15474110236808,1.0655326789483497,-0.5305365,-4.2336016,0.4813618,192.05803,-124.46828,-34.36978
6888802223000.0,-17.102525118963268,19.25372132528436,-1.085045293669588,-0.2855795,-3.7119226,0.84940815,193.61684,-124.37898,-34.360535
6888807207000.0,-17.0041216605087,19.3432541124498,-2.9088536274520305,0.1020145,-2.9703321,1.0861185,194.89735,-124.292435,-34.291607
6888812203000.0,-16.743648813386883,19.39022453815261,-3.186405749790272,0.26908615,-2.3041837,1.1927143,195.97939,-55.85982,-34.13627
6888817192000.0,-16.483540920214192,19.43712915261044,-3.4635689880499774,0.25228736,-1.91323,1.3054191,196.80103,-56.090927,-33.897278
6888822229000.0,-16.161422511979644,19.456600695314155,-3.219351615902184,0.22204952,-1.7785342,1.4413365,197.46504,-56.358303,-33.622284
6888827249000.0,-15.83523356293731,19.47358971785992,-2.930538055226518,0.29077184,-1.8206838,1.5534303,198.04405,-56.648907,-33.32498
6888832218000.0,-15.455457803555484,19.43352872879292,-2.638396672400357,0.45478916,-1.9843957,1.6801848,198.61765,-57.00125,-32.967716
6888837226000.0,-14.528870074031984,18.849544462537544,-2.2841131335416835,0.6976081,-2.1890357,1.8026633,199.21187,-57.380924,-32.584198
6888842182000.0,-13.611903463105772,18.271623930676192,-1.9335082576264309,1.0186177,-2.3102922,1.8771889,199.85919,-57.806503,-32.15628
6888847217000.0,-12.874592587220912,17.408040433290978,-1.7730252339081505,1.3267993,-2.2547035,1.8799378,200.50742,-58.24237,-31.721233
6888852247000.0,-12.25376011218007,16.380607008894536,-1.7293046364312945,1.5311338,-2.0048597,1.8267925,201.12442,-58.678448,-31.28959
6888857212000.0,-11.669615420944384,15.397729997171997,-1.5612599659568087,1.6212363,-1.6566665,1.7366899,201.72432,-59.135784,-30.838686
6888863073000.0,-11.025055097694748,14.28658505227526,-1.166827498980204,1.6187929,-1.3243558,1.627345,202.24411,-59.56327,-30.419436
6888867231000.0,-10.53031946728972,13.483044544726305,-0.8919344283311081,1.5552629,-1.0299188,1.5161675,202.66414,-59.945095,-30.045732
6888872223000.0,-9.592534046728971,12.378323711615488,-0.6071618791188251,1.4575244,-0.6988298,1.3570372,202.96545,-60.27074,-29.72636
6888877227000.0,-8.641562832039865,11.30270901135528,-0.3355504695253656,1.2852604,-0.35033122,1.2043208,203.17375,-60.54303,-29.456762
6888882207000.0,-7.632465647659504,10.414391493178664,-0.1446402147095825,1.0461067,-0.027183503,1.0781772,203.28616,-119.23149,-29.230873
6888887224000.0,-6.6158711548811375,9.519474025569806,0.0476884496299321,0.78893244,0.11301007,1.0326678,203.36848,-119.02,-29.016657
6888892337000.0,-5.371015666682573,8.439740385951517,0.1812126042832601,0.6588182,0.38331795,0.88697636,203.30757,-118.88002,-28.870977
6888897271000.0,-4.085769458761214,7.33037018209582,0.2849342312196984,0.38698313,0.59681535,0.83108217,203.22472,-118.730835,-28.716663
6888902173000.0,-3.0340955329104657,6.382330900219566,0.3903103771554037,0.13408493,0.74006325,0.73456544,203.11136,-118.591965,-28.572182
6888907278000.0,-2.091846623745629,5.49971803895259,0.501630927940148,-0.09743301,0.7626653,0.65270954,202.97359,-118.46762,-28.443771
6888912221000.0,-1.1812336053452983,4.631753861431916,0.5991277425243855,-0.31490102,0.6597345,0.593761,202.85916,-118.30759,-28.281672
6888917234000.0,-0.2680786886266095,3.671770375858369,0.6365905095922747,-0.52564955,0.45020768,0.55771995,202.77708,-118.16627,-28.141516
6888922194000.0,0.5994986770932688,2.759330942983348,0.6480258747983739,-0.73456544,0.19975294,0.5503896,202.73544,-117.971405,-27.950974
6888927227000.0,1.1044481837229303,2.2242352576420923,0.3917828300608241,-0.9447031,-0.031154128,0.56230146,202.75752,-117.78249,-27.768784
6888934842000.0,1.8966361365207995,1.4004603517929768,-0.0252587637573203,-1.1490375,-0.27122417,0.6227771,202.83829,-117.518974,-27.512796
6888937286000.0,2.3746134813074016,1.0236422172728254,-0.3919609638887088,-1.430341,-0.33444872,0.65179324,202.93614,-117.26152,-27.260725
6888942220000.0,3.3395644711507293,0.2629136265517016,-1.1322672877218802,-1.5146403,-0.453262,0.74220127,203.12778,-63.071327,-26.928152
6888947228000.0,3.7370742489837983,-0.0879468585469743,-1.4521574451422683,-1.6349808,-0.56291234,0.84757555,203.33507,-63.41478,-26.577644
6888952168000.0,3.864373809526536,-0.242331549058224,-1.571331586666285,-1.6945401,-0.68019843,1.0042624,203.5804,-63.795197,-26.180784
6888957223000.0,3.994636821377455,-0.4003102151582985,-1.6932800250071565,-1.6975945,-0.7852673,1.1707232,203.87427,-64.28746,-25.666578
6888962193000.0,4.088878768717949,-0.5994099133333333,-1.832657065897436,-1.6395624,-0.8793405,1.3179418,204.19861,-64.82043,-25.103365
6888967467000.0,4.031895443548718,-1.0138352077333337,-2.0709515858358976,-1.5580118,-0.95233893,1.4239268,204.54584,-65.390816,-24.494314
6888972185000.0,3.905932204847504,-1.5594661433463963,-2.2856675646617823,-1.4413365,-0.9257663,1.4874569,204.89214,-66.01521,-23.829287
6888977174000.0,3.5314528409950587,-2.699186064644744,-2.517681991480661,-1.3286319,-0.7965683,1.4908166,205.2271,-66.65864,-23.142036
6888982195000.0,3.1545715249190662,-3.846216276077696,-2.751184584597035,-1.2238685,-0.6979135,1.4205672,205.55263,-67.285225,-22.474228
6888987206000.0,2.9128428529022776,-4.647601027957384,-2.7068200943240264,-1.1560625,-0.47403142,1.3600914,205.79942,-67.924,-21.79831
6888992157000.0,2.690749396142542,-5.396621939107274,-2.628434187132623,-1.1426234,-0.21533,1.2125676,206.00899,-68.52609,-21.161781
6888997163000.0,2.518766690862548,-5.7151662488372095,-2.508386253453662,-1.1487321,0.058948494,1.0522153,206.10233,-68.98204,-20.680511
6889002779000.0,2.350752043031933,-5.86451266744186,-2.3543727653592503,-1.208597,0.43218717,0.88331115,206.09131,-69.39658,-20.245522
6889007204000.0,2.153199963378836,-5.906029439946629,-2.2648414917479216,-1.2892311,0.5027421,0.8381071,206.06372,-69.711235,-19.9025
6889012219000.0,1.842644273960792,-5.851805466632454,-2.2056881177871293,-1.2757921,0.60903263,0.77518797,205.91644,-69.97759,-19.618107
6889017163000.0,1.5170287595669971,-5.757956498735559,-2.1955158867643045,-1.2406673,0.6612616,0.72295904,205.75313,-70.1864,-19.381168
6889022158000.0,1.164556450524879,-5.614356678213408,-2.2433824633130173,-1.1798862,0.7199047,0.69974613,205.55693,-70.388435,-19.154945
6889027130000.0,0.7991464284018635,-5.46266734978732,-2.3054401754304235,-1.0855075,0.8396343,0.6908886,205.31418,-70.5337,-18.989094
6889032220000.0,0.3795185598582135,-5.280005890095199,-2.4140497129025724,-0.99082345,1.0024298,0.6621779,205.04198,-70.67041,-18.837763
6889037207000.0,-0.0283142618695456,-5.078447718335583,-2.4727323344669365,-0.8903361,1.2522738,0.61422503,204.69432,-70.75196,-18.75524
6889042165000.0,-0.4255979409662618,-4.822135488879892,-2.412926275465587,-0.782213,1.559539,0.52106804,204.28212,-70.8189,-18.69951
6889047291000.0,-0.8371597339435545,-4.54064447141495,-2.3053789471205186,-0.65240407,1.8713857,0.38026363,203.78232,-70.81127,-18.737392
6889052169000.0,-1.238037866849733,-4.086316025591152,-1.686244889969489,-0.516792,2.118786,0.1957823,203.21178,-70.77032,-18.820705
6889057641000.0,-1.6791291115516065,-3.5668401662337663,-0.963234939952153,-0.4111123,2.1875083,-0.013439035,202.5902,-70.61868,-19.019947
6889062237000.0,-1.9047699357484624,-2.965131249350649,0.123601686124402,-0.33536503,2.037541,-0.24587326,201.96207,-70.409485,-19.281113
6889067188000.0,-2.147839500717704,-2.3169456863636366,1.29438674611244,-0.30451632,1.6465873,-0.4578435,201.37985,-70.06128,-19.656206
6889072422000.0,-2.161544161342128,-1.5523041220925342,2.4731112100564,-0.3371976,1.1032226,-0.66339964,200.89139,-69.644356,-20.095415
6889077164000.0,-2.0486731381129912,-0.818642575362776,3.5106562770289647,-0.45051312,0.47494772,-0.85062987,200.54868,-69.16477,-20.58741
6889082150000.0,-1.6423238621344896,-0.1372634508080434,3.698286066967992,-0.5852089,0.17256944,-0.9795224,200.2968,-68.570045,-21.144003
6889087198000.0,-0.964503976441288,0.4692069896531686,3.05168159586754,-0.66889745,-0.34055737,-1.0152581,200.30788,-67.93755,-21.71781
6889092200000.0,-0.544180467064803,0.8539116520965693,2.3296039024142314,-0.7968737,-0.63804877,-1.0320568,200.4038,-67.28291,-22.251385
6889097165000.0,-0.5657582723470684,0.8582272095480123,1.4708073387003089,-0.8772025,-0.6988298,-0.999681,200.59615,-66.614586,-22.773884
6889102216000.0,-0.6101026173971803,0.8470101045799616,0.6654933764711771,-0.8784242,-0.6203337,-0.93431836,200.86078,-66.178764,-23.078102
6889107258000.0,-0.7712313681204639,0.7543610516726454,0.2183610854325519,-0.8362745,-0.4804455,-0.8539896,201.1294,-65.7464,-23.364922
6889112223000.0,-0.9298994060699092,0.6631269089346793,-0.2219427275398348,-0.7473936,-0.34055737,-0.7834347,201.35783,-65.3686,-23.651424
6889117173000.0,-1.1280232198186284,0.5356090729491783,-0.4145456460986208,-0.66553766,-0.20616703,-0.71868294,201.53787,-65.01692,-23.916924
6889122137000.0,-1.3390893486680522,0.3963952919705271,-0.5313056035367467,-0.58276546,-0.1133155,-0.6765333,201.68192,-64.68838,-24.168629
6889127161000.0,-1.5338523258939132,0.2366005372996087,-0.5579677014848512,-0.52412236,-0.07574729,-0.62796944,201.78549,-64.35386,-24.464418
6889132258000.0,-1.720381750204713,0.0633946088472386,-0.5313206262942407,-0.49693888,-0.07544186,-0.6035349,201.85925,-64.0392,-24.746996
6889137180000.0,-1.870581340945868,-0.1143903526411096,-0.557937989793874,-0.46211955,-0.11881329,-0.5849035,201.89926,-63.709984,-25.0485
6889142302000.0,-1.9887001766422652,-0.3128300518666923,-0.6524330978193027,-0.42485678,-0.17012598,-0.58459806,201.93022,-63.394688,-25.338326
6889147163000.0,-2.072757020131039,-0.4984248982144143,-0.74366742000864,-0.38056904,-0.24007004,-0.59803706,201.94824,-63.03378,-25.67491
6889154235000.0,-2.126396579494564,-0.7617460497444021,-0.8802043228238174,-0.34147367,-0.32284227,-0.6270532,201.98035,-62.676094,-26.008478
6889157217000.0,-2.1490143914320683,-0.8727788090575276,-0.9377768686658507,-0.3042109,-0.40958515,-0.65270954,202.01477,-62.278683,-26.389275
6889162400000.0,-2.1132896757593804,-0.9450998110879492,-1.0789717171133613,-0.27152961,-0.49846604,-0.68875057,202.07295,-61.87538,-26.775541
6889167168000.0,-2.036234081715307,-0.9405671346535636,-1.2330828578717492,-0.26297748,-0.5702427,-0.7122689,202.14879,-61.471798,-27.160208
6889172155000.0,-1.9002542023389024,-0.7982677478949881,-1.4349129103675418,-0.27275133,-0.6075055,-0.7507534,202.22679,-61.019386,-27.59992
6889177155000.0,-1.721974727398568,-0.5514192753412888,-1.6680475643054893,-0.3136793,-0.602924,-0.78801614,202.31128,-60.55907,-28.044554
6889182196000.0,-1.5656281112906238,-0.2599251601008592,-1.9437063210310048,-0.35430184,-0.56688297,-0.799928,202.39081,-60.123413,-28.472433
6889188035000.0,-1.4141852923982068,0.1317374450803138,-2.314480203623459,-0.37751472,-0.52870387,-0.80481493,202.46478,-59.678036,-28.908741
6889192132000.0,-1.3412112512277976,0.3911060938037465,-2.587837571124915,-0.40866885,-0.4529566,-0.7877107,202.49765,-59.34193,-29.248117
6889197153000.0,-1.3132086620013588,0.6804663969038145,-2.947204425264486,-0.42577308,-0.31612277,-0.7452556,202.4912,-59.01331,-29.58357
6889202132000.0,-1.3120530993630577,0.9481953863694268,-3.290609138535032,-0.4370741,-0.1386664,-0.6743952,202.40425,-58.845673,-29.773533
6889207208000.0,-1.385160072611465,1.1675164138853504,-3.6045393070063696,-0.3747658,0.057421334,-0.5983425,202.26334,-58.6964,-29.95451
6889212412000.0,-1.4660553659055795,1.3856430249785407,-3.920249858094421,-0.23762658,0.301462,-0.49663344,202.01837,-58.67002,-30.041527
6889217169000.0,-1.6263842730901288,1.4873150188841202,-4.119683346909872,-0.022296581,0.57910025,-0.3640757,201.70294,-58.677372,-30.109491
6889222171000.0,-1.7949706076995708,1.594223430386266,-4.32938826830043,0.28863382,0.84238315,-0.19425514,201.29596,-58.766205,-30.134672
6889227162000.0,-2.011354709990332,1.480803301353529,-4.169614527006123,0.6924158,0.9779953,-0.053450707,200.85376,-58.89249,-30.137295
6889232260000.0,-2.2552314966484044,1.2605275192233325,-3.8313338454560095,1.1246029,0.93523467,0.049480084,200.39989,-59.061893,-30.106699
6889237229000.0,-2.58969782373,0.958396089164,-3.30746521026,1.5531249,0.8213083,0.0870483,199.93579,-59.237545,-30.085348
6889242158000.0,-3.2741570503200004,0.3400226173759999,-2.08015909584,1.9459113,0.68569624,0.040011674,199.51813,-59.419983,-30.053675
6889247188000.0,-4.432508121414073,-0.1537003015832205,-0.0242951757780782,2.2403483,0.37904188,-0.12156218,199.20851,-59.465023,-30.131102
6889252162000.0,-7.361353707239512,-0.1093848894451962,5.124349771853857,2.2834144,-0.044593163,-0.42943826,199.00626,-59.44753,-30.2507
6889258288000.0,-10.748717812086872,0.0251007862614816,10.931589208035025,2.0803015,-0.33567044,-0.7974846,198.81706,-59.07534,-30.691147
6889262207000.0,-10.165560250236071,1.1108692873311012,7.967473390213753,1.6539177,-0.60139686,-1.0482447,198.76585,-58.645134,-31.166994
6889267175000.0,-9.426308714825309,2.487265794938621,4.209951730878188,1.1206323,-0.70066243,-1.0112875,198.76193,-57.35334,-32.38348
6889272163000.0,-8.60741915983992,3.2231277331265638,1.3233365848324163,1.2479976,-0.7089091,-0.9569204,198.94711,-56.07693,-33.5833
6889277162000.0,-7.711719096068034,3.3285043024212104,-0.7027660675537768,1.8649716,-0.99387777,-1.0751228,199.37164,-54.825474,-34.740788
6889282252000.0,-7.233068413167082,3.487796692618454,-2.119115680199501,1.994475,-1.8106046,-1.1325442,199.81773,-54.145542,-35.387978
6889287247000.0,-7.164901379465622,3.692297473416459,-2.9098521892126823,1.8310685,-2.6309967,-1.1905763,200.37332,-53.47628,-36.0276
6889292151000.0,-7.097976227659423,3.89307261436409,-3.686182887951549,1.4269812,-3.3579264,-1.1994339,201.05629,-53.07269,-36.415382
6889297153000.0,-9.033762791341992,7.1565325935615896,-6.416107620527352,1.1209377,-3.6395352,-1.2415836,201.86122,-52.664875,-36.791374
6889302156000.0,-11.843287322077924,11.753593702054308,-9.991180224746165,1.2180653,-2.9275718,-1.2733486,202.54874,-52.28273,-37.15183
6889307210000.0,-14.39531931202636,15.763884951235584,-12.760632243492584,1.3707817,-1.0161743,-1.4709635,202.8194,-51.86914,-37.605034
6889312254000.0,-15.501489701812192,16.57560664744646,-11.28441299011532,1.42973,1.1029172,-2.079996,202.76176,-51.346577,-38.195755
6889317138000.0,-16.572571419439868,17.361579836243823,-9.855020675782535,1.7519615,3.7088683,-2.8334985,201.46954,-50.931824,-38.841774
6889322160000.0,-16.349992401510068,17.881803335402687,-5.017376386241611,2.1948388,6.095519,-3.1105258,199.51927,-50.443245,-39.500057
6889327902000.0,-15.52421909966443,18.352354936577186,1.967095108053691,2.3469443,7.1028357,-2.408947,197.14908,-130.02196,-40.02171
6889332193000.0,-15.093415993568811,18.64485354012071,6.308688886514297,1.709201,5.9541035,-1.6377298,194.89336,-130.63312,-40.58283
6889337226000.0,-14.902656977441378,18.88807287919264,9.918805955773228,0.3145956,3.2531629,-1.4178182,192.8958,-131.19931,-41.048164
6889342182000.0,-14.050817654237289,19.08471981587868,11.500328585343444,-0.68019843,0.77824235,-1.3771957,192.15877,-131.29367,-41.126747
6889347154000.0,-11.85054753898305,19.195157649241747,9.087677205896522,-1.069625,-0.2602286,-1.0845913,191.86652,-131.27132,-41.128834
6889352176000.0,-9.732971113337609,19.30222480570696,6.695962716591857,-1.1117748,-0.2751948,-0.46120325,192.40416,-131.15465,-41.08043
6889357223000.0,-8.744282972196217,19.361112081949344,4.783672426566207,-0.9932669,-0.10048734,0.23487769,193.16783,-130.98035,-40.958557
6889362228000.0,-7.763822471619108,19.4195093115101,2.887295786665598,-0.7076874,-0.089186326,0.8536842,193.77565,-130.4832,-40.480618
6889367530000.0,-6.784177833714286,19.47966924403361,0.9497327130924368,-0.43493605,-0.23151793,1.3918564,194.32288,-50.147045,-39.851513
6889372168000.0,-7.362721291142857,19.490867090924368,0.9907906860420168,-0.28344148,-0.528093,1.8399261,194.87042,-50.88584,-39.0993
6889377176000.0,-7.987418495714285,19.50295825462185,1.035124090210084,-0.23701571,-0.71959925,2.2708917,195.21785,-51.844917,-38.12719
6889382192000.0,-8.639794755426195,19.512648530893973,1.2364538055218297,-0.23762658,-1.1319333,2.485,195.74017,-52.833817,-37.117916
6889387217000.0,-9.312122622370062,19.520652593264032,1.548605927975052,-0.23548855,-1.5803084,2.8900034,196.32146,-53.96335,-35.96137
6889392215000.0,-9.998306385651034,19.527926819734347,1.7399899473299,-0.21746802,-2.064419,3.2275066,197.02303,-55.037197,-34.850002
6889397501000.0,-10.803370824794431,19.532500664136624,1.401496946679317,-0.058643065,-2.4804184,3.452916,197.82672,-56.16181,-33.679207
6889402566000.0,-11.570964777566022,19.536686,1.0784793592921318,0.17165314,-2.7876835,3.5182784,198.71925,-57.23674,-32.54598
6889407261000.0,-12.20752394718214,19.536686,0.805085376294582,0.43890667,-2.980717,3.4816265,199.67757,-58.31955,-31.399347
6889412303000.0,-12.89113019493602,19.536686,0.5114852778337416,0.64843345,-2.9400945,3.38175,200.59325,-59.316074,-30.345
6889417283000.0,-13.288797571601942,19.008146661812297,-0.0594172648199838,0.7672467,-2.6450465,3.1856623,201.46848,-60.25664,-29.354462
6889422174000.0,-13.6061813282767,18.34969380825243,-0.6941848424726942,0.86742866,-2.2278256,2.9315424,202.27678,-61.138386,-28.436388
6889427161000.0,-13.057857874762808,16.478195635673625,-0.8267128491081593,0.9602802,-1.7800614,2.6853635,202.94167,-61.897125,-27.663929
6889432247000.0,-12.255446401587028,14.234804201311023,-0.8183106226944972,1.0546589,-1.4584408,2.4486532,203.51584,-62.576385,-26.986103
6889437263000.0,-11.213314964271994,12.587614264694585,-0.5464813526238955,1.1777482,-1.2250903,2.2162192,203.96097,-63.128117,-26.461554
6889442170000.0,-9.931512967441414,11.56758837024587,-0.0048748565040337,1.289842,-1.0977248,2.003638,204.34879,-63.61147,-26.014687
6889447157000.0,-8.586814939574312,10.671491049847967,0.5454226497079149,1.3252722,-0.9615019,1.8212948,204.66208,-63.98332,-25.68348
6889452163000.0,-7.168845582548604,10.000054208053074,1.0975913039565095,1.2305881,-0.79504114,1.6588045,204.93538,-64.28985,-25.418108
6889457244000.0,-5.819786695365364,9.35845771682373,1.571081511045883,1.024421,-0.66920286,1.5195273,205.21849,-64.5899,-25.147738
6889462193000.0,-4.809344135771667,8.86788035064885,1.7394886489108603,0.75625116,-0.5723807,1.4159856,205.46379,-64.83907,-24.923264
6889467193000.0,-3.7884888522864206,8.372247529700294,1.9096312412173644,0.46639562,-0.5006041,1.3176364,205.71255,-65.12666,-24.644537
6889472161000.0,-2.7058479118062086,7.734120893772343,1.8326836784195677,0.21380283,-0.45173484,1.2550226,205.93954,-65.37934,-24.393385
