timestamp,acc_x,acc_y,acc_z,gyro_x,gyro_y,gyro_z,ori_azimuth,ori_pitch,ori_roll
2738104246000.0,-2.424622888372968,9.640441798051794,-0.9702966797515088,-1.395827,-6.5762696,-6.0402355,26.113163,-72.25401,-17.651823
2738109708000.0,-2.4380041842633786,9.628372373394262,-0.9973216413953444,-1.395827,0.7440339,0.03268129,24.450996,-73.51313,-16.392588
2738114262000.0,-2.449160980580649,9.618309363527835,-1.0198539876652135,-1.1780536,0.7635816,0.03268129,26.408596,-71.75769,-18.12627
2738119313000.0,-2.4615353719285924,9.607148128825308,-1.0448453976364722,-1.185384,0.75991637,0.039095376,26.123232,-71.73543,-18.176905
2738124357000.0,-2.473892614050752,9.59600236207822,-1.0698021729077112,-1.1917981,0.76174897,0.03848451,25.853743,-71.76929,-18.16301
2738129226000.0,-2.485821125528308,9.58524329421708,-1.093893080678461,-1.1969905,0.75228053,0.035430185,25.5928,-71.805695,-18.142801
2738134225000.0,-2.4980681226275685,9.57419696432638,-1.118627204306717,-1.1893547,0.74067414,0.032375857,25.335972,-71.84365,-18.118208
2738139218000.0,-2.5103004203904438,9.563163892683196,-1.143331641049242,-1.1743884,0.7189884,0.03726278,25.088942,-71.88455,-18.088022
2738144210000.0,-2.522530268263921,9.552133030747932,-1.1680311299774784,-1.151481,0.7119634,0.030543262,24.844883,-71.92295,-18.05836
2738149314000.0,-2.5350345037499435,9.54085468152566,-1.1932847741060275,-1.1279627,0.732122,0.0290161,24.602842,-71.96566,-18.022556
2738154247000.0,-2.5471198081489543,9.52995419235766,-1.2176923419912422,-1.1481212,0.75869465,0.04520403,24.364626,-72.01256,-17.980585
2738159230000.0,-2.559327607017852,9.518943217793671,-1.242347300590882,-1.2425,0.7452556,0.057421334,24.136105,-72.058945,-17.937325
2738164219000.0,-2.5715501052231358,9.507918984982169,-1.267031946076253,-1.2382239,0.7357872,0.06536258,23.902088,-72.11057,-17.888096
2738169267000.0,-2.583917146902885,9.4967643794034,-1.292008512604646,-1.239751,0.71929383,0.07544186,23.677761,-72.16691,-17.83277
2738174339000.0,-2.596342985928181,9.48555674083456,-1.3171038266759632,-1.2357804,0.70616025,0.084910266,23.458721,-107.7736,-17.7736
2738179441000.0,-2.6088423216354086,9.474282811028123,-1.3423475751759355,-1.2409728,0.66828656,0.10293079,23.255438,-107.70801,-17.707745
2738184282000.0,-2.620702236209828,9.46358561498874,-1.366299944146607,-1.2437216,0.65393126,0.10445796,23.052244,-107.64378,-17.642769
2738189280000.0,-2.632946783419692,9.452541494805958,-1.3910291199605744,-1.237613,0.5919284,0.093462385,22.877766,-107.5778,-17.575706
2738194274000.0,-2.645181531071964,9.441506213454854,-1.415738504517388,-1.1575897,0.5174029,0.090713486,22.71427,-107.509254,-17.505426
2738199256000.0,-2.6573868800514635,9.430497448598787,-1.4403885153027394,-1.0494665,0.4578435,0.076052725,22.567448,-107.44775,-17.441605
2738204315000.0,-2.6697808705145887,9.419318536232902,-1.465419507788306,-0.93401295,0.4166101,0.050396383,22.439768,-107.39143,-17.381933
2738209292000.0,-2.6819739700471,9.408320819916437,-1.4900447795022147,-0.81000733,0.40469822,0.02443461,22.323217,-107.341385,-17.326757
2738214286000.0,-2.6942087176993725,9.397285538565333,-1.514754164059028,-0.70249504,0.36468655,0.00030543262,22.22935,-107.300415,-17.278744
2738219272000.0,-2.706423866236463,9.386267934877583,-1.5394239661015334,-0.56596667,0.13133603,-0.06383542,22.198633,-107.28187,-17.250675
2738224283000.0,-2.718700262008497,9.375195088491846,-1.5642174635012516,-0.11728613,0.10262536,-0.0711658,22.12051,-107.264046,-17.2123
2738229251000.0,-2.7308713125364283,9.364217259546656,-1.588798204886564,-0.069027774,0.13439035,-0.053145275,22.094994,-107.25482,-17.186308
2738234233000.0,-2.743076661515928,9.35320849469059,-1.613448215671915,-0.1469131,0.13408493,-0.024740042,22.088758,-107.25539,-17.160116
2738239224000.0,-2.755304059500008,9.342179842463246,-1.638142756785863,-0.16249016,0.12003502,-0.004886922,22.078308,-107.260414,-17.131395
2738244214000.0,-2.767529007594689,9.331153399943824,-1.6628323500855224,-0.14385876,0.11209377,0.017104227,22.067421,-107.25935,-17.09447
2738249294000.0,-2.7799744457351663,9.319928083711622,-1.6879672466711475,-0.12705997,0.095294975,0.03268129,22.064383,-107.25743,-17.05478
2738254249000.0,-2.792113647700927,9.308978980969387,-1.7124836664707093,-0.112704635,0.071776666,0.05222898,22.06682,-107.25227,-17.00889
2738259295000.0,-2.8044757896018817,9.29782879480646,-1.7374503373705252,-0.089491755,0.041233405,0.0711658,22.077213,-107.247475,-16.960272
2738264223000.0,-2.816548844553904,9.286939354178058,-1.7618331661842972,-0.065973446,0.025045475,0.081855945,22.090954,-107.24363,-16.909983
2738269273000.0,-2.828920786012449,9.27578032918345,-1.786819628341267,-0.034208454,0.010079277,0.08368854,22.113852,-107.24207,-16.858932
2738274291000.0,-2.8412143310102675,9.264692014842272,-1.8116477604410048,-0.00580322,0.00030543262,0.09437868,22.14051,-107.23957,-16.804216
2738279262000.0,-2.8533927312063923,9.253707556773325,-1.8362433452691824,0.009468411,-0.004581489,0.092240654,22.16997,-107.24444,-16.754557
2738284256000.0,-2.8656274788586646,9.24267227542222,-1.860952729825996,0.02565634,-0.007330383,0.09743301,22.202005,-107.24926,-16.70169
2738289278000.0,-2.877930823414074,9.231575122249366,-1.8858006531828877,0.056505036,0.0021380284,0.08735373,22.231327,-107.2639,-16.655346
2738295295000.0,-2.892671807920226,9.218279309696385,-1.9155716517568455,0.05955936,0.016493361,0.07360926,22.259838,-107.279854,-16.610191
2738299293000.0,-2.9024664657323576,9.209444897433324,-1.935353013282304,0.07788532,0.023518313,0.070554934,22.287569,-107.30148,-16.566326
2738304254000.0,-2.9146203670345048,9.198482536443574,-1.9598991199675968,0.06780604,0.041233405,0.052534413,22.306988,-107.330826,-16.531334
2738309222000.0,-2.9267914175624363,9.187504707498384,-1.984479861352909,0.073303826,0.08155051,0.03634648,22.317453,-107.3649,-16.497072
2738314287000.0,-2.945023188348851,9.178349094473392,-1.9745515375928933,0.08735373,0.12492194,0.020463986,22.321213,-107.40491,-16.468203
2738319291000.0,-2.9654905186298794,9.170162401725465,-1.9499906899632695,0.09773844,0.16432275,0.002443461,22.313799,-107.45084,-16.444166
2738324238000.0,-2.959465337004405,9.174464814427312,-1.907709419493392,0.09101892,0.19486602,-0.014966198,22.297222,-107.567604,-16.457886
2738329244000.0,-2.9066663713656387,9.200864389133626,-1.8329107929515416,0.09315695,0.23426682,-0.027183503,22.266489,-107.688614,-16.472433
2738334277000.0,-2.849459696382666,9.229879705012854,-1.747817300091811,0.101098195,0.26725355,-0.03940081,22.24019,-107.81507,-16.49244
2738339282000.0,-2.774648547925082,9.269485466580976,-1.6201983470069776,0.0870483,0.27916542,-0.042760566,22.209053,-107.938324,-16.511236
2738344553000.0,-2.692372508087092,9.312480775738724,-1.4837824302021774,0.087964594,0.2770274,-0.04428773,22.181696,-108.05381,-16.520885
2738349261000.0,-2.570829960031104,9.368577486573352,-1.3341916731674444,0.081855945,0.24923302,-0.04337143,22.158964,-108.16504,-16.5301
2738354295000.0,-2.445440702533416,9.42824434566366,-1.1797468491063103,0.081855945,0.21105394,-0.04062254,22.154041,-108.25723,-16.525064
2738359374000.0,-2.3698413979095427,9.484943794529064,-1.085247668988965,0.07941248,0.17531833,-0.031154128,22.156853,-108.344765,-16.518528
2738365096000.0,-2.2846712421588435,9.54882137799192,-0.9787849187169724,0.07574729,0.122783914,-0.01282817,22.181057,-108.39426,-16.48915
2738369284000.0,-2.227478760909178,9.578889871103865,-0.915456188993958,0.08246681,0.0580322,0.00061086525,22.219236,-108.44318,-16.461191
2738374315000.0,-2.162787830516927,9.601993774815384,-0.8507652151769445,0.067500606,0.027794369,0.013439035,22.262842,-108.48407,-16.429955
2738379239000.0,-2.133481847747748,9.613256299268018,-0.8010249148029279,0.07086037,-0.03176499,0.018325957,22.330421,-108.50045,-16.386806
2738384293000.0,-2.1516504465465465,9.60871405471096,-0.7692298384478229,0.07422013,-0.09162979,0.024740042,22.406918,-108.51187,-16.342525
2738389235000.0,-2.1878980171202644,9.608014903457152,-0.7915922695936006,0.07086037,-0.14263703,0.032375857,22.498158,-108.50357,-16.288408
2738394272000.0,-2.272168842589187,9.616885692166235,-0.9512632707613092,0.07391469,-0.17531833,0.036957346,22.600542,-108.49681,-16.237158
2738399273000.0,-2.347127127075598,9.624691,-1.101063269820288,0.071776666,-0.18478674,0.027794369,22.708584,-108.49439,-16.197266
2738404256000.0,-2.3542147840487155,9.624691,-1.1825713990197535,0.070249505,-0.17715092,0.02687807,22.82038,-108.49014,-16.156294
2738409248000.0,-2.3613152423288284,9.624691,-1.2642267433833356,0.06352998,-0.16523905,0.02565634,22.925491,-108.51509,-16.131922
2738414293000.0,-2.367106688860291,9.629596798278774,-1.334916661119601,0.0580322,-0.15851954,0.019242255,23.027872,-108.54171,-16.110792
2738419249000.0,-2.370924160170514,9.641049052762808,-1.3883612993243786,0.055283304,-0.11789699,0.016493361,23.115225,-108.56729,-16.088375
2738424548000.0,-2.3750058350036194,9.653293906780345,-1.4455047896083006,0.06047566,-0.07696902,0.013133603,23.180943,-108.61007,-16.072998
2738429308000.0,-2.3345010226848824,9.67922382967932,-1.4903310583769631,0.061086524,-0.03481932,0.01740966,23.233356,-108.64995,-16.055264
2738434834000.0,-2.2868785568308247,9.709529129744764,-1.5422826913612566,0.051923547,-0.007941248,0.02565634,23.277243,-108.68825,-16.036987
2738439280000.0,-2.265601525534701,9.724560681536447,-1.5507654888869489,0.05131268,0.017104227,0.03481932,23.295677,-108.73334,-16.01797
2738444226000.0,-2.2573314940200784,9.732830928939329,-1.5300902589786118,0.048258353,0.04886922,0.03634648,23.3038,-108.77548,-15.9976845
2738449315000.0,-2.2488697164204448,9.737093122007131,-1.5072558162421463,0.0571159,0.06719518,0.038179077,23.293447,-108.818306,-15.967114
2738454247000.0,-2.2408492074036337,9.725062107233828,-1.4791840765579896,0.053145275,0.08460484,0.043066,23.274286,-108.85653,-15.934227
2738460223000.0,-2.2312329182615964,9.71104508514417,-1.4447932443898872,0.053145275,0.08399397,0.040927973,23.255354,-108.89791,-15.903557
2738464224000.0,-2.227229911909737,9.715048175094024,-1.4127691517760137,0.042760566,0.07422013,0.04917465,23.235023,-108.93236,-15.868667
2738469211000.0,-2.2222404111157545,9.720037780087756,-1.372853093324279,0.038179077,0.06872234,0.042760566,23.216366,-108.97,-15.839013
2738474325000.0,-2.212117676960714,9.70105588638653,-1.3630157179738092,0.025045475,0.060170226,0.04795292,23.20268,-108.99908,-15.805033
2738479328000.0,-2.2017753117858683,9.68037108404087,-1.3561208078572455,0.006414085,0.06261369,0.04062254,23.186451,-109.03023,-15.7766285
2738484213000.0,-2.1909694714332,9.655933571444,-1.3482104714332,0.00061086525,0.06047566,0.04550946,23.179008,-109.05494,-15.744935
2738489286000.0,-2.175228104201317,9.603462347337723,-1.3324691042013177,-0.015882496,0.073303826,0.05100725,23.166193,-109.07595,-15.714748
2738494229000.0,-2.1654541088828854,9.556272911171144,-1.3215994,-0.019242255,0.07360926,0.044898596,23.1643,-109.09425,-15.683504
2738499309000.0,-2.169319526330844,9.517618736691563,-1.3215994,-0.022296581,0.07238753,0.048258353,23.15985,-109.10604,-15.648186
2738505578000.0,-2.1758097428309706,9.470337269212228,-1.3236614012245684,-0.043982297,0.057726767,0.052839845,23.150208,-109.11458,-15.618283
2738509283000.0,-2.210022458046476,9.44980954719892,-1.361295462983319,-0.04886922,0.04520403,0.05100725,23.14021,-109.125565,-15.58969
2738514227000.0,-2.2556763484717,9.422417088998168,-1.4115148425609874,-0.043676864,0.02565634,0.05009095,23.141397,-109.137314,-15.563591
2738519297000.0,-2.2778264896329325,9.424832412373595,-1.4431910509913208,-0.03390302,0.008552114,0.05009095,23.145342,-109.14887,-15.538867
2738524280000.0,-2.2892257716776814,9.440031772513736,-1.4659895754040926,-0.048563786,-0.004581489,0.044898596,23.15326,-109.1583,-15.517288
2738529240000.0,-2.2970529478492137,9.452309,-1.5140870478337958,-0.046731193,-0.017104227,0.036957346,23.164602,-109.18805,-15.5078745
2738534303000.0,-2.289577294865865,9.452309,-1.674814543216158,-0.054367006,-0.029626964,0.034513887,23.179544,-109.21286,-15.499403
2738539311000.0,-2.2821828508325623,9.452309,-1.8337960357847671,-0.057421334,-0.03359759,0.032070424,23.194496,-109.24472,-15.49495
2738544266000.0,-2.2919807965214303,9.454848947111545,-1.6447317564690744,-0.04795292,-0.047647487,0.027183503,23.215456,-109.277466,-15.493317
2738549234000.0,-2.313090718608572,9.45907057884462,-1.22675501258763,-0.040927973,-0.056505036,0.027794369,23.235943,-109.30754,-15.490877
2738554108000.0,-2.3424594972506245,9.45168816746194,-1.0279801946603044,-0.04795292,-0.055588737,0.016493361,23.237259,-109.355896,-15.487427
2738559142000.0,-2.3917536926153145,9.418825904339922,-1.2854049827652805,-0.040927973,-0.042455133,0.01038471,23.237743,-109.40476,-15.482177
2738564145000.0,-2.3851369332894388,9.397370254411378,-1.6968586052936527,-0.02687807,-0.029932396,0.0036651916,23.274809,-109.41775,-15.49655
2738569149000.0,-2.334652411509086,9.384748893336845,-2.231152172004214,-0.01038471,0.0036651916,0.0021380284,23.301552,-109.432396,-15.509127
2738574180000.0,-2.2997268616494844,9.376987388659794,-2.451504597113402,-0.0143553335,0.04153884,-0.0012217305,23.304285,-109.475235,-15.52809
2738579131000.0,-2.3041706045548263,9.381431224367384,-1.8915925270290532,-0.005192355,0.070249505,-0.006414085,23.299868,-109.52235,-15.546023
2738584137000.0,-2.305245040545364,9.384579670699058,-1.4312952270203272,0.022907447,0.09407325,-0.008857546,23.231009,-109.59348,-15.52971
2738589129000.0,-2.286283261427863,9.37983912692117,-1.5924704980168567,0.028405234,0.12064589,-0.0033597588,23.154453,-109.659164,-15.5101795
2738594121000.0,-2.2638523279742766,9.384470167202572,-1.6959569954983924,0.026572637,0.1301143,-0.004886922,23.120155,-109.69896,-15.517289
2738599183000.0,-2.216616908525772,9.455323370359544,-1.3936497980707396,0.028405234,0.13683382,0.0033597588,23.080692,-109.73532,-15.518094
2738604170000.0,-2.171579501131626,9.522486956422474,-1.1259830347925353,0.029932396,0.13164146,0.0021380284,23.023811,-109.78095,-15.5142
2738609141000.0,-2.1432255566408576,9.560292511812587,-1.192142287949176,0.037873644,0.1282817,0.005192355,22.966324,-109.82339,-15.505725
2738614218000.0,-2.117449807035705,9.598236929379771,-1.2555371036406702,0.034513887,0.1151481,0.013133603,22.936623,-109.829384,-15.493572
2738619603000.0,-2.1310223312922187,9.629905869199051,-1.269109580656198,0.03390302,0.1020145,0.013439035,22.908125,-109.83771,-15.482814
2738625650000.0,-2.1471712887063656,9.664177917864476,-1.2789657289527725,0.030848695,0.07819075,0.018020526,22.878653,-109.83598,-15.459838
2738629163000.0,-2.163619562100323,9.674047088002348,-1.2427795618363158,0.029321533,0.04886922,0.017715093,22.854656,-109.8352,-15.439513
2738634126000.0,-2.1868569036472083,9.68798978410091,-1.1916574589615725,0.026572637,0.03176499,0.019242255,22.83346,-109.83142,-15.418783
2738639165000.0,-2.200370074225958,9.709932185564895,-1.1269783424031166,0.015882496,0.0036651916,0.03390302,22.824924,-109.82299,-15.397276
2738644125000.0,-2.2101098585195817,9.734281646298957,-1.0587998014968218,0.025045475,-0.025961773,0.051923547,22.82217,-109.81648,-15.375878
2738649213000.0,-2.228633792353092,9.706830215293817,-1.0569851138824735,0.02076942,-0.052839845,0.070554934,22.835941,-109.80326,-15.357721
2738654201000.0,-2.2490636436917284,9.665970512616544,-1.0733289949533829,0.022602014,-0.087964594,0.08032878,22.860912,-109.79099,-15.339901
2738659180000.0,-2.2922370575998428,9.61173438710627,-1.0586313948582082,0.028099801,-0.115453534,0.082161374,22.893192,-109.77192,-15.325046
2738664175000.0,-2.362646510941026,9.541325031792756,-1.0069978186144637,0.01985312,-0.13836098,0.0711658,22.933413,-109.752075,-15.313596
2738669181000.0,-2.445603257686676,9.4583681457854,-1.0123852623091405,0.013133603,-0.1695151,0.0693332,22.984285,-109.7377,-15.3076315
2738674229000.0,-2.546719575695461,9.35725135264589,-1.0983341405354528,0.021380283,-0.19547687,0.064751714,23.038607,-109.728065,-15.307038
2738679198000.0,-2.634870160196934,9.29135038290529,-1.1544733233884883,0.013439035,-0.20433442,0.052534413,23.112455,-109.724525,-15.32591
2738684202000.0,-2.712705599766521,9.2572971749061,-1.1836616640239568,0.027794369,-0.21868975,0.03848451,23.193974,-109.72816,-15.348652
2738689947000.0,-2.771799542210656,9.229990054781227,-1.24361295406669,0.03023783,-0.19028452,0.02565634,23.266787,-109.75736,-15.392615
2738694184000.0,-2.800435360532816,9.215672239061398,-1.3008845533345097,0.033292156,-0.172264,0.014049901,23.34501,-109.79161,-15.441273
2738699217000.0,-2.801729654892726,9.212958017268445,-1.3792706935112506,0.027488936,-0.14019357,-0.0012217305,23.41912,-109.84156,-15.504395
2738704327000.0,-2.7146614050758764,9.24880984144427,-1.4868255777603347,0.0143553335,-0.11759156,-0.022296581,23.488947,-109.893555,-15.570941
2738709191000.0,-2.630721003081395,9.298650740697674,-1.584738801104651,-0.015271631,-0.06841691,-0.021991149,23.539543,-109.94589,-15.634731
2738714227000.0,-2.5419276857558137,9.378097544573643,-1.6782054483527131,-0.03634648,-0.022907447,-0.021380283,23.583082,-110.00052,-15.701753
2738719185000.0,-2.455619842525697,9.44829415418502,-1.7512365191581007,-0.04428773,0.030543262,-0.013133603,23.592499,-110.04135,-15.741897
2738724346000.0,-2.36852565606461,9.5015183876652,-1.7802679146451297,-0.05375614,0.06658431,-0.009468411,23.593784,-110.07782,-15.7803
2738729261000.0,-2.293891390530456,9.54363412696652,-1.803006776885841,-0.053145275,0.07788532,0.0027488936,23.57442,-110.095665,-15.785446
2738734235000.0,-2.241049061183945,9.56284943737394,-1.812614482250908,-0.038789943,0.082161374,0.008552114,23.547054,-110.114044,-15.789059
2738739216000.0,-2.196314493542757,9.581887858638744,-1.822133742582897,-0.022296581,0.080634214,0.002443461,23.504135,-110.12786,-15.776883
2738744218000.0,-2.1730920999030445,9.600465676556135,-1.8314227000387824,-0.004276057,0.0729984,0.015271631,23.464048,-110.13815,-15.757825
2738749274000.0,-2.15561710930488,9.61427847324651,-1.8320628168366544,0.015882496,0.05131268,0.02565634,23.425203,-110.14703,-15.731115
2738754293000.0,-2.159388171536168,9.610507332261102,-1.8018942796092887,0.03023783,0.033292156,0.027794369,23.388325,-110.15644,-15.703615
2738759219000.0,-2.16308935753962,9.606806068962811,-1.772284752934254,0.030848695,0.02107485,0.035124753,23.359894,-110.15741,-15.665252
2738764233000.0,-2.1876013635036498,9.596821010036496,-1.7447001773722628,0.03848451,0.021380283,0.042455133,23.333307,-110.161316,-15.627238
2738769241000.0,-2.222609111240876,9.58369328740876,-1.718444366569343,0.04062254,0.0015271631,0.03726278,23.31581,-110.165215,-15.593414
2738774260000.0,-2.2390130339293357,9.57092778364274,-1.706631366070665,0.04550946,-0.016187929,0.032375857,23.30504,-110.16777,-15.559567
2738779249000.0,-2.234925545247669,9.558665488322356,-1.710718854752331,0.048258353,-0.048563786,0.03634648,23.304325,-110.16928,-15.5276165
2738784277000.0,-2.231396,9.546674442538476,-1.7165859469523357,0.034513887,-0.05955936,0.033292156,23.304443,-110.1735,-15.508402
2738789233000.0,-2.231396,9.537020172011662,-1.7326760618075805,0.025045475,-0.08460484,0.030848695,23.31796,-110.17767,-15.491413
2738794184000.0,-2.231396,9.527375641467218,-1.748749943697878,0.017104227,-0.105068825,0.03176499,23.330488,-110.18338,-15.476624
2738799290000.0,-2.225298574441928,9.515535109026205,-1.7728029026852152,0.01160644,-0.10995574,0.017715093,23.344187,-110.191315,-15.467677
2738804248000.0,-2.194575976965384,9.496333485603364,-1.82656748836946,-0.00061086525,-0.10598512,0.016798794,23.361727,-110.19318,-15.455945
2738809195000.0,-2.1639215417664186,9.477174463604012,-1.8802127899789711,0.008246681,-0.09896017,0.0106901415,23.386763,-110.20511,-15.446978
2738814211000.0,-2.149744996881034,9.473980354151196,-1.908799234093272,0.0018325958,-0.090713486,0.008857546,23.409916,-110.21095,-15.4371195
2738819195000.0,-2.1426559175404725,9.477524967844944,-1.9265219694564089,0.0030543262,-0.061391957,0.014660766,23.424519,-110.21903,-15.425303
2738824431000.0,-2.135147286030288,9.482000422919858,-1.9431303720605757,-0.004581489,-0.03634648,0.011911872,23.419842,-110.22651,-15.410465
2738829557000.0,-2.1267942697294537,9.498706368300152,-1.926424339458908,-0.008552114,-0.008857546,0.00580322,23.406086,-110.23387,-15.393144
2738834253000.0,-2.119141955147184,9.51401091755998,-1.911119710294368,-0.0015271631,0.022296581,0.022907447,23.385048,-110.23458,-15.364102
2738839282000.0,-2.12132066370282,9.514499888109802,-1.864591307921826,-0.0015271631,0.05497787,0.027794369,23.354595,-110.23692,-15.338533
2738844269000.0,-2.128445757183351,9.507375017827838,-1.804027938937789,-0.00030543262,0.05589417,0.03970624,23.326283,-110.235146,-15.306652
2738849602000.0,-2.135628,9.501128136976464,-1.7345625159473474,0.0033597588,0.06047566,0.04550946,23.29129,-110.22894,-15.2698
2738854353000.0,-2.135628,9.515647208137215,-1.6038900795612283,0.008246681,0.055588737,0.04795292,23.259663,-110.22123,-15.231714
2738859284000.0,-2.135628,9.530716359872358,-1.4682668878500198,0.01740966,0.025350908,0.042455133,23.23978,-110.2142,-15.20267
2738864270000.0,-2.147754055911746,9.536984211356264,-1.3724458311875405,0.021685716,0.013744468,0.04734206,23.21704,-110.20436,-15.169639
2738869276000.0,-2.172642549513303,9.53387308468527,-1.3195577822842308,0.025350908,-0.015271631,0.048563786,23.207502,-110.19803,-15.142828
2738874323000.0,-2.197734884153147,9.53073647735237,-1.2662365711745618,0.034513887,-0.0290161,0.055588737,23.207567,-110.178535,-15.11962
2738879229000.0,-2.2341625657525643,9.522944850533808,-1.2334153557672178,0.03848451,-0.05009095,0.054061573,23.217344,-110.160835,-15.101404
2738884300000.0,-2.2900766304061126,9.507695758007117,-1.2283322541553277,0.056199603,-0.06078109,0.055588737,23.228428,-110.14571,-15.081156
2738889274000.0,-2.338924648410818,9.500193,-1.2355301672277148,0.048258353,-0.07696902,0.048563786,23.251965,-110.12902,-15.077457
2738894277000.0,-2.3819870746711334,9.500193,-1.2551039601846556,0.0571159,-0.06963864,0.050396383,23.272066,-110.11695,-15.07032
2738899521000.0,-2.4271112272645814,9.497913470267187,-1.2794141124307592,0.06658431,-0.070554934,0.048563786,23.30492,-110.10988,-15.076803
2738904308000.0,-2.4681902461876835,9.47550667595308,-1.3354309812316716,0.07422013,-0.050701816,0.0421497,23.329004,-110.10497,-15.082259
2738909212000.0,-2.510273285418703,9.45255223281199,-1.392816969240795,0.07696902,-0.02443461,0.03848451,23.353174,-110.10787,-15.095826
2738914217000.0,-2.520817238404341,9.439002051045016,-1.408042802873794,0.07788532,-0.004886922,0.03359759,23.372747,-110.11335,-15.110428
2738919214000.0,-2.507994249517685,9.432590439442658,-1.3920140751339765,0.077579886,0.014660766,0.02687807,23.384232,-110.12009,-15.124557
2738924687000.0,-2.493949779200161,9.425568075964629,-1.374458496402733,0.09315695,0.021991149,0.020158553,23.393602,-110.143524,-15.14731
2738929341000.0,-2.4624490671328023,9.448346537969996,-1.3584751353583997,0.084910266,0.03145956,0.015577064,23.396587,-110.16269,-15.169305
2738934230000.0,-2.419088327819966,9.487371153546952,-1.3411308215225042,0.09040806,0.028099801,0.008246681,23.40075,-110.18848,-15.193662
2738939224000.0,-2.363885281668085,9.52403569106383,-1.3204762468765958,0.09682214,0.03940081,0.0143553335,23.407059,-110.20069,-15.20642
2738945138000.0,-2.2819420049702126,9.562597487659575,-1.2915550755914895,0.08979719,0.042760566,0.0106901415,23.415518,-110.21455,-15.224254
2738949295000.0,-2.2277679151089846,9.588457180542266,-1.275270198936736,0.09712757,0.04642576,0.010995574,23.42059,-110.220894,-15.22767
2738954306000.0,-2.192050167783094,9.608867215311005,-1.2905778582137162,0.09132435,0.046120327,0.004276057,23.425106,-110.225525,-15.233963
2738959256000.0,-2.1613106510085163,9.623167093679964,-1.3009219095921112,0.07391469,0.03726278,0.002443461,23.420385,-110.21642,-15.226005
2738964288000.0,-2.146910394740774,9.61596681518004,-1.293721706275213,0.062002823,0.03023783,0.0061086523,23.415245,-110.20751,-15.218345
2738969203000.0,-2.1328449616016734,9.608933951740624,-1.286688916270731,0.0571159,0.023823744,0.008552114,23.405727,-110.18991,-15.204137
2738974291000.0,-2.1111691354900275,9.605537,-1.3056150708655407,0.05131268,0.005497787,-0.00061086525,23.40118,-110.17207,-15.19366
2738979275000.0,-2.0838396551961065,9.605537,-1.3466092437446322,0.03359759,-0.020463986,-0.007941248,23.401009,-110.15063,-15.183183
2738984280000.0,-2.066659036413093,9.59008777196482,-1.3772080341826094,0.0143553335,-0.040927973,-0.007941248,23.408295,-110.12569,-15.169826
2738989220000.0,-2.0623694913954123,9.555771590987398,-1.3943661694623266,-0.002443461,-0.052839845,-0.02443461,23.418802,-110.103615,-15.164521
2738994235000.0,-2.060000168210734,9.526949422363588,-1.4196317288325415,-0.022602014,-0.061086524,-0.019242255,23.430206,-110.070015,-15.146536
2738999274000.0,-2.0643239290923754,9.518301720007168,-1.4715169045605232,-0.0571159,-0.06383542,-0.03634648,23.44058,-110.03983,-15.14011
2739004493000.0,-2.0698245770220907,9.51059193233606,-1.524769490024352,-0.09040806,-0.06841691,-0.04795292,23.452026,-110.00679,-15.131817
2739009217000.0,-2.093432662254305,9.526330929726909,-1.5641162028787616,-0.11881329,-0.061391957,-0.06169739,23.45943,-109.97342,-15.128533
2739014682000.0,-2.120743878552792,9.544538724125934,-1.6096347858062272,-0.14844026,-0.06566802,-0.07666359,23.468906,-109.944115,-15.129077
2739019215000.0,-2.1316776510494244,9.559329843348005,-1.6437993590978337,-0.15668693,-0.06078109,-0.086437434,23.473085,-109.91632,-15.131011
2739024281000.0,-2.13988957874069,9.575753612982398,-1.6807530765825998,-0.19028452,-0.042760566,-0.094989546,23.473793,-109.88245,-15.136168
2739029246000.0,-2.140578300057306,9.615685134097422,-1.738599298452722,-0.19639318,0.0018325958,-0.099265605,23.464928,-109.862404,-15.143939
2739034221000.0,-2.126926557936963,9.702146072492836,-1.8387121690353392,-0.2171626,0.05467244,-0.098043874,23.448477,-109.83504,-15.150622
2739039212000.0,-2.11018619501898,9.771487047773354,-1.900688961836867,-0.20861048,0.11362094,-0.090713486,23.409681,-109.81758,-15.155119
2739044213000.0,-2.0835810231830387,9.784789402184982,-1.838610397324322,-0.19547687,0.14813483,-0.083383106,23.363562,-109.797554,-15.157044
2739049272000.0,-2.0581536811603054,9.799222297099236,-1.7735486214656488,-0.15821409,0.18997909,-0.0729984,23.291796,-109.78056,-15.139933
2739054243000.0,-2.0484628368244278,9.82344940793893,-1.6863309212519084,-0.15271631,0.19150625,-0.062002823,23.223482,-109.758804,-15.120868
2739059237000.0,-2.038665868063801,9.844559055933052,-1.5961682218582365,-0.11301007,0.19853121,-0.04428773,23.148495,-109.74272,-15.09158
2739064302000.0,-2.028257494127745,9.841089887776269,-1.4851455303125671,-0.095294975,0.20311269,-0.03940081,23.074806,-109.724365,-15.062985
2739069185000.0,-2.018223122966884,9.837745376797082,-1.378112203004077,-0.07544186,0.19150625,-0.026572637,23.013922,-109.69657,-15.026636
2739074229000.0,-2.017390700041068,9.826615127638604,-1.2611211805010267,-0.032375857,0.17562376,-0.007941248,22.954569,-109.67444,-14.987672
2739079257000.0,-2.037165710472279,9.798929947843945,-1.130605987761807,-0.0106901415,0.16218472,0.016187929,22.899866,-109.64849,-14.944644
2739085097000.0,-2.064136127364865,9.763015361486486,-0.975141096587838,0.019242255,0.099265605,0.02565634,22.87387,-109.62096,-14.909242
2739089287000.0,-2.139449206869369,9.684689728603605,-0.8094522744932432,0.04153884,0.07971791,0.028405234,22.840736,-109.59286,-14.86776
2739094236000.0,-2.228404918198198,9.592175753153152,-0.6137496538378379,0.041233405,0.027488936,0.042760566,22.850788,-109.5564,-14.838855
2739099333000.0,-2.3063412221295976,9.510449868081816,-0.4488136474226538,0.046731193,-0.029932396,0.04337143,22.867115,-109.52819,-14.815175
2739104359000.0,-2.33943382114988,9.47322092634926,-0.4033114717076315,0.04153884,-0.07849618,0.032375857,22.895752,-109.498146,-14.794194
2739109240000.0,-2.3715716993468545,9.437066038844964,-0.3591220328566518,0.036957346,-0.124005646,0.025961773,22.97012,-109.47082,-14.812266
2739114221000.0,-2.3947565064314875,9.44300901602095,-0.3970432214703843,-0.004581489,-0.16523905,0.013439035,23.055323,-109.44042,-14.83786
2739119195000.0,-2.4167706802896096,9.45401594970346,-0.4447406326434568,-0.03359759,-0.1957823,0.01038471,23.149815,-109.41182,-14.864705
2739124216000.0,-2.435191332234012,9.469932066724024,-0.5043226602714845,-0.054367006,-0.20799962,0.016798794,23.257742,-109.384964,-14.905172
2739129270000.0,-2.444444920705477,9.497693073702324,-0.5922322821909951,-0.08155051,-0.21105394,0.004581489,23.369312,-109.35791,-14.952666
2739134243000.0,-2.445407407433217,9.526643664238202,-0.6764374651631295,-0.10445796,-0.19517145,0.002443461,23.469534,-109.334694,-14.99994
2739144213000.0,-2.380700984137784,9.61546256687221,-0.8356074398639166,-0.13988814,-0.18478674,-0.004581489,23.570066,-109.30966,-15.051954
2739149261000.0,-2.336157115855128,9.711402831951236,-0.938400820225388,-0.14263703,-0.1600467,-0.00580322,23.654823,-109.296684,-15.099205
2739154582000.0,-2.2892042784676447,9.812531625629031,-1.046753351307676,-0.14721853,-0.12889257,-0.0015271631,23.722483,-109.2807,-15.137785
2739159244000.0,-2.234044620672201,9.887815220894918,-1.091756,-0.12767084,-0.12064589,-0.0012217305,23.78858,-109.270645,-15.177193
2739164219000.0,-2.161695136717959,9.9553413521968,-1.091756,-0.1301143,-0.08155051,-0.00030543262,23.8364,-109.25578,-15.211027
2739169212000.0,-2.099582846679352,9.999637461357253,-1.080727538642747,-0.10903945,-0.054061573,0.0030543262,23.870586,-109.24197,-15.220107
2739174265000.0,-2.046968924834647,10.021559890640573,-1.0588051093594273,-0.09040806,-0.01863139,0.024740042,23.891865,-109.223656,-15.2210455
2739179202000.0,-2.0155533311978577,10.027645183798535,-1.0261762521114428,-0.079107046,-0.01985312,0.046120327,23.90699,-109.19739,-15.207024
2739184291000.0,-2.0306124521783917,9.997527099083324,-0.9659396895663817,-0.05955936,-0.020463986,0.06261369,23.91246,-109.17271,-15.186636
2739189188000.0,-2.05054340298588,9.965296432188149,-0.8999519616467309,-0.03359759,-0.01863139,0.08093964,23.912848,-109.13684,-15.150394
2739194235000.0,-2.080972378307401,9.92617344446443,-0.8173592069520641,-0.019547688,-0.033292156,0.09621128,23.918697,-109.10029,-15.11231
2739199286000.0,-2.1145424618328144,9.886288295497684,-0.7333393518897579,0.01038471,-0.040011674,0.10873401,23.929186,-109.067116,-15.075544
2739204275000.0,-2.16532836820287,9.842757745881103,-0.6426501727659252,0.03573562,-0.06078109,0.11484267,23.948017,-109.03464,-15.038996
2739209235000.0,-2.2158190668590088,9.799480230126791,-0.5524881506263761,0.050396383,-0.10842858,0.113926366,23.99179,-109.000694,-15.011739
2739214216000.0,-2.2834481445018358,9.741979270082917,-0.4258873634062797,0.043676864,-0.1414153,0.11881329,24.037216,-108.965775,-14.982493
2739219206000.0,-2.367891160065244,9.67052738072584,-0.2634969055566127,0.018936822,-0.172264,0.10476339,24.09364,-108.93577,-14.9624605
2739224311000.0,-2.4542802571496534,9.597428804539897,-0.0973639822454804,-0.021380283,-0.21533,0.10629055,24.180506,-108.90316,-14.959147
2739229260000.0,-2.5065286722983258,9.556190742770168,-0.0121714361745306,-0.07880162,-0.26816985,0.093462385,24.27624,-108.870865,-14.966677
2739234284000.0,-2.535821727519026,9.536662141248096,0.0171216394378488,-0.14385876,-0.31948254,0.07880162,24.382648,-108.83173,-14.977198
2739239269000.0,-2.560577239569005,9.533305322787712,-0.0085185732508023,-0.21563543,-0.34513888,0.062308256,24.527231,-108.78895,-15.027082
2739244235000.0,-2.5823830874980893,9.540574065260584,-0.0703016395445514,-0.29352075,-0.36071593,0.043982297,24.681175,-108.74046,-15.083555
2739249527000.0,-2.6048915,9.548745523465096,-0.1380864435828427,-0.35094208,-0.38240165,0.029321533,24.844868,-108.68816,-15.150688
2739254251000.0,-2.6048915,9.567770251471824,-0.2522348910849453,-0.4098906,-0.3866777,0.013744468,25.00529,-108.63096,-15.222293
2739259242000.0,-2.6048915,9.587870255172414,-0.3728349972413793,-0.45265114,-0.36896262,0.014049901,25.165634,-108.5827,-15.294954
2739264220000.0,-2.551545290237202,9.611202688957384,-0.5375980646475476,-0.4605924,-0.35888332,-0.008857546,25.325754,-108.54354,-15.3781
2739270249000.0,-2.443217806687215,9.642153225408736,-0.7735972988206916,-0.48197266,-0.33261612,-0.019547688,25.475199,-108.49649,-15.454868
2739274223000.0,-2.371814021709997,9.66255419270973,-0.9291555931653712,-0.49021935,-0.2947425,-0.019547688,25.605297,-108.46766,-15.528531
2739279271000.0,-2.316662704711232,9.672575,-1.054326115962078,-0.49449542,-0.2574797,-0.028710667,25.725664,-108.44405,-15.605402
2739284283000.0,-2.2841586943794137,9.672575,-1.1332641704846669,-0.4841107,-0.21135938,-0.025045475,25.831972,-108.42122,-15.675255
2739289272000.0,-2.241286352729077,9.659459521998016,-1.1771141215679788,-0.47311515,-0.17989981,-0.028710667,25.888704,-108.404045,-15.715545
2739294227000.0,-2.190270054639431,9.635913437396626,-1.192811456665564,-0.45234573,-0.15943582,-0.022907447,25.935324,-108.38803,-15.749862
2739299273000.0,-2.1445371385577325,9.610440411734055,-1.2086806843268028,-0.43768495,-0.15302174,-0.020158553,25.967993,-108.373535,-15.775038
2739304521000.0,-2.1392996389328887,9.573778242496871,-1.2243931832013335,-0.4156938,-0.1441642,-0.0061086523,25.99454,-108.35974,-15.793903
2739309280000.0,-2.134704192926045,9.54622934726688,-1.2354081,-0.4071417,-0.13530666,-0.0033597588,26.005283,-108.3405,-15.804582
2739314218000.0,-2.130480341693462,9.537781468381564,-1.2354081,-0.3885103,-0.13041973,0.005497787,26.015491,-108.321556,-15.809172
2739319604000.0,-2.1265622247306317,9.529434017615872,-1.2348970752693689,-0.3921755,-0.13683382,0.007330383,26.028543,-108.30563,-15.815155
2739324253000.0,-2.1379841188301696,9.54085575269369,-1.2234751811698306,-0.3811799,-0.14049901,0.011911872,26.039768,-108.29196,-15.817407
2739329348000.0,-2.150501767880965,9.553373227467077,-1.2109575321190351,-0.38759398,-0.1432479,0.010995574,26.048042,-108.26834,-15.817621
2739334285000.0,-2.1684633546056165,9.549444061527456,-1.2340412377839385,-0.3885103,-0.13255776,0.022907447,26.054157,-108.243385,-15.812494
2739340185000.0,-2.193728566553389,9.53428514541227,-1.2845717144428548,-0.3903429,-0.12095132,0.03023783,26.060406,-108.21942,-15.809038
2739344217000.0,-2.214702891128139,9.530642651495569,-1.3127634935007386,-0.39706242,-0.112704635,0.03634648,26.078035,-108.18547,-15.798877
2739349311000.0,-2.2462288350904727,9.535146458548745,-1.339785771491876,-0.40103304,-0.092240654,0.036651913,26.08831,-108.15231,-15.787555
2739354318000.0,-2.272778552393969,9.53439941821709,-1.3681078063839167,-0.40744713,-0.06811147,0.03756821,26.086954,-108.12152,-15.777852
2739359275000.0,-2.2853362274490783,9.517655938894276,-1.4015949398642094,-0.40500367,-0.055588737,0.03634648,26.082886,-108.092705,-15.768447
2739364634000.0,-2.298738473074979,9.4988206084246,-1.4377408922999158,-0.4016439,-0.015271631,0.03145956,26.071306,-108.060455,-15.756346
2739369227000.0,-2.306149802881213,9.46546931474305,-1.4673862115248526,-0.39584067,0.0009162979,0.038179077,26.063633,-108.02725,-15.742087
2739374316000.0,-2.3143614853074976,9.42851640084246,-1.5002329412299915,-0.38789943,0.03573562,0.034513887,26.02986,-108.00039,-15.731491
2739379248000.0,-2.322639113372302,9.39631938839928,-1.5181873342446042,-0.36132678,0.077579886,0.018325957,25.989525,-107.97902,-15.721587
2739384287000.0,-2.3313186549280576,9.365941740647482,-1.526866739856115,-0.32284227,0.1255328,0.016187929,25.93835,-107.95829,-15.706934
2739389276000.0,-2.333569356727829,9.343792340169095,-1.500573064040295,-0.29810223,0.16157386,0.0036651916,25.878351,-107.94331,-15.696641
2739394239000.0,-2.325019185321101,9.335242124123043,-1.4150726891527254,-0.26542094,0.19547687,0.00061086525,25.806398,-107.93284,-15.68202
2739399280000.0,-2.314320193853132,9.329987958277938,-1.3167956266637992,-0.2501493,0.21380283,-0.012217305,25.732233,-107.92468,-15.671389
2739404489000.0,-2.290912609095175,9.34559316415109,-1.1451395637913506,-0.23793201,0.22449298,-0.009468411,25.652384,-107.91709,-15.655664
2739409954000.0,-2.266354641980136,9.36196529893642,-0.965047341944944,-0.23518312,0.22418754,-0.014049901,25.583387,-107.90059,-15.64169
2739414220000.0,-2.272716693365794,9.372412679549605,-0.8878976508520998,-0.23671028,0.20952678,-0.020158553,25.516808,-107.88491,-15.627326
2739419211000.0,-2.29453549690353,9.38332213827602,-0.8333505280926659,-0.24465153,0.2012801,-0.01863139,25.449831,-107.86797,-15.611606
2739424674000.0,-2.318234992558305,9.395009975253696,-0.775235482695389,-0.25534168,0.17745635,-0.02443461,25.40179,-107.84171,-15.604076
2739429244000.0,-2.3338185135659604,9.398905906355706,-0.7635478927897454,-0.2764165,0.16523905,-0.03023783,25.353806,-107.813286,-15.595885
2739434191000.0,-2.3506875898077264,9.4031232304611,-0.7508961406533737,-0.29871312,0.12736541,-0.04642576,25.333511,-107.78511,-15.598675
2739439275000.0,-2.3712125993704563,9.435060838791877,-0.7776269253990857,-0.32467487,0.1160644,-0.049480084,25.309898,-107.75289,-15.598706
2739444233000.0,-2.392563918144345,9.477763253391291,-0.820329600104924,-0.35185838,0.09040806,-0.052534413,25.30134,-107.72285,-15.605446
2739449361000.0,-2.418806151121076,9.528513178337358,-0.8767782881683339,-0.37293324,0.087964594,-0.056199603,25.286747,-107.687164,-15.61442
2739454308000.0,-2.508689037107623,9.679679949120386,-1.12191348606416,-0.37690386,0.08674286,-0.0580322,25.279644,-107.65226,-15.624638
2739459193000.0,-2.597445434529148,9.828952169713697,-1.3639764417385305,-0.3848451,0.08368854,-0.06291912,25.267181,-107.61389,-15.634913
2739464275000.0,-2.6317769199345435,9.912347099672717,-1.5189937997917289,-0.36926803,0.09162979,-0.07086037,25.252132,-107.58115,-15.645973
2739469223000.0,-2.642351006456412,9.96521753228206,-1.6317841296340374,-0.33964106,0.11056661,-0.073303826,25.23523,-107.550735,-15.65631
2739474352000.0,-2.651323695642796,10.020865802847284,-1.7475416248317517,-0.30787608,0.12980886,-0.069027774,25.194254,-107.537834,-15.6663265
2739479849000.0,-2.619528601811907,10.09808228990509,-1.8474693065056085,-0.25900686,0.14721853,-0.06994407,25.148958,-107.53323,-15.677298
2739484199000.0,-2.594367849007765,10.15918684124245,-1.9265461511993096,-0.17654006,0.17501289,-0.06719518,25.081467,-107.53506,-15.677118
2739489274000.0,-2.54097980620732,10.182777885060998,-1.9589342601549915,-0.081855945,0.21746802,-0.049785517,25.006554,-107.5408,-15.671266
2739494217000.0,-2.479232736177396,10.186410134811632,-1.9661986079490523,0.013744468,0.26419923,-0.0290161,24.924013,-107.5549,-15.661827
2739499263000.0,-2.420177379969759,10.183294318331406,-1.93838811572534,0.105374254,0.31215215,-0.009162978,24.823523,-107.5617,-15.627437
2739504252000.0,-2.3946796095970826,10.123799506003737,-1.6196652095170327,0.17562376,0.3622431,0.0076358155,24.711332,-107.57287,-15.585965
2739509265000.0,-2.369059180076492,10.064018488926443,-1.2994090602241395,0.22937989,0.39614612,0.027794369,24.575838,-107.5746,-15.523862
2739514284000.0,-2.3654714,10.002522766926957,-1.0134584661164376,0.25870144,0.4083634,0.042455133,24.435104,-107.57901,-15.457546
2739519182000.0,-2.3654714,9.942248851339327,-0.7399065459029357,0.2556471,0.40011674,0.050701816,24.2937,-107.582275,-15.387021
2739524260000.0,-2.3654714,9.88438142766455,-0.5225039304710992,0.22449298,0.38056904,0.05100725,24.187538,-107.57293,-15.325374
2739529256000.0,-2.3654714,9.828430567657868,-0.3226804766956231,0.16554448,0.34238997,0.05955936,24.09151,-107.55484,-15.260709
2739534243000.0,-2.3591545823866493,9.7507498027546,-0.1433103150730874,0.10903945,0.31031954,0.06505715,24.014925,-107.52867,-15.214249
2739539216000.0,-2.344790826560772,9.645415893334674,0.0099031873921785,0.038179077,0.28008172,0.0580322,23.949667,-107.49349,-15.171033
2739544210000.0,-2.332530995289314,9.55480945921721,0.1294475974669853,-0.032986723,0.23335053,0.064751714,23.914396,-107.44023,-15.137918
2739549280000.0,-2.322859620625436,9.482275285330148,0.2068174364690768,-0.12156218,0.20738874,0.061086524,23.88143,-107.3803,-15.110626
2739554254000.0,-2.3133756328823,9.438520444930852,0.2279396212187842,-0.18936823,0.17256944,0.061086524,23.87063,-107.31422,-15.0943775
2739559230000.0,-2.303893162123172,9.429037776141676,0.1805272377186349,-0.2144137,0.1441642,0.06994407,23.865728,-107.24276,-15.077789
2739564188000.0,-2.287773809120521,9.447562419264774,0.1239147009492787,-0.27183503,0.13439035,0.087964594,23.867157,-107.157036,-15.0649395
2739569216000.0,-2.262166104513727,9.50518003037958,0.0534933712278135,-0.3155119,0.1337795,0.10751228,23.87429,-107.070366,-15.050267
2739574285000.0,-2.236349586086552,9.563267474838796,-0.0175021976580469,-0.33536503,0.16065755,0.10567969,23.861069,-106.98763,-15.037393
2739579225000.0,-2.1992050673523966,9.655580034046492,-0.0656841661147911,-0.36743546,0.18173242,0.09712757,23.849957,-106.897995,-15.021647
2739584455000.0,-2.1425342893231845,9.804984704896112,-0.086291734672701,-0.398895,0.18234327,0.13164146,23.838446,-106.79901,-14.994384
2739589213000.0,-2.127187121844545,9.902255202321529,-0.1100517035664369,-0.42149702,0.1563815,0.1881465,23.807621,-106.695946,-14.95404
2739595401000.0,-2.1553598047064417,9.977382209531733,-0.1476153081720941,-0.43890667,0.13927728,0.24465153,23.77546,-106.58417,-14.90415
2739599672000.0,-2.177332674004684,10.022337304691916,-0.1729733849705241,-0.44715336,0.13164146,0.30085114,23.734282,-106.45029,-14.827482
2739604252000.0,-2.25880089882904,9.91253251667609,-0.1871417701275942,-0.44898596,0.14782938,0.36132678,23.692854,-106.30364,-14.734991
2739609261000.0,-2.347900099297424,9.79244252035048,-0.2026372813179359,-0.45662177,0.14752395,0.41141775,23.657562,-106.1468,-14.631561
2739614213000.0,-2.4769370230086114,9.625103253767492,-0.218761481232508,-0.46303585,0.14721853,0.44959682,23.618402,-105.9821,-14.516209
2739619231000.0,-2.653678338060639,9.400942964029422,-0.2360045409705777,-0.46181414,0.1518,0.46578476,23.577904,-105.81508,-14.395461
2739624304000.0,-2.8277346581464875,9.16974171748879,-0.2528906794768311,-0.47036624,0.15974127,0.4709771,23.536901,-105.667076,-14.296748
2739629368000.0,-2.987979521965227,8.925559390370545,-0.2681520918535127,-0.462425,0.15118915,0.4437936,23.498169,-105.53016,-14.205425
2739634242000.0,-3.1422120389977186,8.690538722445126,-0.2828408998953662,-0.44135013,0.14721853,0.38973203,23.469309,-105.44748,-14.168519
2739639222000.0,-3.242270416325508,8.291564640354249,-0.1697180729952377,-0.44409904,0.13103059,0.32406402,23.445333,-105.37673,-14.144428
2739644205000.0,-3.318024714253488,7.825077571158826,-0.0022611793499874,-0.4364632,0.101098195,0.23640485,23.424465,-105.332504,-14.143222
2739649275000.0,-3.339096651323624,7.462534294714665,0.1551930433965375,-0.4392121,0.09621128,0.14996742,23.423866,-105.34887,-14.206162
2739654243000.0,-3.238859958825685,7.349223393478062,0.2815784719208574,-0.45112398,0.073303826,0.0983493,23.436718,-105.3804,-14.284454
2739659246000.0,-3.131805674606567,7.254383928502039,0.4193169593821643,-0.48655418,0.04917465,0.004276057,23.482698,-105.47759,-14.442982
2739665310000.0,-2.951277201787449,7.299515781620362,0.6731851235476977,-0.52106804,0.040011674,-0.14263703,23.529932,-105.60319,-14.629409
2739669298000.0,-2.8342862170556558,7.3388697143712065,0.8433329081149012,-0.60231316,0.04153884,-0.1826487,23.57749,-105.70772,-14.803789
2739674291000.0,-2.707559036445242,7.498300810207746,1.09269910491921,-0.63591075,0.02107485,-0.27000242,23.631878,-105.8675,-15.0311165
2739679370000.0,-2.578649092459605,7.660477965375738,1.346360413464991,-0.7150178,-0.02076942,-0.33078352,23.699057,-105.982956,-15.232073
2739684226000.0,-2.4501413924355133,7.85407343715583,1.6359166941261714,-0.79290307,-0.09162979,-0.3894266,23.780996,-106.123024,-15.455429
2739689222000.0,-2.3160938520626027,8.066700272244226,1.950235079634818,-0.90010995,-0.18387043,-0.43157628,23.88302,-106.270996,-15.689351
2739694212000.0,-2.1911627837090166,8.291548546246274,2.15500720428465,-1.0235047,-0.269697,-0.47250426,24.020054,-106.38794,-15.903986
2739699281000.0,-2.0690772690573773,8.526676538096124,2.304222964456036,-1.1450669,-0.33353242,-0.5018258,24.178724,-106.51486,-16.12522
2739704348000.0,-1.940189762234388,8.737595275586898,2.3939653988772385,-1.2409728,-0.36285394,-0.52290064,24.360895,-106.61697,-16.32543
2739709222000.0,-1.810253725229656,8.919505329405215,2.4286149393987198,-1.3225232,-0.35521814,-0.5354234,24.551615,-106.73252,-16.52807
2739714204000.0,-1.674471369628433,9.085372232094777,2.456149223209477,-1.387275,-0.3484986,-0.5366451,24.749802,-106.8257,-16.697256
2739719211000.0,-1.5324514680936996,9.214481560312333,2.469060156031233,-1.4236214,-0.33567044,-0.54000485,24.94437,-106.9365,-16.86649
2739724271000.0,-1.3816351744982565,9.329784001356064,2.474964538783417,-1.4798211,-0.31764993,-0.5332854,25.119516,-107.02332,-16.994814
2739729318000.0,-1.1831300199008137,9.344765632700502,2.433765375234405,-1.5445728,-0.27397305,-0.50854534,25.283499,-107.12091,-17.115442
2739735152000.0,-0.9536711191832624,9.36208341301821,2.3861418523208062,-1.6261233,-0.22296582,-0.47433686,25.42308,-72.80727,-17.192238
2739739214000.0,-0.874870689015401,9.324636809133802,2.3704392637585685,-1.707063,-0.12492194,-0.45570546,25.535498,-72.72179,-17.26432
2739744210000.0,-0.8280173933294757,9.247967356093652,2.361920490002671,-1.8060231,-0.06963864,-0.4428773,25.64541,-72.627,-17.326534
2739749237000.0,-0.7829259704587999,9.160276875647668,2.357089499080729,-1.91323,0.048258353,-0.42638394,25.677301,-72.56753,-17.335457
2739754267000.0,-0.7426691267265586,9.04755796373057,2.361115180511449,-1.971873,0.19242255,-0.40622538,25.684843,-72.49473,-17.340317
2739759247000.0,-0.7028124504270432,8.935959518134716,2.3651008452281466,-2.1013765,0.31948254,-0.3930918,25.660126,-72.40655,-17.336931
2739764236000.0,-0.7026661541303991,8.818806376088029,2.354793637608803,-2.2418754,0.41386122,-0.3830125,25.602686,-72.30245,-17.33049
2739769186000.0,-0.7065588425849894,8.70202572245032,2.343115572245032,-2.3942864,0.46975538,-0.3885103,25.520052,-72.17247,-17.326635
2739774222000.0,-0.7640306667845773,8.582933157056951,2.283370667845773,-2.5335636,0.4914411,-0.40530908,25.424849,-72.01713,-17.322111
2739779352000.0,-0.8856801696144323,8.461283926423771,2.1660656961443228,-2.6731462,0.5335908,-0.42577308,25.308977,-71.82983,-17.322584
2739784294000.0,-1.0427080504206194,8.362601418650438,2.065933310792912,-2.7980683,0.60139686,-0.4334089,25.184874,-71.604004,-17.332447
2739789219000.0,-1.338180018381958,8.328832508680867,2.011059978056202,-2.908024,0.6774496,-0.44898596,25.04904,-71.34133,-17.352678
2739794591000.0,-1.6650571240645586,8.288494701284584,1.963149513102767,-2.980717,0.72356987,-0.44623706,24.907106,-71.039955,-17.398483
2739799240000.0,-2.040478053820817,8.182907734189723,2.162591888735178,-2.994767,0.72265357,-0.44532076,24.76041,-70.716896,-17.45002
2739804862000.0,-2.494471701291173,8.055222225691699,2.403776022055336,-2.9724703,0.66156703,-0.4364632,24.645498,-70.339615,-17.551756
2739809612000.0,-2.872678472068027,7.949072635986394,2.6094961847483,-2.9092457,0.51923543,-0.4343252,24.558771,-69.96037,-17.649473
2739814225000.0,-2.8456308212585038,7.973114995748299,2.952099583843537,-2.798679,0.28221974,-0.4196644,24.520124,-69.5938,-17.731493
2739819214000.0,-2.816378549442177,7.999117018911565,3.3226281678639453,-2.7033842,0.003970624,-0.39278635,24.629135,-69.10414,-17.904562
2739824417000.0,-2.777130197768281,8.032654382621082,3.692850327502374,-2.6245825,-0.26725355,-0.3549127,24.805325,-68.63646,-18.053928
2739829329000.0,-2.4912193776353275,8.247087672649572,3.5811663747578346,-2.5558603,-0.45112398,-0.3399465,25.036453,-68.18488,-18.188091
2739834291000.0,-2.202398227492877,8.463703711965813,3.4683455739601143,-2.4929411,-0.5552765,-0.31215215,25.347162,-67.68116,-18.290382
2739839285000.0,-2.092239443419807,8.574916409013445,3.0528333286214733,-2.3872614,-0.61391956,-0.2687807,25.691513,-67.20278,-18.372576
2739844264000.0,-2.001947951297103,8.674237135201667,2.6058905793220983,-2.2525656,-0.63255095,-0.23060162,26.047535,-66.74655,-18.441807
2739849358000.0,-1.9473422285051376,8.644749314219423,2.008767703579715,-2.0830505,-0.6243043,-0.19120082,26.34195,-66.37744,-18.434134
2739854339000.0,-1.9038617058916143,8.581504895177329,1.3881822389956913,-2.0094411,-0.61208695,-0.18051068,26.633972,-66.0184,-18.422567
2739859238000.0,-1.889154911257036,8.530411134590699,0.806765816560482,-1.8506162,-0.58276546,-0.15302174,26.84009,-65.80208,-18.38022
2739864286000.0,-1.922571155909944,8.496994740396959,0.2577850924889898,-1.7201965,-0.52778757,-0.10598512,27.027473,-65.6032,-18.334356
2739869189000.0,-1.9976803905738896,8.5229381838769,-0.1003613731795219,-1.6471981,-0.42760566,-0.034208454,27.086494,-65.54254,-18.287416
2739874544000.0,-2.1713891693409466,8.676794542630407,-0.1152507016639891,-1.6398678,-0.27214047,0.05009095,27.1057,-65.50666,-18.234615
2739879240000.0,-2.317559292244104,8.767038436259016,-0.0213570812553691,-1.6771306,-0.09773844,0.13439035,27.001635,-65.51886,-18.17206
2739884282000.0,-2.458438264138098,8.74747192941081,0.3582334172047977,-1.7528778,-0.01985312,0.18692477,26.878695,-65.53586,-18.099829
2739889263000.0,-2.597612829589108,8.7281421454737,0.7332314879763351,-1.8258762,-0.040011674,0.21319197,26.710903,-65.51307,-18.026003
2739894215000.0,-2.645064948908776,8.710457864943841,1.123252481088485,-1.8704693,-0.106595986,0.2284636,26.536074,-65.49119,-17.94328
2739899240000.0,-2.6714315841475664,8.692880230481235,1.5231460466076157,-1.8738291,-0.20952678,0.2501493,26.379797,-65.47118,-17.847239
2739904246000.0,-2.5781392781852706,8.656630668532028,1.7054745314679725,-1.8212948,-0.25534168,0.258396,26.263584,-65.368,-17.784399
2739909227000.0,-2.4112988240831417,8.608961995802938,1.753143204197062,-1.6920967,-0.24740042,0.26511553,26.162724,-65.28606,-17.712927
2739914215000.0,-2.17681651687389,8.494677597485996,1.5423840142095917,-1.5387696,-0.15149458,0.25595254,26.092794,-65.1389,-17.647886
2739919205000.0,-1.8993193374777972,8.337973257412214,1.1669467841918295,-1.3884968,-0.054367006,0.23518312,26.021288,-65.01942,-17.586834
2739924329000.0,-1.614370330017762,8.177060824839458,0.7814276726465367,-1.2321151,0.009468411,0.18417588,25.919662,-64.91158,-17.516558
2739929260000.0,-1.5630655589712583,8.032223985582736,0.7134636568505256,-1.119716,0.08582657,0.14538592,25.790031,-64.82694,-17.459368
2739934249000.0,-1.6075067319691192,7.890012194865594,0.775681261923542,-1.0473285,0.2574797,0.1020145,25.623497,-64.75773,-17.431967
2739939270000.0,-1.7459598529016112,7.777496587048335,1.1053070104426717,-0.9550878,0.46395215,0.098043874,25.353073,-64.774185,-17.353962
2739944223000.0,-1.9611302048255903,7.692170644767715,1.6543622998467074,-0.872621,0.5739079,0.10629055,25.069965,-64.79923,-17.290554
2739949615000.0,-2.2072266281613486,7.608169931810906,2.294916064315441,-0.8356637,0.73792523,0.10720685,24.727924,-64.78652,-17.26363
2739954327000.0,-2.616542847561626,7.680402161455555,3.556573297481592,-0.7733554,0.7101309,0.09010262,24.417435,-64.7964,-17.230015
2739959239000.0,-3.0106246525925924,7.785920286964887,4.8424003188359785,-0.7828238,0.6047566,0.045814894,24.1573,-64.653015,-17.26298
2739964274000.0,-3.135869345185185,8.152377225877826,5.90929976910053,-0.8384125,0.37720928,-0.00580322,23.951637,-64.513405,-17.285803
2739969427000.0,-3.2654839358994017,8.54800847937433,6.922832810075143,-0.9450085,0.06078109,-0.060170226,23.94979,-64.15886,-17.361065
2739974296000.0,-3.408497240269897,9.216595128507898,6.758367607115473,-1.03786,-0.20799962,-0.093767814,24.002758,-63.798435,-17.425386
2739979258000.0,-3.554242160435516,9.89795207100138,6.590761047845422,-1.1123856,-0.40133846,-0.09285152,24.20687,-63.311428,-17.472263
2739984264000.0,-3.59679002221779,10.35361476545672,6.204374528280813,-1.1328496,-0.47769663,-0.074830994,24.446896,-62.823677,-17.505896
2739990363000.0,-3.4744736892501,10.522528115277224,5.371458645113681,-1.1282681,-0.4569272,-0.05681047,24.704227,-62.33627,-17.527475
2739994213000.0,-3.3575247127815664,10.613069412068608,4.829588023682579,-1.0989466,-0.38056904,-0.053145275,24.876179,-61.912205,-17.52609
2739999299000.0,-3.156211867379624,10.71372575594131,4.09479629299442,-1.0345002,-0.3286455,-0.093767814,25.043238,-61.50632,-17.531086
2740004317000.0,-2.832147792833682,10.822976627550512,3.5236367187518662,-0.9691377,-0.23701571,-0.122478485,25.086967,-61.193546,-17.518782
2740009279000.0,-2.38281861666169,10.941221082611724,3.1168755464019107,-0.86467975,-0.14905111,-0.12583824,25.116396,-60.912003,-17.51649
2740014187000.0,-2.0474814639467254,11.123600448874653,2.781923147391048,-0.7443393,-0.12034045,-0.122783914,25.061659,-60.730568,-17.48477
2740019220000.0,-1.8321392790272275,11.387699519008684,2.5178242893871703,-0.6395759,-0.07391469,-0.11026118,24.979712,-60.576515,-17.4642
2740024294000.0,-1.6467073441271027,11.643634721196262,2.2898656795514016,-0.5476407,0.03390302,-0.067500606,24.810574,-60.54929,-17.371445
2740029316000.0,-1.7330081706542055,11.809044194392524,2.390549927102804,-0.47067168,0.16676621,-0.004276057,24.621727,-60.548878,-17.28044
2740034197000.0,-1.8168859751700932,11.969809554542056,2.488407317046729,-0.39645153,0.3100141,0.046731193,24.356846,-60.65234,-17.141096
2740039274000.0,-1.9577721458513675,12.125091618933604,2.739307059710839,-0.30695978,0.4196644,0.08460484,24.065437,-60.782604,-17.002995
2740044234000.0,-2.167740470006446,12.26069662123584,3.18548977708813,-0.24709499,0.46273044,0.09743301,23.75719,-60.924335,-16.869255
2740049215000.0,-2.387227426619433,12.41429964271255,3.625548269888664,-0.23090707,0.5204572,0.09987647,23.42154,-61.06355,-16.749279
2740054259000.0,-2.636577158198381,12.624535400607288,4.046020551467612,-0.23732115,0.5412266,0.1328632,23.086864,-61.21479,-16.620424
2740060202000.0,-3.1392273205117958,12.78968631187525,4.283852305069972,-0.28344148,0.65148777,0.18020524,22.741924,-61.282352,-16.531033
2740064219000.0,-3.699127092043183,12.814297463814476,4.173102828052778,-0.3191771,0.7174612,0.2012801,22.409925,-61.349995,-16.438486
2740069180000.0,-4.390604006797281,12.844692267093162,4.036327086085565,-0.3268129,0.83291477,0.22235495,22.061977,-61.35706,-16.374767
2740074232000.0,-4.87956923072684,12.865793330950252,4.022310691979445,-0.30665436,0.91629785,0.22937989,21.711487,-61.364124,-16.313976
2740079257000.0,-5.298875543282693,12.883712388144176,4.047397409472743,-0.26297748,1.0396926,0.2556471,21.321823,-61.38237,-16.260963
2740084263000.0,-5.701946072431165,12.897877218204403,4.076388023649161,-0.18509217,1.169807,0.2773328,20.947762,-61.369812,-16.340313
2740089286000.0,-5.957555072479471,12.87463990718377,4.146099714070803,-0.076358154,1.2318097,0.2779437,20.564974,-61.376587,-16.421257
2740094179000.0,-6.206548669380996,12.852003999792975,4.214007199882686,0.021685716,1.2266175,0.258396,20.193146,-61.350967,-16.583866
2740099270000.0,-6.463413290703295,12.860496475066464,4.303303160895835,0.13897185,1.169807,0.24220806,19.824272,-61.35642,-16.74057
2740104297000.0,-6.7077525027793445,13.003997420365746,4.470074462990413,0.27885997,1.0858129,0.23976462,19.471272,-61.388733,-16.889011
2740109189000.0,-6.945529989446548,13.14364465020543,4.632367124587127,0.43890667,1.0103711,0.23548855,19.15892,-61.40164,-17.082548
2740114276000.0,-7.009314141659617,13.210854273398446,4.738104493678382,0.59131753,0.9401216,0.24007004,18.872347,-61.445045,-17.258669
2740119231000.0,-6.99471664992694,13.243699106129355,4.81474172539414,0.711658,0.8512407,0.24190263,18.61726,-61.51425,-17.419683
2740124345000.0,-6.968759362454071,13.285608838715916,4.894010354912009,0.8426886,0.7593055,0.23579398,18.395018,-61.578403,-17.60006
2740129228000.0,-6.869281811835236,13.38056434983562,4.970879360568556,0.9737192,0.643852,0.22174409,18.208387,-61.665462,-17.763077
2740134530000.0,-6.750114466150374,13.4943355715458,5.039161534413786,1.1191051,0.5204572,0.20066923,18.052109,-61.768806,-17.908754
2740139344000.0,-6.5373106307826445,13.697681519027592,4.958769117037645,1.2516629,0.45234573,0.1600467,17.91939,-61.88757,-18.051502
2740144265000.0,-6.324528707853583,13.912895061178896,4.857646434920089,1.3878858,0.32467487,0.14935656,17.827917,-62.037678,-18.15072
2740149268000.0,-6.155734847482385,14.205196561350748,4.565344891759753,1.4495832,0.22357668,0.13133603,17.755852,-62.185616,-18.25434
2740154272000.0,-5.986907248582231,14.497556486767486,4.272984923345936,1.5564847,0.16432275,0.13836098,17.68169,-62.408745,-18.308443
2740159302000.0,-5.884386348473015,14.806481373485532,3.853217314488836,1.6594155,0.13255776,0.15271631,17.631126,-62.634327,-18.355598
2740164218000.0,-5.804246934274556,15.11289678071493,3.405378919375188,1.7773124,0.16432275,0.1966986,17.576834,-62.88428,-18.391504
2740169235000.0,-5.787464681246832,15.317895957340768,3.0393335688545364,1.9025398,0.22174409,0.23854288,17.48531,-63.226864,-18.388433
2740174233000.0,-5.791507918854536,15.487716074421355,2.7037376278003045,2.021964,0.29352075,0.2883284,17.378185,-63.59061,-18.375154
2740179235000.0,-5.813776147663749,15.632638944626096,2.3707934574517457,2.1316142,0.3735441,0.32742378,17.22006,-64.04582,-18.340626
2740184316000.0,-5.865099553211686,15.740417667545618,2.0371911070245754,2.2314909,0.45845437,0.35521814,17.041237,-64.51399,-18.302189
2740189280000.0,-5.901402065225781,15.8061533269973,1.783725505104207,2.3445008,0.54367006,0.35888332,16.820826,-65.04075,-18.261868
2740194260000.0,-5.924410780007719,15.833763880837514,1.5996556426958704,2.4312437,0.6206391,0.3463606,16.583614,-65.562965,-18.223797
2740199585000.0,-5.893780132687652,15.933482684745764,1.648374756077482,2.536618,0.6579019,0.31123585,16.326134,-66.11179,-18.198185
2740204339000.0,-5.809264832929782,16.09516434463277,1.946016326715093,2.659402,0.65301496,0.2724459,16.066782,-66.65025,-18.177677
2740209699000.0,-5.710340503226964,16.282737553244893,2.293353247812836,2.7864618,0.61391956,0.21746802,15.810581,-67.18478,-18.172354
2740214287000.0,-5.540983012728577,16.566313460021515,2.8644420802617425,2.9339857,0.5112942,0.17898351,15.582589,-67.70817,-18.165855
2740219184000.0,-5.360219361688777,16.86898809286483,3.473993521522051,3.07815,0.34513888,0.15302174,15.396559,-68.20151,-18.137196
2740224314000.0,-5.157544338660578,17.15709700939713,4.03992000091986,3.1887167,0.121256754,0.14966199,15.264478,-68.67817,-18.102057
2740229326000.0,-4.954253194063927,17.42709259698233,4.564030157732778,3.2519412,-0.1600467,0.17165314,15.203629,-69.13757,-18.054104
2740234203000.0,-4.756437768645357,17.68981575752763,5.074023221335451,3.2656856,-0.3155119,0.24098633,15.178908,-69.57226,-17.942873
2740239272000.0,-4.315351998159708,17.65512527531415,5.431226595873531,3.2336152,-0.61636305,0.31948254,15.280589,-69.99343,-17.804249
2740244240000.0,-3.77921228501824,17.48541219286583,5.705082047904337,3.1807754,-0.86926126,0.36743546,15.412946,-70.400024,-17.654587
2740249214000.0,-3.3398194034174504,17.205629287922523,5.842727003044977,3.0430253,-1.0690142,0.45051312,15.604702,-70.79604,-17.405598
2740254323000.0,-3.239585285883229,16.522215023186515,5.491907781972251,2.8955014,-1.1777482,0.5018258,15.837483,-71.17618,-17.15296
2740259312000.0,-3.161081984296397,15.818254717199183,5.135076198164514,2.7345383,-1.2052372,0.52412236,16.049023,-71.55968,-16.815914
2740264279000.0,-3.2719523511799555,14.760366685442362,4.6407790453141695,2.5488353,-1.1731668,0.52748215,16.262962,-71.924385,-16.477331
2740269547000.0,-3.392449227048012,13.632515291395976,4.12385996735858,2.372906,-1.0647382,0.50610185,16.440924,-72.259705,-16.171267
2740274271000.0,-3.532236249485026,12.557230042782445,3.740341641863413,2.1939225,-0.93126404,0.43951756,16.594948,-72.55598,-15.886502
2740280154000.0,-3.706319029543654,11.218131160988747,3.262729806789732,2.038152,-0.7556403,0.29535335,16.710962,-72.77291,-15.701577
2740284236000.0,-3.685949775016829,10.2961670062506,2.8862455748052698,1.8942931,-0.57910025,0.115453534,16.786667,-72.93878,-15.554771
2740289218000.0,-3.548306778151745,9.176671027791134,2.3907307956726607,1.7669277,-0.34666604,-0.045814894,16.796726,-73.05197,-15.455072
2740294215000.0,-3.2996777330720235,8.192976180058796,1.9263524915923569,1.6539177,-0.12034045,-0.17287487,16.78425,-73.060646,-15.486284
2740299292000.0,-2.885168667515924,7.397308789808918,1.5023143373248409,1.5418239,0.112704635,-0.24770586,16.709005,-73.023575,-15.556794
2740304202000.0,-2.420033487963418,6.731870784442915,1.1554155199232965,1.4752395,0.34238997,-0.27152961,16.603537,-72.970955,-15.681792
2740309225000.0,-1.8334533370832924,6.2304393994001375,0.9094302842069032,1.4343116,0.5494733,-0.24709499,16.443098,-72.89802,-15.82013
2740314233000.0,-1.2710700371810773,5.757282182849044,0.7226017813731397,1.4544702,0.75655663,-0.18051068,16.218708,-72.87818,-15.939679
2740319214000.0,-0.7555089581148122,5.338917014174345,0.6507613320056698,1.4804319,0.93859446,-0.10415252,15.945842,-72.85892,-16.052881
2740324257000.0,-0.2378994003726445,4.904021485856448,0.5989042825936906,1.561677,1.104139,-0.01740966,15.603368,-72.93857,-16.08568
2740329253000.0,0.2280975226677958,4.351916519436799,0.7711205280224434,1.6612481,1.2910637,0.0888809,15.20438,-73.04312,-16.092892
2740334252000.0,0.64391365777427,3.788379198263615,1.0222995656669298,1.7660115,1.3487904,0.1881465,14.770815,-73.232254,-16.008558
2740339225000.0,0.8506539946507498,3.182254052121152,1.5955341454636938,1.8594738,1.427592,0.22571471,14.283064,-73.437195,-15.9105625
2740344245000.0,1.0247183,2.558751660947085,2.215050523504601,1.8976529,1.4199562,0.29443705,13.804664,-73.71979,-15.727241
2740349940000.0,1.0247183,1.7849875368098158,3.150886857668712,1.9507982,1.3622295,0.34574974,13.324876,-74.01265,-15.531176
2740354252000.0,1.0136027051838583,1.1948668421346538,3.8772232833421136,1.949271,1.2134838,0.3744604,12.916251,-74.319435,-15.318784
2740359289000.0,0.8763741485934042,0.4578987071646823,4.924226490190707,1.8826867,0.99021256,0.376293,12.549104,-74.627144,-15.090936
2740364258000.0,0.6854129880131389,-0.256588915991027,5.877129026245794,1.7354681,0.7141015,0.35979962,12.2872,-74.87549,-14.891531
2740369211000.0,0.2521917758019548,-0.9140211370132992,6.477558336099984,1.5115861,0.4428773,0.32498032,12.091173,-75.1108,-14.690413
2740374297000.0,-0.1926624711809005,-1.5891069993430542,7.094110621567056,1.2198979,0.18417588,0.28008172,12.022867,-75.244255,-14.550471
2740379242000.0,-0.4990774399055623,-1.744398759382378,6.956222047152705,0.9074403,-0.009162978,0.2489276,12.014809,-75.35875,-14.414539
2740384583000.0,-0.7695831057436964,-1.6719418323637738,6.453854366172443,0.58001655,-0.13836098,0.21288654,12.063082,-75.44036,-14.291639
2740389276000.0,-0.9719262033327888,-1.5304615991177912,5.961325254991015,0.2770274,-0.21471913,0.1853976,12.224492,-75.33328,-14.323035
2740394226000.0,-1.1616709198823725,-1.3290999094429017,5.40758057805914,0.04337143,-0.23426682,0.13041973,12.4092655,-75.18151,-14.3742485
2740399258000.0,-1.338288124216293,-1.095877377660546,4.84178275783707,-0.13225232,-0.23335053,0.07819075,12.614713,-74.976204,-14.4806385
2740404249000.0,-1.396477654976159,-0.6594559729126509,4.259887450238409,-0.269697,-0.22724187,0.022602014,12.828468,-74.730515,-14.605867
2740409265000.0,-1.4297081186993337,-0.2296121769410917,3.715826837506756,-0.34116822,-0.20372356,-0.028099801,13.024973,-74.46049,-14.781264
2740414292000.0,-1.3212983415961088,0.1519901913709241,3.399270281120519,-0.37873647,-0.16554448,-0.07513642,13.221245,-74.162704,-14.973738
2740420080000.0,-1.179882175226925,0.5905661713003569,3.0562621582967875,-0.40042216,-0.116980694,-0.09590584,13.391125,-73.90137,-15.159971
2740424253000.0,-0.9434810655481898,0.9003330897705253,2.982896392065273,-0.41325033,-0.10262536,-0.07666359,13.564483,-73.633965,-15.349362
2740429590000.0,-0.6406750310698603,1.289756823213573,2.892706078582834,-0.41325033,-0.12186762,-0.06261369,13.7115555,-73.42651,-15.495565
2740434243000.0,-0.3649489966207584,1.4587502075548904,2.9060476041217567,-0.4071417,-0.1518,-0.044593163,13.859716,-73.223885,-15.636021
2740439637000.0,-0.0498181262324344,1.6509388542916823,2.9214852245062666,-0.40775254,-0.3368922,-0.026267206,14.029324,-73.0872,-15.686674
2740444223000.0,0.1211549729775921,1.7343403937143942,2.9339954859001143,-0.36285394,-0.41691554,-0.01282817,14.177384,-72.95737,-15.736312
2740449238000.0,0.308121848803646,1.8255437779718957,2.9476760268704902,-0.3286455,-0.57910025,0.01985312,14.37613,-72.895485,-15.69829
2740454239000.0,0.4150515778258556,1.8677881296063128,2.93150575518709,-0.26450464,-0.732122,0.062002823,14.594574,-72.84506,-15.651639
2740459311000.0,0.5098040572300053,1.9022435954690549,2.909971117130697,-0.19883664,-0.8509353,0.10445796,14.848686,-72.80428,-15.591824
2740464293000.0,0.5359648998931298,1.9153614,2.867076626335878,-0.12705997,-0.9193522,0.15057829,15.110972,-72.82396,-15.4736595
2740469227000.0,0.5199336852332486,1.9153614,2.8109673373621717,-0.08735373,-0.91965765,0.19761491,15.384227,-72.85522,-15.342881
2740474258000.0,0.4688519999320475,1.895415371140202,2.774736790746477,-0.0729984,-0.8921687,0.23396139,15.652148,-72.92339,-15.1819105
2740479248000.0,0.3112610432117518,1.8142321052263413,2.8033897726591386,-0.09621128,-0.8723156,0.2510656,15.918234,-72.99491,-15.015082
2740484351000.0,0.1285935190359168,1.6824874215500945,2.757465000378072,-0.14049901,-0.8689558,0.25045475,16.178467,-73.07013,-14.847532
2740489690000.0,-0.1275426089650283,1.3973547959829868,2.48199783194707,-0.20372356,-0.8512407,0.24984388,16.424984,-73.13997,-14.678992
2740494269000.0,-0.3278647917647058,1.1689338235294118,2.230832623529412,-0.30115658,-0.8219192,0.24098633,16.680986,-73.155495,-14.555684
2740499262000.0,-0.4187387111819004,1.026131899809955,1.8586822378099548,-0.3903429,-0.75808376,0.21410827,16.92008,-73.1546,-14.442323
2740504247000.0,-0.5094670284850679,0.8835587794932127,1.4871281274932129,-0.48380527,-0.66828656,0.19058995,17.154337,-73.09574,-14.410266
2740509237000.0,-0.5730336833050461,0.811611419089333,1.100398593824254,-0.5910121,-0.56077427,0.16493362,17.36473,-73.012085,-14.392366
2740514193000.0,-0.6336667231955471,0.7466474800802994,0.714945904111689,-0.66981375,-0.42424592,0.13194689,17.540802,-72.90909,-14.390601
2740519218000.0,-0.62615261880412,0.699633237744964,0.3902415735265701,-0.7684685,-0.29565877,0.09682214,17.680553,-72.79034,-14.433006
2740524264000.0,-0.5909145578251755,0.6599904248928995,0.0907182290628019,-0.8597928,-0.17715092,0.0729984,17.784245,-72.65507,-14.488659
2740529247000.0,-0.5230363504973193,0.6064832501016825,-0.148683952900721,-0.9440922,-0.118507855,0.054367006,17.844378,-72.55072,-14.600014
2740534238000.0,-0.425832385592531,0.540207840455722,-0.3386735319095951,-1.0238101,-0.005192355,0.047036625,17.855335,-72.43101,-14.722005
2740539217000.0,-0.3533086404800844,0.4919310821551042,-0.4930325126431021,-1.063211,0.06688975,0.03573562,17.844599,-72.34753,-14.845251
2740544206000.0,-0.3239012030440517,0.4751268334450013,-0.5854559068689,-1.1184943,0.106901415,0.04062254,17.810627,-72.25299,-14.967092
2740549279000.0,-0.2986472118329247,0.4618944690995663,-0.6628701812521215,-1.1371256,0.119729586,0.046120327,17.772243,-72.12054,-15.004444
2740554255000.0,-0.3166197487667358,0.4843601332293041,-0.5864868640957949,-1.1282681,0.112399206,0.054367006,17.727325,-71.98612,-15.040906
2740559653000.0,-0.3420653451019352,0.5119007700444996,-0.4989106828365932,-1.1178834,0.07788532,0.07666359,17.679213,-71.86116,-15.056664
2740564230000.0,-0.4645420379095519,0.5890157409148298,-0.3446807931987995,-1.0977248,0.03481932,0.09315695,17.635113,-71.73974,-15.07128
2740569577000.0,-0.614332632807464,0.6867394712185468,-0.1548435462642541,-1.0870347,-0.024740042,0.09773844,17.610895,-71.61762,-15.087864
2740574257000.0,-0.8001827763189143,0.8345748096409387,0.0901407546687399,-1.0848967,-0.060170226,0.10293079,17.590872,-71.50177,-15.098964
2740579233000.0,-0.9977875442917724,0.9917604173310716,0.3506197891650174,-1.0977248,-0.084910266,0.095294975,17.60273,-71.397354,-15.160339
2740584267000.0,-1.301186838144742,1.291610038144742,1.262436355589764,-1.1178834,-0.14202617,0.077579886,17.634668,-71.292534,-15.219205
2740589190000.0,-1.6075173144742103,1.5979405144742105,2.214417218976409,-1.1954633,-0.25992316,0.018936822,17.694277,-71.16627,-15.286831
2740594217000.0,-1.93273124605087,2.264845983998215,4.307682682427488,-1.3524556,-0.5384777,-0.05222898,17.850885,-71.07694,-15.440232
2740599283000.0,-2.261800837751004,2.974943383587684,6.537561680749665,-1.6352862,-0.9602802,-0.113926366,18.087866,-70.93705,-15.589617
2740604242000.0,-2.988809742900385,5.127753063979086,6.894423294799119,-2.0271564,-1.627345,-0.1957823,18.580978,-70.498726,-15.760712
2740609277000.0,-3.922056414474408,8.015952976151166,6.3769356288204,-2.4376578,-2.1786509,-0.26297748,19.166513,-69.99882,-15.924992
2740614276000.0,-4.49533617515552,10.418479076302487,4.886318794653965,-2.7226264,-2.2244658,-0.3313944,20.00348,-69.1067,-16.134178
2740619217000.0,-4.7115097278382585,12.331844345645411,2.444018130559875,-2.7000244,-1.8044959,-0.37507126,20.864521,-68.181946,-16.3422
2740624268000.0,-4.904932474686178,13.90216921700534,1.1584402481656149,-2.420248,-1.042747,-0.33536503,21.530233,-67.4157,-16.558445
2740629228000.0,-5.059766069248908,14.953060402247036,1.4384584086483112,-2.0033326,-0.63041294,-0.20280726,22.161913,-66.71102,-16.753435
2740635334000.0,-5.250373716103752,16.246758300853042,1.7831743134683404,-1.7788396,0.25961772,-0.0009162979,22.141008,-66.63075,-16.950382
2740639276000.0,-5.2325664939340815,16.863395680575035,3.273672887973352,-1.2822062,0.2764165,0.102319926,22.252611,-66.67615,-17.087408
2740644215000.0,-5.137203746818022,17.522641780417253,5.7987086266392005,-1.244638,-0.21044308,0.26267207,22.23908,-66.71861,-17.167122
2740649286000.0,-4.9686857286972,18.119319022356315,7.842568169057276,-1.3457361,-0.9819659,0.2941316,22.285988,-66.84881,-17.14467
2740654242000.0,-4.621249194757147,18.49492685458502,8.4200639977248,-1.4947872,-1.9343048,0.17440203,22.535013,-66.953354,-17.06887
2740659242000.0,-4.252516726851114,18.82727851701831,8.112244190236863,-1.539075,-3.0161471,-0.02076942,23.196384,-66.75401,-16.846994
2740664284000.0,-3.8248219514132167,19.0195002508957,5.070325253433519,-1.4605788,-3.8203511,-0.28313604,24.055124,-66.50464,-16.631338
2740669234000.0,-3.424448569920972,19.058546525250577,1.826295858124518,-1.3994923,-3.6978729,-0.40133846,24.942495,-66.22625,-16.345879
2740675114000.0,-3.022842926513107,18.53754429703161,-3.003826118359676,-1.29198,-2.5222626,-0.18600847,25.732773,-65.97888,-16.078463
2740679271000.0,-2.744246018604651,18.203864589888777,-5.900597126956522,-1.0082331,-0.7779369,0.12767084,26.095125,-66.13099,-15.87261
2740684304000.0,-2.4323346220930238,17.965057645601618,-6.938677447826087,-0.5729916,0.58062744,0.20463985,26.227354,-66.3127,-15.758843
2740689239000.0,-2.100768384,17.808263320000002,-7.618924496,-0.24678956,1.3072516,0.16218472,25.81966,-66.82441,-15.595483
2740694220000.0,-1.6527836543304346,17.990775389478262,-6.818359204886956,-0.1591304,1.7369953,0.13408493,25.133547,-67.36734,-15.504273
2740699235000.0,-1.2017410084173914,18.174533275130432,-6.012329304278261,-0.19700404,2.0760255,0.15851954,24.242155,-68.005516,-15.421913
2740704259000.0,-1.172372218043202,18.450642041749862,-4.884192375639862,-0.21685717,2.4007003,0.23426682,23.25891,-68.64213,-15.3606415
2740709380000.0,-1.1990791765565438,18.74441909666001,-3.691282847948811,-0.16218472,2.7116308,0.34147367,22.203503,-69.271194,-15.299987
2740714285000.0,-1.6455271318961908,18.95585647090833,-1.5204634805776476,0.07696902,2.817616,0.4978552,21.157936,-69.92488,-15.134823
2740719231000.0,-2.275036786814567,19.139256490372546,1.106624242758476,0.45081854,2.6529877,0.68691796,20.114109,-70.622314,-14.925933
2740724272000.0,-2.935754461020428,19.248179541460686,4.946289995560115,0.95264435,2.1065688,0.9089675,19.225788,-71.3374,-14.626454
2740729307000.0,-3.601405553502472,19.333635058669906,9.129097483481017,1.520749,1.6762142,1.1533136,18.361181,-72.15464,-14.260186
2740734227000.0,-4.453907933058904,19.39060142066059,11.988959830442026,1.8206838,0.3454443,1.3057245,18.082386,-72.82634,-13.820073
2740739223000.0,-5.438677361893561,19.43280569744193,14.169520169950015,2.4055874,-1.6762142,1.643533,18.115446,-73.71646,-13.213043
2740744986000.0,-6.618799290010773,19.467700601410243,12.034635453853689,2.604424,-4.0705004,1.9095647,18.792425,-74.26374,-12.599569
2740749387000.0,-7.539267168543727,19.488338882087945,8.377529747233375,1.5726726,-4.2449026,1.8692477,19.381382,-74.68676,-12.010006
2740754226000.0,-8.56621588981869,18.74161096473401,4.212283637975692,1.0571023,-3.7201693,1.6856827,20.511002,-75.02421,-11.4358225
2740759465000.0,-9.690832270641565,17.272112174237893,-0.4211362393205826,0.31887165,-2.7403414,1.4248432,21.515465,-75.09377,-10.920306
2740764274000.0,-10.243711249318585,16.772196734648066,-3.117134722398589,0.16523905,-1.7464638,1.0955868,22.22302,-75.25834,-10.635852
2740769219000.0,-10.429739025493026,16.935445162578162,-4.64711685026455,0.38698313,-0.59620446,0.84513205,22.588821,-75.31405,-10.467648
2740774510000.0,-10.58397030404577,17.1534618818962,-6.11252142125051,0.6206391,0.5879578,0.6783658,22.727934,-75.46727,-10.547777
2740779288000.0,-10.308150637515324,17.75184926849203,-5.846051560686555,0.77549344,1.5476271,0.53786683,22.607466,-75.59378,-10.733424
2740784235000.0,-9.972972712541512,18.344795855245167,-5.546027062023833,0.9221011,2.1670444,0.33475417,22.23935,-75.8032,-11.02638
2740789283000.0,-9.0663508277984,18.647004300644657,-4.965222563488963,1.1304061,2.5793786,-0.030848695,21.662125,-75.94804,-11.42472
2740794454000.0,-8.141509705884328,18.9433291395954,-4.376542886997397,1.3631458,2.9852984,-0.47586402,20.903032,-76.038124,-11.861689
2740799322000.0,-7.315790335381516,19.06855642709645,-3.895199149634853,1.6209309,3.4755177,-0.8371908,20.003859,-76.04187,-12.373181
2740804317000.0,-6.468528984588265,19.19705073709393,-3.4012977593049607,1.8161024,3.908316,-0.9972375,18.996552,-76.01707,-12.835897
2740809277000.0,-5.706481724088872,19.181327044240888,-2.599857542876632,1.9101756,4.133725,-1.0231993,17.90954,-75.89529,-13.340901
2740814812000.0,-4.900674881709218,19.083184083317093,-1.5306139342720717,1.8729129,4.145026,-0.95172805,16.75692,-75.70624,-13.836308
2740819216000.0,-4.308420699948132,18.67363092219917,-0.7403050578319501,1.7599027,4.0152173,-0.81489426,15.581097,-75.56999,-14.183125
2740824312000.0,-3.650283348329876,18.01549309481328,0.1405863198112034,1.6410894,3.8154643,-0.6606508,14.425814,-75.41855,-14.4751
2740829292000.0,-3.1825567135252637,17.229022747657233,0.7621050709496666,1.5570955,3.706425,-0.5693264,13.323388,-75.32581,-14.638782
2740834298000.0,-2.7935039446913343,16.372180389044537,1.276210544152256,1.5247196,3.4266486,-0.37843102,12.341274,-75.287605,-14.708442
2740839281000.0,-2.452049525598194,15.173289742588413,1.7340880195410082,1.4902058,3.0995302,-0.18448131,11.485864,-104.6667,-14.665898
2740844228000.0,-2.1419101468623025,13.765185564033107,2.154736864168548,1.4746287,2.683531,0.008246681,10.754886,-104.57177,-14.559315
2740849753000.0,-1.8112874853578464,12.224903245814184,2.6036205108502952,1.4850134,2.1749856,0.17928895,10.216725,-104.39107,-14.361919
2740854301000.0,-1.8363110412344057,11.56714128028562,2.5785968803184502,1.5225816,1.6462818,0.31856623,9.8162775,-104.16858,-14.118616
2740859357000.0,-1.864129664478004,10.83590898087656,2.5507781740807616,1.568091,1.1392636,0.42546764,9.561785,-103.92649,-13.8576145
2740864289000.0,-1.9358845090683487,10.066463387343603,2.458560621238755,1.6236799,0.6780604,0.50854534,9.44957,-103.65576,-13.567703
2740869213000.0,-2.048033535104953,9.247288193878603,2.307403393278875,1.6951511,0.28099802,0.5671884,9.463517,-103.36791,-13.260336
2740874296000.0,-2.1388540991283675,8.394414807814975,2.09699058070523,1.7403551,-0.05681047,0.60139686,9.579627,-103.108185,-12.978497
2740879236000.0,-2.209143409746434,7.560314352387083,1.8533207748415212,1.783421,-0.3378085,0.60139686,9.786357,-102.84992,-12.69704
2740884559000.0,-2.243951433823826,6.643472111348518,1.5583033785123968,1.7895297,-0.55741453,0.5742133,10.051178,-102.644485,-12.464286
2740889287000.0,-2.2485149402136666,5.817476740012094,1.2753657917355372,1.7931949,-0.69913524,0.52778757,10.364319,-102.45285,-12.244329
2740894214000.0,-2.193077224453906,4.991922896667901,1.0367708716679007,1.78617,-0.7644979,0.45906523,10.695291,-102.327995,-12.084351
2740899311000.0,-2.08916211336542,4.16512024087375,0.8334587408737504,1.790446,-0.7910705,0.35155296,11.045085,-102.23445,-11.955326
2740904309000.0,-1.94434009533195,3.3507796582987552,0.7098758327800829,1.7724255,-0.7987063,0.21044308,11.388846,-102.21584,-11.8905325
2740909267000.0,-1.7423946349792532,2.538072424481328,0.6901738517012448,1.754405,-0.81061816,0.043066,11.73184,-102.24092,-11.86947
2740914261000.0,-1.5053314540229883,1.8839427870538412,0.6999991333938294,1.7470746,-0.8362745,-0.12461651,12.070539,-102.333626,-11.90397
2740919219000.0,-1.2344992793103449,1.4079346380088151,0.7410343282603059,1.7376062,-0.8717047,-0.28802297,12.407493,-102.47454,-11.989568
2740924306000.0,-0.95394543634281,0.9482885301903584,0.786328094421096,1.751656,-0.890947,-0.42546764,12.729925,-102.671776,-12.122814
2740929255000.0,-0.6688296597362999,0.6319271860074167,0.8449135081376185,1.7684549,-0.93462384,-0.4841107,13.065057,-102.8942,-12.284517
2740934259000.0,-0.3805452899365471,0.3120500055080347,0.9041500024268644,1.7876972,-0.95172805,-0.56779927,13.3771105,-103.15507,-12.475675
2740939283000.0,0.1873302890610005,-0.0277852108430431,0.9377754939770392,1.8423696,-0.94897914,-0.6001751,13.693233,-103.42413,-12.672071
2740944179000.0,0.8340896742837557,-0.3652248798766279,0.961878331674092,1.9233092,-0.9053023,-0.58001655,13.999636,-103.70683,-12.87924
2740949242000.0,1.3771279887947467,-0.5848779573766152,0.9583490997246348,2.019215,-0.79229224,-0.516792,14.257373,-103.99725,-13.063209
2740954282000.0,1.7298530453505612,-0.6104377446250794,0.912341490150392,2.1325307,-0.6044512,-0.40744713,14.480368,-104.28284,-13.227042
2740959304000.0,1.6413233231145186,-0.4816991484379491,2.558315164580738,2.2354615,-0.3032946,-0.26450464,14.599837,-104.509315,-13.263904
2740964362000.0,1.153911157410637,-0.2124619393109726,5.747383408425492,2.31915,0.057421334,-0.112704635,14.64896,-104.727165,-13.258395
2740969219000.0,0.4645917243266595,0.0445472263188502,8.535037489241505,2.418721,0.37568212,0.0571159,14.607366,-104.8953,-13.142705
2740974314000.0,-0.5569290075583616,0.3120883768339287,11.08883967874055,2.4303274,-0.17104226,0.12736541,14.71361,-105.066734,-13.026772
2740979425000.0,-1.5418797244077336,0.5675872704547518,13.510965003358445,1.7180585,-0.86926126,0.0711658,14.879513,-105.00023,-13.037963
2740984274000.0,-1.8580134858128348,0.609738447444858,13.637418402287372,0.60903263,-1.1945469,0.00580322,15.096676,-104.86898,-13.040462
2740989196000.0,-2.178906530489244,0.6525241956703276,13.765775512934557,-0.33383787,-1.239751,-0.030848695,15.603412,-104.75485,-13.328794
2740994211000.0,-2.2050774693726938,0.8079706680166051,12.602465731642068,-1.0464121,-1.1930199,-0.048563786,16.181513,-104.62132,-13.634254
2740999226000.0,-2.1607715173431736,0.9896252101291512,11.135937701660517,-1.5460999,-1.0928379,-0.05009095,16.762564,-104.51963,-13.939236
2741004306000.0,-2.1119931618909797,1.2092878546550891,9.754622312108056,-1.8506162,-0.9456194,-0.03604105,17.3467,-104.56852,-14.305378
2741009294000.0,-2.0620655998392023,1.4435630820871523,8.452666085705097,-2.0335703,-0.8185594,-0.04153884,17.91567,-104.73198,-14.66646
2741014241000.0,-1.9711370706291087,1.7251088474372385,7.118131012701733,-2.0958786,-0.7602218,-0.04917465,18.399204,-104.99122,-14.989426
2741019218000.0,-1.668430865869695,2.259296348535565,5.554742415421399,-2.069917,-0.7696902,-0.064751714,18.874708,-74.66304,-15.30944
2741024331000.0,-1.3574530027121936,2.808080896077406,3.948633133144052,-1.9663752,-0.83199847,-0.051618114,19.28583,-74.32068,-15.571755
2741029256000.0,-1.072192534822547,3.206194982212944,3.0892319366388308,-1.8716911,-0.9483683,-0.03390302,19.722954,-73.9335,-15.832808
2741034261000.0,-0.7970092757411273,3.4763749131106474,2.9241220543319417,-1.6016886,-1.1902709,0.0018325958,20.222025,-73.534836,-16.078766
2741039282000.0,-0.5120740508236469,3.5557516851315696,2.816362536597019,-1.3096951,-1.5097535,0.019547688,20.668726,-73.32759,-16.137821
2741044220000.0,-0.2254254573129858,3.495049604349997,2.752288121906868,-1.1114693,-1.8112154,0.02107485,21.181267,-73.12108,-16.18411
2741049245000.0,0.0662734455608643,3.433278045838979,2.687084814126792,-1.01312,-2.042428,0.016493361,21.741896,-72.98787,-16.152033
2741054230000.0,0.4399423764545631,3.3228919971881687,2.316269707910099,-1.0195341,-2.1927009,0.046120327,22.364794,-72.85892,-16.102816
2741059202000.0,0.8383628910293831,3.1978065295485503,1.8529900386748397,-1.0693196,-2.284636,0.10567969,23.035423,-72.72891,-16.040512
2741064285000.0,1.0520461651101087,3.1207736486866544,1.32461034282303,-1.1139128,-2.273335,0.19792034,23.692213,-72.67595,-15.883696
2741070109000.0,1.2049633795790218,3.056647015061466,0.6932102190059255,-1.1905763,-2.2159138,0.2874121,24.35622,-72.61435,-15.708915
2741074240000.0,1.1894274205205988,2.972814524894804,0.1921612248116254,-1.2724323,-2.112372,0.34697145,24.951796,-72.64826,-15.452856
2741079235000.0,1.044313358968588,2.8323815589490167,-0.4678737200215284,-1.3472633,-1.9828686,0.364992,25.515568,-72.67191,-15.189051
2741084289000.0,0.8620109895377843,2.6175176341159205,-1.107326178283199,-1.4205672,-1.840537,0.37568212,25.989033,-72.76373,-14.942548
2741089292000.0,0.6310092706948958,2.301145816057017,-1.6998957401320616,-1.4691309,-1.6975945,0.36774087,26.41783,-72.83892,-14.709722
2741094221000.0,0.4013547431417845,1.9590281259601503,-2.1872342086630088,-1.520749,-1.5476271,0.34208453,26.770895,-72.92672,-14.561973
2741099352000.0,0.1601315029146212,1.571178952391953,-2.594002740879777,-1.5635096,-1.3655893,0.32589662,27.06642,-73.00289,-14.428882
2741104240000.0,-0.0572106518157343,1.200016225677535,-2.9534864722704155,-1.6108516,-1.1685852,0.30665436,27.337118,-73.035446,-14.215722
2741109282000.0,-0.2642411745557882,0.8148431404726294,-3.2856983170804663,-1.674687,-0.91904676,0.30298916,27.537567,-73.054985,-14.014904
2741114231000.0,-0.459150272787084,0.5400599086538316,-3.776217683271432,-1.7461584,-0.5910121,0.3005457,27.66624,-73.02893,-13.868097
2741119221000.0,-0.6438847174622906,0.4096591128302888,-4.504288752626393,-1.8057177,-0.38881573,0.2996294,27.757906,-72.99221,-13.728607
2741124258000.0,-0.8303591458849389,0.2780300930781474,-5.239217405199727,-1.8377881,0.13591751,0.29352075,27.666002,-72.92051,-13.672951
2741129243000.0,-0.9293367155828672,0.6233031946555994,-5.612291575254517,-1.8411479,0.82558435,0.2678644,27.467522,-72.83971,-13.643503
2741134235000.0,-1.0038782229111254,1.1056306787755663,-5.8841488534348345,-1.8304577,1.5971072,0.22999077,27.092997,-72.75368,-13.652106
2741139955000.0,-1.0232139330505812,1.834342199266939,-5.839944508430202,-1.7849482,2.7635543,0.1872302,26.368109,-72.720535,-13.776553
2741144238000.0,-1.01032752576186,2.452890197654205,-5.659534626976647,-1.6609426,3.1227431,0.183565,25.650484,-72.70769,-13.897967
2741149263000.0,-1.0164356478604997,3.189721797955314,-5.2694449183774426,-1.6093245,3.7901134,0.17684549,24.476986,-72.7389,-14.090293
2741154252000.0,-1.0321925214444718,3.9263541675076254,-4.800678823893149,-1.5005904,4.3466115,0.19211712,23.225477,-72.80905,-14.280471
2741159273000.0,-1.082703353305604,4.82323772724387,-4.18971658285902,-1.3457361,4.8209486,0.25289822,21.792059,-72.938736,-14.435805
2741164281000.0,-1.2296930867556917,6.151395012532837,-3.192286444505254,-1.1640037,5.1428747,0.33841935,20.235346,-73.10229,-14.581456
2741169210000.0,-1.417057690296181,7.343186462977396,-2.173845671504287,-0.96944314,5.244889,0.42730024,18.623953,-73.32338,-14.654126
2741174320000.0,-1.6697551062159002,8.42072634801247,-1.0676982898597038,-0.7648033,5.1147747,0.47586402,16.986763,-73.58441,-14.693643
2741179197000.0,-1.8685141161694985,9.279802462959305,0.0459562164401422,-0.6068946,4.722599,0.40653083,15.496783,-73.90424,-14.644268
2741184243000.0,-2.0021656799980243,9.881233927005136,1.2965525301580405,-0.50335294,4.032627,0.20708331,14.14996,-74.221756,-14.572859
2741189216000.0,-2.061058255362856,10.637127402256272,2.4582804469439297,-0.3924809,3.087313,-0.1386664,13.195977,-74.54869,-14.437078
2741194211000.0,-1.9845397166357968,11.700332370264354,3.493293900724028,-0.24251351,1.8863518,-0.56505036,12.544006,-74.805595,-14.338733
2741199647000.0,-1.9005435810070672,12.882463436395758,4.680600822438162,-0.08002335,0.5039638,-0.95478237,12.271283,-74.845375,-14.340554
2741204256000.0,-1.8186593215547704,14.254999207067137,6.58733353639576,-0.0571159,-1.2873985,-1.1362094,12.482909,-74.82403,-14.365277
2741209694000.0,-1.722046910424028,15.874406783745584,8.837021646289752,-0.2874121,-3.2733214,-1.0748174,13.142237,-74.69491,-14.366382
2741214231000.0,-2.1522853090015657,16.687371913550184,9.875984832666552,-0.605062,-5.0466633,-0.7825184,14.256951,-74.561226,-14.315674
2741219183000.0,-2.7750959544007654,17.413296868846757,10.75864416263698,-0.79137594,-5.6599717,-0.5467244,15.598478,-74.40079,-14.246759
2741224224000.0,-3.945647679795439,18.06885256623072,10.090493,-0.7996226,-5.995948,0.086132,17.399559,-74.285805,-13.870921
2741229326000.0,-5.920072447719651,18.609566615358823,7.108374,-0.70646566,-5.364619,0.8723156,19.043804,-74.2093,-13.399456
2741234280000.0,-7.772929051956205,19.11330526475768,4.264959659030702,-0.6258314,-4.1001277,1.5387696,20.6162,-74.05169,-12.900545
2741239224000.0,-7.939684520480821,19.05892845685629,2.793159627425159,-0.61361414,-2.5176811,1.8216002,21.848433,-73.94687,-12.344833
2741244185000.0,-8.107013379572773,19.00436467368501,1.316298794740066,-0.752586,-0.97524637,1.7843374,22.604124,-73.97263,-12.109976
2741249223000.0,-8.412788684481649,18.735278490019315,-0.054524656673719,-0.9987647,0.3753767,1.4862351,22.938997,-73.9786,-11.949023
2741254365000.0,-8.924661043786221,18.146398638119766,-1.2639932028056295,-1.2140946,1.4468343,0.99265605,22.91481,-73.914635,-11.919621
2741259245000.0,-9.357182899754614,17.82713381486867,-2.328036254076161,-1.2562444,2.1774292,0.50823987,22.543913,-73.90147,-12.031947
2741264214000.0,-9.633978283195493,18.23800187748796,-3.1540969402526584,-1.0531317,2.7516425,0.18906279,21.93603,-73.83082,-12.26379
2741269430000.0,-9.8989630669145,18.658766986864933,-3.975322600536968,-0.7012733,3.255301,-0.01985312,21.169626,-73.68797,-12.662357
2741274271000.0,-9.85683376951673,18.93069201561338,-4.220438167286245,-0.35613444,3.688099,-0.13744467,20.26888,-73.53463,-13.123598
2741279230000.0,-9.813677565055762,19.20924525204461,-4.471528457620818,-0.02565634,4.0775256,-0.17348573,19.2011,-73.44941,-13.62015
2741284288000.0,-9.970632317406142,19.35171996587031,-3.941558635153584,0.27672195,4.42297,-0.12767084,18.020628,-73.39597,-14.110289
2741289448000.0,-10.254939008776208,19.409544671867383,-2.9151640908337395,0.5213735,4.600426,-0.06291912,16.777548,-73.36332,-14.578315
2741294216000.0,-10.504358651144436,19.44556641462773,-1.7767030133280717,0.77671516,4.486194,-0.011301007,15.490582,-73.38857,-14.983116
2741299304000.0,-10.76074780347277,19.47120541910024,-0.4221127036621941,1.0442741,4.0726385,0.027183503,14.244804,-73.4295,-15.3338375
2741304195000.0,-10.932513953823651,19.493001046176342,0.8868901454784789,1.3820826,3.3826663,0.015271631,13.164765,-73.409515,-15.670233
2741309473000.0,-10.916672234224825,19.508842765775174,2.317946487233598,1.7571539,2.453235,-0.036957346,12.290757,-73.38977,-15.960633
2741314185000.0,-10.78118426627622,19.518717182920184,3.147916820791337,2.11451,1.9413297,-0.102319926,11.582127,-73.2974,-16.251165
2741319219000.0,-10.429888269817488,19.52200073317897,3.272676132218742,2.2635612,0.9245446,-0.15088372,11.313371,-73.1893,-16.502491
2741325243000.0,-10.009505456415145,19.52593003527649,3.4219709458934897,2.4853053,0.118507855,-0.2593123,11.188491,-73.02914,-16.769156
2741329296000.0,-9.439637112663757,19.377812065502184,3.2023335895196507,2.5763242,-0.40591997,-0.35430184,11.286994,-72.84666,-17.025866
2741334302000.0,-8.449975257046447,19.04475259130607,2.6123430035728465,2.5555549,-0.6453791,-0.4156938,11.539821,-72.63491,-17.291502
2741339261000.0,-7.234144539713688,18.296517550184976,1.9868508120636963,2.4514022,-0.7623598,-0.4569272,11.875231,-72.429794,-17.53087
2741344212000.0,-5.708818129644524,16.996176860061123,1.3080805778993083,2.3167064,-0.86437434,-0.46761733,12.272075,-72.20713,-17.774769
2741349763000.0,-4.060566,15.591042,0.5746084,2.164601,-0.958753,-0.46273044,12.636263,-72.046936,-17.947811
2741354237000.0,-4.060566,15.591042,0.5746084,2.006387,-1.0571023,-0.4260785,13.025831,-71.885475,-18.11406
2741359717000.0,-3.967937424486285,15.447215057822804,0.5392411239223932,1.8945986,-1.2082914,-0.38026363,13.377612,-108.15283,-18.15172
2741364285000.0,-2.8181348893051705,13.66188497123196,0.1002255882634043,1.8393153,-1.3674219,-0.3539964,13.7538395,-108.192665,-18.186298
2741369179000.0,-1.5862755182070147,11.749142973908056,-0.3701207408773774,1.813048,-1.4828753,-0.35979962,14.14666,-108.23948,-18.22476
2741374252000.0,-0.9921556222418696,10.726970973706466,-0.6369088080341354,1.8048013,-1.5314392,-0.41050145,14.558701,-108.29607,-18.271095
2741379242000.0,-0.5035079866533405,9.856222687399091,-0.8683734510724994,1.8060231,-1.488984,-0.48838675,14.96918,-108.366066,-18.329205
2741384274000.0,0.0652098492139881,8.876123404406929,-1.1198375518745889,1.8063285,-1.3695599,-0.5833763,15.316743,-108.39963,-18.34466
2741389288000.0,0.8179603225465906,7.649614246809911,-1.4146209564788423,1.8048013,-1.1633929,-0.68233645,15.616108,-108.46002,-18.38323
2741395103000.0,1.5693875390708087,6.435632690288274,-1.6355727893366918,1.8289305,-0.86193085,-0.77182823,15.830434,-108.52727,-18.416191
2741399263000.0,2.033977495596604,5.692288697751656,-1.7210573546879373,1.8777997,-0.49632803,-0.8426886,15.956395,-108.62138,-18.467134
2741404246000.0,2.541430490420629,4.8380692862437495,-1.7670349566722228,1.9819523,-0.090713486,-0.85918194,15.964356,-108.711624,-18.486752
2741409295000.0,2.9491550374154327,4.051066077066379,-1.6911791648298853,2.0845776,0.32650748,-0.83169305,15.854569,-108.818275,-18.502394
2741414224000.0,3.3033840128279883,3.3278425638483964,-1.585366327405248,2.218968,0.54550266,-0.7516697,15.671963,-108.90938,-18.463488
2741419219000.0,3.546449908121616,2.714201009579342,-1.3941014738442317,2.2773056,0.96791595,-0.69027776,15.299969,-109.012764,-18.399466
2741424281000.0,3.792776146755519,2.092328427455227,-1.2002711057309454,2.3839016,1.3643675,-0.5109888,14.870616,-109.079605,-18.2444
2741429336000.0,3.919474290136055,1.4270940341972786,-0.8829620797414965,2.447737,1.7186694,-0.2938262,14.329401,-109.1409,-18.035933
2741434297000.0,4.028554488562926,0.7685721302287416,-0.5557210963554422,2.535396,2.0289888,-0.09315695,13.68894,-109.19383,-17.753416
2741439278000.0,3.661263511164466,0.1654598272200309,0.1687922743405933,2.6047294,2.2275202,0.079107046,12.98889,-109.22655,-17.387142
2741444214000.0,2.8830047466986795,-0.3817534328108387,1.230791373747213,2.654515,2.3167064,0.22174409,12.239671,-109.254616,-16.94485
2741449272000.0,2.1527869159648985,-0.8248197435633202,2.21941060693986,2.6551259,2.2748623,0.28527406,11.494103,-109.30629,-16.476112
2741454309000.0,1.7022876280492714,-0.7820999737138716,2.794185470992674,2.6209173,2.111761,0.2968805,10.766408,-109.371735,-15.963572
2741459275000.0,1.2581384392883022,-0.7399823685774093,3.36085848566138,2.547919,1.8365663,0.26542094,10.176718,-109.5085,-15.631444
2741465055000.0,0.8129592155904211,-0.5482723999908249,4.307473363134233,2.474615,1.4618006,0.22937989,9.666585,-109.65067,-15.301392
2741469230000.0,0.5084722940379851,-0.3758521015689513,5.059519304046243,2.375655,1.0216721,0.19761491,9.25551,-109.792046,-14.99027
2741474280000.0,-0.1049671135042734,-0.1117671961078238,7.252941961867193,2.2385156,0.18784106,0.15393804,9.100155,-109.88631,-14.844829
2741479230000.0,-0.9197647948229548,0.1954515807307222,10.521037777589932,1.9685133,-1.4657712,0.05681047,9.303621,-109.95108,-14.804034
2741484277000.0,-1.5979891533981565,0.4674932753995746,12.715178113947127,1.3405437,-2.8316658,-0.06566802,9.691762,-109.85987,-14.90396
2741489280000.0,-2.0444566098956747,0.6761683445913096,13.20532161349134,0.5564982,-3.556152,-0.2003638,10.361817,-109.72363,-15.102579
2741494211000.0,-2.147506508078231,0.8514726003429705,12.91439460303288,-0.20647246,-3.752545,-0.29016098,11.438047,-109.406845,-15.567611
2741499257000.0,-1.7822414715136057,0.9884470093168932,11.535519084041953,-0.8454375,-3.5790594,-0.28496864,12.621899,-109.08048,-16.055246
2741504257000.0,-1.4060733022413794,1.1918666618965517,10.043511127758622,-1.3646729,-3.2085698,-0.19456059,13.8561535,-108.821846,-16.607927
2741509267000.0,-0.9973204607606492,1.5470923788336712,8.267382339827586,-1.7369953,-2.6936102,-0.030543262,15.010929,-108.61064,-17.105795
2741514188000.0,-0.6995677036259977,1.8896528891752185,6.731264626849107,-1.96271,-2.3866506,0.07147124,16.045486,-108.48557,-17.491093
2741519235000.0,-0.6113868303876853,2.227679579513493,5.592261618510072,-2.0066924,-1.7275269,0.24862215,16.83411,-108.37881,-17.771286
2741524254000.0,-0.5236951714253135,2.5638309484074497,4.459577628247814,-2.0173824,-1.1551461,0.37690386,17.471313,-108.270966,-17.907906
2741529322000.0,-0.8039628992329086,2.940505831535977,3.169519056226449,-1.9614882,-0.72173727,0.4361578,17.953636,-108.19403,-18.001785
2741534876000.0,-1.276398691292841,3.369992824627669,1.6901748803247805,-1.8365663,-0.4098906,0.42119157,18.300581,-108.15566,-18.072927
2741539277000.0,-1.5269604823126866,3.433294421284436,1.0172840598438324,-1.5583172,-0.2415972,0.38515055,18.523354,-108.03964,-18.01016
2741544235000.0,-1.6935925201789788,3.2458334330584315,0.7256779500789613,-1.4596626,-0.18051068,0.28710666,18.682219,-107.97126,-17.96801
2741549246000.0,-1.8104632521326225,3.021599121934355,0.4541212676691103,-1.258077,-0.2171626,0.17562376,18.761154,-72.01079,-17.9892
2741554238000.0,-1.7148802587304233,2.655197674950017,0.2788858074891702,-1.069625,-0.3136793,0.058948494,18.838785,-71.95653,-18.040146
2741559232000.0,-1.6192589708597134,2.2886494325141618,0.103580140794735,-0.9300423,-0.46273044,-0.035430185,18.92132,-71.799194,-18.193813
2741564291000.0,-1.3778289946775677,1.9104919072662048,-0.1287791593284391,-0.8753699,-0.6197228,-0.07696902,19.035982,-71.625015,-18.36385
2741569236000.0,-1.1052291557478937,1.5391240161341453,-0.3697732166029865,-0.8509353,-0.7162395,-0.077579886,19.177937,-71.43749,-18.547375
2741574336000.0,-0.8378208340698869,1.2171544139773895,-0.6368274098986932,-0.86009824,-0.71776664,-0.081855945,19.300621,-71.19011,-18.79754
2741579279000.0,-0.5980371995118192,0.9912712523638232,-0.921787716695052,-0.8546005,-0.62888575,-0.09865474,19.42657,-70.942795,-19.047493
2741584186000.0,-0.3599999155190134,0.7670332038026721,-1.2046726500249596,-0.84604836,-0.5164866,-0.116980694,19.549232,-70.77461,-19.215832
2741589277000.0,-0.1760175178888265,0.6686665328467154,-1.164224658759124,-0.8371908,-0.42821655,-0.1469131,19.651606,-70.59916,-19.39173
2741594216000.0,-0.0280513594949868,0.6383144980396246,-0.963142415286757,-0.820392,-0.41783184,-0.16523905,19.743074,-70.423195,-19.568375
2741599254000.0,0.1363726629176785,0.620373627407974,-0.6780331646792236,-0.79351395,-0.48502702,-0.17989981,19.839241,-70.35974,-19.627522
2741604237000.0,0.3599447252456257,0.6614378829371833,-0.0346931470953245,-0.7666359,-0.63499445,-0.17440203,19.956184,-70.29632,-19.685827
2741609238000.0,0.5757491159191463,0.700535901127787,0.6108286310054655,-0.72173727,-0.75625116,-0.15088372,20.08547,-70.256645,-19.719078
2741614278000.0,0.701368372273792,0.7172851236488245,1.2598614409299904,-0.70463306,-1.0473285,-0.13225232,20.310987,-70.216324,-19.750334
2741619242000.0,0.8250933700008676,0.7337817785286718,1.8991072481651767,-0.7189884,-1.4107933,-0.07941248,20.562288,-70.14708,-19.818062
2741624248000.0,0.8078338697451356,0.7031818377089614,2.0535526906184343,-0.77457714,-1.7220291,-0.02321288,20.8844,-70.081955,-19.879671
2741629254000.0,0.7509014233214579,0.6593876375993424,2.0710703523705125,-0.87017757,-1.9220876,0.023518313,21.280348,-70.024765,-19.930443
2741634293000.0,0.6129649409191605,0.6080248439953362,1.730748171459386,-0.9593639,-1.9883664,0.06811147,21.744623,-69.94992,-19.99711
2741639286000.0,0.4224774985775359,0.5522724587640886,1.1546398317372717,-1.0589349,-1.8747455,0.096516706,22.210878,-69.87426,-20.061197
2741644215000.0,0.1979997895754232,0.5148978054007295,0.5807863778228748,-1.1291844,-1.6194037,0.12156218,22.663713,-69.79124,-20.12892
2741649265000.0,-0.0643257214598335,0.4922835294725521,-0.0117074673094548,-1.17897,-1.2562444,0.129198,23.045486,-69.70235,-20.201029
2741654233000.0,-0.3364051491281998,0.536909637437031,-0.4161810257674514,-1.181108,-0.87017757,0.13439035,23.366467,-69.657524,-20.2185
2741659308000.0,-0.6362034149347178,0.6868087390356739,-0.5510902354672561,-1.1389582,-0.48930305,0.13041973,23.575998,-69.6075,-20.242804
2741664262000.0,-1.142284694729884,1.053289254104782,-0.0996053390876449,-1.0305296,-0.15515977,0.13469578,23.691017,-69.57144,-20.253239
2741669217000.0,-1.9012860995079155,1.680627109743757,1.0427692356348943,-0.91813046,0.18845193,0.13194689,23.685886,-69.532326,-20.272863
2741674705000.0,-2.735698586392297,2.359727176695637,2.326475365558964,-0.84299403,0.52931476,0.10873401,23.597307,-69.45983,-20.331648
2741679251000.0,-3.370044505734492,2.778914898048739,3.5580709765678256,-0.8051204,0.79626286,0.059253927,23.42634,-69.38206,-20.403051
2741684408000.0,-4.089648972528971,3.2544430720518065,4.955197805862303,-0.85154617,0.8918633,-0.0076358155,23.345543,-69.06105,-20.716034
2741689212000.0,-4.53220658184775,3.699018373731898,5.099671528397739,-1.0451905,0.8897252,-0.13775012,23.223541,-68.711784,-21.055563
2741694220000.0,-4.877621407713157,4.163285376349415,4.661403464895841,-1.3610078,1.028697,-0.29077184,23.039337,-68.338684,-21.415876
2741699324000.0,-5.197610837664339,4.724784980070722,4.173126951636594,-1.6536123,1.2415836,-0.49388456,23.06154,-67.72941,-21.957165
2741704247000.0,-5.167687041227673,6.1995864224317705,3.262597367812132,-1.8811595,1.4517213,-0.6411031,23.057693,-67.08674,-22.518354
2741709202000.0,-5.137568737074984,7.683974223955028,2.346149249215704,-2.0094411,1.5491543,-0.68661255,23.003235,-66.41176,-23.116764
2741714226000.0,-4.840601411628245,10.36081486199797,1.5614305388284762,-2.0390682,1.7168368,-0.7110472,22.879368,-65.710236,-23.740337
2741719872000.0,-4.456454677221981,13.590785451123676,0.7068994299507032,-2.0751092,1.7583756,-0.72387534,22.779724,-65.00706,-24.356054
2741724249000.0,-4.190279660231512,15.88714702544724,0.1283757543308141,-2.08977,1.5622878,-0.7360926,22.50907,-64.528755,-24.784334
2741729252000.0,-4.149026759169616,16.785540421123123,0.1650448534746005,-2.1655173,1.0555751,-0.7134906,22.330923,-64.06883,-25.179932
2741734624000.0,-4.087570182569062,17.698440714502762,0.176057155968232,-2.3362541,0.23335053,-0.6814202,21.943726,-64.13954,-25.08704
2741739549000.0,-3.859558872486188,18.017656222099447,-0.0975564501436464,-2.4966063,-0.79901177,-0.7131852,21.801016,-64.17975,-24.993309
2741744236000.0,-3.642566180027624,18.321445680801105,-0.3579477134627072,-2.4489589,-1.8402315,-0.7840455,21.879427,-64.28136,-24.804863
2741749307000.0,-3.380300694586207,18.63419183706897,-0.7188846654862069,-2.0668626,-2.5329528,-0.745561,22.177258,-64.38725,-24.596489
2741754414000.0,-2.9291596732586207,18.840789798706897,-1.6211668226086209,-1.4398094,-2.5723536,-0.4813618,22.589788,-64.53002,-24.355782
2741759242000.0,-2.5026648913965515,19.036101128017243,-2.474156494546552,-0.95722586,-2.1817052,-0.20311269,22.980427,-64.76851,-24.037607
2741764350000.0,-2.4429452177884614,19.16576949198718,-2.785929931089744,-0.71959925,-1.5964963,0.008857546,23.314487,-65.058044,-23.702162
2741769317000.0,-2.478818448190045,19.273389230015084,-2.9473597722473603,-0.5858198,-0.84940815,0.20891592,23.467848,-65.42042,-23.34298
2741774296000.0,-3.3429007097414623,19.350707891473444,-2.707543952107564,-0.43493605,-0.04886922,0.36163223,23.291883,-65.936195,-22.900723
2741779251000.0,-4.573256795118157,19.41398315704867,-2.2892228764723312,-0.26206118,0.61727935,0.42424592,22.942673,-66.461105,-22.475863
2741784655000.0,-5.843183992456389,19.48002421216407,-1.8693556406883545,-0.16920967,1.026559,0.4092797,22.434727,-66.98965,-22.060614
2741790155000.0,-5.868017750117869,19.494924777934937,-2.0829260603017445,-0.13775012,1.2140946,0.34422258,21.817728,-67.50219,-21.671276
2741794310000.0,-5.886778525223951,19.50618147807638,-2.2442688045733146,-0.09254608,1.2217305,0.30695978,21.270336,-67.80783,-21.47527
2741799270000.0,-5.766692215189874,19.51644194936709,-2.651563201265823,-0.044898596,1.1078042,0.3115413,20.728699,-68.09466,-21.289322
2741804153000.0,-5.627128266008027,19.52606724338788,-3.084692788834002,0.009468411,1.058324,0.39003745,20.187187,-68.38198,-21.095577
2741809113000.0,-5.616345319550332,19.531446357281556,-3.4828904099948903,0.04153884,0.97097033,0.41080686,19.715496,-68.649475,-20.904009
2741814135000.0,-5.621260464118548,19.536361091262137,-3.881017376637711,0.13439035,0.93218035,0.47891834,19.260014,-68.94663,-20.679373
2741819108000.0,-5.77334622510558,19.536686,-3.915324607457993,0.2764165,0.88422745,0.5510005,18.807602,-69.26357,-20.431026
2741824127000.0,-5.937467660400754,19.536686,-3.923962572989487,0.51007247,0.80878556,0.6133087,18.391977,-69.59183,-20.169327
2741829123000.0,-6.0231905620245465,19.536686,-3.258411604361497,0.79901177,0.7021896,0.6588182,17.983744,-69.933426,-19.894316
2741834129000.0,-6.076680476823207,19.536686,-2.310182385941779,1.135904,0.46883908,0.7021896,17.653402,-70.28376,-19.604807
2741839109000.0,-6.1017844704375,19.536686,-0.7030094325,1.53205,0.09285152,0.79168135,17.415365,-70.63062,-19.309729
2741844111000.0,-6.116754153833333,19.536686,1.15323902,2.0161607,-0.46273044,0.947452,17.316147,-70.992325,-18.98713
2741849155000.0,-6.345298816592631,19.536686,2.5671755575820923,2.504853,-1.1377366,1.1389582,17.4232,-71.35213,-18.6453
2741854217000.0,-6.623979839273583,19.536686,3.880353372040763,2.9205468,-1.7806722,1.3322971,17.689415,-108.27254,-18.269867
2741859314000.0,-7.213095025267665,19.536686,4.741152976552463,3.0989194,-2.2904391,1.4706581,18.19572,-107.89898,-17.882488
2741864191000.0,-8.023200232334048,19.536686,5.196212322537473,3.0451632,-2.5616634,1.5247196,18.804514,-107.52614,-17.48317
2741869187000.0,-8.937976020860496,19.536686,5.155587178617992,2.8044822,-2.5057693,1.4895949,19.517454,-107.195564,-17.127901
2741874222000.0,-9.903438443099274,19.536686,4.854722249394673,2.5100453,-2.094657,1.3460416,20.175728,-106.89838,-16.802896
2741879166000.0,-10.869868600593598,18.935659702777187,4.263609838414246,2.175902,-1.3814718,1.106277,20.734852,-106.71449,-16.599531
2741884160000.0,-11.863509439686242,17.759513414246342,3.386569582552469,1.8102992,-0.4147775,0.7480045,21.070534,-106.60284,-16.471563
2741889151000.0,-12.384802870260774,16.52069612973923,2.609825907166636,1.4477507,0.7076874,0.33017266,21.1615,-106.66682,-16.518847
2741894151000.0,-12.619485226465692,15.241013773534307,1.8924952709543184,1.0775663,1.8145752,-0.06383542,20.95972,-106.809006,-16.64781
2741899201000.0,-12.55113431623338,13.980386759972216,1.4591050671561818,0.70280045,2.649017,-0.39706242,20.542881,-107.16025,-16.98246
2741904221000.0,-12.131343665310578,12.763947313653505,1.3636981689620955,0.3622431,2.9098566,-0.6988298,19.974905,-107.58805,-17.401281
2741909189000.0,-11.510327340514602,11.612478977537268,1.3691998542474983,0.21380283,3.215289,-0.8426886,19.199837,-108.12568,-17.912613
2741914184000.0,-10.636049848682866,10.518411795589136,1.496189798652236,-0.005192355,3.2626312,-1.1078042,18.43052,-108.75211,-18.530355
2741919215000.0,-9.57334453990657,9.55132209432462,1.6483987121956067,-0.1469131,3.1138856,-1.3429873,17.651037,-109.40233,-19.168354
2741924210000.0,-8.33239112871484,8.728774031507802,1.8243193752012723,-0.20250183,2.8328876,-1.5219707,16.907187,-110.09432,-19.855001
2741929188000.0,-7.0234677170276045,7.955891588623478,1.8940608085602757,-0.19883664,2.4764478,-1.625207,16.237383,-110.76974,-20.531858
2741934241000.0,-5.615662888837252,7.22275384282926,1.8490830030672,-0.13103059,2.1242838,-1.6530013,15.667202,-111.465935,-21.23292
2741939174000.0,-4.262830840994121,6.533388740245858,1.782279069107429,-0.004276057,1.813659,-1.6053538,15.205023,-112.05431,-21.83088
2741944221000.0,-2.9238036101282736,5.883250214332799,1.6660291164439691,0.16493362,1.5515977,-1.5146403,14.858262,-112.63534,-22.421179
2741949237000.0,-1.5340094166077145,5.204933337889506,1.569497000101061,0.34513888,1.2822062,-1.3912456,14.575301,-113.07356,-22.86335
2741954232000.0,0.4359987279097186,4.209857614165403,1.662155890702375,0.5488624,1.0262536,-1.2428054,14.387765,-113.47933,-23.26983
2741959241000.0,2.41152841677615,3.211992889413845,1.755074485901971,0.75594574,0.7339546,-1.0491611,14.202354,-113.74202,-23.520725
2741964221000.0,3.451192398712491,2.504871530547191,1.8522246597238088,0.93126404,0.39920044,-0.8405506,14.120854,-113.958405,-23.72391
2741969179000.0,4.121686352403697,1.913259300228429,1.9508266723704704,1.1157454,0.061086524,-0.625526,14.141171,-114.121,-23.87007
2741974331000.0,4.466740130270271,1.4706058433243243,1.9274419359459456,1.2339478,-0.24190263,-0.42271876,14.220329,-113.992874,-23.724596
2741979303000.0,4.706964325945946,1.088820812135135,1.8716755808108108,1.3200798,-0.4709771,-0.20861048,14.379801,-113.80198,-23.51413
2741984267000.0,4.6793496562169175,0.7709272510262504,1.815526465280328,1.3698653,-0.63499445,0.0018325958,14.553951,-113.53374,-23.219862
2741989239000.0,4.458167521140759,0.4983074207356595,1.7589449763746354,1.3759739,-0.7476991,0.16737708,14.777543,-113.21584,-22.876013
2741994207000.0,4.161307489651883,0.2976436847496423,1.762516054029566,1.3359623,-0.82436264,0.29352075,14.974853,-112.873665,-22.498919
2741999251000.0,3.829596490662852,0.1225739927095851,1.7901586653409634,1.2525792,-0.904386,0.40286562,15.205813,-112.48325,-22.075521
2742004255000.0,3.518528460497397,-0.0176174829381145,1.8148778291690768,1.1313224,-0.95142263,0.47983465,15.446886,-112.10963,-21.66923
2742009290000.0,3.2164031253325622,-0.1384676606853672,1.8381182320994796,1.0616838,-1.0622946,0.50518554,15.7283125,-111.71409,-21.244177
2742014223000.0,2.9505049998565407,-0.2195839055025553,1.8600102639738183,0.9294315,-1.1679744,0.559858,16.040329,-111.33409,-20.845812
2742019211000.0,2.7063697034878507,-0.2709807843441226,1.8814256133865328,0.7828238,-1.2901474,0.58459806,16.385674,-110.94672,-20.447481
2742024226000.0,2.462657597851423,-0.2969091058859906,1.9105307724173477,0.65576386,-1.4089607,0.6059783,16.773464,-110.59082,-20.090015
2742029231000.0,2.2232450716086576,-0.2665075065598985,1.9561331753746136,0.550695,-1.539075,0.6065892,17.196138,-110.22314,-19.731234
2742034228000.0,1.984215222730516,-0.2361545011987632,2.001662687378102,0.48624873,-1.6713274,0.6093381,17.661491,-109.889496,-19.415562
2742039279000.0,1.6610347754579102,-0.1240976736847299,2.0548862816171587,0.4569272,-1.8096883,0.600786,18.161617,-109.55277,-19.103601
2742044929000.0,1.275899364525007,0.0248213511610515,2.116508011711113,0.50243664,-1.9758437,0.6123924,18.704021,-109.20877,-18.786217
2742049272000.0,0.9574177445346624,0.1110883517991844,2.1410998372451293,0.61727935,-2.104736,0.6081163,19.279564,-108.9264,-18.531698
2742054258000.0,0.5852839317462618,0.2019582302647938,2.1627355077480743,0.7867944,-2.2153027,0.58093286,19.891155,-108.6543,-18.283695
2742059225000.0,0.1537532653761586,0.4632643552964001,2.698520830825609,0.990518,-2.3038783,0.54550266,20.489332,-108.491714,-18.140308
2742064224000.0,-0.3467665071739598,0.912184162126536,3.797600281159733,1.2373075,-2.529593,0.5271767,21.149239,-108.3512,-18.01131
2742069236000.0,-0.7108841914520548,1.3904273209863012,4.86302553150685,1.5039502,-2.807842,0.5183192,21.838375,-108.32733,-17.989513
2742074290000.0,-0.9937769259178082,1.889909848547945,5.915032939726028,1.5430456,-2.9413161,0.55771995,22.541582,-108.30444,-17.96969
2742079317000.0,-1.1931705882467216,2.218777365517241,6.585168625546382,1.4004086,-2.8548787,0.6291912,23.377453,-108.29738,-17.992746
2742084289000.0,-1.2902986927634774,2.3390311862068964,6.788675072753764,1.1395692,-2.5247061,0.65118235,24.17199,-108.29849,-18.025335
2742089275000.0,-1.2439541184591385,2.1672624065040296,6.504828762015772,0.768163,-2.0589213,0.6001751,24.987444,-108.297844,-18.089182
2742094218000.0,-0.9690900338504204,1.5313828106595024,5.446396967527515,0.3594942,-1.6282613,0.47983465,25.70863,-108.31296,-18.16706
2742099399000.0,-0.6950818850366005,0.965221757358114,4.383790317948474,-0.048258353,-1.2916746,0.3032946,26.33684,-108.373566,-18.287987
2742104237000.0,-0.5629421645688754,1.3175943529375416,3.802375584684856,-0.45448375,-1.1615603,0.2171626,26.897417,-108.45212,-18.41633
2742109604000.0,-0.4184921501860241,1.6925471386602409,3.154702662486747,-0.6450737,-0.91232723,0.113926366,27.194464,-108.64053,-18.625114
2742115165000.0,-0.3312282789060241,1.615549613060241,2.405260065686747,-1.0601566,-0.81092364,0.16065755,27.502792,-108.816925,-18.815887
2742119189000.0,-0.2680831938438553,1.5598333672385545,1.862955262679518,-1.2253957,-0.763887,0.16707164,27.789988,-71.11321,-18.88467
2742124240000.0,-0.2285348544315074,1.4162675721002027,1.3344571113345682,-1.2867876,-0.64996064,0.14263703,28.027052,-71.03251,-18.949358
2742129249000.0,-0.1946844769101173,1.2639408644173944,0.8309326109464585,-1.3726143,-0.54367006,0.1133155,28.253103,-70.93276,-19.014397
2742134260000.0,-0.2072415294218799,1.013900874959384,0.3825034262263951,-1.450805,-0.44868052,0.07971791,28.420576,-70.8621,-19.04187
2742139273000.0,-0.24775932536238,0.704952593652284,-0.0328040297605233,-1.4972308,-0.3539964,0.062308256,28.556206,-70.77371,-19.074553
2742144214000.0,-0.3332604257703659,0.4255912520838252,-0.3235790571428572,-1.5283848,-0.24678956,0.046120327,28.628946,-70.683304,-19.110636
2742149270000.0,-0.4380663462741047,0.1492847420798897,-0.5760660666666667,-1.5512923,-0.15699236,0.02687807,28.678602,-70.577835,-19.154253
2742154254000.0,-0.5642026976064114,-0.0575699965992876,-0.7313278074835263,-1.5430456,-0.058643065,0.005497787,28.625496,-70.36491,-19.346706
2742159283000.0,-0.7014401578486198,-0.2376941284612644,-0.8471218804167409,-1.5137241,0.027183503,-0.013744468,28.553322,-70.15362,-19.538607
2742164280000.0,-0.8231841521994134,-0.3552686385337243,-0.9225750957771262,-1.4443909,0.13255776,-0.03573562,28.526997,-70.034706,-19.595957
2742169228000.0,-0.9264130303896104,-0.398942402025974,-0.9503674914805196,-1.3790283,0.23701571,-0.05375614,28.474724,-69.907425,-19.660303
2742174252000.0,-1.02213330817072,-0.4330653450600788,-0.9659198885879072,-1.2873985,0.32406402,-0.06658431,28.405773,-69.74032,-19.771606
2742179253000.0,-0.9806988718302412,-0.3133658500134576,-0.7909744672036912,-1.1872166,0.37690386,-0.069027774,28.314955,-69.572,-19.888264
2742184826000.0,-0.9241394998188638,-0.1674158236080871,-0.5443631910685207,-1.0754282,0.38637227,-0.050701816,28.219437,-69.38286,-20.033611
2742189289000.0,-0.7911961531140792,0.0554598025349922,0.089072791501235,-0.9611965,0.30726522,-0.01160644,28.133408,-69.2033,-20.174685
2742194177000.0,-0.6455929537654377,0.2995593007620529,0.7828292519092488,-0.86529064,0.12339478,0.043982297,28.085228,-69.04685,-20.288864
2742204205000.0,-0.3237476748209191,1.2037727518161647,3.7127322530903326,-0.7858781,-0.36835176,0.14966199,28.151758,-68.92004,-20.368477
2742209236000.0,-0.3150045385096249,1.8229182890156777,6.070839504246874,-0.75228053,-0.9450085,0.24953845,28.298048,-68.80874,-20.427256
2742214189000.0,-0.3244179022583845,2.448906766977575,8.485366652153203,-0.7620544,-1.6994271,0.35430184,28.762684,-68.75815,-20.472515
2742219215000.0,-0.6423857377610644,3.015622047382124,8.958018102690193,-0.86132,-2.32984,0.4801401,29.471308,-68.70741,-20.386608
2742224218000.0,-1.0027363088612478,3.570007511696076,9.147432618551733,-1.0390818,-2.4859161,0.5564982,30.25492,-68.64573,-20.285803
2742229264000.0,-1.1866940027413828,3.394231888328966,6.839378145817376,-1.212262,-2.2192733,0.4914411,31.331284,-68.42221,-20.171585
2742234208000.0,-1.3250818545454544,3.0506482545454543,3.995269545454545,-1.3741413,-1.7669277,0.28588495,32.384468,-68.120125,-20.090849
2742239281000.0,-1.0631241908083948,4.60252468974932,0.5616324238048969,-1.572978,-1.2470814,0.15210545,33.339912,-67.711044,-20.036459
2742244196000.0,-0.7246884273999222,6.505082173474543,-2.873032709016712,-1.7348573,-0.77091193,0.20341812,34.16517,-67.24785,-20.011192
2742249249000.0,-0.6918942176750319,8.130973415639208,-4.214932984724495,-1.8139644,-0.40408736,0.31123585,34.60034,-66.942276,-20.016108
2742254407000.0,-0.759266275581924,9.685021316930351,-4.884161676486634,-1.8380935,-0.12980886,0.4392121,34.916225,-66.632256,-20.023855
2742259238000.0,-0.9683986199094736,11.269655224842104,-5.217129577473684,-1.8548924,0.071776666,0.5919284,34.62135,-66.94976,-19.733953
2742264290000.0,-1.2943406470210526,13.02159416631579,-5.349543561052632,-1.8671097,0.2510656,0.74097955,34.250347,-67.289734,-19.428837
2742269215000.0,-1.7148533425045334,14.574607707233527,-4.886398136610921,-1.8994855,0.27580565,0.8029824,33.730312,-67.82708,-18.999544
2742274251000.0,-2.195878150846262,16.085705016925246,-4.118702300705219,-1.8594738,0.019242255,0.70829827,33.264427,-68.349434,-18.58002
2742279244000.0,-2.3937361518877323,17.020627603983705,-2.527181914431869,-1.6358972,-0.54825157,0.51068336,32.85264,-68.940216,-18.13266
2742284285000.0,-2.463670590701675,17.702489375101855,-0.534047669800815,-1.0604621,-1.6569719,0.28496864,32.713993,-69.518425,-17.701305
2742289259000.0,-2.7172764192451546,18.20391373716423,1.0580140684801087,0.32467487,-2.8799243,0.2883284,32.84399,-70.18019,-17.280787
2742294226000.0,-3.1701510042077525,18.519309370537236,2.2427661179318257,1.788308,-3.4654386,0.57543504,33.12586,-70.892426,-16.850578
2742299260000.0,-3.6753710817046064,18.817164804629417,3.2769883502567643,3.0769281,-4.4538183,0.81153446,34.04746,-71.56986,-16.37795
2742304362000.0,-4.517993579075649,18.96321918418027,3.13467887859278,3.568064,-5.07629,1.328021,34.995262,-72.41067,-15.784979
2742309311000.0,-5.335347310845405,19.104893649957845,2.99663701750594,4.024991,-5.0158143,1.7024814,36.145367,-73.224945,-15.237406
2742314277000.0,-6.486317580819857,19.193797112918396,2.570670384543061,3.6037996,-4.05584,1.7302758,37.182384,-73.97421,-14.698368
2742319213000.0,-7.930762335088378,19.233796997837533,1.8862257641594584,2.6099217,-2.4834726,1.4205672,37.995537,-74.65795,-14.215818
2742324284000.0,-9.41668293601773,19.289562219357222,1.2664903941233838,1.4877623,-0.70096785,0.8713993,38.454502,-75.04639,-14.002848
2742329246000.0,-10.873708705356483,19.366801880827484,0.7890071644388622,0.39064834,0.9053023,0.26145032,38.500305,-75.21411,-13.941483
2742334354000.0,-12.373605446545993,19.446314212707797,0.2974746498825267,-0.6206391,1.8936822,-0.09712757,38.25781,-75.062836,-14.1538
2742339219000.0,-12.693718431997617,19.479252106062862,0.2876836847311187,-1.3616186,2.2666154,-0.31856623,37.746967,-74.72972,-14.4988
2742344206000.0,-12.515856813272752,19.493481362431105,0.4868892585826009,-1.7003434,2.2489004,-0.5702427,37.087482,-74.26534,-14.941109
2742349762000.0,-12.251084910700923,19.50872521776004,0.6714538472886007,-1.6484199,2.0607538,-0.84391034,36.510513,-73.5831,-15.603537
2742354238000.0,-11.474104232227488,19.51585362085308,0.5039397538388626,-1.2803736,1.8692477,-1.0409144,35.9436,-72.88817,-16.281542
2742359243000.0,-10.605295408331257,19.52382450054045,0.3166278598004489,-0.7296785,1.7910569,-1.1071932,35.406574,-72.226715,-16.938602
2742364280000.0,-9.394390210589869,19.52943349057681,0.0209936544945745,-0.20372356,1.8011361,-1.0537425,34.906643,-71.60451,-17.585316
2742370085000.0,-7.729809799518643,19.533968750428325,-0.4053567088406624,0.13958271,1.8613064,-0.9728029,34.42081,-71.02891,-18.213655
2742374266000.0,-6.738507910546399,19.536686,-0.6793841616546237,0.27214047,1.990199,-0.85062987,33.88962,-70.637436,-18.679087
2742379233000.0,-6.780989612657303,19.536686,-0.8106914462044329,0.23060162,2.1569653,-0.70952,33.333603,-70.29915,-19.097982
2742384206000.0,-6.823522631501177,19.536686,-0.9421573463586912,0.09437868,2.3307564,-0.58276546,32.687386,-70.18348,-19.295315
2742389291000.0,-6.925259036110152,19.536686,-0.961031410804558,-0.03359759,2.4361305,-0.5381723,32.021168,-70.086296,-19.465614
2742394240000.0,-7.0520948055939225,19.536686,-0.9242081678176796,-0.064751714,2.4724772,-0.54458636,31.3339,-70.01162,-19.605522
2742399282000.0,-7.113527533460134,19.536686,-0.8631308577678027,-0.018325957,2.468201,-0.5739079,30.630037,-69.94135,-19.735788
2742404556000.0,-7.052044626567255,19.536686,-0.7555360295100426,0.01863139,2.3652701,-0.6579019,29.958603,-69.85519,-19.872854
2742409193000.0,-6.997987698379489,19.536686,-0.6609366327274803,0.22418754,2.221717,-0.67347896,29.320486,-69.77989,-20.001282
2742414275000.0,-6.703035083930831,19.536686,-0.5076523371033319,0.2941316,2.0228803,-0.6765333,28.742847,-69.68339,-20.138514
2742419232000.0,-6.326620867144665,19.536686,-0.3394672980826655,0.4352415,1.7644843,-0.59803706,28.236013,-69.619156,-20.244688
2742424324000.0,-5.853513611838078,19.22027911608509,-0.2352986533608815,0.5885687,1.5289958,-0.49449542,27.809526,-69.57692,-20.320839
2742429357000.0,-5.237550168732783,18.36456936501377,-0.2500522758677686,0.7528914,1.4242324,-0.41538838,27.428556,-69.554665,-20.373846
2742434203000.0,-4.644472710896848,17.540653320171412,-0.2642577307988981,0.8958339,1.4413365,-0.3494149,27.11369,-69.61065,-20.342072
2742440043000.0,-4.154675517672305,16.260330242615503,-0.1554242546124716,0.979217,1.484708,-0.30634892,26.825607,-69.681435,-20.291164
2742444220000.0,-3.851704171000589,15.284089099974754,-0.0510674406311537,1.0210613,1.4871514,-0.27855456,26.547497,-69.76408,-20.223598
2742449331000.0,-3.5028524775174588,14.09782151115116,0.0990387190943906,1.0348058,1.4425583,-0.27214047,26.28054,-69.88749,-20.109322
2742454317000.0,-3.198073090403244,12.954002709168732,0.2819063139220544,1.0277808,1.3356569,-0.28221974,26.032974,-70.01034,-19.98965
2742459197000.0,-2.899773168799279,11.83450095351806,0.4608862302395434,1.0189233,1.187522,-0.30634892,25.812843,-109.88882,-19.886667
2742464279000.0,-2.342845212250809,9.936798253705913,0.6879374811892996,1.0231993,1.0115929,-0.33505958,25.634068,-109.793724,-19.785088
2742469229000.0,-1.696667792758562,7.780180710257284,0.9262154431078548,1.0512991,0.83291477,-0.3567453,25.500952,-109.70516,-19.6865
2742474312000.0,-1.1622293815799154,6.076455179379547,1.113225917949948,1.0958922,0.66920286,-0.3979787,25.427423,-109.65205,-19.621355
2742479349000.0,-0.8575334667226353,5.278074771368034,1.1980779626129368,1.1407908,0.5002986,-0.4437936,25.407541,-109.60661,-19.56209
2742484286000.0,-0.5588867064188054,4.495544679179659,1.2812454322379467,1.2113458,0.3408628,-0.4810564,25.438284,-109.595825,-19.535986
