timestamp,acc_x,acc_y,acc_z,gyro_x,gyro_y,gyro_z,ori_azimuth,ori_pitch,ori_roll
2920142254000.0,-0.1536629937653459,9.94056715227208,0.0576581508548739,3.4468071,7.1663656,6.125451,331.87518,-17.10253,-27.608774
2920147296000.0,-0.1563191228246595,9.93960129275245,0.0588654825663721,-4.6303587,0.3408628,0.039095376,334.43228,-14.235263,-26.295122
2920152654000.0,-0.1591417209007806,9.938574899395412,0.0601484820328947,-3.5439348,0.76174897,0.034208454,331.64926,-16.765348,-27.83857
2920157305000.0,-0.1615918708918293,9.937683940921437,0.0612621868702961,-1.1969905,0.74372846,0.034208454,331.4507,-16.751266,-27.950962
2920162294000.0,-0.1642200795147796,9.936728234228964,0.0624568274709832,-1.1691961,0.7504479,0.031154128,331.194,-16.440086,-28.177895
2920167242000.0,-0.1668266893095998,9.935780381610334,0.0636416504199108,-1.1899655,0.7666359,0.038179077,330.9171,-16.713896,-28.391169
2920172295000.0,-0.1694886131764605,9.93481241490016,0.0648516161355396,-1.2040154,0.7583892,0.039095376,330.62894,-17.003336,-28.590698
2920177279000.0,-0.1721141877959804,9.933857666021574,0.0660450594616219,-1.2070698,0.75228053,0.041233405,330.32095,-17.299713,-28.784672
2920182287000.0,-0.1747524056319666,9.932898319636347,0.0672442497058073,-1.1777482,0.7318166,0.034513887,330.00342,-17.607447,-28.963867
2920187276000.0,-0.1773806142549169,9.931942612943878,0.0684388903064944,-1.1453724,0.7049385,0.029321533,329.67252,-17.923433,-29.130058
2920193088000.0,-0.1804423798425271,9.930829250086264,0.0698306023071345,-1.1175779,0.7870999,0.06047566,329.30902,-18.257385,-29.307701
2920197352000.0,-0.1826886579680553,9.93001242640683,0.070851638090123,-1.2522738,0.7687739,0.053145275,328.96176,-18.560146,-29.446827
2920202293000.0,-0.1852915801580729,9.929065914727635,0.0720347848546039,-1.2412782,0.7706065,0.058337633,328.57672,-18.918865,-29.599344
2920207300000.0,-0.187929271193373,9.928106759905187,0.0732337356438683,-1.239751,0.7504479,0.06291912,328.188,-19.24787,-29.733145
2920212289000.0,-0.1905574798163233,9.927151053212716,0.0744283762445554,-1.2394456,0.743423,0.070249505,327.7844,-19.587,-29.861235
2920217214000.0,-0.1931519731953633,9.926207606537949,0.0756076917303009,-1.2366967,0.72692966,0.08124508,327.37228,-19.934572,-29.971937
2920222353000.0,-0.1958592019212285,9.925223165428989,0.0768382505691325,-1.2351695,0.70463306,0.1020145,326.9476,-20.290464,-30.0688
2920227246000.0,-0.1984368376783133,9.924285848763072,0.0780099034974071,-1.2415836,0.66920286,0.11484267,326.51764,-20.651196,-30.14919
2920232303000.0,-0.2011008687479184,9.923317115801792,0.0792208270327197,-1.2098186,0.636827,0.10629055,326.08298,-21.026705,-30.216501
2920237282000.0,-0.2037238093640077,9.922363324737088,0.0804130730841972,-1.1090258,0.5717699,0.10720685,325.6444,-21.42566,-30.255596
2920242298000.0,-0.2063662416054827,9.92140244584965,0.0816141789677503,-1.0509937,0.49357912,0.100792766,325.21133,-21.824045,-30.277231
2920247340000.0,-0.2090223706647964,9.920436586330018,0.0828215106792484,-0.92087936,0.41874814,0.096516706,324.78134,-22.268541,-30.275146
2920252247000.0,-0.2116073816314865,9.919496587785227,0.0839965159764165,-0.7806858,0.35338554,0.09743301,324.35797,-22.732769,-30.248535
2920257234000.0,-0.2142345366530647,9.918541264218312,0.0851906776672617,-0.65087694,0.267559,0.086132,323.95093,-23.22615,-30.192934
2920262226000.0,-0.2168643256780733,9.917584982837512,0.0863860366327117,-0.4981606,0.01740966,0.027183503,323.5912,-23.753689,-30.078863
2920267227000.0,-0.2194988559092568,9.916626977391722,0.0875835506924504,-0.011911872,-0.042760566,0.006414085,323.2071,-24.398308,-29.98185
2920272347000.0,-0.2221960754220862,9.915646175975516,0.0888095598877837,0.07971791,-0.014660766,0.004276057,322.8607,-24.979948,-29.844267
2920277359000.0,-0.2248364004608168,9.914686063339184,0.0900097079516529,0.03023783,-0.006414085,0.013744468,322.53162,-25.642914,-29.682575
2920282236000.0,-0.227405607406924,9.913751811677692,0.0911775296011921,0.022907447,-0.004276057,0.00061086525,322.20837,-26.333567,-29.52465
2920287235000.0,-0.2300390840367353,9.912794189357458,0.0923745647510889,0.03145956,-0.008857546,0.008552114,321.8788,-27.02026,-29.357649
2920292215000.0,-0.2326625514535107,9.911840206729975,0.0935670502574873,0.030543262,0.00061086525,0.013744468,321.5538,-27.699427,-29.192032
2920297271000.0,-0.2353260557224297,9.910871665331474,0.0947777343378789,0.022907447,0.007330383,0.013133603,321.23257,-28.377998,-29.019604
2920307306000.0,-0.240612500607438,9.908949332868266,0.0971806644697481,0.02687807,0.0015271631,0.01038471,320.91452,-29.05792,-28.84147
2920312293000.0,-0.2432396556290162,9.90799400930135,0.0983748261605932,0.032375857,0.01038471,0.021380283,320.5927,-29.736483,-28.661959
2920317282000.0,-0.2458678642519665,9.907038302608878,0.0995694667612804,0.02687807,0.013133603,0.024129177,320.28,-30.409353,-28.477184
2920322278000.0,-0.2484997604797195,9.906081254976971,0.1007657835464142,0.027183503,0.013744468,0.016798794,319.9699,-31.082481,-28.289883
2920327248000.0,-0.251117959889634,9.905129187977256,0.101955874503603,0.022602014,0.0143553335,0.02443461,319.659,-31.753088,-28.096434
2920332459000.0,-0.2538631182648984,9.904130954348382,0.103203674096744,0.017715093,0.013744468,0.021380283,319.35748,-32.41774,-27.90229
2920337295000.0,-0.2564107263828755,9.90320455676073,0.1043616780945237,0.01863139,0.005192355,0.015577064,319.06085,-33.080105,-27.702314
2920342242000.0,-0.2584934143737684,9.902337646849016,0.1055457692963219,0.01985312,0.010079277,0.021380283,318.76437,-33.739155,-27.500532
2920347357000.0,-0.2580046878242151,9.90184893535401,0.1067675870735953,0.015882496,-0.0018325958,0.0125227375,318.48322,-34.390144,-27.293865
2920352313000.0,-0.257531153360953,9.901375415477323,0.1079514245915165,0.01985312,-0.0021380284,0.0125227375,318.19342,-35.044186,-27.09173
2920357290000.0,-0.2570556123957278,9.900899889160486,0.1091402783701069,0.019547688,-0.0036651916,0.01985312,317.9119,-35.69199,-26.884214
2920362241000.0,-0.2565825556710283,9.900426847007648,0.1103229215402497,0.01985312,-0.009162978,0.008246681,317.64114,-36.3336,-26.67682
2920367234000.0,-0.2561054859424027,9.8999497919745,0.1115155972317308,0.029321533,-0.010995574,0.014660766,317.36923,-36.976894,-26.46283
2920372295000.0,-0.2556219189693257,9.899466239897038,0.1127245160529978,0.02321288,-0.0106901415,0.013133603,317.10815,-37.60879,-26.249775
2920378333000.0,-0.255045001881114,9.898889340579965,0.1141668104301584,0.023518313,-0.00061086525,0.0125227375,316.84912,-38.24079,-26.035097
2920382274000.0,-0.2546684483460623,9.898512798644123,0.1151081953490704,0.025045475,-0.008857546,0.0070249503,316.60114,-38.865597,-25.816294
2920387330000.0,-0.2541853591115479,9.898029724290511,0.116315919822559,0.01740966,-0.009773844,0.013439035,316.3523,-39.484966,-25.597328
2920392308000.0,-0.2537097225986102,9.897554102428902,0.117505012470705,0.01160644,-0.01740966,0.015271631,316.11475,-40.09821,-25.376055
2920397312000.0,-0.2532316018451469,9.897075996403291,0.1187003157272985,0.011911872,-0.018936822,0.015271631,315.88068,-40.70642,-25.153828
2920402259000.0,-0.2527589273112974,9.89660333642953,0.1198820034192187,0.011301007,-0.01863139,0.011301007,315.65405,-41.30715,-24.930056
2920407157000.0,-0.2522909346153615,9.896135358149468,0.1210519865029108,0.013744468,-0.027794369,0.013439035,315.43433,-41.90402,-24.702204
2920412139000.0,-0.2518149159115738,9.89565935410878,0.1222420346292795,0.009162978,-0.02076942,0.010995574,315.2183,-42.491936,-24.47887
2920417138000.0,-0.2513372728966732,9.895181725807015,0.1234361435380946,0.006414085,-0.029321533,0.0009162979,315.01477,-43.07412,-24.251692
2920422211000.0,-0.2508525593510458,9.894697027192322,0.1246479287940297,0.004886922,-0.02565634,0.008857546,314.80914,-43.65209,-24.024693
2920427158000.0,-0.2503798848171963,9.89422436721856,0.1258296164859499,0.008246681,-0.02321288,0.0030543262,314.6162,-44.220734,-23.800993
2920432140000.0,-0.2499038661134086,9.893748363177876,0.1270196646123186,0.005192355,-0.025350908,0.0021380284,314.4264,-44.783493,-23.574533
2920437137000.0,-0.2494264141939329,9.89327092596565,0.1282132957820224,0.0027488936,-0.028710667,-0.0061086523,314.2443,-45.338936,-23.351507
2920442123000.0,-0.2489500132992951,9.892794539745886,0.1294042993866138,0.0009162979,-0.02107485,-0.008552114,314.06445,-45.88839,-23.12944
2920447517000.0,-0.248434628937948,9.892279171260244,0.1306927617699203,-0.004886922,-0.018020526,-0.011911872,313.8936,-46.42864,-22.908539
2920452156000.0,-0.2479913830995555,9.891835939075431,0.1318008776386928,-0.007941248,-0.025350908,-0.01282817,313.72858,-46.962852,-22.687828
2920457140000.0,-0.2475151733003427,9.891359743945207,0.1329914035041728,-0.017715093,-0.022296581,-0.018936822,313.56696,-47.486454,-22.472172
2920462139000.0,-0.247037530285442,9.890882115643445,0.134185512412988,-0.004886922,-0.020158553,-0.021991149,313.412,-48.008743,-22.255495
2920467126000.0,-0.2465610338430916,9.89040563387891,0.1353767548871351,-0.016493361,-0.014660766,-0.019547688,313.26044,-48.516605,-22.041016
2920472471000.0,-0.2460503313196582,9.889894947086963,0.1366535126622136,-0.014660766,-0.01740966,-0.022602014,313.1168,-49.02296,-21.828526
2920477348000.0,-0.2455843451256853,9.889428975247055,0.1378184794852365,-0.011911872,-0.021991149,-0.035430185,312.97827,-49.519306,-21.619534
2920482291000.0,-0.2451120527826859,9.888956697452372,0.1389992116989339,-0.015882496,-0.022602014,-0.027794369,312.84106,-50.01103,-21.407887
2920487285000.0,-0.2446348875063478,9.888479546874455,0.1401921262599707,-0.02443461,-0.02443461,-0.019547688,312.71204,-50.494057,-21.199425
2920492278000.0,-0.2441578177777223,9.888002491841306,0.1413848019514519,-0.026267206,-0.025350908,-0.022602014,312.5881,-50.97085,-20.993284
2920497272000.0,-0.2436806525013843,9.887525341263387,0.1425777165124887,-0.023518313,-0.02565634,-0.026572637,312.46765,-51.44163,-20.786716
2920502438000.0,-0.2431870530184924,9.887031756985149,0.1438117166371015,-0.03268129,-0.029932396,-0.02076942,312.3517,-51.904022,-20.579348
2920507273000.0,-0.2427250798284454,9.886569798025551,0.1449666509387861,-0.035430185,-0.035430185,-0.016493361,312.24136,-52.361435,-20.374699
2920512281000.0,-0.2422465768841321,9.886091309820864,0.1461629096736023,-0.029626964,-0.03726278,-0.01863139,312.1355,-52.812378,-20.171862
2920518200000.0,-0.2416810299737106,9.885525780331337,0.1475767785736377,-0.033292156,-0.039095376,-0.013133603,312.03326,-53.256207,-19.967123
2920522296000.0,-0.2412896665432179,9.885134428956256,0.1485551882736791,-0.044593163,-0.036957346,-0.0076358155,311.93484,-53.693058,-19.765112
2920527482000.0,-0.2407941561060755,9.88463893378263,0.1497939657894054,-0.036651913,-0.03940081,-0.01985312,311.84402,-54.12541,-19.567127
2920532279000.0,-0.2403358137291044,9.884180605524266,0.1509398230479744,-0.03848451,-0.03634648,-0.016798794,311.75183,-54.55008,-19.367188
2920537287000.0,-0.239857310784791,9.883702117319578,0.1521360817827906,-0.03970624,-0.028405234,-0.013439035,311.66464,-54.968746,-19.172546
2920542208000.0,-0.23942018,9.884086060543488,0.1496709288700751,-0.035430185,-0.03604105,-0.015882496,311.58487,-55.381752,-18.978884
2920547325000.0,-0.23942018,9.896228739159165,0.097051884240522,-0.034513887,-0.032375857,-0.022296581,311.50372,-55.787567,-18.790205
2920552241000.0,-0.23942018,9.907894443297266,0.0464997592847113,-0.035124753,-0.030848695,-0.016798794,311.42484,-56.19767,-18.589466
2920557239000.0,-0.2553247802031488,9.898741175723718,0.0419842536871508,-0.035124753,-0.030848695,-0.017104227,311.35065,-56.600178,-18.394361
2920562211000.0,-0.2795075545793127,9.878588877772136,0.0621365659478584,-0.023518313,-0.026572637,-0.009773844,311.27652,-57.001476,-18.19906
2920567195000.0,-0.2941738216576576,9.861403747947948,0.0806752509481481,-0.032070424,-0.031154128,-0.016493361,311.19513,-57.41074,-18.006163
2920572339000.0,-0.2843113370450451,9.851541067667668,0.0954689758074074,-0.028099801,-0.028099801,-0.007330383,311.11096,-57.823288,-17.811155
2920577260000.0,-0.274912749559245,9.842142442138552,0.1109741750034588,-0.017715093,-0.032986723,-0.014660766,311.03345,-58.22752,-17.622084
2920582271000.0,-0.2654277372131634,9.832657741772902,0.1299441798873406,-0.006414085,-0.03390302,-0.006414085,310.95428,-58.63085,-17.429869
2920587240000.0,-0.2594966729768372,9.825804,0.1473437032342007,-0.011911872,-0.034513887,-0.014049901,310.8796,-59.033016,-17.234665
2920592218000.0,-0.2629048413883328,9.825804,0.1609763448513011,-0.015577064,-0.03726278,-0.0067195175,310.8063,-59.435772,-17.035666
2920597259000.0,-0.2663561425057192,9.825804,0.1747815168866171,-0.014966198,-0.047647487,-0.009162978,310.73727,-59.83964,-16.831533
2920602335000.0,-0.2681506,9.825804,0.1758110401551604,-0.013439035,-0.050396383,-0.01038471,310.6693,-60.237823,-16.628708
2920607308000.0,-0.2681506,9.825804,0.1633566835774058,-0.0036651916,-0.051618114,-0.009162978,310.6072,-60.63169,-16.427729
2920612299000.0,-0.2660903464985613,9.831297976828711,0.1491084025668635,-0.007941248,-0.0580322,-0.00580322,310.5437,-61.029964,-16.21803
2920617240000.0,-0.2553409140269574,9.859962960472512,0.1276095353787672,0.0012217305,-0.0580322,-0.005192355,310.4825,-61.42658,-16.012676
2920622235000.0,-0.2444740014190519,9.88894122262608,0.1058757078935332,-0.0067195175,-0.061086524,-0.004886922,310.41626,-61.83447,-15.795888
2920627513000.0,-0.2369017584373053,9.89738132517576,0.088212811408561,0.0033597588,-0.06169739,-0.005497787,310.35318,-62.241203,-15.583202
2920632229000.0,-0.2328825110296342,9.889343098958795,0.0761550884910563,-0.0015271631,-0.0580322,-0.005192355,310.29327,-62.635456,-15.374053
2920637191000.0,-0.2263276108485273,9.882093059957924,0.0611780677545582,-0.003970624,-0.058948494,-0.002443461,310.22275,-63.064148,-15.143936
2920642211000.0,-0.2136850171949509,9.877878776998598,0.0401070771584852,-0.0027488936,-0.057421334,-0.0033597588,310.15515,-63.48345,-14.9198265
2920647502000.0,-0.2002029647255104,9.872778029951537,0.020518577149281,0.0061086523,-0.054367006,0.0018325958,310.06815,-63.942314,-14.669964
2920652375000.0,-0.1853724981282275,9.857947648526258,0.04276428091666,0.006414085,-0.047036625,0.0036651916,309.98508,-64.38863,-14.427197
2920657589000.0,-0.1695042336426471,9.842079475172795,0.0665666817873996,0.009468411,-0.044593163,0.00580322,309.8756,-64.90327,-14.138779
2920662277000.0,-0.1603472635105284,9.837839248554914,0.0815313644118497,0.0036651916,-0.04917465,-0.00030543262,309.7736,-65.40151,-13.8593645
2920667239000.0,-0.1554422128065648,9.842743884393064,0.0913414606979768,0.0012217305,-0.05100725,0.004886922,309.67523,-65.89052,-13.583951
2920672280000.0,-0.1489175013223007,9.851424244697943,0.09792377081491,0.0015271631,-0.04734206,0.008552114,309.54517,-66.4709,-13.236945
2920677338000.0,-0.1411348085700514,9.863098521529563,0.1018151216606683,0.008857546,-0.049480084,0.007330383,309.42606,-67.03405,-12.8999605
2920682243000.0,-0.1360709270049301,9.873688,0.1030997993654889,0.0061086523,-0.05100725,0.01740966,309.24893,-67.73219,-12.464201
2920687294000.0,-0.1678687566639277,9.873688,0.0673272369525061,0.008246681,-0.05375614,0.019242255,309.08713,-68.40458,-12.0466795
2920692259000.0,-0.1991251859367296,9.873688,0.0321637500428923,0.011911872,-0.0580322,0.023518313,308.9145,-69.0926,-11.615417
2920697318000.0,-0.21068975,9.876312348868854,0.0086564300728014,0.013744468,-0.05009095,0.014966198,308.7523,-69.75444,-11.202225
2920702307000.0,-0.21068975,9.880375935618302,-0.0075975893600952,-0.002443461,-0.05497787,0.010995574,308.60535,-70.390915,-10.798964
2920707272000.0,-0.21068975,9.88452649832776,-0.0229384275195094,0.007330383,-0.05955936,0.007941248,308.43573,-71.06748,-10.384526
2920712283000.0,-0.21068975,9.888984444816051,-0.0363133926438127,0.003970624,-0.05467244,0.012217305,308.27637,-71.71455,-9.982407
2920717245000.0,-0.211148681030266,9.893299940614492,-0.0451304439494802,0.008857546,-0.055283304,0.0030543262,308.12573,-72.34963,-9.594305
2920722270000.0,-0.214826716799144,9.896978053194742,-0.0230622143579945,0.0018325958,-0.056505036,0.0036651916,307.98373,-72.961464,-9.215022
2920727422000.0,-0.2185977098899419,9.900749125038216,-0.0004362404564353,-0.00061086525,-0.05009095,-0.005497787,307.84622,-73.55577,-8.853726
2920732287000.0,-0.2052522726776508,9.907422861012838,0.0145815668913373,0.005497787,-0.054367006,-0.006414085,307.72116,-74.131645,-8.500723
2920737287000.0,-0.1762111173152734,9.917103443242697,0.0242619535283533,0.016798794,-0.051618114,0.0021380284,307.60144,-74.68902,-8.159617
2920742273000.0,-0.1606908773200296,9.921572,0.0350749458316154,0.010995574,-0.05009095,0.002443461,307.49222,-75.208694,-7.841436
2920747338000.0,-0.1566909974940216,9.921572,0.0470745811330089,0.0018325958,-0.055283304,0.0009162979,307.39114,-75.71461,-7.5308976
2920752271000.0,-0.1554576791793132,9.921572,0.0587981016006782,0.0033597588,-0.047647487,0.003970624,307.30093,-76.211914,-7.217812
2920757300000.0,-0.1758738544120389,9.921572,0.0710478075930479,0.00580322,-0.049785517,-0.009162978,307.2221,-76.68874,-6.9185925
2920762186000.0,-0.1957094941390419,9.921572,0.0829491922577363,-0.003970624,-0.05009095,-0.0061086523,307.14566,-77.14831,-6.623511
2920767238000.0,-0.1955370846714129,9.918784015568768,0.0973429735682991,0.009468411,-0.050701816,-0.0021380284,307.07587,-77.597855,-6.340745
2920773141000.0,-0.1866915393866374,9.914361152871225,0.1150340687560632,0.0018325958,-0.05100725,-0.009773844,307.0114,-78.024704,-6.069127
2920777287000.0,-0.1827051819943244,9.91274086757055,0.1222609319921173,-0.005497787,-0.05009095,-0.011301007,306.94778,-78.43894,-5.8081017
2920782307000.0,-0.186494834839981,9.916530599558568,0.1108919631666403,-0.0018325958,-0.049785517,-0.013744468,306.88922,-78.84004,-5.557402
2920787193000.0,-0.1901833296216301,9.920219171370013,0.0998264688078196,0.004276057,-0.053145275,-0.008857546,306.83826,-79.22961,-5.3071604
2920792270000.0,-0.19153613,9.91380462817875,0.0931789930478149,-0.0015271631,-0.049480084,-0.021685716,306.78983,-79.602325,-5.0705867
2920797272000.0,-0.19153613,9.90197741543906,0.0892366694853098,-0.010079277,-0.05497787,-0.01282817,306.7472,-79.96803,-4.8333387
2920802440000.0,-0.1865376689753442,9.896839849823888,0.0741949527057316,-0.007330383,-0.050701816,-0.016798794,306.70694,-80.321976,-4.6116877
2920807297000.0,-0.1679199349287544,9.911734338776816,0.0295123878834454,-0.0125227375,-0.047647487,-0.022296581,306.6713,-80.66213,-4.3945403
2920812191000.0,-0.1491603733837656,9.926742292026898,-0.0155105629586935,-0.00580322,-0.04520403,-0.02565634,306.64066,-80.998375,-4.1816974
2920817276000.0,-0.1317609547855684,9.934121536419331,-0.0346759932280462,-0.01038471,-0.04734206,-0.027794369,306.6133,-81.31977,-3.9765534
2920822310000.0,-0.1153519567018379,9.938223441116406,-0.0428804931266167,-0.014966198,-0.04153884,-0.028099801,306.5856,-81.63292,-3.778518
2920827304000.0,-0.0965581472427277,9.935453038149738,-0.0408546470786838,-0.016187929,-0.034208454,-0.021685716,306.5581,-81.9569,-3.574286
2920832298000.0,-0.0737510041087267,9.921768954220314,-0.0226089359055794,-0.01863139,-0.03176499,-0.035124753,306.53375,-82.2667,-3.3823411
2920837189000.0,-0.0552489443513301,9.911995,-0.0128946505307457,-0.013439035,-0.0290161,-0.029932396,306.51187,-82.57736,-3.1831307
2920843180000.0,-0.0452402836027038,9.911995,-0.0279076419149585,-0.021991149,-0.027794369,-0.03726278,306.493,-82.87078,-2.9976945
2920847619000.0,-0.0375852190413478,9.912355998695652,-0.0385478963111739,-0.0125227375,-0.024129177,-0.033292156,306.47366,-83.15891,-2.8116982
2920852414000.0,-0.0256058828415652,9.918345579130436,-0.0425410082387826,-0.016798794,-0.022296581,-0.026267206,306.45657,-83.431496,-2.6328645
2920857299000.0,-0.0134016998726521,9.924447581304348,-0.046609069086826,-0.039095376,-0.020158553,-0.025961773,306.442,-83.69847,-2.455942
2920862210000.0,-0.0011325611704347,9.930582060869565,-0.0506987818452173,-0.035430185,-0.02076942,-0.029321533,306.42932,-83.96245,-2.2839098
2920867228000.0,0.0114038953573043,9.936850197391305,-0.0548776005423478,-0.029932396,-0.02076942,-0.028710667,306.4174,-84.212776,-2.1163692
2920872291000.0,0.0204158034324887,9.943249430002016,-0.0637717884804086,-0.032986723,-0.022907447,-0.032375857,306.4136,-84.4474,-1.9594338
2920877296000.0,0.0236372507091874,9.949692455070906,-0.0798790282277034,-0.040927973,-0.008246681,-0.03268129,306.4062,-84.67461,-1.8069221
2920882344000.0,0.0268863747556959,9.956190834800726,-0.0961246518529471,-0.03940081,-0.011911872,-0.039095376,306.39825,-84.90168,-1.6557075
2920887275000.0,0.02873042,9.95561337921742,-0.1202742498652581,-0.03634648,-0.021380283,-0.040011674,306.38904,-85.11961,-1.5081434
2920892294000.0,0.02873042,9.94525076996874,-0.1565426464546728,-0.034513887,-0.011301007,-0.035124753,306.37653,-85.32987,-1.3658068
2920897269000.0,0.0312120078846368,9.945688275791436,-0.182308872056797,-0.036957346,0.0018325958,-0.037873644,306.36777,-85.538345,-1.2272909
2920902361000.0,0.0357525201047486,9.954769483240224,-0.2004709218854748,-0.04153884,0.005497787,-0.044898596,306.36005,-85.73914,-1.0931903
2920907284000.0,0.034425578988774,9.963760625110783,-0.2126305726883308,-0.03848451,-0.00061086525,-0.05100725,306.36057,-85.94084,-0.96061033
2920912957000.0,0.0237255842522895,9.974460556720828,-0.2179805664254062,-0.046120327,0.0033597588,-0.058337633,306.3584,-86.13022,-0.8350253
2920917260000.0,0.0173280260571167,9.982683654154409,-0.2220921385147611,-0.053450707,0.0030543262,-0.059253927,306.36548,-86.31513,-0.7127572
2920922337000.0,0.0123953437867505,9.99254895997768,-0.2270248223303236,-0.056199603,-0.00061086525,-0.064751714,306.37338,-86.49147,-0.59786063
2920927268000.0,0.009576807,9.99935617635729,-0.2286732068580715,-0.06627888,-0.007330383,-0.06872234,306.38373,-86.66071,-0.48464522
2920933021000.0,0.009576807,10.002672444625016,-0.2253570043824485,-0.06780604,-0.016187929,-0.08093964,306.39664,-86.82408,-0.37907997
2920937267000.0,0.009576807,10.005120015468885,-0.2229094820964247,-0.07880162,-0.02107485,-0.07849618,306.40723,-86.97707,-0.27550697
2920942331000.0,0.0105421458874859,10.00711942774972,-0.2199447705948372,-0.07727446,-0.021991149,-0.09162979,306.4202,-87.12602,-0.18310913
2920947283000.0,0.0205220168078002,10.000466046156005,-0.2166181492704826,-0.0888809,-0.020463986,-0.09682214,306.43423,-87.26203,-0.0909201
2920952160000.0,0.0303507386329966,9.993913432659934,-0.2133419109427609,-0.10323623,-0.028710667,-0.10629055,306.44495,-87.389435,-0.010764376
2920957166000.0,0.0371756364476211,9.989740613357158,-0.21068975,-0.11301007,-0.03634648,-0.12064589,306.4557,-87.50936,0.06385544
2920962186000.0,0.031806463883404,9.99510989412553,-0.21068975,-0.12705997,-0.028099801,-0.12675454,306.4647,-87.6187,0.13556743
2920967135000.0,0.0382202481531548,10.00198200783939,-0.2030978869225621,-0.13469578,-0.021685716,-0.13500121,306.47778,-87.72047,0.2026675
2920972158000.0,0.0612146556848948,10.011179956405355,-0.1847023595525812,-0.15393804,-0.01863139,-0.1386664,306.48978,-87.81008,0.26704943
2920977148000.0,0.0815035877180533,10.020599317425432,-0.1707528102354788,-0.16340645,-0.017715093,-0.15332718,306.4963,-87.894745,0.31756616
2920982176000.0,0.0966220159679748,10.030677944740974,-0.1657133387127158,-0.1777618,-0.011301007,-0.15851954,306.50064,-87.96855,0.36797208
2920987100000.0,0.1091877594039472,10.040335957651491,-0.1647271586987999,-0.1826487,-0.002443461,-0.16737708,306.5038,-88.03574,0.41713357
2920992138000.0,0.1187579158236636,10.049906308935832,-0.1695122344103937,-0.19914207,0.008552114,-0.17715092,306.5048,-88.09257,0.4629313
2920997183000.0,0.1262503560484673,10.055647,-0.1601194631485668,-0.21013765,0.015882496,-0.17898351,306.50815,-88.14342,0.50945675
2921002135000.0,0.1305386608789221,10.055647,-0.1301013427687856,-0.21502456,0.016798794,-0.19730948,306.51056,-88.19052,0.5471116
2921007132000.0,0.1358296384761236,10.056524187098717,-0.1044677097544141,-0.22418754,0.017715093,-0.19792034,306.5155,-88.22874,0.5908849
2921012113000.0,0.1454006789466292,10.06130980477528,-0.0996821840224719,-0.23884831,0.026572637,-0.20555615,306.5182,-88.263916,0.62614095
2921017116000.0,0.1507023518610374,10.058486463555472,-0.0991368090060583,-0.24495697,0.032375857,-0.21288654,306.5193,-88.29083,0.66160214
2921022219000.0,0.1368239598447557,10.021477154108291,-0.1176413362029534,-0.26206118,0.03145956,-0.22388211,306.5199,-88.31039,0.6927995
2921027134000.0,0.1252223732277481,9.987885139826329,-0.1362469496832445,-0.2687807,0.02687807,-0.22815818,306.52228,-88.328384,0.72918344
2921032142000.0,0.1346876661900533,9.97842014831261,-0.1646428285701598,-0.28893927,0.034513887,-0.23671028,306.52145,-88.33882,0.7601267
2921037261000.0,0.1433814998046141,9.967832393176522,-0.1945127346922672,-0.30665436,0.029932396,-0.25778514,306.5269,-88.352806,0.7798591
2921042134000.0,0.1398744924851581,9.946790276020138,-0.2330898481641241,-0.32070425,0.039095376,-0.25992316,306.5261,-88.36042,0.8017639
2921047148000.0,0.1362660100924325,9.925139306304953,-0.2727831883955812,-0.33536503,0.03848451,-0.26633725,306.52994,-88.370674,0.8194748
2921052209000.0,0.1382173426042671,9.91406606347164,-0.2989520402208641,-0.35521814,0.04642576,-0.2666427,306.52872,-88.37496,0.8376073
2921057213000.0,0.1484933868242736,9.919204190200492,-0.3040900596483328,-0.36743546,0.050701816,-0.27183503,306.52878,-88.37877,0.8520069
2921062190000.0,0.1557855976071964,9.913901785007496,-0.2808909519370315,-0.3707952,0.054061573,-0.26236662,306.537,-88.384186,0.8693526
2921067171000.0,0.1605534227556221,9.899598025787109,-0.2332127153883058,-0.38789943,0.054367006,-0.26206118,306.54483,-88.385216,0.8820956
2921072225000.0,0.156174301061357,9.881788642796105,-0.1952164383737822,-0.40225476,0.059864793,-0.25870144,306.54547,-88.38469,0.89702815
2921077172000.0,0.1440285663373782,9.86154576568108,-0.1668763892753375,-0.40225476,0.062002823,-0.2519819,306.54694,-88.38277,0.91254157
2921082213000.0,0.1261662452965171,9.84001384468152,-0.1357430463288359,-0.40866885,0.056199603,-0.24831672,306.5448,-88.36828,0.9288832
2921087197000.0,0.0862283236732559,9.815052663215145,-0.0958051299184185,-0.4111123,0.056505036,-0.24770586,306.54028,-88.354324,0.94573045
2921092171000.0,0.0483270296514773,9.797073,-0.0636124707914549,-0.4156938,0.04917465,-0.25259277,306.537,-88.33522,0.9551709
2921097990000.0,0.0099241088291842,9.797073,-0.0492113741046601,-0.42119157,0.045814894,-0.25473082,306.5324,-88.31517,0.96531016
2921102636000.0,-0.0193984146646075,9.797562611247203,-0.039531230399723,-0.4343252,0.039095376,-0.26511553,306.53046,-88.29222,0.95968986
2921107212000.0,-0.0240659473364575,9.806897865693896,-0.0628688952211098,-0.4437936,0.035430185,-0.2782491,306.52856,-88.269806,0.95287925
2921112213000.0,-0.0280028309022809,9.817318367711014,-0.0876464383473861,-0.4596761,0.027183503,-0.28802297,306.53094,-88.244736,0.9329785
2921117220000.0,-0.019491058443685,9.83008583997515,-0.1046699850421585,-0.4615087,0.03604105,-0.29138273,306.52942,-88.22148,0.91173553
2921122215000.0,-0.0109996856794177,9.842822713144582,-0.1216527323440135,-0.45906523,0.044593163,-0.3032946,306.53638,-88.20087,0.8848572
2921127275000.0,0.0187190434028985,9.832830384307847,-0.12449849,-0.4841107,0.04520403,-0.3118467,306.5429,-88.17243,0.85868937
2921132171000.0,0.0515242727594202,9.81877120589705,-0.12449849,-0.47891834,0.031154128,-0.3277292,306.55118,-88.15431,0.827841
2921137179000.0,0.1043300558860196,9.792792326803204,-0.1440273285930543,-0.48991394,0.048258353,-0.34238997,306.55023,-88.12805,0.7941254
2921142154000.0,0.1608983113525279,9.764508120312652,-0.1675974333966557,-0.4981606,0.06658431,-0.34330627,306.55283,-88.10345,0.76080644
2921147288000.0,0.2225615479515246,9.727886784206412,-0.1994019990695856,-0.514654,0.084910266,-0.34697145,306.55334,-88.07185,0.7305119
2921152272000.0,0.2832046796950743,9.690568158717747,-0.2320559960828772,-0.5149594,0.106901415,-0.35827246,306.54752,-88.042915,0.6984024
2921157244000.0,0.3299185627353322,9.638101810140451,-0.1880284323757346,-0.52870387,0.12064589,-0.34025195,306.5408,-88.0034,0.68660074
2921162206000.0,0.3725205084351031,9.581299044526348,-0.1217587203924693,-0.5311473,0.12308934,-0.32498032,306.53113,-87.96852,0.6712351
2921167948000.0,0.38307226,9.49164265031296,-0.0058876568464653,-0.54305923,0.1151481,-0.29749137,306.5112,-87.92872,0.67422515
2921172293000.0,0.38307226,9.418869099594993,0.0898671923895434,-0.5348125,0.109650314,-0.27152961,306.49,-87.89295,0.68107283
2921177224000.0,0.362169893834346,9.35541018292293,0.208726613079629,-0.5403103,0.09101892,-0.23823744,306.46707,-87.83118,0.7004994
2921182209000.0,0.3265465450015989,9.30451918356252,0.3359528680204669,-0.5503896,0.06536258,-0.20891592,306.44757,-87.76938,0.7259592
2921187183000.0,0.3061024517122274,9.296123579196683,0.4728171567058127,-0.56138515,0.040011674,-0.17501289,306.4274,-87.67884,0.75729704
2921192194000.0,0.2918946026428501,9.305595669791767,0.6148956671804994,-0.5644395,0.015577064,-0.1600467,306.4138,-87.588524,0.7914033
2921197264000.0,0.2452275910018607,9.344259329252766,0.7320062571148761,-0.5864306,-0.0125227375,-0.129198,306.403,-87.46385,0.8257387
2921202251000.0,0.1844231722612868,9.39570928665165,0.8349060253941827,-0.59131753,-0.025961773,-0.10995574,306.3942,-87.3451,0.8609435
2921207269000.0,0.0857195491105598,9.441531754783842,0.8935140182007442,-0.6032294,-0.04062254,-0.102319926,306.39252,-87.19073,0.8963639
2921212218000.0,-0.0318457697590361,9.483519337349398,0.9271041061746988,-0.61086524,-0.051618114,-0.10781772,306.3922,-87.03878,0.93335575
2921217221000.0,-0.0984270385403462,9.513227990256365,0.9567511540819222,-0.6081163,-0.053145275,-0.129198,306.39032,-86.87326,0.95307547
2921222341000.0,-0.079873163069719,9.5225051144641,0.9799435044745056,-0.63346726,-0.04917465,-0.1255328,306.38852,-86.6996,0.97857976
2921227513000.0,-0.068612686880234,9.516322776006458,1.007013170003027,-0.6301075,-0.0580322,-0.12522738,306.39505,-86.538506,0.97030544
2921232239000.0,-0.0731793275526183,9.479789856623952,1.038979689042478,-0.63224554,-0.04642576,-0.14019357,306.39383,-86.37263,0.95920664
2921237265000.0,-0.0795880645868073,9.449335328865436,1.077893645171504,-0.6444628,-0.05497787,-0.13713925,306.40237,-86.198784,0.956679
2921242229000.0,-0.0896227368865435,9.439300452242744,1.128066980474934,-0.65148777,-0.04642576,-0.12980886,306.4019,-86.029724,0.9514959
2921247280000.0,-0.1097519797665187,9.440923836143606,1.1805463736506656,-0.6585127,-0.046120327,-0.1151481,306.40134,-85.851685,0.94587904
2921252240000.0,-0.1442423935914481,9.460085162484871,1.2341981674384834,-0.6563747,-0.061391957,-0.092240654,306.40158,-85.67665,0.94579023
2921257269000.0,-0.1792126135764421,9.47951304759984,1.2885963269060106,-0.65057147,-0.08552113,-0.0720821,306.40103,-85.49405,0.9476567
2921262235000.0,-0.2489607615665796,9.524392920500588,1.3243990641397316,-0.6401868,-0.089186326,-0.048258353,306.39743,-85.31551,0.95770705
2921267219000.0,-0.3220159212532637,9.571663963986676,1.3587779395876474,-0.63316184,-0.10598512,-0.014966198,306.4026,-85.1398,0.9775448
2921272283000.0,-0.4233213709342561,9.609659810380624,1.3898498404152249,-0.6258314,-0.1337795,0.011911872,306.41205,-84.95588,0.9920473
2921277314000.0,-0.5358546570761247,9.643002806401384,1.4190251142560553,-0.6209445,-0.14874569,0.04337143,306.42047,-84.77511,1.017796
2921282226000.0,-0.6638891026316338,9.642183822646231,1.4289522028464186,-0.6133087,-0.16615535,0.07269296,306.44214,-84.595055,1.0376408
2921287222000.0,-0.8235245179918674,9.58730908382859,1.4089977381607757,-0.6041457,-0.1704314,0.0693332,306.4629,-84.420876,1.057317
2921292253000.0,-0.9692807808450704,9.557653,1.4045870373239435,-0.6035349,-0.183565,0.0580322,306.495,-84.24674,1.0597693
2921297290000.0,-1.0978185400456797,9.557653,1.418359023639132,-0.63591075,-0.19364429,0.043676864,306.5263,-84.06992,1.0608299
2921302238000.0,-1.2154785772554002,9.53824027737499,1.415296652911279,-0.66339964,-0.17134771,0.02107485,306.55862,-83.90782,1.0306319
2921307728000.0,-1.3294424667090217,9.479293459227147,1.3799285209881158,-0.6765333,-0.16462818,-0.018325957,306.5979,-83.74531,0.99333507
2921312239000.0,-1.4230838337992378,9.430858286792736,1.3508673838104492,-0.6808093,-0.15821409,-0.054061573,306.63788,-83.58052,0.9259134
2921317275000.0,-1.463896162615588,9.397558103698811,1.3297909165125497,-0.68752885,-0.15210545,-0.10873401,306.67688,-83.41608,0.84362024
2921322322000.0,-1.47586795330251,9.373614855680318,1.313828528929987,-0.6881397,-0.16493362,-0.14660765,306.71915,-83.25504,0.7585009
2921327244000.0,-1.4855140779411764,9.35543189889706,1.3168638248161766,-0.68539083,-0.16401732,-0.1685988,306.76614,-83.102425,0.6359139
2921332279000.0,-1.4897349452380952,9.35121094345238,1.37173514375,-0.66798115,-0.14263703,-0.20005837,306.8118,-82.95592,0.5026896
2921337499000.0,-1.4936411670336438,9.348553618138425,1.430804808137655,-0.6423248,-0.11362094,-0.22388211,306.86288,-82.81549,0.36669147
2921342282000.0,-1.4830616379551929,9.39792468019093,1.5507061745168988,-0.623388,-0.11301007,-0.23182335,306.9159,-82.67917,0.22986548
2921347278000.0,-1.4720109736700286,9.449494369928402,1.6759470748787435,-0.593761,-0.12522738,-0.22968534,306.96088,-82.54009,0.08936623
2921352244000.0,-1.449723651273345,9.512094537988116,1.8282534561120545,-0.5552765,-0.14019357,-0.21533,307.00592,-82.410034,-0.04629161
2921357305000.0,-1.4085791820033955,9.594383583934636,2.0288329586162988,-0.5390886,-0.17806722,-0.19700404,307.0603,-82.283325,-0.17547296
2921362253000.0,-1.3696451541977148,9.650885716343764,2.190148729160457,-0.5222898,-0.24220806,-0.1695151,307.12253,-82.13649,-0.29024503
2921367263000.0,-1.3315092233482364,9.68425435717834,2.318857595330353,-0.50671273,-0.29138273,-0.12675454,307.1893,-81.99671,-0.39156753
2921372274000.0,-1.3787390230225758,9.626963904904986,2.4113115413431867,-0.52748215,-0.34422258,-0.09590584,307.2647,-81.8182,-0.4763924
2921377261000.0,-1.5144855761084943,9.47570358616209,2.465610105879487,-0.5308419,-0.39370266,-0.07971791,307.35086,-81.65322,-0.54909074
2921382592000.0,-1.6540278697467488,9.32312319301848,2.512735088706365,-0.55863625,-0.43676865,-0.08124508,307.4411,-81.45375,-0.60795456
2921387245000.0,-1.723742794651413,9.275194153710766,2.451734654532121,-0.58062744,-0.4654793,-0.08124508,307.53894,-81.25993,-0.65849423
2921392635000.0,-1.8058498246674608,9.218342996922772,2.3851402497121303,-0.59773165,-0.47678033,-0.095294975,307.64542,-81.04048,-0.7426963
2921397272000.0,-1.89842085080405,9.147812634306137,2.393956533531864,-0.6209445,-0.47983465,-0.1160644,307.75632,-80.81743,-0.82568043
2921402650000.0,-2.0015526,9.065607252457552,2.400376648882931,-0.6462954,-0.48166725,-0.14721853,307.88217,-80.599525,-0.9285996
2921407153000.0,-2.0015526,8.9885306006479,2.328117281523682,-0.6743952,-0.49021935,-0.16829337,308.00958,-80.37822,-1.0315082
2921412130000.0,-1.9896107304999064,8.925295101479124,2.2641070139299755,-0.68539083,-0.5299256,-0.22968534,308.15527,-80.14826,-1.168986
2921417133000.0,-1.9088740100823816,8.988090198371092,2.291019191621419,-0.68783426,-0.51893,-0.2837469,308.28818,-79.91629,-1.3092391
2921422820000.0,-1.8171508872483224,9.059980154362416,2.3451606006711407,-0.7021896,-0.47769663,-0.32467487,308.4311,-79.68767,-1.4626389
2921427181000.0,-1.747076305951441,9.117688511547572,2.5059200076589025,-0.7174612,-0.44837508,-0.34300083,308.57413,-79.460625,-1.6212523
2921432419000.0,-1.6619377111502005,9.187577649369688,2.6979239420111405,-0.7254025,-0.4447099,-0.35979962,308.7119,-79.23011,-1.7736617
2921437111000.0,-1.5653329479722466,9.26222735561419,2.847222116505424,-0.72418076,-0.44501534,-0.36743546,308.84158,-79.001816,-1.9260728
2921442109000.0,-1.4624278741522525,9.341745520961595,3.006257128466725,-0.743423,-0.46975538,-0.3659083,308.9654,-78.73617,-2.0611124
2921447176000.0,-1.433392318980754,9.400441083562452,3.056802161675177,-0.75319684,-0.49021935,-0.36041048,309.08694,-78.47897,-2.1935437
2921452154000.0,-1.4099862850255305,9.456615154457976,3.0989330814512965,-0.77182823,-0.5006041,-0.34697145,309.21063,-78.22019,-2.3187785
2921457159000.0,-1.433809015685492,9.492240063260828,3.0985490882658158,-0.77121735,-0.49296826,-0.32925636,309.3276,-77.94497,-2.416375
2921462134000.0,-1.462333060536819,9.52551825623628,3.0937950890640598,-0.766025,-0.47739118,-0.30940324,309.44257,-77.673615,-2.5063071
2921467157000.0,-1.5094422641110827,9.543653198313317,3.071213210264929,-0.77518797,-0.47433686,-0.29810223,309.56158,-77.39797,-2.5858428
2921472223000.0,-1.5590370619814296,9.560184696907744,3.0464157465968142,-0.75747293,-0.44806966,-0.30024028,309.6675,-77.13859,-2.6631787
2921477245000.0,-1.659605605721676,9.496308172788412,3.0954220644800827,-0.7464773,-0.4364632,-0.2947425,309.78717,-76.8788,-2.7382233
2921482182000.0,-1.7965802060527676,9.37400951370926,3.198152989187791,-0.73731434,-0.44165558,-0.310625,309.90375,-76.62869,-2.8177023
2921487189000.0,-1.8631992712873244,9.304008899545185,3.2280352882934547,-0.73823065,-0.46914452,-0.3390302,310.04065,-76.38636,-2.904426
2921492979000.0,-1.89061160666403,9.260148819458175,3.211587944314811,-0.7360926,-0.4550946,-0.36682457,310.1664,-76.152725,-2.9950273
2921497214000.0,-1.8658492259203323,9.231875855767417,3.20547043872003,-0.7498371,-0.43249258,-0.36896262,310.3041,-75.88678,-3.1073549
2921502337000.0,-1.814907050122711,9.199457914102322,3.200839331829337,-0.7684685,-0.42760566,-0.37568212,310.4432,-75.624504,-3.2249982
2921507241000.0,-1.7500135642309245,9.143307864957611,3.1866390042389985,-0.77824235,-0.41050145,-0.3726278,310.57925,-75.36364,-3.345625
2921512282000.0,-1.667181101796528,9.06047580954784,3.162276545215987,-0.79901177,-0.3747658,-0.3747658,310.70786,-75.100235,-3.4677305
2921517257000.0,-1.597371434903829,8.995049929415917,3.163920489518264,-0.82344633,-0.3585779,-0.3857614,310.84003,-74.8345,-3.5822332
2921522273000.0,-1.5380347748720664,8.944189796012,3.189350467707782,-0.8491027,-0.3567453,-0.37812558,310.96338,-74.5703,-3.690423
2921527241000.0,-1.4708534414836008,8.911299102687238,3.2155339794523345,-0.84849185,-0.35094208,-0.3839288,311.08405,-74.31367,-3.7897794
2921532251000.0,-1.3777078818636967,8.930908591805457,3.2449483155103707,-0.8353582,-0.31031954,-0.3811799,311.19144,-74.06123,-3.8844264
2921537186000.0,-1.3065322263954202,8.94061928787569,3.3027509537517887,-0.83291477,-0.29901853,-0.3643811,311.3008,-73.80578,-3.9614463
2921542295000.0,-1.286524866377019,8.925614015947659,3.437800385790227,-0.838718,-0.32436943,-0.36774087,311.4086,-73.55701,-4.040748
2921547315000.0,-1.2663189283670406,8.939675420118343,3.56124668905767,-0.8332202,-0.33933565,-0.36682457,311.50644,-73.31798,-4.0969696
2921552275000.0,-1.2453435119579617,9.006796840236687,3.666123858712356,-0.83077675,-0.34391713,-0.36346483,311.60638,-73.082726,-4.150089
2921557378000.0,-1.2236581885382831,9.074886071647333,3.776289055554524,-0.8378017,-0.3555236,-0.35033122,311.7114,-72.82991,-4.189766
2921563174000.0,-1.1979008183294664,9.141855019025522,3.925681910348028,-0.8491027,-0.3998113,-0.35613444,311.82562,-72.58196,-4.228708
2921567181000.0,-1.1800937475174014,9.18815325438515,4.028962995433874,-0.852157,-0.37751472,-0.34605515,311.92194,-72.32202,-4.258177
2921572290000.0,-1.2750503900578642,9.178197599684376,4.13851565228827,-0.874759,-0.33292156,-0.3295618,312.0215,-72.060356,-4.2841234
2921577254000.0,-1.379248344888655,9.161526027880065,4.242713781202876,-0.8863655,-0.35979962,-0.3277292,312.13242,-71.80719,-4.3055606
2921582246000.0,-1.464510255865543,9.11417715015015,4.2690472495011145,-0.8906415,-0.37568212,-0.33261612,312.2252,-71.53445,-4.3215866
2921587229000.0,-1.538475102363654,9.049458006006006,4.250555941334883,-0.9221011,-0.39492437,-0.3481932,312.32446,-71.25736,-4.3359337
2921592219000.0,-1.5937973844920703,8.970309570510073,4.205403782443206,-0.947452,-0.3866777,-0.3594942,312.4293,-70.95527,-4.3714523
2921597273000.0,-1.6352900529361338,8.879025621945992,4.139015365623661,-0.9819659,-0.3912592,-0.36743546,312.54153,-70.64889,-4.4054093
2921602247000.0,-1.664586589750195,8.778661656830602,4.075073901537861,-0.9954049,-0.38728857,-0.37201694,312.6597,-70.33829,-4.4583406
2921607304000.0,-1.6570252891334896,8.642559272131148,4.014583851896956,-0.99204516,-0.38056904,-0.37843102,312.7769,-70.03018,-4.511344
2921612240000.0,-1.649644909492584,8.509713440437158,3.95554116156128,-0.9932669,-0.376293,-0.37140608,312.90686,-69.728325,-4.5686345
2921617281000.0,-1.6179320793892509,8.415325288843647,3.960022857785016,-0.98990715,-0.37232238,-0.38026363,313.03473,-69.4349,-4.630102
2921622295000.0,-1.5749191864087948,8.341029486400652,3.995215258175896,-0.97219205,-0.3912592,-0.36987892,313.16254,-69.15434,-4.6803193
2921627255000.0,-1.5289141270483793,8.245944972780583,4.066295112135527,-0.9746355,-0.41233405,-0.3555236,313.29382,-68.870415,-4.7354903
2921632902000.0,-1.4628443650268772,8.052141018211435,4.290932017853071,-0.9923506,-0.4474588,-0.34391713,313.43057,-68.59473,-4.783007
2921637240000.0,-1.412089871021339,7.903261692034533,4.4634970784166805,-1.0091494,-0.44929138,-0.32650748,313.56403,-68.31237,-4.815267
2921642276000.0,-1.3686604445495352,7.903932969974351,4.5727379629689,-1.0241156,-0.44073927,-0.29718593,313.69846,-68.03422,-4.836973
2921647267000.0,-1.330348678847387,7.9575694579592815,4.653192834963129,-1.0308352,-0.43096542,-0.27275133,313.82852,-67.761505,-4.8536854
2921652234000.0,-1.3210330168680895,8.020687533941887,4.718349217022371,-1.0519099,-0.45020768,-0.2507602,313.9461,-67.42547,-4.8519216
2921657259000.0,-1.3911537111339678,8.111431918745179,4.7430977834919,-1.0735956,-0.46120325,-0.23426682,314.05383,-67.09615,-4.845497
2921662632000.0,-1.4668946752915142,8.207271646608223,4.769712169801686,-1.108415,-0.4718934,-0.2284636,314.16187,-66.75008,-4.8247504
2921667249000.0,-1.5873232787981957,8.203508176610775,4.803582613839476,-1.1246029,-0.49510628,-0.21502456,314.27014,-66.41238,-4.793925
2921672267000.0,-1.7182114599540388,8.199417838198997,4.840394805345135,-1.1389582,-0.5317582,-0.22204952,314.39468,-66.06761,-4.7781224
2921677293000.0,-1.8430533274198209,8.05505803168641,5.006361262929789,-1.1569787,-0.61086524,-0.25870144,314.53503,-65.724434,-4.757855
2921682320000.0,-1.9636069168448425,7.813951336993163,5.261378460156024,-1.1948525,-0.6973027,-0.2669481,314.68094,-65.38094,-4.7256823
2921687280000.0,-1.926057468279364,7.673724470913968,4.994105656773328,-1.2886202,-0.6096435,-0.25778514,314.81735,-65.002884,-4.7380486
2921692285000.0,-1.7423750711247363,7.623211563556237,4.241007938723893,-1.3313808,-0.3885103,-0.27977628,314.94235,-64.63501,-4.7654123
2921697266000.0,-1.6079998758711465,7.663553651388985,3.821447203131278,-1.2525792,-0.30970868,-0.29168814,315.07394,-64.2084,-4.8035903
2921702769000.0,-1.5313303719778315,7.842449147765847,3.8470036917215102,-1.1890492,-0.21227567,-0.2660318,315.13925,-63.776535,-4.864075
2921707265000.0,-1.4686907046137858,7.988608361233114,3.8678835704606858,-1.1438452,-0.20433442,-0.26053402,315.2537,-63.504974,-4.9022255
2921712289000.0,-1.4443494861501405,8.024528569249297,4.029957613980329,-1.128879,-0.15821409,-0.25259277,315.32733,-63.251015,-4.9482265
2921717281000.0,-1.458743520353272,7.95255839823364,4.308242425541951,-1.1499538,-0.10903945,-0.2489276,315.39606,-63.005917,-4.993733
2921722271000.0,-1.4897491739891426,7.866124004661176,4.517353921330963,-1.1808025,-0.09407325,-0.23273966,315.4683,-62.786625,-5.0110426
2921727239000.0,-1.5342808026675403,7.768154616866342,4.668761440237739,-1.2293663,-0.122478485,-0.24984388,315.54086,-62.560406,-5.035375
2921732244000.0,-1.5845412812936532,7.658365703006377,4.771433921348315,-1.2657127,-0.16707164,-0.26939157,315.60815,-62.27018,-5.059625
2921737299000.0,-1.6433457345277862,7.530955960522321,4.800836224719101,-1.2892311,-0.21594086,-0.30482176,315.68613,-61.9755,-5.0862384
2921742256000.0,-1.6928965105488003,7.414553096927374,4.840871399359186,-1.3136657,-0.23365596,-0.33475417,315.772,-61.627083,-5.125586
2921748381000.0,-1.7410873583963196,7.284437908379888,4.908338485704897,-1.3267993,-0.22143865,-0.37934732,315.86722,-61.281147,-5.1730237
2921752537000.0,-1.7721349452892146,7.198778780752716,4.949293160646628,-1.3185526,-0.18142697,-0.39767328,315.96884,-60.916454,-5.23462
2921757311000.0,-1.7798338392691757,7.144886482697651,4.914648399006484,-1.3066407,-0.13041973,-0.4089743,316.06757,-60.556225,-5.3062134
2921762251000.0,-1.7878004367264462,7.089120258903764,4.878798980803233,-1.3109168,-0.08277224,-0.4352415,316.16623,-60.167442,-5.400967
2921767215000.0,-1.8317254231090487,7.054062168445475,4.7996378663109045,-1.2901474,-0.046120327,-0.48441613,316.25827,-59.79641,-5.5066032
2921772381000.0,-1.9005984392204176,7.031104512389791,4.689440877522042,-1.2608259,-0.013133603,-0.5299256,316.34137,-59.434387,-5.620634
2921777253000.0,-1.8587298015385991,7.103561602021648,4.796716487816441,-1.2388347,0.01160644,-0.573297,316.43594,-59.07691,-5.7510753
2921782266000.0,-1.6955377053672065,7.283931844261562,5.144573441220145,-1.2073752,0.027183503,-0.59131753,316.52658,-58.737904,-5.8859663
2921787231000.0,-1.5438642670691436,7.434277199690402,5.434286495376677,-1.1746938,0.041233405,-0.58123827,316.6361,-58.423275,-6.0376196
2921792285000.0,-1.4239852125593395,7.489221846749226,5.539180518121775,-1.1603385,0.011301007,-0.5369505,316.74908,-58.12123,-6.1768546
2921797261000.0,-1.3616781796246649,7.512722396112601,5.591083420375336,-1.1429288,-0.007330383,-0.49205196,316.84216,-57.792526,-6.276335
2921802326000.0,-1.433924965445338,7.46214972147751,5.5188366345546624,-1.1291844,-0.014660766,-0.47219884,316.9354,-57.476566,-6.3650155
2921807299000.0,-1.504859470062556,7.412495642314567,5.447902129937444,-1.1191051,-0.002443461,-0.45051312,317.02618,-57.166523,-6.4150114
2921812272000.0,-1.5851724080524183,7.350484638330891,5.402844814846108,-1.1016954,0.026572637,-0.4654793,317.11472,-56.86964,-6.4683843
2921818051000.0,-1.685373462195017,7.269369530106044,5.369444496680749,-1.1203269,0.12858713,-0.4896085,317.17822,-56.574055,-6.529895
2921822276000.0,-1.7269539463211476,7.215013971170754,5.383096046922721,-1.1438452,0.16982053,-0.49510628,317.27045,-56.285107,-6.6057897
2921827282000.0,-1.7047690963442852,7.161770331226284,5.485146356816289,-1.1594223,0.23915374,-0.5140431,317.33527,-55.998703,-6.707999
2921832251000.0,-1.6786519200363257,7.113278978797438,5.580567497887391,-1.1808025,0.2724459,-0.5103779,317.40854,-55.698383,-6.826521
2921837218000.0,-1.6240858093490107,7.095090053656438,5.635133751018067,-1.2131784,0.2779437,-0.5030475,317.4732,-55.397755,-6.9513545
2921842474000.0,-1.5665974303285926,7.080895351593918,5.691531673683178,-1.2272283,0.27305678,-0.4978552,317.53723,-55.075413,-7.072108
2921847269000.0,-1.517050711790093,7.125938015399706,5.727565710662089,-1.25319,0.2434298,-0.49235737,317.6034,-54.74998,-7.183994
2921852571000.0,-1.4661003862576687,7.173877489212679,5.7691999299591,-1.2635747,0.23365596,-0.47036624,317.67584,-54.419445,-7.278721
2921857228000.0,-1.4797811094478528,7.18755826002045,5.833043209611452,-1.2794572,0.20769419,-0.44501534,317.75543,-54.089867,-7.3605237
2921862381000.0,-1.4977655519527702,7.19948874777475,5.893006751135332,-1.2910637,0.19425514,-0.42241332,317.84244,-53.762394,-7.426091
2921867226000.0,-1.555233508727603,7.165007957707869,5.797226889852201,-1.2904528,0.1872302,-0.41630468,317.92914,-53.44362,-7.4837065
2921872261000.0,-1.6149551108661546,7.129174979795227,5.697690955577574,-1.2733486,0.17562376,-0.4129449,318.02576,-53.118874,-7.535451
2921877396000.0,-1.6872790898563157,7.09239980419258,5.659893,-1.2794572,0.14630222,-0.41263947,318.12366,-52.79724,-7.5798845
2921882279000.0,-1.7624939400171562,7.057299327857603,5.659893,-1.2675453,0.16126843,-0.42546764,318.21173,-52.49358,-7.6299286
2921887254000.0,-1.865701357384585,7.034460396557121,5.688031406885759,-1.2544118,0.17165314,-0.43951756,318.3219,-52.19994,-7.6905875
2921892292000.0,-1.978959431073944,7.015584059154929,5.725784081690141,-1.2626585,0.17898351,-0.46883908,318.43015,-51.910225,-7.7573357
2921897275000.0,-2.064391664718163,7.054607754488518,5.724671293110647,-1.2721269,0.19333886,-0.46731192,318.5535,-51.617016,-7.8357477
2921902327000.0,-2.140146439874739,7.11773692421712,5.707836830271399,-1.2757921,0.20219639,-0.4859433,318.68076,-51.328606,-7.922915
2921907222000.0,-2.171494250976297,7.157880895426543,5.738259163412342,-1.2837334,0.23365596,-0.5103779,318.80484,-51.02162,-8.041663
2921912228000.0,-2.1414588782290904,7.167892634071213,5.838377072569698,-1.2861768,0.25717425,-0.5332854,318.92825,-50.722946,-8.160848
2921917212000.0,-2.060999074333394,7.137354680155995,5.92750818574279,-1.271516,0.23548855,-0.5497787,319.07217,-50.434628,-8.295351
2921922264000.0,-1.924971202285507,7.062758596608018,6.006492077453292,-1.2815952,0.20372356,-0.5510005,319.21075,-50.14709,-8.429601
2921927290000.0,-1.7799534021529844,6.98192281351304,6.031358092753369,-1.2815952,0.17654006,-0.5491679,319.36096,-49.85657,-8.554019
2921932267000.0,-1.613092703798355,6.885977962051461,5.927070254288465,-1.2993103,0.183565,-0.5467244,319.506,-49.567303,-8.67522
2921937575000.0,-1.4449707668730205,6.784996625539879,5.826079985257702,-1.3151928,0.32711834,-0.5696318,319.62402,-49.258736,-8.797154
2921942286000.0,-1.4287324666858623,6.713548267492082,5.874794682349553,-1.3154984,0.3491095,-0.57360244,319.75824,-48.960487,-8.890317
2921947262000.0,-1.4115807405701122,6.638080844514828,5.926249645781745,-1.3313808,0.28893927,-0.5842926,319.897,-48.664246,-8.966625
2921952300000.0,-1.4038459928412086,6.556736922733725,5.974235753518556,-1.3350459,0.25137106,-0.60231316,320.0218,-48.379704,-9.050405
2921957225000.0,-1.42775896029203,6.461085452443723,6.0077136682417365,-1.3219124,0.25900686,-0.6243043,320.1463,-48.103333,-9.131851
2921962196000.0,-1.4730720744615384,6.397112329538462,6.069744540738462,-1.3164146,0.3136793,-0.64568454,320.26535,-47.796127,-9.221063
2921967236000.0,-1.5869329113846151,6.436716132615385,6.223209335815385,-1.3206906,0.35094208,-0.66614854,320.38458,-47.49798,-9.309882
2921972215000.0,-1.7169536353514148,6.45375606053405,6.3749760812662695,-1.3503176,0.4007276,-0.68844515,320.496,-47.17149,-9.425669
2921977359000.0,-1.8948285681249477,6.416526441523218,6.53216793556134,-1.3435981,0.44226643,-0.70005155,320.59818,-46.86341,-9.544858
2921982251000.0,-2.0639895656226384,6.381120668544798,6.6816591002603065,-1.3573426,0.43799037,-0.70249504,320.70914,-46.512608,-9.690108
2921987224000.0,-2.0557480904986662,6.297445272614406,6.6314149129386415,-1.3561208,0.4175264,-0.6963864,320.81192,-46.178585,-9.835294
2921992592000.0,-2.031226835083713,6.202534998021309,6.560382164954338,-1.3402383,0.40194935,-0.6933321,320.91238,-45.85509,-9.976389
2921997256000.0,-2.055021682815829,6.12095276435312,6.567180637100456,-1.3249667,0.40561453,-0.68325275,321.0156,-45.48769,-10.155336
2922002429000.0,-2.081413352480974,6.030467152267884,6.574721052283104,-1.3243558,0.40866885,-0.66920286,321.13922,-45.11444,-10.329271
2922007230000.0,-2.104044234935864,5.957437953926374,6.577585158817395,-1.3075571,0.42149702,-0.66798115,321.25735,-44.761276,-10.500378
2922012275000.0,-2.1241985601001145,5.9020135597246846,6.5725466301387,-1.3005321,0.4334089,-0.66706485,321.36914,-44.417656,-10.663323
2922017235000.0,-2.1563281249953192,5.8705826,6.592271333139862,-1.3066407,0.45540005,-0.6597345,321.4824,-44.05006,-10.842709
2922022268000.0,-2.2059630602508893,5.8705826,6.646418723703427,-1.3142766,0.52412236,-0.675617,321.58548,-43.693386,-11.032516
2922027777000.0,-2.2409728,5.866333845912282,6.6789463191968,-1.3133603,0.49021935,-0.6621779,321.69742,-43.334476,-11.203528
2922032300000.0,-2.2409728,5.8565241906091945,6.665866835698648,-1.3310753,0.45265114,-0.65668017,321.7988,-42.977726,-11.385894
2922037223000.0,-2.2409728,5.845847000015098,6.651630643511738,-1.3393221,0.4288274,-0.66339964,321.9164,-42.616165,-11.569338
2922042269000.0,-2.2872325606512893,5.795592287652646,6.692563712347354,-1.3390167,0.4288274,-0.659429,322.03055,-42.26455,-11.740655
2922047295000.0,-2.359798589687924,5.723026334388663,6.765129665611337,-1.353372,0.41905355,-0.6575964,322.1502,-41.916885,-11.900981
2922052639000.0,-2.435862929537304,5.649799999650136,6.841967921980233,-1.3662001,0.40958515,-0.66798115,322.28232,-41.57491,-12.058718
2922057302000.0,-2.4866401160062974,5.641987955392286,6.904463052479664,-1.3735305,0.39706242,-0.66156703,322.40884,-41.242996,-12.204581
2922062186000.0,-2.5398238558121227,5.63380566413015,6.969920101023353,-1.3891076,0.38912117,-0.6637051,322.54218,-40.87161,-12.374218
2922067241000.0,-2.5876760465346536,5.569824667050426,6.945065933571264,-1.4181237,0.3912592,-0.6612616,322.66986,-40.507088,-12.535211
2922072306000.0,-2.63235168679868,5.48047361977128,6.87805255092486,-1.4474452,0.36987892,-0.6582073,322.80023,-40.149513,-12.68402
2922077292000.0,-2.677817246714309,5.397786117709874,6.835565882060128,-1.4440855,0.42943826,-0.6740898,322.913,-39.77377,-12.869408
2922082298000.0,-2.736887512148842,5.362344016017743,7.004900925332676,-1.4483615,0.46273044,-0.69058317,323.03088,-39.400433,-13.037842
2922087187000.0,-2.794577190077214,5.327730265483818,7.170278277821588,-1.4792101,0.42180246,-0.6740898,323.16553,-39.01102,-13.215105
2922092278000.0,-2.815581,5.235206572936358,7.2229967020715184,-1.4816537,0.34330627,-0.6762278,323.3053,-38.63777,-13.39079
2922097318000.0,-2.815581,5.113550278040328,7.211591479009137,-1.4764613,0.3213151,-0.68386364,323.436,-38.271294,-13.5612135
2922102296000.0,-2.8150993113945173,5.000962891775924,7.202722382240763,-1.4639386,0.31581733,-0.6795876,323.58325,-37.872334,-13.725867
2922107307000.0,-2.8112861335081445,4.939951328883592,7.210348777830751,-1.46852,0.3182608,-0.6740898,323.73035,-37.482212,-13.88241
2922112282000.0,-2.807500350234406,4.879378084942392,7.217920383909416,-1.4758505,0.31703907,-0.6630942,323.87665,-37.07192,-14.043465
2922117268000.0,-2.8082115528428604,4.824539183622071,7.247399787644051,-1.4840971,0.33322698,-0.6630942,324.0165,-36.67245,-14.2036295
2922122277000.0,-2.8118725228726245,4.773285144470732,7.291331848507975,-1.4935656,0.34880406,-0.6542367,324.14813,-36.284763,-14.353866
2922127652000.0,-2.815082020988402,4.720368034161329,7.337580435658647,-1.5030339,0.3726278,-0.65209866,324.28326,-35.882645,-14.511489
2922132295000.0,-2.807385145404189,4.704974162437251,7.364519640851653,-1.520749,0.4147775,-0.65668017,324.40796,-35.488457,-14.670371
2922137257000.0,-2.799159451531937,4.68852264585425,7.3933097197161155,-1.5329664,0.46975538,-0.66889745,324.5306,-35.075,-14.841183
2922143150000.0,-2.8743985166792245,4.5326858484348245,7.542105622741284,-1.5451837,0.46853364,-0.6753115,324.65192,-34.67,-15.001916
2922147291000.0,-2.950459289369135,4.38599704317419,7.677928493924242,-1.5622878,0.39950588,-0.6765333,324.7739,-34.272568,-15.154023
2922153792000.0,-3.069971848995863,4.161139229943588,7.886483463557728,-1.5534303,0.36071593,-0.6753115,324.90067,-33.86916,-15.312485
2922157217000.0,-3.134117449033471,4.104395185001881,7.943227431214742,-1.5604553,0.32986724,-0.6921103,325.03818,-33.468517,-15.4534025
2922162287000.0,-3.229071665731478,4.020397430883791,8.027225070928921,-1.5735888,0.312763,-0.6942484,325.17462,-32.99847,-15.61352
2922167238000.0,-3.306267658204946,3.925382311124279,8.087362737220511,-1.5809193,0.31490102,-0.6936375,325.313,-32.54045,-15.76668
2922172904000.0,-3.211950805333017,3.663867514837639,7.898729300071107,-1.5809193,0.37384954,-0.66889745,325.43582,-32.09624,-15.91958
2922177269000.0,-3.13929054010429,3.462400503579047,7.753408976534724,-1.5482379,0.43768495,-0.6750061,325.5767,-31.622189,-16.101326
2922182299000.0,-3.11508062783302,3.3053616610319807,7.836696585326525,-1.5268577,0.48716503,-0.68783426,325.70328,-31.160063,-16.284252
2922187275000.0,-3.136425318686733,3.2071759939532383,8.109908539102392,-1.5485435,0.5225952,-0.70952,325.82343,-30.706537,-16.47479
2922192226000.0,-3.192119677719176,3.1258777933028163,8.514048483729724,-1.5546521,0.5540548,-0.7309003,325.94144,-30.235264,-16.679646
2922197247000.0,-3.321316468215743,3.0780270487312174,9.20309866593691,-1.5931365,0.5467244,-0.7819075,326.07153,-29.757168,-16.884306
2922202316000.0,-3.4322354430169915,3.069951937380854,9.898227212184004,-1.666135,0.46395215,-0.86070913,326.21906,-29.220816,-17.079624
2922207298000.0,-3.501440027186076,3.144099809365935,10.580386994405304,-1.7815884,0.34300083,-0.94897914,326.38757,-28.670372,-17.26473
2922212251000.0,-3.892166314799008,3.111985046799008,11.289691940049629,-1.9086485,0.2452624,-1.0326678,326.57727,-28.034885,-17.433403
2922217243000.0,-4.793745595315137,2.9126885513151364,12.053661674243177,-2.0134118,-0.005497787,-1.133155,326.8318,-27.380642,-17.540762
2922222260000.0,-5.50964637104841,2.8205597698310845,12.41805837878645,-2.1209242,-0.35308012,-1.1533136,327.10776,-26.660414,-17.575453
2922227351000.0,-5.909922823063131,2.912577396914221,12.09599702028876,-2.1487186,-0.5720753,-1.162782,327.41684,-25.945051,-17.584337
2922232258000.0,-6.228815256023917,2.9457656187443946,11.83666723826607,-2.074193,-0.70157874,-1.0983357,327.78116,-25.149065,-17.626278
2922237284000.0,-6.358321127095167,2.816259647503737,11.721550552267066,-1.8866574,-0.7165449,-0.99082345,328.13998,-24.401678,-17.630308
2922242259000.0,-6.520600739682239,2.5758728963495363,11.5644078085871,-1.6856827,-0.7870999,-0.8775079,328.53018,-23.720097,-17.653591
2922247253000.0,-6.787459668394174,1.992401404766408,11.274933389824096,-1.4223998,-0.8765916,-0.75716746,328.88217,-23.134935,-17.647701
2922252314000.0,-7.050824046021809,1.363752129877827,10.950512326736671,-1.0913107,-0.81336707,-0.59803706,329.19214,-22.630182,-17.669458
2922257300000.0,-7.267781801231825,0.5200281320809773,10.444278269386109,-0.80848014,-0.54611355,-0.44684792,329.44833,-22.207605,-17.705452
2922262274000.0,-7.410903483846435,-0.2023069734347349,10.026495176965266,-0.6218608,-0.1414153,-0.36285394,329.68427,-21.78964,-17.842653
2922267228000.0,-7.154170865608776,-0.2716941754837294,10.085474041316273,-0.5983425,0.2507602,-0.32406402,329.85712,-21.422655,-18.032103
2922272259000.0,-6.89344785342596,-0.3421598625060329,10.145369613893967,-0.6957755,0.49968776,-0.28313604,330.00873,-20.992851,-18.337711
2922277467000.0,-6.496005115257298,-0.3171614669162403,10.340527958070016,-0.81581056,0.5354234,-0.27672195,330.14017,-20.570782,-18.684475
2922282309000.0,-5.975036223292205,-0.1776161848385996,10.680088204233122,-0.88300574,0.42943826,-0.27580565,330.25208,-20.147688,-19.048916
2922287258000.0,-5.547120676756228,0.0601285079859306,10.975947434880313,-0.8897252,0.36651915,-0.26053402,330.33557,-19.696262,-19.375315
2922292228000.0,-5.258796287699072,0.4275092395032732,11.20381671480215,-0.8765916,0.22785273,-0.22479841,330.43463,-19.243176,-19.645052
2922297253000.0,-5.13570594935054,0.696798798285427,11.368015591971842,-0.8045095,0.08857546,-0.183565,330.50464,-18.814085,-19.798607
2922302441000.0,-5.302250879275958,0.7967256692885276,11.422142870275708,-0.7031059,-0.020158553,-0.18570304,330.588,-18.40488,-19.919811
2922307623000.0,-5.484951691887869,0.874406914830067,11.459686806003472,-0.61269784,-0.090713486,-0.2003638,330.65515,-18.060858,-19.953424
2922312291000.0,-5.884198285785165,0.626726112041677,11.25636651327214,-0.5476407,-0.13988814,-0.2180789,330.7307,-17.744541,-19.962158
2922317711000.0,-6.347762240138923,0.3391447172016869,11.020291966013396,-0.50762904,-0.18325958,-0.2510656,330.838,-17.454428,-19.980288
2922322314000.0,-6.500347732845189,0.2562697357531381,10.662652330543931,-0.5112942,-0.17989981,-0.27000242,330.94412,-17.176561,-19.996721
2922327509000.0,-6.513358010782775,0.2692800725601464,10.155249543758716,-0.5342017,-0.09987647,-0.26450464,331.04684,-16.909922,-20.021996
2922332193000.0,-6.472289790929203,0.2970505134955752,9.713488400442476,-0.57635134,-0.0067195175,-0.25900686,331.1962,-16.598507,-20.143774
2922337254000.0,-6.281139530511736,0.3716456907656791,9.279903923432087,-0.58551437,0.090713486,-0.2669481,331.3382,-16.295948,-20.286255
2922342220000.0,-6.118866703755045,0.4238329303807686,8.895586751886297,-0.58246,0.1826487,-0.2565634,331.4864,-16.011414,-20.482107
2922347243000.0,-6.0640013799350765,0.3858491877083699,8.684566106158975,-0.54825157,0.26175576,-0.2773328,331.6375,-15.734901,-20.700668
2922352808000.0,-6.002808345026008,0.3451760082249675,8.456115511703512,-0.49571714,0.3231477,-0.29901853,331.77927,-15.493193,-20.934141
2922357308000.0,-5.939762152730819,0.3591862886215864,8.449110228868662,-0.4361578,0.36285394,-0.33505958,331.92627,-15.26395,-21.182364
2922362236000.0,-5.870719567035111,0.3745291023537061,8.44143866579974,-0.3539964,0.40530908,-0.35124752,332.0764,-15.058846,-21.450304
2922367220000.0,-5.807838279775675,0.3304384272625306,8.531155923939712,-0.29535335,0.4269948,-0.3484986,332.23022,-14.865871,-21.72093
2922372246000.0,-5.753007491272345,0.2123412650578338,8.742043572029443,-0.22510384,0.44135013,-0.3622431,332.39114,-14.698066,-21.999825
2922377374000.0,-5.68730236490164,0.1017594348682062,8.921125677863309,-0.15851954,0.48075095,-0.38148534,332.5497,-14.547372,-22.276943
2922382292000.0,-5.584762389938573,0.0358409811429904,8.946760767203173,-0.09590584,0.49021935,-0.40378192,332.71503,-14.415421,-22.547247
2922387404000.0,-5.478177527797216,-0.03267775318871,8.973407082108702,-0.042455133,0.50946164,-0.41141775,332.87607,-14.267024,-22.806469
2922392274000.0,-5.408366985871011,-0.1175745670428856,8.949381137300533,-0.018325957,0.5158757,-0.41263947,333.0425,-14.128644,-23.06205
2922397267000.0,-5.356703213098404,-0.2169283701296542,8.893742717420213,0.00030543262,0.5225952,-0.41416663,333.21005,-14.004655,-23.31972
2922402321000.0,-5.298865874396135,-0.3003046121256039,8.8198685,0.014049901,0.51893,-0.44165558,333.38754,-13.867345,-23.553867
2922407298000.0,-5.220741743961352,-0.3167517337560386,8.680068125,0.020463986,0.51251596,-0.45051312,333.55975,-13.737721,-23.78414
2922412275000.0,-5.14261761352657,-0.3331988553864734,8.54026775,0.046120327,0.52290064,-0.4474588,333.74338,-13.600586,-24.011518
2922417293000.0,-5.048317081424512,-0.2927627105701388,8.385474841999665,0.067500606,0.5375614,-0.44073927,333.92868,-13.4662285,-24.235226
2922422264000.0,-4.95280215474001,-0.2450051682703561,8.230262618625648,0.07971791,0.5488624,-0.42424592,334.10938,-13.340371,-24.456501
2922427239000.0,-4.877938186062858,-0.2410376161713023,8.094472583391907,0.106595986,0.5329799,-0.42302418,334.29596,-13.223105,-24.67139
2922432221000.0,-4.825239391465006,-0.2841548876985641,7.9794933860829405,0.13164146,0.5161811,-0.4392121,334.48196,-13.110618,-24.885891
2922437271000.0,-4.74321028431297,-0.30645782,7.828735799383311,0.16065755,0.50823987,-0.45570546,334.66772,-13.021467,-25.090961
2922442275000.0,-4.632385715571401,-0.30645782,7.644028506263249,0.17073683,0.5164866,-0.47494772,334.8588,-12.933234,-25.294361
2922447262000.0,-4.556926166872429,-0.2840366971661054,7.563104995173962,0.18784106,0.5332854,-0.4868596,335.0522,-12.847046,-25.499395
2922452313000.0,-4.529781199074074,-0.229746624570707,7.626443458080808,0.19333886,0.5296202,-0.48380527,335.2472,-12.761546,-25.698534
2922457277000.0,-4.508030938420073,-0.1783108820343036,7.702762973243164,0.19639318,0.54825157,-0.49327368,335.4408,-12.682411,-25.905752
2922462279000.0,-4.498640875948251,-0.1313607824428109,7.815443134607468,0.18692477,0.5558874,-0.49357912,335.6311,-12.604373,-26.105362
2922467289000.0,-4.473642193025484,-0.0823579659156926,7.934390810787508,0.16798794,0.5653558,-0.50335294,335.81708,-12.527593,-26.300417
2922472256000.0,-4.40072717550297,-0.0276716299676183,8.071106510279748,0.1563815,0.5702427,-0.5018258,335.9984,-12.453165,-26.492731
2922477264000.0,-4.330201711405026,0.0243030109610336,8.213916505544818,0.124311075,0.55955255,-0.4908302,336.17072,-12.374196,-26.669382
2922482252000.0,-4.276741658012005,0.0583231328704853,8.3840172521111,0.10598512,0.55955255,-0.4831944,336.34113,-12.297257,-26.8476
2922487351000.0,-4.233755609777999,0.0886111415548349,8.547556798702919,0.099571034,0.539394,-0.4746423,336.4923,-12.223852,-26.988935
2922492224000.0,-4.237635777051634,0.10025189458219,8.66396424794213,0.07819075,0.48258355,-0.46181414,336.64102,-12.14553,-27.11661
2922497271000.0,-4.241654493290097,0.1123083034738505,8.784528252930906,0.05497787,0.42638394,-0.4343252,336.7724,-12.070836,-27.21126
2922503370000.0,-4.303224376593499,0.1199799254674968,8.932059658822288,0.034513887,0.35369098,-0.42424592,336.90857,-11.992913,-27.283888
2922507204000.0,-4.349721701160827,0.1238547133041367,9.025054388877162,0.0036651916,0.33353242,-0.42363504,337.0372,-11.91097,-27.352688
2922512222000.0,-4.453132427516112,0.1452996734833911,9.077947454338126,-0.010079277,0.28802297,-0.410196,337.15573,-11.832268,-27.379654
2922517189000.0,-4.561616681903818,0.1688832111145265,9.12039818948934,-0.03940081,0.2519819,-0.3979787,337.27258,-11.744031,-27.402771
2922522264000.0,-4.64506543858478,0.2001156278657257,9.083116358191877,-0.07727446,0.20708331,-0.3943135,337.38586,-11.650996,-27.409458
2922527284000.0,-4.723006132843792,0.2322088047873355,9.032684172420373,-0.106901415,0.17898351,-0.38545597,337.49228,-11.557432,-27.409218
2922532254000.0,-4.815464128984622,0.2843869886933496,8.942660061309706,-0.15607607,0.16462818,-0.3744604,337.60367,-11.453202,-27.414518
2922537295000.0,-4.913797256186984,0.3433869060861595,8.839410175068744,-0.19181168,0.1459968,-0.38148534,337.71738,-11.346374,-27.411097
2922542241000.0,-4.961172891690045,0.3863710455864735,8.770739412844037,-0.2049453,0.13255776,-0.3735441,337.8299,-11.242297,-27.422245
2922547261000.0,-4.997624090264615,0.4264674325301387,8.708772348623853,-0.22235495,0.1255328,-0.38026363,337.9472,-11.128243,-27.43086
2922552378000.0,-5.025599620150278,0.4685818548169992,8.656692263270582,-0.24037547,0.12950343,-0.36896262,338.06042,-11.024343,-27.46329
2922557257000.0,-5.014274127575342,0.513883852710673,8.652917217338612,-0.24862215,0.13194689,-0.36193767,338.175,-10.919962,-27.493217
2922562197000.0,-5.002807037327301,0.5597522416417549,8.649094973660823,-0.2751948,0.12614368,-0.35369098,338.28458,-10.821716,-27.535217
2922567217000.0,-4.988440919343036,0.550641079486137,8.655845990974877,-0.28955013,0.11056661,-0.3484986,338.3911,-10.727598,-27.573948
2922573138000.0,-4.969999115375233,0.5091467798479552,8.669677223595414,-0.29718593,0.10720685,-0.35155296,338.495,-10.631104,-27.613518
2922577397000.0,-4.946163688831295,0.4737948401036675,8.677805550317848,-0.31306845,0.08979719,-0.35124752,338.5869,-10.541346,-27.641932
2922582223000.0,-4.891922894288508,0.4195540502806846,8.682325706992664,-0.31337386,0.09468412,-0.35246924,338.677,-10.455364,-27.675186
2922587244000.0,-4.843219749670904,0.3629172787038145,8.684180585527299,-0.3200934,0.10476339,-0.3484986,338.7641,-10.354427,-27.70254
2922592247000.0,-4.828885312729993,0.3055796394569933,8.673429748466717,-0.30482176,0.11728613,-0.3417791,338.84814,-10.261843,-27.731144
2922597270000.0,-4.814493572423336,0.2480127871810022,8.662635933844427,-0.30726522,0.14202617,-0.33322698,338.93375,-10.152993,-27.756166
2922602538000.0,-4.799967914446094,0.1974992008860642,8.611898801772128,-0.30085114,0.1740966,-0.3286455,339.01508,-10.053371,-27.785925
2922607241000.0,-4.787431395527928,0.1598894914084245,8.53667938281685,-0.2932153,0.20158553,-0.32650748,339.0913,-9.956942,-27.82018
2922612214000.0,-4.782215428784346,0.1171316431628307,8.461329933894353,-0.28771752,0.23090707,-0.32986724,339.16147,-9.848808,-27.864218
2922617208000.0,-4.791913601591808,0.0686407421629321,8.39344282550948,-0.26816985,0.27214047,-0.32498032,339.22437,-9.750259,-27.917557
2922622265000.0,-4.79926174545895,0.0216482504410217,8.311250615395265,-0.26236662,0.31795537,-0.32620203,339.2933,-9.642942,-27.986536
2922627442000.0,-4.80269373880659,-0.0229681601362314,8.204857280631316,-0.24678956,0.36377025,-0.3210097,339.35483,-9.547274,-28.064825
2922632256000.0,-4.805885088232037,-0.0644561648723522,8.105924015506021,-0.226631,0.408058,-0.31978795,339.42358,-9.4476795,-28.162603
2922637217000.0,-4.816764795870701,-0.090795150724352,8.049490258302946,-0.19608775,0.44623706,-0.30909783,339.48425,-9.359307,-28.268553
2922642761000.0,-4.837694693495615,-0.1012600831457573,8.03902566462994,-0.15363261,0.49480084,-0.30268374,339.54178,-9.281065,-28.38765
2922647259000.0,-4.859237314744399,-0.1187179025021604,8.039398609519377,-0.12461651,0.52320606,-0.29260445,339.6093,-9.200931,-28.524328
2922652520000.0,-4.889381029641694,-0.1488616348859935,8.049446374592833,-0.10262536,0.5375614,-0.2837469,339.67258,-9.132511,-28.667591
2922657290000.0,-4.916711483939373,-0.1761921050382237,8.05855639918899,-0.07147124,0.5390886,-0.2687807,339.73386,-9.075113,-28.81598
2922662242000.0,-4.954587957796171,-0.2028023824262804,8.061417704811173,-0.049480084,0.5375614,-0.25900686,339.79294,-9.023132,-28.964388
2922667222000.0,-5.003933445845836,-0.2274751779772374,8.056483047801345,-0.03023783,0.54061574,-0.24190263,339.84427,-8.982791,-29.110489
2922672267000.0,-5.0629990995119405,-0.2350232250217884,8.027712380320725,-0.004581489,0.5421429,-0.23854288,339.90796,-8.940932,-29.259508
2922677488000.0,-5.132722837990239,-0.2263077725004357,7.975419883606414,0.008857546,0.5537493,-0.22357668,339.9614,-8.9060955,-29.407934
2922682311000.0,-5.19505050573001,-0.2146674208870184,7.924241706571706,0.046120327,0.56291234,-0.21746802,340.0181,-8.875782,-29.565016
2922687258000.0,-5.252564745718679,-0.1916616968654904,7.862893181247976,0.05467244,0.57848936,-0.19883664,340.06482,-8.846629,-29.722813
2922692191000.0,-5.309916220524441,-0.1687210789964389,7.801718272126902,0.071776666,0.57543504,-0.18448131,340.12277,-8.825243,-29.896502
2922697268000.0,-5.30932922113924,-0.1535804669957806,7.755193178059072,0.1001819,0.5766568,-0.1777618,340.17606,-8.811079,-30.071976
2922702447000.0,-5.288401734379747,-0.1410239399763713,7.713338117130801,0.11026118,0.5723807,-0.17134771,340.22543,-8.799207,-30.241158
2922707292000.0,-5.280638686946011,-0.1283483155942788,7.6596320645648674,0.13683382,0.5708536,-0.15577064,340.28268,-8.804375,-30.427767
2922712536000.0,-5.2907556771152295,-0.11317281977639,7.5786960375705075,0.1563815,0.56077427,-0.1469131,340.34094,-8.8104315,-30.607555
2922717272000.0,-5.2978050866811,-0.0870368080625941,7.516808097985693,0.1740966,0.5305365,-0.12980886,340.39188,-8.823041,-30.780634
2922722259000.0,-5.302300474755271,-0.042082423645143,7.467358218938252,0.21838433,0.5039638,-0.12705997,340.44522,-8.846028,-30.949137
2922727282000.0,-5.309291442557884,-0.0145640669986218,7.401678485575156,0.24709499,0.4447099,-0.10323623,340.48965,-8.877748,-31.105719
2922732250000.0,-5.322405428886439,-0.0320493935146086,7.296766686236678,0.29016098,0.39522982,-0.09865474,340.5408,-8.920712,-31.255754
2922737327000.0,-5.329935893534114,-0.0522295458084499,7.198598624536112,0.34788775,0.35185838,-0.082161374,340.58176,-8.988975,-31.392056
2922742290000.0,-5.292623179710248,-0.0895423226792749,7.171462044212104,0.40866885,0.3203988,-0.0720821,340.626,-9.066782,-31.515982
2922747264000.0,-5.255227765936341,-0.1269377996398801,7.144265318334285,0.45631635,0.30176744,-0.058643065,340.6773,-9.149858,-31.646374
2922752367000.0,-5.2053539251269765,-0.1488071510618112,7.153148938390034,0.4978552,0.28069258,-0.02565634,340.7213,-9.24876,-31.764198
2922757264000.0,-5.133445551183517,-0.1353243655572592,7.23853980688069,0.52748215,0.2519819,0.0061086523,340.7634,-9.355931,-31.872694
2922762192000.0,-5.06797374819094,-0.1177315396199452,7.334171381331711,0.5323691,0.23518312,0.030543262,340.8,-9.457882,-31.973269
2922767237000.0,-5.028800782953279,-0.0834551694719773,7.471276759663525,0.52778757,0.22479841,0.06658431,340.82434,-9.568825,-32.064293
2922772271000.0,-5.000730601358908,-0.0435412908627645,7.587535980267535,0.52106804,0.20647246,0.10354166,340.8242,-9.680765,-32.123825
2922777557000.0,-5.00789646293439,0.0173682594182178,7.641279811140208,0.4841107,0.14660765,0.1386664,340.81726,-9.786871,-32.16627
2922782378000.0,-5.014431956437115,0.0729197051058107,7.690295892986056,0.44593164,0.14263703,0.13988814,340.78723,-9.894159,-32.195885
2922787266000.0,-5.048885826923077,0.13394136006993,7.745460297202797,0.4269948,0.13408493,0.17012598,340.74185,-10.004231,-32.203785
2922792359000.0,-5.124124531561086,0.2041640567893871,7.810667143130399,0.3998113,0.11301007,0.17806722,340.706,-10.097273,-32.20831
2922797261000.0,-5.226958396887421,0.2288291059112039,7.794988641447146,0.36651915,0.080634214,0.18600847,340.65054,-10.193431,-32.20064
2922802469000.0,-5.371448520123964,0.2053074368901165,7.68746096752678,0.33841935,0.076358154,0.1863139,340.59625,-10.281697,-32.19515
2922807292000.0,-5.5052572498416765,0.1835246009283837,7.587882247995688,0.33567044,0.07696902,0.18509217,340.53784,-10.376981,-32.18692
2922812277000.0,-5.62065029566554,0.1699115309232503,7.529533981166103,0.33444872,0.08827003,0.17287487,340.4843,-10.461717,-32.18148
2922817275000.0,-5.713839565139871,0.1650068433118147,7.514819815903269,0.35033122,0.10842858,0.17379116,340.42783,-10.549376,-32.178272
2922822267000.0,-5.768911590470598,0.1782646976327489,7.519258520291922,0.36468655,0.1441642,0.16798794,340.40216,-10.626229,-32.24231
2922828399000.0,-5.798468746078349,0.2127479463937589,7.543889397567319,0.38148534,0.16798794,0.17165314,340.37378,-10.707188,-32.307064
2922832248000.0,-5.809326918850518,0.2393310364552208,7.567485617029962,0.39828414,0.19272798,0.18509217,340.34985,-10.790507,-32.39911
2922837282000.0,-5.785712038125562,0.2983680738786839,7.638330094815903,0.3979787,0.19120082,0.19914207,340.32605,-10.872465,-32.488613
2922842189000.0,-5.762692924157074,0.3559156985582496,7.707387276479713,0.39095375,0.18692477,0.22143865,340.29175,-10.958312,-32.585808
2922847262000.0,-5.711576019955349,0.4175803418409754,7.804896814013395,0.3640757,0.16157386,0.25411993,340.25266,-11.041096,-32.673313
2922852459000.0,-5.647471475665465,0.481684743331616,7.91601113730036,0.33169982,0.15118915,0.28588495,340.2073,-11.122183,-32.760662
2922857253000.0,-5.573154771408436,0.5430501490647337,8.023734603845767,0.2929099,0.10842858,0.32162055,340.13892,-11.210714,-32.81085
2922862392000.0,-5.469105878687205,0.6124162293063526,8.147602456458271,0.23182335,0.04520403,0.3585779,340.0642,-11.289108,-32.849022
2922867189000.0,-5.38198685777901,0.6682282673318551,8.235605939578715,0.17165314,0.015271631,0.3915646,339.9611,-11.36818,-32.85336
2922872263000.0,-5.3056679256097565,0.7131217292682928,8.284988841463415,0.09285152,-0.04520403,0.40775254,339.8614,-11.4291115,-32.830173
2922877459000.0,-5.249075999014371,0.7627622653810849,8.303516492288015,0.060170226,-0.12980886,0.44776422,339.72195,-11.505652,-32.75348
2922882317000.0,-5.252576383379731,0.8187690585253179,8.237008385223083,-0.03481932,-0.21594086,0.4578435,339.59512,-11.544088,-32.661663
2922887251000.0,-5.256131528801444,0.8756520386351666,8.169459805507486,-0.058337633,-0.28130344,0.4810564,339.4334,-11.608081,-32.528625
2922892258000.0,-5.262063682991459,0.9375915024487188,8.085327272495809,-0.10567969,-0.3399465,0.5002986,339.2793,-11.64236,-32.375744
2922898177000.0,-5.27111235010775,1.0145048375161625,7.97221957131455,-0.1572978,-0.43860126,0.5207626,339.12878,-11.671555,-32.194897
2922902246000.0,-5.281343429382741,1.0652869630047326,7.898927295599638,-0.21502456,-0.4560109,0.5195409,338.97464,-11.70405,-32.033527
2922907180000.0,-5.347955807813916,1.0985931273789145,7.870379254073105,-0.23273966,-0.46486846,0.5323691,338.81946,-11.736732,-31.848427
2922912207000.0,-5.416155502633119,1.1332773510072724,7.846911334071721,-0.26297748,-0.47647488,0.54550266,338.65942,-11.77165,-31.675987
2922917131000.0,-5.48710835459333,1.176637568979353,7.894213221658447,-0.28252518,-0.49938235,0.54000485,338.5063,-11.801602,-31.501667
2922922166000.0,-5.559660671737858,1.2209752410933712,7.942581419058765,-0.30573806,-0.52534413,0.5357288,338.3587,-11.829832,-31.340574
2922927195000.0,-5.716109594838438,1.289903061288292,7.9719500314309695,-0.33200526,-0.550695,0.5235115,338.22018,-11.848583,-31.177233
2922932145000.0,-5.910067233319345,1.3694753498950902,7.991843090600084,-0.34605515,-0.5766568,0.4990769,338.09174,-11.86046,-31.010754
2922937138000.0,-6.031330639286062,1.4312408234272895,8.049888279284112,-0.33322698,-0.55771995,0.46822822,337.96622,-11.881346,-30.860752
2922942114000.0,-6.128935172905491,1.4870147317077929,8.11960566463474,-0.33261612,-0.52656585,0.44990227,337.8479,-11.892443,-30.71097
2922947191000.0,-6.217770820786517,1.5387844353524005,8.179033768079673,-0.3286455,-0.49754974,0.4266894,337.753,-11.913277,-30.602291
2922952188000.0,-6.300869807865168,1.587666273524004,8.232803580796732,-0.3304781,-0.4914411,0.3933972,337.66843,-11.927356,-30.499802
2922957160000.0,-6.36436428747361,1.617523293947924,8.260187199155524,-0.3200934,-0.45814893,0.35979962,337.586,-11.953504,-30.424198
2922962160000.0,-6.422131202121243,1.6415928626621092,8.279442753594049,-0.31337386,-0.42241332,0.32284227,337.51627,-11.97168,-30.354853
2922967294000.0,-6.468020491052981,1.6436099829494837,8.237127828736613,-0.29565877,-0.39278635,0.28985557,337.45505,-11.994486,-30.305956
2922972178000.0,-6.507917970836887,1.6391769347834328,8.17949838773576,-0.27214047,-0.37415496,0.2761111,337.39874,-12.016831,-30.26561
2922977189000.0,-6.488682156993628,1.6177600141961768,8.083255805672204,-0.258396,-0.33017266,0.2406809,337.35553,-12.040286,-30.250978
2922982149000.0,-6.439062468285804,1.5879882009714823,7.969130573456597,-0.23151793,-0.28619036,0.21594086,337.31284,-12.071207,-30.241673
2922987143000.0,-6.369611969818472,1.5519603796728507,7.875694198942749,-0.1994475,-0.25381452,0.18142697,337.2864,-12.104843,-30.256874
2922992158000.0,-6.292967053550768,1.5136378465090763,7.789468661889088,-0.16187929,-0.21227567,0.15088372,337.26315,-12.14232,-30.28736
2922997207000.0,-6.169835009339868,1.47266662315749,7.732465941462477,-0.14477506,-0.204029,0.11911872,337.24866,-12.176573,-30.323143
2923002242000.0,-6.030834465379072,1.4309665954357642,7.686132523570674,-0.122783914,-0.16829337,0.09682214,337.23593,-12.21707,-30.378267
2923007232000.0,-5.8879669579646015,1.3878107523230088,7.679889476769912,-0.10262536,-0.16554448,0.06261369,337.23624,-12.252052,-30.424213
2923012209000.0,-5.742972376659291,1.34387289892146,7.693070910785399,-0.0842994,-0.15943582,0.03604105,337.2385,-12.288879,-30.480778
2923017233000.0,-5.610411226118721,1.301913149652968,7.719439181826484,-0.0729984,-0.160963,0.027488936,337.237,-12.324024,-30.514992
2923022225000.0,-5.4925298189954335,1.2626193624748858,7.758732832237443,-0.061391957,-0.16829337,0.018936822,337.2443,-12.358931,-30.550503
2923027183000.0,-5.371892920003015,1.208322652291227,7.824947034745252,-0.047647487,-0.19272798,0.008552114,337.23862,-12.388896,-30.553017
2923037305000.0,-5.108875481142599,1.0256718183750375,8.087964168450407,-0.04917465,-0.24037547,0.0015271631,337.23755,-12.416465,-30.5474
2923042180000.0,-5.047691406608192,0.9643778266797242,8.151782253853359,-0.05955936,-0.26816985,0.004886922,337.22595,-12.441739,-30.51155
2923047263000.0,-5.018673939112663,0.9146335534020268,8.184944900706805,-0.06627888,-0.30115658,0.008857546,337.22092,-12.465906,-30.462503
2923052355000.0,-4.993093512024124,0.867867326453072,8.206123077346401,-0.076052725,-0.31429017,0.013439035,337.20477,-12.463509,-30.363205
2923057228000.0,-4.9755029555220505,0.8291681021485111,8.202604892574444,-0.076358154,-0.32559118,0.017104227,337.18988,-12.462082,-30.257225
2923062196000.0,-4.957569467998493,0.789714429596683,8.199018120165851,-0.089186326,-0.33108896,0.022602014,337.1742,-12.446732,-30.140364
2923067211000.0,-4.938165401607771,0.7678952137246693,8.132528089758836,-0.08277224,-0.32895094,0.031154128,337.15616,-12.437081,-30.024403
2923072295000.0,-4.917780017584994,0.7556639407385698,8.030601297362251,-0.077579886,-0.31887165,0.032986723,337.13782,-12.423903,-29.91159
2923077468000.0,-4.903325,0.7469909,7.949406171011542,-0.084910266,-0.3005457,0.03023783,337.12036,-12.402034,-29.79944
2923082264000.0,-4.903325,0.7469909,7.922122409131025,-0.07147124,-0.269697,0.029626964,337.09937,-12.387305,-29.695545
2923087225000.0,-4.903325,0.7469909,7.893899985717923,-0.06872234,-0.25289822,0.040011674,337.08167,-12.370429,-29.602253
2923092276000.0,-4.9068356237726505,0.7820964412469067,7.859693845868923,-0.05009095,-0.23304509,0.03268129,337.06665,-12.358348,-29.521338
2923097264000.0,-4.910648992975173,0.8202293767302626,7.825374239770096,-0.03634648,-0.21227567,0.03268129,337.0443,-12.348464,-29.445642
2923102493000.0,-4.910662558048981,0.8651529635310995,7.811815785551798,-0.03359759,-0.20555615,0.029321533,337.02454,-12.341476,-29.376877
2923107295000.0,-4.905950112716466,0.9122764573419408,7.825952826314171,-0.029626964,-0.20250183,0.018325957,337.0057,-12.337071,-29.314613
2923112265000.0,-4.907659228110826,0.95586388324295,7.853331879412345,-0.019242255,-0.1994475,0.011301007,336.98315,-12.345084,-29.260658
2923117415000.0,-4.917385273762571,0.9947678881236444,7.897098754782094,-0.004581489,-0.19456059,0.007330383,336.9628,-12.353769,-29.209646
2923122267000.0,-4.916808139758208,1.0264826352864405,7.948371801208957,0.0027488936,-0.18906279,0.0021380284,336.93723,-12.371435,-29.15864
2923127506000.0,-4.9030224946970735,1.054053961395796,8.017300026514631,0.01863139,-0.17898351,-0.014966198,336.91626,-12.391993,-29.112415
2923132286000.0,-4.890444639497184,1.0792097046297568,8.08018930251408,0.024740042,-0.1695151,-0.0143553335,336.8922,-12.418859,-29.063389
2923137278000.0,-4.868675918736428,1.0840082093682142,8.137380968772618,0.038789943,-0.15607607,-0.020463986,336.87485,-12.447452,-29.02099
2923142277000.0,-4.838974074128839,1.0691572870644197,8.186884043118603,0.05497787,-0.11484267,-0.024740042,336.85403,-12.477632,-28.989746
2923147259000.0,-4.822067860940355,1.0560613535304868,8.205001544110317,0.0571159,-0.07666359,-0.03145956,336.832,-12.512598,-28.946661
2923153560000.0,-4.81204231984549,1.0410230680594783,8.199988695049012,0.06291912,-0.04550946,-0.03756821,336.8088,-12.550812,-28.914314
2923157282000.0,-4.8032175325666975,1.03067887084553,8.19702277682529,0.07452556,-0.024740042,-0.046120327,336.78708,-12.586359,-28.879278
2923162288000.0,-4.779160640018399,1.0106314254997073,8.193013413356194,0.09468412,-0.0036651916,-0.048258353,336.76312,-12.624493,-28.85368
2923167203000.0,-4.755541058141675,0.990948406347746,8.189076932842687,0.093767814,0.024740042,-0.047647487,336.7488,-12.652152,-28.835394
2923172266000.0,-4.730097987566419,0.9830780479277365,8.181503430658873,0.09621128,0.05222898,-0.051923547,336.73538,-12.683729,-28.823732
2923177472000.0,-4.703606584378321,0.9786628140630536,8.172673009032943,0.106901415,0.069027774,-0.058948494,336.7216,-12.715925,-28.817463
2923182271000.0,-4.6976901880179724,0.9793616572041938,8.174070688017972,0.121256754,0.07727446,-0.06383542,336.7087,-12.746328,-28.810812
2923187433000.0,-4.707562416375437,0.9842977971542686,8.183942916375438,0.13408493,0.08368854,-0.063224554,336.69543,-12.778005,-28.808558
2923192269000.0,-4.708253673437829,0.974037383200956,8.17402810146201,0.14538592,0.0870483,-0.067500606,336.6865,-12.807663,-28.804976
2923197261000.0,-4.7015330526463766,0.9505150700780208,8.147145442855134,0.14538592,0.065973446,-0.065973446,336.67734,-12.837781,-28.796082
2923202309000.0,-4.694737040275532,0.9267288848527448,8.119961215962606,0.15851954,0.06536258,-0.070554934,336.67215,-12.873804,-28.79396
2923207300000.0,-4.686370336448598,0.9225060481308412,8.095892009345794,0.16157386,0.05955936,-0.073303826,336.66833,-12.9068775,-28.784624
2923212294000.0,-4.67724840444402,0.9270670379458326,8.073087060270836,0.1554652,0.046120327,-0.0711658,336.66534,-12.940025,-28.773308
2923217278000.0,-4.668929536359199,0.9266740657149828,8.063671,0.15974127,0.033292156,-0.0729984,336.6737,-12.967119,-28.763971
2923223188000.0,-4.659721781356759,0.9220702843582236,8.063671,0.14935656,0.020158553,-0.06811147,336.68036,-12.989672,-28.750538
2923227518000.0,-4.653639851324503,0.9173090478046358,8.067111671523179,0.14080444,0.009468411,-0.06658431,336.69107,-13.015161,-28.734722
2923232302000.0,-4.649847105629139,0.905931052294702,8.086075003973509,0.13897185,-0.002443461,-0.057421334,336.6989,-13.040863,-28.714539
2923237194000.0,-4.645968737748345,0.8942961956821193,8.105466438410595,0.12492194,-0.010995574,-0.058643065,336.71118,-13.057429,-28.692144
2923242278000.0,-4.647520290627547,0.8989507554947026,8.128170454604726,0.11942416,-0.019547688,-0.049480084,336.71808,-13.077883,-28.665684
2923247288000.0,-4.6514307038304805,0.9106817460326,8.151632525509372,0.10781772,-0.03023783,-0.044898596,336.72754,-13.092052,-28.637363
2923252433000.0,-4.659553664602848,0.925644213692788,8.164835516335389,0.09101892,-0.040927973,-0.04184427,336.73566,-13.099909,-28.603895
2923257339000.0,-4.677444181379941,0.9471127180031986,8.150523267306374,0.07238753,-0.039095376,-0.04337143,336.74335,-13.104147,-28.57174
2923262251000.0,-4.695356578120478,0.968607478128094,8.136193514507653,0.057726767,-0.04795292,-0.043066,336.75555,-13.103757,-28.532154
2923267223000.0,-4.704707762363054,0.9818252768413956,8.138195361031519,0.05222898,-0.043066,-0.032986723,336.7634,-13.102183,-28.497116
2923272258000.0,-4.708771362944547,0.9899525628687004,8.15038612034384,0.053450707,-0.04734206,-0.03268129,336.7753,-13.097405,-28.458654
2923277465000.0,-4.712919874839124,0.9937261975546976,8.163962381274132,0.0571159,-0.040317107,-0.03023783,336.78137,-13.099715,-28.430702
2923282269000.0,-4.716620639639639,0.9863248225225224,8.178765054054054,0.044898596,-0.03634648,-0.038179077,336.79095,-13.09689,-28.40219
2923287231000.0,-4.7204431198519945,0.9786800217503218,8.194054575772201,0.061391957,-0.027794369,-0.034208454,336.79483,-13.104767,-28.37586
2923292971000.0,-4.717923010131392,0.9733913820326104,8.208074969605825,0.056505036,-0.034513887,-0.03390302,336.803,-13.102623,-28.347885
2923297290000.0,-4.714649061817318,0.9701175020895996,8.217896814548045,0.0571159,-0.027488936,-0.035124753,336.80835,-13.106189,-28.326488
2923302435000.0,-4.712834068321005,0.9683025464964606,8.236927464964605,0.06047566,-0.029321533,-0.030543262,336.81668,-13.106234,-28.299746
2923307289000.0,-4.716531416447944,0.9719998174103236,8.273900174103236,0.058948494,-0.0143553335,-0.027794369,336.82367,-13.104783,-28.280401
2923312194000.0,-4.720267611866698,0.9757359348047404,8.311261348047404,0.05589417,-0.013744468,-0.028710667,336.83157,-13.102955,-28.254414
2923317276000.0,-4.729818137072658,0.974016911169482,8.313792656995071,0.048258353,-0.007330383,-0.025350908,336.83533,-13.10056,-28.234188
2923322293000.0,-4.741467689735715,0.970133713432474,8.302142820496242,0.059864793,-0.004276057,-0.028099801,336.84128,-13.101251,-28.214231
2923327497000.0,-4.754316104086468,0.9714773040864672,8.292459026946995,0.045814894,0.0070249503,-0.024740042,336.84436,-13.091557,-28.194574
2923332307000.0,-4.767956734231567,0.9851179342315666,8.289048798193663,0.027183503,0.009773844,-0.029321533,336.851,-13.082195,-28.174698
2923337195000.0,-4.781818563784424,0.998979763784424,8.285583268433522,0.028710667,0.0009162979,-0.025350908,336.85767,-13.076865,-28.15732
2923342272000.0,-4.80398769648131,1.0122436513121256,8.290616090794027,0.018936822,0.008246681,-0.021991149,336.86407,-13.063581,-28.14588
2923347260000.0,-4.832203294321154,1.0243360684246057,8.302708760442156,0.008246681,0.0030543262,-0.023823744,336.8724,-13.050516,-28.128979
2923352400000.0,-4.8561945425434585,1.02977393915828,8.311160914913083,0.004581489,0.0012217305,-0.028710667,336.88217,-13.036453,-28.120707
2923357302000.0,-4.859773869624886,1.00829842516011,8.304002260750229,-0.008552114,-0.007941248,-0.03756821,336.89453,-13.016906,-28.109596
2923362631000.0,-4.863664982235438,0.98495223705398,8.296220035529124,-0.0027488936,0.0015271631,-0.0290161,336.8988,-13.009283,-28.105776
2923367212000.0,-4.865018,0.9632366942748092,8.284448984732824,-0.011301007,0.0009162979,-0.028099801,336.9096,-12.992749,-28.098057
2923372258000.0,-4.865018,0.9380851112508676,8.267681364850798,-0.0125227375,0.00061086525,-0.029626964,336.9175,-12.980541,-28.092764
2923377545000.0,-4.865018,0.9134759446854664,8.255207,-0.010995574,-0.009773844,-0.030848695,336.93048,-12.961893,-28.086472
2923382272000.0,-4.865018,0.8952910082067969,8.255207,-0.0106901415,-0.005192355,-0.028710667,336.94135,-12.94326,-28.084223
2923387242000.0,-4.865018,0.8761712421185828,8.255207,-0.008246681,-0.004581489,-0.018325957,336.952,-12.927738,-28.077467
2923392278000.0,-4.876692601627963,0.8685707343548,8.23477637096002,-0.004886922,-0.005192355,-0.018936822,336.9648,-12.911711,-28.072397
2923397294000.0,-4.892026406751257,0.8647372630596122,8.207942111922433,-0.0106901415,-0.009773844,-0.017715093,336.9738,-12.896031,-28.065632
2923402445000.0,-4.903325,0.8585487364770259,8.197139814436309,-0.018936822,-0.013744468,-0.01038471,336.98303,-12.87608,-28.059381
2923407267000.0,-4.903325,0.8474005922105093,8.226868237949626,-0.01038471,-0.014660766,-0.014966198,336.99542,-12.857881,-28.0536
2923412247000.0,-4.903325,0.835887162420536,8.257570757463588,-0.016493361,-0.014660766,-0.01740966,337.01074,-12.836016,-28.05253
2923417278000.0,-4.909219033290826,0.8272881851725512,8.258889874392285,-0.013133603,-0.013744468,0.0009162979,337.02057,-12.82137,-28.050337
2923422321000.0,-4.91691745594963,0.8195897866294732,8.251191331154859,-0.020463986,-0.021380283,0.004886922,337.03598,-12.800686,-28.04702
2923427446000.0,-4.934986378689313,0.8083432389841372,8.251315313892004,-0.021991149,-0.025961773,0.005192355,337.0433,-12.778361,-28.042057
2923432321000.0,-4.976130058588367,0.7896415251161673,8.27001700432623,-0.02076942,-0.033292156,0.009162978,337.04883,-12.756382,-28.033787
2923437249000.0,-5.017721044135556,0.7707364900512739,8.288922015702612,-0.02076942,-0.12858713,-0.007941248,337.06927,-12.732133,-28.003239
2923442275000.0,-5.097570677254716,0.8184549124227295,8.15111361745126,-0.01740966,-0.30787608,-0.040317107,337.10034,-12.707894,-27.948307
2923447315000.0,-5.189376965414487,0.8873095686281502,7.963676185211603,0.014049901,-0.30726522,-0.054367006,337.1236,-12.691286,-27.917519
2923452462000.0,-5.179783558180496,0.8649704899046619,7.853457306213137,0.03970624,-0.27183503,-0.059253927,337.17084,-12.6666155,-27.857008
2923457310000.0,-4.909698489553204,0.6098902300032318,7.954739260806335,0.08032878,-0.24678956,-0.036651913,337.21326,-12.65591,-27.794577
2923462241000.0,-4.634989439759231,0.3504428781934233,8.05775520925911,0.09407325,-0.092240654,-0.013439035,337.2546,-12.6673,-27.823381
2923467224000.0,-4.504566400526404,0.2994128471356951,8.276563404745989,0.08674286,0.04184427,0.011911872,337.28705,-12.686631,-27.852304
2923472251000.0,-4.420091672677139,0.3155032962901069,8.53401065842246,0.07269296,0.10323623,0.04550946,337.30283,-12.711523,-27.901316
2923478168000.0,-4.5043244342959925,0.3942616461197162,8.693100554012192,0.024740042,0.108123146,0.06414085,337.2925,-12.671981,-27.895208
2923482230000.0,-4.706468096532428,0.4953334610012991,8.689213097831518,-0.040317107,0.065973446,0.070554934,337.27448,-12.628137,-27.891153
2923487214000.0,-4.943761248235411,0.6156918438095238,8.62453884143553,-0.09407325,0.064751714,0.076358154,337.2227,-12.572576,-27.849405
2923492207000.0,-5.162429234019286,0.7297795161904762,8.453407352718958,-0.124005646,0.05497787,0.062308256,337.17923,-12.50607,-27.79516
2923497312000.0,-5.309277189268569,0.8355033683648686,8.290474322543066,-0.12644911,0.036957346,0.046120327,337.14746,-12.454082,-27.784962
2923502495000.0,-5.319790438576674,0.923113867088393,8.146792992516238,-0.11056661,-0.015577064,0.025045475,337.12515,-12.398058,-27.763521
2923507249000.0,-5.32943349997176,1.00347279260096,8.01500425183564,-0.10293079,-0.06627888,0.015882496,337.1269,-12.366483,-27.79248
2923512294000.0,-5.258412869595637,1.028175046661179,7.972294970984669,-0.09437868,-0.098043874,0.013439035,337.13556,-12.338046,-27.812275
2923517282000.0,-5.115877189875501,0.9986848759440272,8.016530304043625,-0.082161374,-0.116980694,0.004276057,337.15176,-12.311102,-27.82219
2923522286000.0,-5.003878549244119,0.9663442710958048,8.065041070489311,-0.064446285,-0.08032878,0.018020526,337.15503,-12.317703,-27.85995
2923527537000.0,-4.909411748725288,0.9303569355165936,8.11902176384292,-0.054061573,-0.053450707,0.015882496,337.1683,-12.322095,-27.891022
2923532642000.0,-4.8433804981054935,0.8937159502283378,8.157902411556487,-0.049480084,0.002443461,0.019242255,337.1537,-12.329828,-27.9085
2923537226000.0,-4.817116678302922,0.8586974354571741,8.175411792352179,-0.05100725,0.026267206,0.015577064,337.14267,-12.337141,-27.924944
2923542289000.0,-4.801776502392638,0.8255897952147239,8.189434861157975,-0.05955936,0.05131268,0.011911872,337.11353,-12.337144,-27.933357
2923548220000.0,-4.814843987239263,0.7994548255214724,8.193790552990798,-0.09468412,0.07574729,0.009468411,337.08386,-12.329651,-27.948046
2923552658000.0,-4.824622017546012,0.7798987649079755,8.197049794325153,-0.083383106,0.098043874,0.005497787,337.0542,-12.324376,-27.961731
2923557303000.0,-4.860455867365611,0.7386016806614564,8.197746,-0.08032878,0.094989546,0.015577064,337.02142,-12.310188,-27.973783
2923562241000.0,-4.905528530728174,0.6890217038982082,8.197746,-0.07971791,0.09193522,0.017104227,336.99133,-12.296844,-27.992208
2923567217000.0,-4.954022989008936,0.6558175704841592,8.197746,-0.076052725,0.07513642,0.020463986,336.96317,-12.282048,-28.006435
2923572333000.0,-5.005764118399675,0.6319370051096669,8.197746,-0.06047566,0.057421334,0.025350908,336.93478,-12.271185,-28.018713
2923577449000.0,-5.0727899927987705,0.6161422649421474,8.181612900558298,-0.06169739,0.026572637,0.043676864,336.90918,-12.2515135,-28.029987
2923582396000.0,-5.195457500364107,0.6314757073905656,8.104945808398737,-0.06078109,0.0030543262,0.056199603,336.88495,-12.236552,-28.037903
2923587188000.0,-5.314281574803787,0.646328720572862,8.030680858807347,-0.054367006,-0.013439035,0.061391957,336.8688,-12.219782,-28.048777
2923592790000.0,-5.379290913919803,0.6684601759465355,7.976044812091046,-0.051618114,-0.018325957,0.07696902,336.8466,-12.205787,-28.05444
2923597362000.0,-5.408675263519937,0.688049742346625,7.941763122028969,-0.038179077,-0.011301007,0.08246681,336.82648,-12.195639,-28.058971
2923602302000.0,-5.44042475761982,0.7092160717465467,7.904722100833287,-0.03604105,-0.002443461,0.08979719,336.8205,-12.191237,-28.097874
2923607273000.0,-5.465477769437955,0.7327724424007146,7.871312485570977,-0.025045475,0.0009162979,0.10323623,336.811,-12.194064,-28.135588
2923612263000.0,-5.44249318623059,0.7721746193280198,7.864745530369658,-0.03390302,0.015577064,0.09682214,336.80423,-12.190719,-28.178904
2923618188000.0,-5.415201872502405,0.818959769286794,7.85694809358252,-0.024740042,0.029626964,0.105068825,336.79626,-12.209669,-28.235031
2923622336000.0,-5.378841581204321,0.848378351031628,7.863517868973546,-0.0143553335,0.036651913,0.099265605,336.7946,-12.223608,-28.29354
2923627302000.0,-5.28040872252765,0.8729865496410323,7.909658179134596,-0.0012217305,0.04428773,0.1020145,336.78696,-12.242493,-28.353775
2923632274000.0,-5.181856935709204,0.897624480266477,7.955854236750533,0.013744468,0.04153884,0.09560041,336.7799,-12.268726,-28.40893
2923637312000.0,-5.089929504011284,0.92320906975227,7.9999211544564925,0.02321288,0.036957346,0.07941248,336.7753,-12.295236,-28.465057
2923642339000.0,-5.051731306268184,0.9529188702062946,8.02538654575509,0.0421497,0.03756821,0.0693332,336.7712,-12.327097,-28.52081
2923647283000.0,-5.014163792911928,0.9821381368553292,8.05043148201534,0.050396383,0.01985312,0.060170226,336.75458,-12.36035,-28.535389
2923652175000.0,-5.001075195425147,1.028182346728172,8.06168892353053,0.064751714,0.008246681,0.054061573,336.74033,-12.39791,-28.551981
2923657198000.0,-4.991924630930188,1.078510236465665,8.070839631348678,0.058948494,0.01282817,0.04184427,336.7316,-12.429395,-28.569023
2923662132000.0,-4.993047799785605,1.1164767566309342,8.05559031669219,0.05100725,0.008246681,0.021380283,336.72528,-12.464925,-28.57004
2923667128000.0,-4.99793245452782,1.150669696865748,8.031166787953037,0.062002823,-0.0106901415,0.00061086525,336.7242,-12.500927,-28.56933
2923672155000.0,-4.991936296681911,1.180263859414226,8.028942445071518,0.060170226,-0.011301007,-0.013439035,336.73163,-12.533432,-28.570297
2923677158000.0,-4.98261208139535,1.2082367,8.033604674418605,0.051923547,-0.017104227,-0.029321533,336.7482,-12.562891,-28.566555
2923682111000.0,-4.969639721118583,1.2162545,8.069273476772615,0.054061573,0.005497787,-0.04642576,336.77475,-12.596132,-28.573923
2923687120000.0,-4.954978853708232,1.2162545,8.118142864710675,0.058337633,0.017715093,-0.05589417,336.80493,-12.625795,-28.577806
2923692104000.0,-4.94799968970895,1.219463843802702,8.156383616375011,0.063224554,0.03176499,-0.06872234,336.83746,-12.655093,-28.588602
2923697208000.0,-4.943567785021307,1.223895794768338,8.191839038988123,0.06872234,0.060170226,-0.086437434,336.87198,-12.682713,-28.608017
2923702157000.0,-4.948698643068994,1.2187649569310064,8.228521980016277,0.07849618,0.08093964,-0.087659165,336.89774,-12.707974,-28.623987
2923707175000.0,-4.961735006863188,1.2057285931368116,8.267630980649246,0.086132,0.09682214,-0.09468412,336.92874,-12.730007,-28.648163
2923712168000.0,-4.973942892196758,1.1899404969144771,8.289933919955283,0.10720685,0.12980886,-0.106595986,336.96487,-12.75643,-28.675764
2923717163000.0,-4.984638502258245,1.1685492209502517,8.279238644941309,0.10629055,0.14508049,-0.11789699,337.0028,-12.777556,-28.703289
2923722180000.0,-5.007417856039778,1.133219986662767,8.261574193331384,0.11911872,0.15790866,-0.122783914,337.04562,-12.797147,-28.738892
2923727191000.0,-5.040168749546651,1.0864330657307204,8.23818073286536,0.13194689,0.17867808,-0.12858713,337.0898,-12.814345,-28.781422
2923732155000.0,-5.068164676798579,1.04212635751505,8.221832632290536,0.15149458,0.19150625,-0.14844026,337.14606,-12.830457,-28.827848
2923737169000.0,-5.091858585413994,0.999477272525412,8.212354870916807,0.1600467,0.20677789,-0.1518,337.1964,-12.848019,-28.87937
2923742160000.0,-5.108655478358703,0.9599642016015884,8.177800387255365,0.17256944,0.21288654,-0.16676621,337.2636,-12.855786,-28.944042
2923747177000.0,-5.117740531568497,0.9236235903242884,8.114204445589486,0.19028452,0.21380283,-0.16584991,337.32532,-12.868497,-29.009632
2923752228000.0,-5.137418523137946,0.8863927849889819,8.054811905332745,0.20189096,0.22693644,-0.17134771,337.39615,-12.8721,-29.086977
2923757236000.0,-5.175465903728514,0.8483455368267959,8.004082255830763,0.22418754,0.22785273,-0.18295415,337.4688,-12.881848,-29.160482
2923762186000.0,-5.2132882868977175,0.8122759143550295,7.956924181580727,0.22999077,0.23273966,-0.19608775,337.5509,-12.881463,-29.248117
2923767195000.0,-5.25383789907016,0.7920010828639054,7.940704294370246,0.25411993,0.226631,-0.1966986,337.63263,-12.891246,-29.331583
2923773399000.0,-5.30406145545224,0.7668892732071007,7.920614819374472,0.26175576,0.23671028,-0.1966986,337.7215,-12.892107,-29.434822
2923777328000.0,-5.312307804069329,0.7593876959306707,7.920019,0.26847526,0.23609942,-0.19730948,337.81116,-12.898489,-29.532
2923782168000.0,-5.321040229088169,0.7506552709118313,7.920019,0.27885997,0.24495697,-0.19211712,337.89645,-12.908386,-29.632626
2923787233000.0,-5.330422598858604,0.7555679281412969,7.911442061418872,0.269697,0.23609942,-0.1872302,337.98572,-12.914176,-29.736933
2923792228000.0,-5.339836377467283,0.769688645203188,7.897321491803601,0.2706133,0.22510384,-0.1863139,338.07327,-12.924948,-29.841326
2923797226000.0,-5.35650941800738,0.7883726602804428,7.914061087527675,0.2782491,0.22113322,-0.17348573,338.156,-12.933323,-29.945595
2923803066000.0,-5.382306594391144,0.8141699228634686,7.96049619896679,0.25870144,0.22296582,-0.16676621,338.24002,-12.934363,-30.047205
2923807254000.0,-5.371263121258858,0.8215574657107128,7.975432062942892,0.24495697,0.20066923,-0.16371189,338.32336,-12.942949,-30.141666
2923812235000.0,-5.321552938505628,0.8165864318632764,7.970460925281367,0.23732115,0.18234327,-0.15882497,338.40277,-12.949261,-30.235546
2923817231000.0,-5.276523569370435,0.8188912494274783,7.984111942191304,0.22785273,0.16249016,-0.15577064,338.48392,-12.953774,-30.320349
2923822351000.0,-5.2355914934052175,0.8291242826657391,8.018222005495652,0.21685717,0.15241088,-0.13775012,338.55862,-12.958799,-30.400064
2923827354000.0,-5.195594779332175,0.8391234751053913,8.051552600556521,0.19761491,0.14294247,-0.13744467,338.63025,-12.960432,-30.46586
2923832299000.0,-5.146187940236802,0.8340428358462734,8.054954969332298,0.1908954,0.12156218,-0.13652839,338.69714,-12.964974,-30.523306
2923837308000.0,-5.090321791275233,0.8200763399262423,8.0409886873059,0.16646078,0.09468412,-0.12064589,338.7597,-12.9626665,-30.574648
2923842273000.0,-5.034773952097541,0.8158730687001446,8.023873909278777,0.1591304,0.07544186,-0.116675265,338.8134,-12.966527,-30.605804
2923847373000.0,-4.977578349700352,0.8192375158999793,8.003687155817317,0.15790866,0.069027774,-0.101098195,338.85883,-12.969905,-30.630814
2923852340000.0,-4.921874318895088,0.8225142235944065,7.984026841220638,0.13805555,0.055283304,-0.09285152,338.896,-12.964944,-30.642107
2923857310000.0,-4.888101285330777,0.8296948585848514,7.998793168744007,0.12370021,0.034208454,-0.076052725,338.9261,-12.964641,-30.647758
2923862282000.0,-4.865274895302013,0.8388254336644295,8.030750067114093,0.11881329,0.027794369,-0.05681047,338.9521,-12.963492,-30.652885
2923867222000.0,-4.861110906827479,0.8654385681055157,8.055857214980957,0.10415252,0.013133603,-0.04734206,338.9717,-12.9625225,-30.636578
2923873327000.0,-4.873482165291296,0.9149234727817748,8.080599516610242,0.081855945,-0.009468411,-0.035430185,338.98526,-12.961634,-30.61512
2923877663000.0,-4.882268697101143,0.9500695082733812,8.098172427316971,0.06627888,-0.013744468,-0.027488936,338.99274,-12.961359,-30.585993
2923882269000.0,-4.8939031408184,0.9868755547108812,8.1279291550896,0.051618114,-0.0290161,-0.015577064,338.99762,-12.958181,-30.547203
2923887280000.0,-4.90720154609274,1.0267706779604655,8.163391723443562,0.03940081,-0.034208454,-0.00061086525,338.99814,-12.953444,-30.509993
2923892279000.0,-4.915228049727381,1.057828444096098,8.185571124893508,0.015577064,-0.048258353,0.0076358155,338.99023,-12.949842,-30.467445
2923897251000.0,-4.919284562966434,1.082167777679332,8.197740622252514,0.008246681,-0.061086524,0.007330383,338.98056,-12.948066,-30.424198
2923902343000.0,-4.9224787,1.0986374643711143,8.210916762075563,-0.01038471,-0.08093964,0.022602014,338.961,-12.949271,-30.37111
2923907471000.0,-4.9224787,1.0868943198469632,8.226574206360594,-0.03634648,-0.08552113,0.03145956,338.9435,-12.945492,-30.320356
2923912191000.0,-4.9224787,1.0760854972740317,8.240985894548064,-0.049785517,-0.099571034,0.043676864,338.91476,-12.950018,-30.260216
2923917245000.0,-4.925200949127041,1.0807691473811247,8.232018754364793,-0.05681047,-0.10842858,0.055283304,338.88367,-12.950515,-30.200882
2923922410000.0,-4.929180687802719,1.0927083634081585,8.212120060986404,-0.07147124,-0.12583824,0.059864793,338.8532,-12.946196,-30.136206
2923927488000.0,-4.93102957749324,1.10235872250676,8.197746,-0.08246681,-0.12675454,0.06078109,338.81525,-12.943738,-30.07129
2923932296000.0,-4.927367635835852,1.1060206641641483,8.197746,-0.10842858,-0.12858713,0.079107046,338.77222,-12.936847,-30.001108
2923937191000.0,-4.923639431923016,1.1097488680769845,8.197746,-0.12308934,-0.12980886,0.07666359,338.73688,-12.928975,-29.937273
2923943045000.0,-4.925798493771516,1.1208689813145465,8.204385726202867,-0.1301143,-0.1328632,0.07727446,338.6955,-12.919491,-29.872108
2923947422000.0,-4.929154322256024,1.130936466768073,8.211097523336804,-0.13927728,-0.13927728,0.08857546,338.6523,-12.906949,-29.806295
2923952338000.0,-4.927840844218956,1.1345824130627478,8.215214102480367,-0.16371189,-0.13561209,0.084910266,338.6113,-12.89053,-29.742624
2923957301000.0,-4.909362631638286,1.1124085579659435,8.207822663089962,-0.16615535,-0.13744467,0.09193522,338.56476,-12.880293,-29.675303
2923962231000.0,-4.891007284464661,1.0903821413575927,8.200480370888734,-0.16401732,-0.13316862,0.089186326,338.5197,-12.868199,-29.61142
2923967221000.0,-4.88911383322425,1.079708020485969,8.197746,-0.17073683,-0.13072516,0.08307768,338.47437,-12.8537,-29.547474
2923972384000.0,-4.897204279145872,1.075662776405138,8.197746,-0.17195857,-0.14080444,0.082161374,338.42947,-12.841301,-29.48223
2923977524000.0,-4.904194803341429,1.0699930444689778,8.189048148229926,-0.16432275,-0.14019357,0.081855945,338.38736,-12.821395,-29.42026
2923982305000.0,-4.907564762640759,1.059883377699271,8.155349258997571,-0.16432275,-0.13041973,0.08827003,338.34378,-12.8003025,-29.358765
2923987191000.0,-4.911008732759255,1.049551683108854,8.120910277029514,-0.16401732,-0.13408493,0.08674286,338.30487,-12.780151,-29.296873
2923992270000.0,-4.922668997272417,1.0399651806938288,8.082444005455166,-0.15332718,-0.1386664,0.08277224,338.26434,-12.763239,-29.238161
2923997399000.0,-4.94360294169792,1.0315915592055915,8.040576116604159,-0.14477506,-0.13439035,0.06841691,338.22757,-12.744268,-29.182768
2924002421000.0,-4.96257599490524,1.023524965909614,8.005016684600628,-0.13347405,-0.12889257,0.0720821,338.18912,-12.730647,-29.132236
2924007303000.0,-4.973338008608915,1.016350265134658,7.997842096201949,-0.116980694,-0.112704635,0.06841691,338.15656,-12.7175,-29.088268
2924012790000.0,-4.985433700782629,1.008286442284969,7.989778399654723,-0.10567969,-0.11178834,0.06505715,338.13043,-12.707123,-29.05035
2924017275000.0,-4.991671466760684,1.0055647,7.989211889264958,-0.108123146,-0.10934488,0.0580322,338.10544,-12.696462,-29.018406
2924022397000.0,-4.995863933205128,1.0055647,7.993404399487179,-0.09468412,-0.10842858,0.052839845,338.0812,-12.692356,-28.986937
2924027317000.0,-5.003276740945411,1.0027755490777388,7.99942267276529,-0.082161374,-0.1001819,0.055283304,338.06516,-12.683331,-28.961843
2924032271000.0,-5.024534435964454,0.9886038017250393,8.01359453110298,-0.07849618,-0.0870483,0.049480084,338.05292,-12.6736765,-28.939798
2924037196000.0,-5.045667691509223,0.9745150137331045,8.027683429430214,-0.054367006,-0.081855945,0.04886922,338.03903,-12.672374,-28.918373
2924042278000.0,-5.05868520383001,0.958732495518538,8.04346594884575,-0.06169739,-0.08552113,0.043676864,338.02814,-12.662762,-28.899197
2924047307000.0,-5.062896529590766,0.9418868186866036,8.06031151573977,-0.056199603,-0.07849618,0.04917465,338.0129,-12.663693,-28.884016
2924052378000.0,-5.064266881496982,0.9233590896257544,8.072316121287725,-0.051923547,-0.07391469,0.04520403,338.00436,-12.658637,-28.871128
2924057273000.0,-5.056721056788732,0.9007215958028169,8.068543130140844,-0.05222898,-0.070554934,0.049785517,337.9911,-12.655669,-28.859097
2924062238000.0,-5.049067324474849,0.8777603788812877,8.064716184064386,-0.046120327,-0.06505715,0.048563786,337.97928,-12.650551,-28.849266
2924067238000.0,-5.049926010309278,0.8567446440628697,8.063671,-0.039095376,-0.06261369,0.05131268,337.96494,-12.646731,-28.839092
2924072415000.0,-5.054115644329897,0.8357968939293561,8.063671,-0.04428773,-0.055588737,0.046731193,337.9527,-12.640085,-28.832495
2924077608000.0,-5.054441283950617,0.825718040752884,8.072121643594414,-0.040011674,-0.053145275,0.04520403,337.94482,-12.635216,-28.821861
2924082509000.0,-5.049691549382716,0.8304676959684274,8.091120085913783,-0.038179077,-0.047036625,0.050396383,337.9355,-12.628743,-28.814226
2924087263000.0,-5.046977,0.8350860569218241,8.103881896681596,-0.035124753,-0.050396383,0.047647487,337.93384,-12.618802,-28.805645
2924092282000.0,-5.046977,0.839978764495114,8.108774706433225,-0.03573562,-0.036651913,0.04550946,337.9285,-12.609259,-28.80322
2924097287000.0,-5.056820947128632,0.842759,8.115773849167915,-0.03634648,-0.04062254,0.03940081,337.92328,-12.596756,-28.795017
2924102519000.0,-5.080742698813259,0.842759,8.126026064145409,-0.03390302,-0.03604105,0.03390302,337.91684,-12.584754,-28.793144
2924107312000.0,-5.102657254590097,0.842759,8.135418049311143,-0.030848695,-0.034513887,0.03390302,337.91418,-12.568433,-28.790565
2924112281000.0,-5.115599993911132,0.8443443939111318,8.143456271267736,-0.031154128,-0.035430185,0.031154128,337.91397,-12.550983,-28.789171
2924117321000.0,-5.118815440716808,0.8475598407168077,8.14988713130371,-0.039095376,-0.027794369,0.020158553,337.9155,-12.531471,-28.79115
2924122339000.0,-5.122016851841982,0.8507612518419825,8.156289920125243,-0.033292156,-0.028405234,0.021380283,337.9219,-12.51467,-28.793894
2924127344000.0,-5.12591903309063,0.8453527451734049,8.152456052117264,-0.031154128,-0.025045475,0.01863139,337.93195,-12.493301,-28.800797
2924132300000.0,-5.130466037267676,0.8317114287679632,8.138814944625407,-0.04062254,-0.027488936,0.011301007,337.94336,-12.47039,-28.80605
2924137264000.0,-5.139124858595195,0.8216197819346888,8.124752141404805,-0.03481932,-0.02687807,0.015577064,337.94873,-12.453504,-28.813051
2924142270000.0,-5.153894563462724,0.8166966497925652,8.109982436537278,-0.036651913,-0.016187929,0.015882496,337.95688,-12.431214,-28.822813
2924147307000.0,-5.161899,0.8057083880523365,8.104058088598132,-0.032375857,-0.013744468,0.0125227375,337.96707,-12.409687,-28.8331
2924152404000.0,-5.161899,0.7874605754803738,8.1086201417757,-0.026572637,-0.019547688,0.008246681,337.97708,-12.38847,-28.843819
2924157196000.0,-5.15465988157474,0.7684823269284572,8.111555,-0.020463986,-0.0125227375,0.011911872,337.98776,-12.3663845,-28.86327
2924162358000.0,-5.129961712829736,0.7437843129196643,8.111555,-0.026572637,-0.014966198,0.014966198,338.00098,-12.34252,-28.878475
2924167185000.0,-5.10871641847806,0.7291618453804851,8.107581419181633,-0.028405234,0.0018325958,0.009468411,338.01276,-12.317993,-28.900925
2924177308000.0,-5.069366958204712,0.7367800551584077,8.08345902497969,-0.005497787,-0.004276057,0.022907447,338.0194,-12.30174,-28.914423
2924182309000.0,-5.030460762599513,0.7328894315353371,8.08734952672624,-0.015882496,-0.0021380284,0.021991149,338.02866,-12.271345,-28.931585
2924187187000.0,-4.992511468025995,0.7290944981153534,8.091144341267261,-0.0030543262,0.008246681,0.01985312,338.03558,-12.258293,-28.943954
2924192280000.0,-4.9799395,0.7345399033816425,8.09686987892512,-0.010079277,0.005497787,0.01863139,338.0433,-12.238057,-28.953068
2924198080000.0,-4.9799395,0.7457205475040257,8.104323602757649,-0.0125227375,0.002443461,0.024740042,338.0485,-12.22315,-28.964367
2924202760000.0,-4.9799395,0.7547421706924315,8.110337986815619,0.0015271631,0.0021380284,0.027488936,338.04865,-12.209043,-28.96769
2924207305000.0,-4.986369871652515,0.7501372947746571,8.127631013063358,0.0021380284,-0.0030543262,0.03268129,338.04666,-12.1925335,-28.968115
2924212312000.0,-4.995318418307362,0.7411887013996454,8.150002496500887,0.0076358155,-0.007330383,0.03145956,338.0458,-12.180439,-28.968885
2924217276000.0,-5.00378880954182,0.7468056945671796,8.157091058454398,0.0067195175,0.005192355,0.021685716,338.0378,-12.170641,-28.972715
2924222340000.0,-5.012126670523511,0.7634813729992264,8.152922062666553,-0.0027488936,0.0012217305,0.03145956,338.02585,-12.16267,-28.969513
2924227368000.0,-5.024249168342629,0.7897271901083666,8.148861618207171,-0.009162978,-0.0033597588,0.03390302,338.01944,-12.151728,-28.969248
2924232385000.0,-5.047219712717132,0.8433252442454183,8.145033307410358,-0.0027488936,0.00030543262,0.027183503,338.01263,-12.141799,-28.970104
2924237192000.0,-5.069228763306772,0.8946798079760956,8.141365240836652,0.0027488936,0.0012217305,0.028405234,338.00436,-12.134437,-28.970133
2924247447000.0,-5.069049731550802,0.9564003669518716,8.146942959893048,-0.0033597588,0.0021380284,0.029321533,337.9982,-12.12482,-28.971613
2924252338000.0,-5.068457551484201,0.9760586495052666,8.149086373803065,0.006414085,0.002443461,0.024129177,337.99374,-12.119819,-28.973463
2924257305000.0,-5.079844712097032,0.9722629293009896,8.145290772502394,0.015577064,0.0067195175,0.016798794,337.99576,-12.120297,-28.981586
2924262194000.0,-5.091053052792851,0.9685268157357164,8.141554775973507,0.002443461,0.006414085,0.017715093,337.9969,-12.121263,-28.987066
2924268046000.0,-5.094861,0.9770412902332006,8.15006932428699,-0.0009162979,0.00061086525,0.01282817,338.0024,-12.124765,-28.993063
2924272370000.0,-5.094861,0.9871355658162022,8.160163635004468,0.008552114,0.0030543262,0.0076358155,338.00717,-12.12809,-29.001152
2924277384000.0,-5.095777021759549,0.995071897370069,8.16809997824045,0.0030543262,-0.008246681,0.002443461,338.01782,-12.12511,-29.007
2924282291000.0,-5.099455351361929,0.9913936445835942,8.164421648638072,-0.00061086525,0.0015271631,0.00061086525,338.02716,-12.124521,-29.01943
2924287188000.0,-5.103126184877896,0.987722887726988,8.160750815122105,-0.004581489,-0.004886922,0.009162978,338.03644,-12.128225,-29.02024
2924292282000.0,-5.091447240954081,0.989009251809184,8.156840793931528,-0.0027488936,-0.0125227375,0.0018325958,338.05063,-12.129732,-29.024664
2924297478000.0,-5.071261839039429,0.9930463321921142,8.152803629239008,-0.002443461,-0.009162978,-0.0030543262,338.0609,-12.13121,-29.02966
2924302360000.0,-5.05344976334196,0.9936597285841036,8.148309934343809,-0.009162978,-0.014966198,-0.003970624,338.07605,-12.130212,-29.031118
2924307301000.0,-5.039455207386322,0.9831638390166358,8.141312893826248,-0.013439035,-0.015271631,0.003970624,338.08905,-12.130322,-29.034836
2924312195000.0,-5.025593771068392,0.9727677889168208,8.134382410868762,-0.01160644,-0.017715093,0.011911872,338.10016,-12.129832,-29.033512
2924317272000.0,-5.004074319489145,0.9571343755938696,8.130709,-0.019242255,-0.01985312,0.0012217305,338.11453,-12.124313,-29.033068
2924322453000.0,-4.97450238899106,0.9360115775478928,8.130709,-0.01282817,-0.015271631,0.008552114,338.12024,-12.12629,-29.032179
2924327530000.0,-4.950486503923648,0.9157609281245266,8.132153961975458,-0.024740042,-0.016798794,0.01038471,338.13174,-12.117999,-29.027496
2924332303000.0,-4.9470241808589615,0.8984491139562187,8.13907846349038,-0.015577064,-0.019242255,0.0067195175,338.14224,-12.116725,-29.02389
2924337867000.0,-4.942988068239661,0.8782683190615058,8.147150520148463,-0.02076942,-0.014660766,0.008246681,338.1452,-12.109109,-29.015106
2924342272000.0,-4.932438838014574,0.8783844928891833,8.13837020251727,-0.01740966,-0.01282817,0.012217305,338.1489,-12.105679,-29.005274
2924347441000.0,-4.913700271373143,0.8924384105327907,8.11494705536103,-0.017715093,-0.004581489,0.0033597588,338.15518,-12.098425,-28.999523
2924352619000.0,-4.911289782009157,0.8942462766119041,8.105960463775922,-0.00580322,-0.009773844,0.004276057,338.15884,-12.091358,-28.988916
2924357280000.0,-4.927319077753838,0.8822243110799892,8.113975258102164,-0.010079277,-0.008552114,0.006414085,338.16364,-12.079242,-28.983086
2924362233000.0,-4.9416323,0.874806787953434,8.118367512444346,-0.005192355,-0.012217305,0.0061086523,338.167,-12.07994,-28.971498
2924367234000.0,-4.9416323,0.8957805643821618,8.10088938062915,-0.004581489,-0.010995574,-0.0021380284,338.1717,-12.077597,-28.962294
2924377361000.0,-4.943567533290817,0.9328207569970846,8.075183293913994,0.003970624,0.0015271631,0.009773844,338.17435,-12.076582,-28.956846
2924382270000.0,-4.947850698405612,0.9413871766763848,8.079466593203353,0.0018325958,-0.0036651916,0.009468411,338.18466,-12.070154,-28.948473
2924387257000.0,-4.95642819016214,0.9510862438222616,8.08506176130533,0.013439035,0.00580322,0.009162978,338.1836,-12.076981,-28.950272
2924392284000.0,-4.979483435280837,0.9642606671478416,8.094942428336868,0.014049901,0.0076358155,0.008246681,338.18387,-12.08018,-28.948689
2924397457000.0,-5.003208277731408,0.9778177174488608,8.105110061230073,0.008857546,0.0033597588,0.004886922,338.19183,-12.084926,-28.946686
2924402544000.0,-5.01321233644117,0.9864111,8.116589381081605,0.003970624,0.005192355,0.008552114,338.19724,-12.090438,-28.946632
2924407637000.0,-4.9990309129870125,0.9864111,8.130770853896102,0.0033597588,-0.0021380284,0.010995574,338.20514,-12.094795,-28.943323
2924412228000.0,-4.9885749768921634,0.9854697768921634,8.137461520847287,0.004581489,0.003970624,0.005192355,338.21786,-12.099875,-28.948126
2924417285000.0,-4.9845202316142,0.9814150316141996,8.125297242674145,0.0018325958,0.0036651916,0.014966198,338.2259,-12.106063,-28.948025
2924423313000.0,-4.979687352557673,0.9758257089142428,8.112311444959879,0.0143553335,0.0027488936,0.015271631,338.2375,-12.109469,-28.948498
2924432324000.0,-4.97247433477098,0.9469736001086594,8.133950573637579,0.0033597588,-0.0061086523,0.02076942,338.2449,-12.108283,-28.945778
2924442275000.0,-4.963473618050363,0.9454162038855006,8.126507264164863,0.0076358155,-0.01282817,0.009162978,338.2624,-12.112529,-28.943163
2924447373000.0,-4.956285583275188,0.9466037163131454,8.113631331565726,-0.0012217305,-0.014966198,0.014966198,338.27283,-12.113777,-28.938046
2924453434000.0,-4.94413546043818,0.9425536894641362,8.09338119732068,0.0012217305,-0.011301007,0.013133603,338.28894,-12.113292,-28.931793
2924457343000.0,-4.9362993228090986,0.9399416526793192,8.080321013396594,0.008246681,-0.016798794,0.004581489,338.30075,-12.116327,-28.922386
2924462276000.0,-4.929206839516214,0.93852705,8.08464258244428,-0.00030543262,-0.015271631,0.0106901415,338.30756,-12.1176605,-28.915382
2924467231000.0,-4.924194370518644,0.93852705,8.104692353755148,0.004581489,-0.01740966,0.009162978,338.3201,-12.121542,-28.907288
2924472368000.0,-4.928633681098244,0.941604540549122,8.117710109637652,-0.0015271631,-0.029626964,0.0009162979,338.3302,-12.119527,-28.898466
2924477233000.0,-4.93733579764662,0.9459555988233096,8.126412407919313,0.0009162979,-0.02076942,-0.0015271631,338.33743,-12.121247,-28.894894
2924482258000.0,-4.944001857975663,0.9504734450900858,8.135448016979531,-0.00580322,-0.01863139,-0.00580322,338.3476,-12.118667,-28.883524
2924487257000.0,-4.948517839798132,0.9549894976464484,8.144479792000755,-0.0033597588,-0.019547688,-0.012217305,338.3586,-12.118156,-28.874428
2924492305000.0,-4.952562840735174,0.9563268804693906,8.156631062312108,-0.006414085,-0.021380283,-0.008857546,338.36548,-12.115356,-28.867239
2924497546000.0,-4.955992265236404,0.952897509681607,8.173777826728616,-0.009773844,-0.016187929,-0.022602014,338.37918,-12.1096735,-28.863632
2924502443000.0,-4.959196594902979,0.9496932302029244,8.18979914047554,-0.00580322,-0.022296581,-0.008246681,338.39008,-12.106686,-28.85401
2924507273000.0,-4.958604784196547,0.94810385,8.199927215803454,-0.0015271631,-0.018325957,-0.005192355,338.40735,-12.099497,-28.850607
2924512295000.0,-4.954042491083286,0.94810385,8.204489508916714,-0.009468411,-0.016187929,-0.012217305,338.4236,-12.090858,-28.844994
2924517219000.0,-4.957599434011091,0.946825763197782,8.19582024547135,-0.0030543262,-0.0125227375,-0.011911872,338.4371,-12.08746,-28.838097
2924523269000.0,-4.979018894269871,0.9425418711460258,8.157265306469501,-0.0106901415,-0.022296581,-0.009162978,338.4526,-12.078001,-28.828661
2924527317000.0,-4.993350460406655,0.9396755579186692,8.13146854728281,-0.0061086523,-0.013744468,-0.019547688,338.4735,-12.068876,-28.825207
2924532240000.0,-5.002048930528285,0.9237477090939692,8.115220138943432,-0.008246681,-0.012217305,-0.01740966,338.4905,-12.05847,-28.816376
2924537276000.0,-5.00655849312763,0.9012003716802244,8.106201013744741,-0.0143553335,-0.013744468,-0.010995574,338.50858,-12.047504,-28.809765
