timestamp,acc_x,acc_y,acc_z,gyro_x,gyro_y,gyro_z,ori_azimuth,ori_pitch,ori_roll
3690347863000.0,1.0726024,9.884287069266112,-0.5020821438218943,-1.1710287,0.7464773,0.029321533,310.06464,-14.628068,-9.7468405
3690352832000.0,1.0726024,9.88405042315534,-0.501135578652471,-1.174083,0.7538077,0.029626964,310.05484,-14.637585,-9.755467
3690358178000.0,1.0726024,9.88379582261032,-0.5001171972083702,-1.1890492,0.74097955,0.032070424,310.4963,-15.038636,-10.112678
3690362830000.0,1.0726024,9.88357427346415,-0.4992310186677872,-1.1725558,0.7431176,0.035124753,310.88312,-15.437284,-10.460619
3690367935000.0,1.0726024,9.88333115042219,-0.4982585463011328,-1.1780536,0.7351763,0.032986723,311.2247,-15.817193,-10.787964
3690372928000.0,1.0726024,9.88309336132356,-0.4973074092733746,-1.1597277,0.7333437,0.033292156,311.52036,-16.202362,-11.103393
3690377887000.0,1.0726024,9.882857191457726,-0.4963627490449243,-1.1527027,0.7498371,0.038789943,311.7742,-16.578197,-11.408324
3690383077000.0,1.0726024,9.882610020333772,-0.4953740846800004,-1.1759156,0.77121735,0.043066,311.97723,-16.950827,-11.684919
3690387866000.0,1.0726024,9.882381946631924,-0.4944618084480889,-1.207986,0.788627,0.042760566,312.14536,-17.320936,-11.952724
3690392894000.0,1.0726024,9.882142490676,-0.4935040041269257,-1.2260065,0.7504479,0.04337143,312.28412,-17.687536,-12.199051
3690397867000.0,1.0726024,9.881905654067252,-0.4925566769811133,-1.1936307,0.7800749,0.05497787,312.38318,-18.059414,-12.456231
3690402853000.0,1.0726024,9.88166819834008,-0.4916068734120362,-1.246776,0.75900006,0.049785517,312.46863,-18.401558,-12.679991
3690407887000.0,1.0726024,9.881428456637192,-0.4906479261262892,-1.2431108,0.7495316,0.061086524,312.51746,-18.771017,-12.901772
3690412828000.0,1.0726024,9.881193144012252,-0.48970669479159,-1.2486086,0.7443393,0.069027774,312.54742,-19.123678,-13.109712
3690417802000.0,1.0726024,9.880956259779008,-0.4887591771516803,-1.2461652,0.7293731,0.073303826,312.55588,-19.481539,-13.302
3690422918000.0,1.0726024,9.880712612867612,-0.4877846093499557,-1.2452488,0.7171558,0.08460484,312.54077,-19.840199,-13.482749
3690427834000.0,1.0726024,9.880478490855022,-0.4868481403676887,-1.25319,0.6899723,0.09621128,312.50916,-20.199312,-13.645938
3690432969000.0,1.0726024,9.88023393907824,-0.4858699531781157,-1.2483032,0.6365216,0.103847094,312.46268,-20.564808,-13.789358
3690437797000.0,1.0726024,9.880004008021125,-0.48495024767641,-1.1749994,0.6017023,0.10567969,312.39996,-20.949629,-13.921533
3690442821000.0,1.0726024,9.87976474256318,-0.483993205331636,-1.1252137,0.53969944,0.10323623,312.33105,-21.33175,-14.024009
3690447869000.0,1.0726024,9.879524334117376,-0.4830315911285269,-0.9987647,0.46700647,0.087659165,312.25735,-21.756622,-14.108106
3690452946000.0,1.0726024,9.87928254456125,-0.4820644525965966,-0.8720101,0.40317106,0.08246681,312.1758,-22.197935,-14.17018
3690457890000.0,1.0726024,9.879047089062826,-0.4811226497796055,-0.7498371,0.34513888,0.07574729,312.09616,-22.673384,-14.20982
3690462823000.0,1.0726024,9.878812157433837,-0.4801829423976846,-0.6243043,0.13530666,0.03359759,312.04382,-23.183079,-14.191398
3690467806000.0,1.0726024,9.878574844580148,-0.4792337103108994,-0.22876903,-0.010995574,-0.0009162979,311.98273,-23.802177,-14.16878
3690472840000.0,1.0726024,9.87833510287726,-0.4782747630251524,0.04734206,0.0061086523,-0.0012217305,311.92276,-24.423265,-14.130027
3690477829000.0,1.0726024,9.878097504276608,-0.4773243879737834,0.003970624,0.015577064,0.005497787,311.88403,-25.063292,-14.050224
3690482809000.0,1.0726024,9.8778603342964,-0.4763757273692899,-0.036957346,0.0076358155,0.0027488936,311.84314,-25.778585,-13.967306
3690487796000.0,1.0726024,9.877622830944732,-0.4754257333061155,-0.03390302,0.002443461,0.0015271631,311.7942,-26.493608,-13.882334
3690492826000.0,1.0726024,9.877383279739822,-0.4744675479967577,-0.021685716,0.0012217305,0.0009162979,311.7425,-27.198456,-13.792628
3690498774000.0,1.0726024,9.877100009249403,-0.4733344891060896,-0.016493361,0.0021380284,-0.0012217305,311.68863,-27.900463,-13.698678
3690502803000.0,1.0726024,9.876908130163008,-0.472566988388117,-0.025350908,0.00061086525,-0.01038471,311.63434,-28.599548,-13.601183
3690507892000.0,1.0726024,9.876665769112952,-0.4715975639270192,-0.014660766,-0.00061086525,0.0009162979,311.57272,-29.304749,-13.497827
3690512838000.0,1.0726024,9.87643021836554,-0.4706553801218335,-0.027794369,0.003970624,-0.003970624,311.5147,-29.996634,-13.395706
3690522915000.0,1.0726024,9.875950306339323,-0.468735771103464,-0.02565634,0.008552114,-0.0012217305,311.45032,-30.694494,-13.287237
3690527889000.0,1.0726024,9.87571342210608,-0.4677882534635543,-0.022296581,0.0106901415,-0.00580322,311.38718,-31.385271,-13.177955
3690532863000.0,1.0726024,9.875476537872837,-0.4668407358236446,-0.02107485,0.016187929,0.002443461,311.31772,-32.074127,-13.065157
3690537852000.0,1.0726024,9.87523893927218,-0.4658903607722756,-0.026267206,0.01740966,-0.0027488936,311.25214,-32.7574,-12.951723
3690542830000.0,1.0726024,9.87500186454096,-0.4649420811559768,-0.021685716,0.014049901,0.0033597588,311.181,-33.441612,-12.832636
3690547820000.0,1.0726024,9.874764218315812,-0.4639915156105105,-0.018325957,0.03023783,0.006414085,311.10797,-34.11963,-12.717076
3690552798000.0,1.0726024,9.874527143584592,-0.4630432359942116,-0.014966198,0.03268129,0.0125227375,311.0355,-34.79559,-12.593454
3690557969000.0,1.0726024,9.874280877326026,-0.4620581910171362,-0.024129177,0.022907447,0.004276057,310.9651,-35.463913,-12.470266
3690562903000.0,1.0726024,9.874045898072543,-0.4611182931411181,-0.014049901,0.029932396,0.01038471,310.88675,-36.135574,-12.345742
3690568767000.0,1.0726024,9.873766628039624,-0.4600012357546222,-0.02107485,0.025961773,0.006414085,310.81686,-36.794003,-12.217492
3690572843000.0,1.0720175446160278,9.873921934336645,-0.4745420363555501,-0.015271631,0.025350908,0.0076358155,310.74316,-37.454803,-12.087654
3690577819000.0,1.0708174454858643,9.874401957948656,-0.5050245124071864,-0.018020526,0.01985312,0.008857546,310.6728,-38.106052,-11.954693
3690582861000.0,1.0696014286421582,9.874888348433336,-0.5359112978276745,-0.013133603,0.027183503,0.008857546,310.596,-38.762722,-11.817194
3690587871000.0,1.0683931294777451,9.875371651949452,-0.5666020544632648,-0.017104227,0.01985312,0.0033597588,310.52536,-39.41057,-11.674527
3690592896000.0,1.0671812126511635,9.875856402482082,-0.5973846995917761,-0.011301007,0.03023783,0.0125227375,310.44815,-40.058094,-11.533181
3690597861000.0,1.0659837664732577,9.87633536494865,-0.6277997907486036,-0.017715093,0.02107485,0.009468411,310.38162,-40.694233,-11.388093
3690602805000.0,1.0647913850223882,9.876812301592098,-0.6580862380153417,-0.011911872,0.013744468,-0.0012217305,310.31412,-41.329735,-11.244271
3690607946000.0,1.063551491608367,9.87730824238578,-0.6895794874891081,-0.010995574,0.019242255,0.0067195175,310.24432,-41.957436,-11.097249
3690612844000.0,1.062370204321482,9.877780741511916,-0.7195841433775555,-0.0106901415,0.020158553,0.005497787,310.183,-42.579144,-10.950745
3690622846000.0,1.059957947187259,9.878745612124323,-0.7808553904572308,-0.013744468,0.0125227375,0.0125227375,310.12094,-43.19534,-10.799687
3690627841000.0,1.0587532656850154,9.879227468623926,-0.8114542585999003,-0.003970624,0.008552114,0.0033597588,310.06366,-43.80773,-10.652531
3690632823000.0,1.0575517194899846,9.879708071042543,-0.8419734900487048,-0.008246681,0.01282817,-0.00030543262,310.00574,-44.410084,-10.502538
3690638631000.0,1.0561509606981865,9.880268355837275,-0.8775527145076885,0.0015271631,0.01160644,0.005192355,309.952,-45.012703,-10.350341
3690642830000.0,1.0551382564683722,9.880673423993796,-0.9032753666260204,0.00061086525,0.015271631,0.003970624,309.90063,-45.604027,-10.2018795
3690647809000.0,1.0539374338057752,9.881153737009113,-0.933776220376241,-0.003970624,0.016798794,0.005192355,309.85065,-46.19111,-10.051042
3690652794000.0,1.0527351640783105,9.881634628831032,-0.9643138295236297,-0.0015271631,0.018325957,0.008552114,309.80194,-46.77337,-9.900734
3690657880000.0,1.051508535425575,9.882125263897493,-0.9954701545233526,0.0027488936,0.010079277,0.00580322,309.75827,-47.347904,-9.750013
3690662682000.0,1.0503504011765714,9.88258850211793,-1.024886724057106,-0.0030543262,0.015882496,0.008246681,309.71188,-47.91426,-9.60067
3690667679000.0,1.0491452373193717,9.883070551553065,-1.0554978439988314,0.0018325958,0.0070249503,0.007941248,309.6739,-48.47767,-9.44852
3690672678000.0,1.047939591107216,9.883552793923734,-1.086121215739613,-0.00061086525,0.023823744,0.01160644,309.63007,-49.031147,-9.301251
3690677684000.0,1.046732256652715,9.884035711568778,-1.1167874687770911,0.0018325958,0.01038471,0.0067195175,309.59894,-49.579945,-9.14924
3690682676000.0,1.0455282986829049,9.884517278665076,-1.1473679592211763,0.01038471,0.016187929,0.0143553335,309.5591,-50.124096,-9.000825
3690687679000.0,1.0443216877608377,9.884999906906817,-1.17801583456007,0.011301007,0.017715093,0.007330383,309.52914,-50.658646,-8.854198
3690692694000.0,1.0431121827090353,9.88548369276177,-1.2087372206933007,0.01740966,0.02107485,0.011301007,309.4964,-51.191437,-8.705522
3690697677000.0,1.0419103953365263,9.885964391648155,-1.239262578041633,0.014966198,0.02687807,0.016798794,309.46606,-51.71487,-8.559537
3690702669000.0,1.0407064373667163,9.886445958744453,-1.2698430684857185,0.009468411,0.014660766,0.009162978,309.443,-52.23164,-8.413952
3690707716000.0,1.0394892146356205,9.886932831567972,-1.300760483403847,0.02076942,0.01038471,0.0061086523,309.4173,-52.746212,-8.269395
3690712679000.0,1.0382922508126704,9.887411601099007,-1.3311633227616184,0.021991149,0.008857546,0.0143553335,309.39542,-53.249874,-8.123352
3690717672000.0,1.0370880516653822,9.88789326466307,-1.3617499391052317,0.02107485,0.012217305,0.015577064,309.37738,-53.74853,-7.9807987
3690722690000.0,1.035877823081146,9.888377339921329,-1.3924897029370464,0.028710667,0.016798794,0.01160644,309.36108,-54.24328,-7.838631
3690727682000.0,1.034673865111336,9.888858907017624,-1.4230701933811316,0.020463986,0.016187929,0.010995574,309.34668,-54.726818,-7.696288
3690732678000.0,1.0334689424316144,9.88934085998499,-1.453675187423329,0.013133603,0.008857546,0.014660766,309.3349,-55.20593,-7.5547433
3690737672000.0,1.0322645021068484,9.889822620016822,-1.4842679296664705,0.013439035,0.009773844,0.011301007,309.32465,-55.67761,-7.4174876
3690742716000.0,1.031048002908186,9.89030920343704,-1.5151669668860146,0.019242255,0.022907447,0.015577064,309.3135,-56.142826,-7.279619
3690747676000.0,1.0298517626176698,9.89078768356477,-1.545551428545202,0.010995574,0.01985312,0.01160644,309.30994,-56.59678,-7.1434855
3690752670000.0,1.0286473222929038,9.891269443596602,-1.576144170788343,0.003970624,0.019547688,0.013439035,309.303,-57.046703,-7.008743
3690757714000.0,1.0274308230942415,9.891756027016818,-1.6070432080078876,0.007941248,0.021380283,0.01282817,309.29926,-57.49041,-6.876781
3690762677000.0,1.0262338592712914,9.892234796547852,-1.637446047365659,0.004581489,0.020463986,0.003970624,309.29913,-57.92321,-6.7473354
3690767673000.0,1.0250289365915697,9.89271674951522,-1.6680510414078562,0.01038471,0.01740966,0.009468411,309.29895,-58.354095,-6.615916
3690772673000.0,1.0241852929690234,9.893907017772358,-1.64982383693012,0.010995574,0.017104227,0.002443461,309.30338,-58.77487,-6.4914308
3690782675000.0,1.0227491032266125,9.89677940725488,-1.5794504895634878,0.016493361,0.014966198,0.0070249503,309.30832,-59.19334,-6.363487
3690787673000.0,1.0220314391261758,9.898214740451609,-1.544284923662825,0.008552114,0.013744468,0.004276057,309.28384,-59.718853,-6.2602224
3690792735000.0,1.0213045852493428,9.899668453265097,-1.5086690583988884,0.00030543262,0.017715093,0.008857546,309.25903,-60.23906,-6.1546383
3690797690000.0,1.020593095529922,9.901091437656808,-1.4738060373829254,0.00030543262,0.014049901,0.0125227375,309.23914,-60.751724,-6.0490007
3690802676000.0,1.0198771545125596,9.902523324675393,-1.4387249026128766,-0.007941248,0.021991149,0.015271631,309.21686,-61.252678,-5.9449325
3690807718000.0,1.0191531724408505,9.90397129385864,-1.403249755899963,-0.00580322,0.018020526,0.008552114,309.20142,-61.748894,-5.840654
3690812695000.0,1.0184385237357936,9.905400596243616,-1.3682319444778746,-0.010995574,0.01740966,0.009468411,309.1838,-62.23425,-5.7357087
3690817702000.0,1.017719567323051,9.906838514073948,-1.3330030552292516,-0.0067195175,0.022296581,0.006414085,309.16928,-62.715073,-5.6341496
3690822678000.0,1.0170050622082505,9.908267529277412,-1.297992279734714,-0.019242255,0.021380283,0.00030543262,309.1587,-63.182583,-5.5328617
3690832670000.0,1.0155703083684016,9.911137046944814,-1.2276892916435933,-0.019547688,0.026572637,0.0021380284,309.14664,-63.64801,-5.432279
3690837667000.0,1.014852787858221,9.912572092960028,-1.1925307616704817,-0.014966198,0.015271631,0.013133603,309.14066,-64.10462,-5.3293343
3690842697000.0,1.014130528869586,9.914016615965137,-1.1571400460881822,-0.01160644,0.020463986,0.0036651916,309.13324,-64.55284,-5.2345386
3690847680000.0,1.0134150186229922,9.91544764143918,-1.1220800191007867,-0.009468411,0.011911872,-0.007330383,309.13306,-64.995804,-5.1350384
3690852669000.0,1.012698646834861,9.9168803900023,-1.0869777765480844,-0.004581489,0.0027488936,0.0012217305,309.13232,-65.43437,-5.0342507
3690857705000.0,1.011975526304689,9.91832663609648,-1.051544845400478,-0.011911872,0.011911872,0.004276057,309.13278,-65.86246,-4.9396663
3690862679000.0,1.0112613083704007,9.919755076936918,-1.0165481417610427,-0.005192355,0.0061086523,0.008246681,309.14026,-66.289795,-4.840707
3690867670000.0,1.0105446494017571,9.92118839986306,-0.9814318273532382,-0.0027488936,0.00580322,0.004886922,309.14612,-66.707115,-4.745455
3690872718000.0,1.009819805788511,9.922638092135385,-0.9459144650750178,0.0018325958,0.007330383,0.0067195175,309.1537,-67.12098,-4.6483045
3690877716000.0,1.009102141688074,9.924073425332107,-0.9107488991743552,-0.004886922,0.014660766,0.008552114,309.16187,-67.525734,-4.553601
3690882671000.0,1.0083906519686534,9.92549640972382,-0.8758858781583919,-0.002443461,0.02076942,0.018936822,309.17047,-67.92857,-4.4571614
3690887667000.0,1.0076732750487292,9.92693116855752,-0.8407343841128315,0.012217305,0.014660766,0.007941248,309.18408,-68.32553,-4.3664317
3690892944000.0,1.0069155492668154,9.92844662539608,-0.8036057944253971,0.009468411,0.019547688,0.008857546,309.19235,-68.71337,-4.2726
3690897677000.0,1.0062359365842688,9.92980585549214,-0.77030474932579,0.007941248,0.024740042,0.0106901415,309.20477,-69.09886,-4.1818824
3690902670000.0,1.005518990435113,9.931239752781304,-0.735174363062883,0.009773844,0.030848695,0.01282817,309.21704,-69.47846,-4.0924606
3690907707000.0,1.0047957263146847,9.932686286056995,-0.6997343959877254,0.024740042,0.03848451,0.009773844,309.22925,-69.85508,-4.0056353
3690912730000.0,1.0040744724578432,9.93412879879152,-0.6643929318982837,0.011911872,0.032070424,0.0125227375,309.2443,-70.21888,-3.916969
3690917685000.0,1.0033629827384225,9.935551783183232,-0.6295299108823207,0.014966198,0.029932396,0.012217305,309.25812,-70.585014,-3.8321264
3690922703000.0,1.002642446832862,9.936992860010196,-0.5942236264306349,0.011911872,0.03176499,0.011911872,309.2737,-70.94015,-3.7473767
3690927717000.0,1.001922485288326,9.938432788111111,-0.5589454856891538,0.012217305,0.037873644,0.006414085,309.29056,-71.29097,-3.665383
3690932673000.0,1.0012108519786491,9.939856059684336,-0.5240754287456395,0.009468411,0.038789943,0.0012217305,309.3096,-71.63439,-3.584177
3690937666000.0,1.0004939058294933,9.941289956973502,-0.4889450424827324,0.006414085,0.041233405,0.0076358155,309.3273,-71.972534,-3.5030324
3690942689000.0,0.9997726519726516,9.942732469708028,-0.453603578393291,0.010995574,0.03481932,0.0061086523,309.34952,-72.30579,-3.4258058
3690947678000.0,0.9990562801845206,9.944165218271143,-0.4185013358405887,0.003970624,0.029932396,0.007330383,309.37106,-72.63,-3.3475041
3690952670000.0,0.998339477625621,9.945598828378795,-0.3833779855052328,0.009773844,0.024740042,0.0030543262,309.3962,-72.95331,-3.27165
3690957711000.0,0.997615639144168,9.947046510380536,-0.3479098747198705,0.005192355,0.018325957,-0.00061086525,309.42398,-73.266556,-3.1958945
3690962973000.0,0.9968600672160972,9.948557659496418,-0.3108868239457034,-0.0067195175,0.020463986,0.0027488936,309.4517,-73.574295,-3.1207552
3690967673000.0,0.9961851930120048,9.94990741260258,-0.2778179644552843,-0.007941248,0.018936822,0.008246681,309.48337,-73.878525,-3.0463233
3690972669000.0,1.009823207914365,9.95462553090162,-0.2800835534147339,0.0061086523,0.022907447,0.004276057,309.5144,-74.17836,-2.9752848
3690977738000.0,1.0291857633582953,9.960676325528988,-0.2967837579589873,0.0015271631,0.01740966,-0.0030543262,309.5493,-74.46779,-2.9039586
3690982674000.0,1.0480402856844426,9.966568359910656,-0.3130457839267196,-0.017715093,0.021685716,0.0021380284,309.6193,-74.60892,-2.8201041
3690987678000.0,1.0671545542662983,9.97254156494426,-0.3295318410463574,-0.028099801,0.016493361,-0.0076358155,309.695,-74.74724,-2.7434473
3690992721000.0,1.086417794965399,9.97856132373412,-0.3461463866207646,-0.014049901,0.022602014,-0.01038471,309.76532,-74.88502,-2.6666825
3690997695000.0,1.105417469610913,9.98449871818599,-0.3625336064675029,-0.014660766,0.01863139,-0.011301007,309.8403,-75.012794,-2.5929966
3691002747000.0,1.124715088490916,9.990529220150371,-0.37917780322378,-0.027183503,0.014966198,-0.019242255,309.9141,-75.13815,-2.524404
3691007859000.0,1.144241895243603,9.996631343278224,-0.396019674525856,-0.0421497,0.0070249503,-0.02107485,309.98987,-75.26045,-2.4555283
3691012781000.0,1.1630429403994575,10.002506666055083,-0.4122355764329019,-0.045814894,0.008246681,-0.024740042,310.06488,-75.37962,-2.3914068
3691017763000.0,1.182073173427996,10.008453609995414,-0.4286491528857468,-0.04337143,0.0018325958,-0.03268129,310.14474,-75.49382,-2.3294713
3691022783000.0,1.201248558775901,10.014445914005943,-0.4451879232175977,-0.046120327,0.0021380284,-0.03481932,310.22235,-75.6035,-2.2690372
3691027999000.0,1.221172624507907,10.020672180483816,-0.4623724303990587,-0.062002823,-0.002443461,-0.038789943,310.30383,-75.70764,-2.2119849
3691032791000.0,1.2394770959396126,10.026392324073152,-0.4781600374568733,-0.06841691,-0.00580322,-0.04062254,310.38492,-75.811676,-2.1564565
3691037756000.0,1.2584423924042238,10.032318975350496,-0.4945176061217418,-0.07544186,-0.007330383,-0.05009095,310.46765,-75.90866,-2.105323
3691042797000.0,1.2776979935075683,10.038336346768244,-0.5111255625446224,-0.07666359,-0.010995574,-0.059253927,310.552,-76.00362,-2.0555642
3691047766000.0,1.296678569163692,10.04426777278982,-0.5274963095125441,-0.09101892,-0.015577064,-0.0720821,310.63794,-76.0906,-2.0105336
3691052785000.0,1.3158501347137188,10.050258883114294,-0.5440317852686317,-0.10903945,-0.021991149,-0.07788532,310.72552,-76.174446,-1.9668967
3691057887000.0,1.3353387434876254,10.05634906938157,-0.5608407108130746,-0.12675454,-0.021380283,-0.08246681,310.8132,-76.25229,-1.9277388
3691062884000.0,1.3544262734843349,10.062313918612768,-0.5773037059023692,-0.14874569,-0.029932396,-0.1020145,310.90656,-76.321594,-1.8943309
3691067801000.0,1.3732082196507989,10.068183272959336,-0.5935031349305985,-0.16523905,-0.040317107,-0.1133155,310.99988,-76.386314,-1.8607973
3691072808000.0,1.3923339476262888,10.074160059051112,-0.6099990757775262,-0.17898351,-0.04520403,-0.1160644,311.0947,-76.44403,-1.8309816
3691077865000.0,1.4116506654956824,10.080196529445786,-0.6266597454126199,-0.19853121,-0.046731193,-0.12370021,311.19238,-76.49381,-1.8059857
3691082815000.0,1.4305586649921227,10.086105275432264,-0.6429678954410386,-0.22052236,-0.05375614,-0.13439035,311.2932,-76.537895,-1.7826716
3691087794000.0,1.4495774386270268,10.09204863831442,-0.6593715881665936,-0.22540927,-0.051618114,-0.14202617,311.39197,-76.580345,-1.7618295
3691092843000.0,1.4688635981133955,10.098075559220629,-0.6760059011955806,-0.24862215,-0.0580322,-0.14630222,311.49536,-76.610466,-1.7426155
3691097807000.0,1.487825074780129,10.104001016811916,-0.6923601752846857,-0.25778514,-0.0693332,-0.15851954,311.60034,-76.64202,-1.7281376
3691103015000.0,1.5077185821291108,10.110217733801328,-0.7095183258600403,-0.2779437,-0.07544186,-0.16035213,311.70496,-76.66366,-1.7123853
3691107885000.0,1.5263209977953056,10.116030984903176,-0.7255629098273937,-0.28099802,-0.0852157,-0.1685988,311.81473,-76.68651,-1.7013067
3691112868000.0,1.545355050621722,10.121979122529565,-0.7419797808560018,-0.29016098,-0.06627888,-0.17379116,311.9178,-76.701675,-1.6918004
3691117798000.0,1.5641866541606009,10.127863994794886,-0.7582220393691541,-0.31948254,-0.057421334,-0.1826487,312.02686,-76.709595,-1.6847161
3691122817000.0,1.5833582197106275,10.13385510511936,-0.7747575151252418,-0.34147367,-0.050701816,-0.17745635,312.13034,-76.717155,-1.676571
3691127871000.0,1.602663478186387,10.139887994455856,-0.7914083010330455,-0.35185838,-0.043676864,-0.1863139,312.23248,-76.71883,-1.6756552
3691132848000.0,1.621674612225535,10.145828969965898,-0.8078054046070737,-0.39736784,-0.03573562,-0.19394971,312.33173,-76.70462,-1.6736786
3691137788000.0,1.6405444137431946,10.151725779091798,-0.8240806088778593,-0.4120286,-0.032070424,-0.20005837,312.43042,-76.696106,-1.6741009
3691142834000.0,1.6598191138359293,10.157749118939831,-0.8407050381795564,-0.44593164,-0.042760566,-0.19975294,312.53067,-76.66955,-1.6745278
3691147808000.0,1.6788187884814432,10.1636865133917,-0.8570922580262947,-0.47525316,-0.043982297,-0.21013765,312.62802,-76.63999,-1.6805359
3691152802000.0,1.6978948590845184,10.169647781564723,-0.8735453693882994,-0.5006041,-0.062002823,-0.21502456,312.7323,-76.602776,-1.6831751
3691157851000.0,1.7171810185708871,10.175674702470934,-0.8901796824172865,-0.52473325,-0.0580322,-0.22602014,312.83154,-76.557785,-1.6917455
3691162822000.0,1.736169233822767,10.181608515864626,-0.9065570185367348,-0.5561928,-0.06627888,-0.23671028,312.9391,-76.50426,-1.6995764
3691167793000.0,1.7551574490746464,10.18754232925832,-0.9229343546561832,-0.57971114,-0.07574729,-0.23365596,313.0453,-76.447266,-1.7067119
3691172891000.0,1.751028297511966,10.163447509630211,-0.8764012537462754,-0.59712076,-0.07666359,-0.24220806,313.15244,-76.383446,-1.7199105
3691177823000.0,1.7342906955954065,10.123843051652283,-0.7971923144053923,-0.61453044,-0.08368854,-0.25167647,313.26334,-76.314316,-1.731346
3691182809000.0,1.7173698352637017,10.083804968222042,-0.7171161239038426,-0.634689,-0.08674286,-0.26206118,313.3723,-76.33214,-1.6569343
3691187799000.0,1.700435400234579,10.043734764387924,-0.6369756925755767,-0.6542367,-0.09040806,-0.26083946,313.48257,-76.34451,-1.5832531
3691192815000.0,1.6834127296722383,10.003455777928618,-0.5564176958736567,-0.67347896,-0.09193522,-0.26328292,313.5933,-76.35016,-1.5151501
3691197870000.0,1.666257705810071,9.96286361753153,-0.4752333511112552,-0.6881397,-0.086132,-0.26389378,313.70203,-76.35121,-1.4481201
3691202796000.0,1.6495404659396384,9.923307340159411,-0.3961207730104462,-0.7107417,-0.07727446,-0.26145032,313.80954,-76.34421,-1.3826534
3691207878000.0,1.6322938128698985,9.88249836703617,-0.3145028026677113,-0.74067414,-0.081855945,-0.26389378,313.91882,-76.330574,-1.3197585
3691212854000.0,1.6154068892817393,9.842540584615614,-0.2345872142329518,-0.77121735,-0.09437868,-0.26175576,314.0267,-76.31043,-1.2564816
3691218610000.0,1.595872899697044,9.796319323439429,-0.1421446645885634,-0.8045095,-0.11362094,-0.26633725,314.1376,-76.280815,-1.1964407
3691222833000.0,1.5815414128978484,9.762408207048349,-0.0743224117830992,-0.8368854,-0.11728613,-0.25778514,314.2459,-76.24339,-1.1337913
3691227837000.0,1.5645594664277622,9.722225581800668,0.0060428624386726,-0.8509353,-0.15790866,-0.2574797,314.37,-76.20186,-1.0723169
3691232805000.0,1.5476996922344393,9.682332040187864,0.0858299692200001,-0.8881981,-0.17806722,-0.25320363,314.4878,-76.14533,-1.0098752
3691237794000.0,1.530768650879671,9.642269866454711,0.165954340341587,-0.91324353,-0.19486602,-0.25259277,314.61536,-76.08893,-0.9472639
3691242877000.0,1.5135186041355766,9.6014528632305,0.2475883708910007,-0.95142263,-0.21685717,-0.24801129,314.7486,-76.01915,-0.88204616
3691247810000.0,1.4967776085446622,9.561840375151602,0.3268133704385629,-0.9896017,-0.226631,-0.25350907,314.88287,-75.94307,-0.820554
3691252800000.0,1.4798431735155395,9.521770171317485,0.4069538017668286,-1.0338894,-0.2321288,-0.25473082,315.02057,-75.8557,-0.75679153
3691257857000.0,1.462681362304663,9.48116195071846,0.4881702669425882,-1.0735956,-0.23640485,-0.2443461,315.1593,-75.7602,-0.692084
3691262856000.0,1.4457163842063496,9.441019475975624,0.568455240130965,-1.1145236,-0.226631,-0.24190263,315.29535,-75.65318,-0.6318189
3691267860000.0,1.4287344377362634,9.400836850727943,0.648820514352737,-1.1435398,-0.22052236,-0.2415972,315.43213,-75.54012,-0.57003474
3691272873000.0,1.4117219481969865,9.360581954571543,0.7293303304346199,-1.1884383,-0.21197024,-0.226631,315.56335,-75.412994,-0.5056233
3691277879000.0,1.3947332143781912,9.320383269121926,0.8097277250697499,-1.2431108,-0.20616703,-0.23060162,315.6941,-75.27667,-0.44784802
3691282959000.0,1.3774933486571603,9.27959035620062,0.8913135749991268,-1.2745703,-0.20372356,-0.20311269,315.81915,-75.136856,-0.37881875
3691288789000.0,1.3577082271702294,9.232774867552743,0.984944579937762,-1.31672,-0.19883664,-0.18661933,315.94208,-74.98072,-0.31570828
3691292880000.0,1.3438247053858323,9.19992372448954,1.050646885461597,-1.3683381,-0.21288654,-0.15699236,316.06573,-74.81575,-0.2414069
3691297869000.0,1.3268936640310642,9.159861550756393,1.1307712565831836,-1.409877,-0.23396139,-0.12461651,316.18762,-74.6444,-0.16292757
3691302853000.0,1.3099795910480687,9.119839527528088,1.2108153266713753,-1.4624114,-0.2669481,-0.09132435,316.31345,-74.45816,-0.075473614
3691307853000.0,1.2930112192754006,9.07968902268428,1.2911163600664308,-1.5280794,-0.31612277,-0.06383542,316.4466,-74.25933,0.02059473
3691312841000.0,1.276083571594987,9.039634879052102,1.371224670981339,-1.6059648,-0.35613444,-0.047036625,316.58356,-74.04518,0.12301179
3691317860000.0,1.2590507200095828,8.99933180228989,1.451830848303296,-1.6960673,-0.38148534,-0.04184427,316.7277,-73.81219,0.23060827
3691322853000.0,1.2421061039573964,8.959237508152865,1.5320194602515984,-1.8099937,-0.39064834,-0.03940081,316.8761,-73.55387,0.34200156
3691327878000.0,1.225052890325865,8.91888625078484,1.61272199881363,-1.8723019,-0.37812558,-0.0421497,317.02426,-73.28881,0.45172438
3691332998000.0,1.207677277630653,8.877772133824784,1.694950257010167,-1.9862283,-0.37843102,-0.06078109,317.17828,-72.9813,0.55769205
3691337864000.0,1.1911636582214924,8.838697662510793,1.7730992227102356,-2.0891593,-0.38056904,-0.057421334,317.3265,-72.66406,0.66631866
3691342873000.0,1.1741647433796336,8.79847488675827,1.8535447979654025,-2.1740694,-0.37598756,-0.059253927,317.47363,-72.32531,0.7663
3691347808000.0,1.1574169604400102,8.758846338477433,1.9328019179263227,-2.2177463,-0.4538729,-0.06261369,317.64243,-71.97504,0.87261415
3691352852000.0,1.1402992669957426,8.718342509191002,2.0138096004152546,-2.1988094,-0.5897904,-0.041233405,317.82236,-71.62456,0.9887224
3691357843000.0,1.1233614382922652,8.678264275255916,2.0939660919501994,-2.169488,-0.7715228,-0.005497787,318.03333,-71.27096,1.1177118
3691363058000.0,1.1056634265333725,8.636387298703827,2.177720069781243,-2.1084013,-1.0048733,0.05681047,318.28903,-70.93739,1.2753783
3691367860000.0,1.089367002282902,8.597826753851836,2.2548411822538545,-2.0201313,-1.2782356,0.13713925,318.59775,-70.62493,1.4663421
3691372895000.0,1.0982515412076064,8.533720051475113,2.3230977732238363,-1.9358319,-1.5592335,0.1908954,318.96588,-70.33351,1.687152
3691377844000.0,1.1255199733764252,8.453811688002482,2.381191386999895,-1.8719965,-1.7876972,0.23609942,319.38425,-70.06466,1.9449387
3691382873000.0,1.1532291965279688,8.372611615279938,2.440224077175648,-1.8420641,-1.9208658,0.2565634,319.8419,-69.435905,2.1399226
3691387848000.0,1.1806408857661732,8.292283446301086,2.4986228907816077,-1.883603,-1.9275852,0.28863382,320.30786,-68.81834,2.357147
3691392822000.0,1.2080470651170934,8.211971423687858,2.5570099659325707,-1.9587394,-1.7886134,0.31642818,320.75552,-68.21374,2.5734918
3691397836000.0,1.2356736399593762,8.131013546449672,2.615866579283381,-2.0271564,-1.6038266,0.26145032,321.18558,-67.61548,2.7682066
3691402801000.0,1.2630302303247398,8.05084684112706,2.6741480083393787,-2.0485365,-1.3698653,0.17165314,321.55533,-67.02412,2.9374025
3691407882000.0,1.2910259676150546,7.968807157392074,2.7337910981749327,-2.0222695,-1.0622946,0.07971791,321.8535,-66.44327,3.060219
3691412831000.0,1.3182943997838734,7.888898793919443,2.7918847119509915,-2.02624,-0.75961095,-0.007941248,322.0934,-65.86467,3.1328273
3691417809000.0,1.34572261868393,7.808522185843719,2.8503187409219395,-1.9770653,-0.63132924,-0.12339478,322.30695,-65.32582,3.1584985
3691422823000.0,1.3733491935262128,7.727564308605534,2.9091753542727496,-1.930945,-0.41905355,-0.17806722,322.41913,-64.79771,3.1328452
3691428159000.0,1.4027499520739632,7.641407301636457,2.971811750132328,-1.8145752,-0.25900686,-0.31887165,322.53387,-64.32164,3.0471308
3691432816000.0,1.428409497155836,7.566213676926002,3.026477735049504,-1.6212363,-0.10598512,-0.3494149,322.58792,-63.888348,2.95331
3691437799000.0,1.4558652654923128,7.485756337022158,3.0849704562954328,-1.5757269,0.041233405,-0.39400807,322.62167,-63.459778,2.803828
3691442823000.0,1.4835469392074363,7.404636996127735,3.143944454196205,-1.496009,0.18570304,-0.44104472,322.6222,-63.10371,2.6308606
3691447807000.0,1.5110082174311972,7.324163509858267,3.20244891389713,-1.4905112,0.24648413,-0.48899764,322.6141,-62.74687,2.442749
3691452805000.0,1.538546634076935,7.243463974470065,3.261117711968001,-1.509448,0.25870144,-0.5119051,322.58664,-62.411575,2.241948
3691457869000.0,1.566448703283421,7.161698778950687,3.3205612480686204,-1.5549575,0.2125811,-0.50854534,322.56378,-62.0759,2.0409622
3691462884000.0,1.5940807880129877,7.080724755346878,3.3794295998744266,-1.5888605,0.10903945,-0.4709771,322.55313,-61.74313,1.8545802
3691467856000.0,1.6214759475893397,7.000445025464897,3.437793198115398,-1.6328428,0.008857546,-0.41141775,322.55164,-61.399662,1.6857245
3691472879000.0,1.649152111417179,6.919341830936098,3.496755457561173,-1.6548339,-0.09132435,-0.3594942,322.57343,-61.05842,1.5430924
3691477859000.0,1.6765913500918035,6.8389329301291255,3.5552129634421137,-1.6404786,-0.18906279,-0.30604348,322.61203,-60.720657,1.4331053
3691482893000.0,1.7043281226797675,6.757652125578463,3.614304345892848,-1.5848899,-0.24281894,-0.24281894,322.65625,-60.394444,1.349426
3691487939000.0,1.7321310139151402,6.676177564640315,3.6735365898035353,-1.4837917,-0.26389378,-0.20952678,322.7131,-60.09198,1.2829951
3691492937000.0,1.759669430560878,6.595478029252113,3.732205387874407,-1.3475688,-0.20769419,-0.17592919,322.75464,-59.821255,1.2306008
3691497892000.0,1.7869709220534011,6.515472787585738,3.790369432380442,-1.2076806,-0.12064589,-0.19150625,322.79556,-59.58659,1.1740004
3691502878000.0,1.8144432200517304,6.434967008585023,3.84889736899136,-1.0708468,0.018020526,-0.23151793,322.80832,-59.394794,1.105235
3691507869000.0,1.84194306748648,6.354380497756187,3.907483997877258,-0.95142263,0.19792034,-0.30451632,322.7967,-59.242386,1.0072707
3691513016000.0,1.8703024573375424,6.271275153890025,3.96790182574256,-0.85154617,0.3998113,-0.3894266,322.75372,-59.126736,0.8751801
3691517815000.0,1.896744406413752,6.193788745260978,4.024234671269193,-0.7733554,0.4978552,-0.43401974,322.698,-59.04105,0.72709644
3691522874000.0,1.9246189261838171,6.112104281569719,4.083619515094831,-0.7296785,0.6835582,-0.52015173,322.59125,-58.975613,0.5097676
3691527900000.0,1.9523116196735089,6.030952647944048,4.142616989905595,-0.6597345,0.8054258,-0.5870415,322.48172,-58.940147,0.28605637
3691532821000.0,1.979425774998374,5.951496382708886,4.200381926941761,-0.59681535,0.8979719,-0.6258314,322.34454,-58.914734,0.031014182
3691537798000.0,2.0068484840111465,5.871135920998785,4.258804217457713,-0.54367006,0.92087936,-0.6337727,322.20224,-58.905403,-0.23389363
3691543755000.0,2.039670882562299,5.774952020977272,4.328730193869914,-0.5006041,0.8741482,-0.6377433,322.0619,-58.909466,-0.5036254
3691547927000.0,2.062658132311402,5.707589383594403,4.377703028113947,-0.4474588,0.80909103,-0.6059783,321.91867,-58.929855,-0.7601541
3691552804000.0,2.0895298525957684,5.628843558446691,4.4349514731302815,-0.39920044,0.7144069,-0.57971114,321.79773,-58.959213,-1.0010784
3691557851000.0,2.117338253718425,5.547352851142919,4.494195455495966,-0.36285394,0.5708536,-0.55833083,321.70267,-58.998608,-1.2125822
3691562965000.0,2.1455158172891142,5.464780337342345,4.554225914346393,-0.30604348,0.43035457,-0.5534439,321.63025,-59.055706,-1.4028987
3691567811000.0,2.1722167310676745,5.386535049528975,4.611110467257847,-0.2507602,0.32375857,-0.5503896,321.58307,-59.121037,-1.5678862
3691572832000.0,2.091244830405628,5.408596265806909,4.65237665483576,-0.23518312,0.28069258,-0.54305923,321.55426,-59.18932,-1.7156942
3691577816000.0,1.9364620726613169,5.501132027766396,4.681234459110896,-0.22693644,0.27855456,-0.5421429,321.5426,-59.26904,-1.8516755
3691582801000.0,1.781648258986479,5.593686356291285,4.710098053475171,-0.24587326,0.34513888,-0.54611355,321.51474,-58.99547,-1.8732657
3691587799000.0,1.626430718214796,5.686482050166389,4.739036918998271,-0.31642818,0.44623706,-0.5503896,321.47498,-58.716274,-1.8990206
3691592845000.0,1.4697224927778387,5.780168939180749,4.768253708800104,-0.408058,0.60994893,-0.5674938,321.40286,-58.431915,-1.947235
3691597809000.0,1.3155608536440584,5.872333369832212,4.796995711292434,-0.48502702,0.79412484,-0.6047566,321.3025,-58.137867,-2.0182652
3691602802000.0,1.1604985925250082,5.96503623088031,4.825905626369832,-0.48991394,0.94897914,-0.64965516,321.172,-57.844826,-2.1132958
3691607856000.0,1.0035419196438384,6.0588716524178805,4.855168736884787,-0.43401974,1.0754282,-0.68752885,321.00842,-57.55383,-2.2359838
3691613936000.0,0.8147218620424315,6.171756370057062,4.890372478857666,-0.35521814,1.1695015,-0.7180721,320.8221,-57.27424,-2.3823237
3691617838000.0,0.6935416211278442,6.244203108252471,4.912965406683022,-0.27580565,1.2018774,-0.7318166,320.6252,-57.016724,-2.5388212
3691622823000.0,0.5387278074530064,6.33675743677736,4.9418290010472985,-0.25350907,1.2370021,-0.73823065,320.41095,-56.770477,-2.7106047
3691627838000.0,0.3829823158623722,6.429868762264283,4.970866298085783,-0.26236662,1.2159272,-0.72418076,320.20367,-56.54311,-2.8716471
3691632806000.0,0.2286964530064856,6.522107459177351,4.9996314609346735,-0.31795537,1.0684034,-0.72295904,320.02368,-56.31297,-3.0173957
3691637807000.0,0.0733857444432231,6.614958852748659,5.028587696725194,-0.4129449,0.86529064,-0.75991637,319.86792,-56.07297,-3.1514704
3691642835000.0,-0.0827634742442562,6.708311543585798,5.057700264922502,-0.5375614,0.57543504,-0.7800749,319.7663,-55.814217,-3.2395015
3691647807000.0,-0.2371735608222493,6.800624506760471,5.0864885881279545,-0.73761976,0.25350907,-0.7849618,319.72397,-55.512115,-3.2913637
3691652796000.0,-0.3921115982191931,6.893253101546963,5.115375342848791,-0.96944314,0.020463986,-0.7635816,319.72662,-55.172424,-3.3070564
3691657888000.0,-0.5502483964603715,6.987794052569779,5.144858476751077,-1.2287555,-0.10567969,-0.7690793,319.78192,-54.775215,-3.294477
3691662921000.0,-0.7065528948004838,7.081239576233923,5.173999995394086,-1.4605788,0.070249505,-0.78893244,319.81564,-54.329582,-3.2920346
3691667801000.0,-0.8581058357700342,7.171844415391687,5.202255630398633,-1.6310102,0.34880406,-0.795652,319.8491,-53.83901,-3.2852037
3691672788000.0,-1.012981761305925,7.264435877047378,5.2311308049411895,-1.6969837,0.634689,-0.79229224,319.83795,-53.324238,-3.3114362
3691677826000.0,-1.16944153929867,7.357974233538529,5.260301274029899,-1.7018706,0.8167268,-0.7254025,319.77454,-52.792892,-3.352866
3691683062000.0,-1.3320503915356712,7.455188769979114,5.290618180768385,-1.6471981,0.9465357,-0.62888575,319.65082,-52.2736,-3.4243631
3691687805000.0,-1.4793486700230845,7.543249989676917,5.318080573560714,-1.5512923,0.91538155,-0.5497787,319.51364,-51.77853,-3.4852715
3691692827000.0,-1.635311553127405,7.636491281121648,5.34715840122318,-1.4367551,0.82558435,-0.47678033,319.3448,-51.318325,-3.5349987
3691697867000.0,-1.7918334429812028,7.730066770743601,5.376340450490171,-1.3518448,0.7370089,-0.4260785,319.17285,-50.888935,-3.5642352
3691702856000.0,-1.9467714803781464,7.822695365530095,5.405227205211008,-1.2745703,0.6649268,-0.3735441,319.00378,-50.501186,-3.5621228
3691707947000.0,-2.1048772226887986,7.917217749987508,5.434704549024153,-1.2293663,0.5882632,-0.3032946,318.84256,-50.13849,-3.5272424
3691712945000.0,-2.260094763460481,8.010013443862611,5.463643414547253,-1.1976013,0.5720753,-0.23609942,318.67413,-49.802498,-3.4792588
3691717860000.0,-2.4127346619984613,8.101268112809418,5.492101702671709,-1.2030991,0.5900958,-0.21471913,318.5098,-49.475853,-3.4188263
3691722887000.0,-2.5688528247554143,8.194602237081156,5.521208480779877,-1.2070698,0.6301075,-0.19211712,318.33075,-49.166313,-3.3455436
3691727882000.0,-2.723977197735517,8.287342231260055,5.550129976035556,-1.2067643,0.68325275,-0.16401732,318.13934,-48.86273,-3.2733092
3691732896000.0,-2.8796916333956246,8.380434990181579,5.5791614829849,-1.20371,0.71959925,-0.14874569,317.94073,-48.564457,-3.2042584
3691737861000.0,-3.033884328459932,8.472617987398444,5.60790927556637,-1.2308935,0.7254025,-0.16615535,317.7381,-48.262783,-3.1411567
3691742891000.0,-3.1900956590084646,8.566007811366385,5.637033423941959,-1.2574661,0.70157874,-0.1957823,317.53366,-47.967293,-3.0791695
3691747808000.0,-3.342797669407497,8.657299613443993,5.665503292244695,-1.2599095,0.6844745,-0.21288654,317.32776,-47.676,-3.0210257
3691753264000.0,-3.512238826360339,8.758598794272837,5.697094018594042,-1.2663237,0.6236934,-0.2507602,317.14615,-47.38024,-2.9610434
3691757921000.0,-3.656866294822469,8.845063289346138,5.724058463720307,-1.2739595,0.5479461,-0.3032946,316.97766,-47.088066,-2.9018614
3691762882000.0,-3.8109347661646695,8.937172020301398,5.752783095945216,-1.2837334,0.5174029,-0.33475417,316.8158,-46.79847,-2.8436754
3691767859000.0,-3.965500132395296,9.029577816303076,5.7816003695963705,-1.3072516,0.41141775,-0.3848451,316.69934,-46.5068,-2.771502
3691772893000.0,-3.999507925367488,9.012455332553474,5.797145505796675,-1.3487904,0.3051272,-0.4279111,316.59372,-46.212242,-2.6988063
3691777878000.0,-3.9438994167259858,8.914783963602153,5.802611298204001,-1.3860532,0.21166481,-0.44837508,316.5122,-45.917393,-2.6142826
3691782854000.0,-3.8883913045895535,8.817288932127372,5.808067222580902,-1.4248432,0.09162979,-0.47219884,316.54376,-45.878834,-3.0109463
3691787863000.0,-3.832515071934532,8.719147329905272,5.813559329736026,-1.4721853,0.03848451,-0.44959682,316.5825,-45.82092,-3.3777893
3691792881000.0,-3.77653844277444,8.62082939020663,5.819061304921574,-1.4963144,-0.035124753,-0.43463063,316.66205,-45.752846,-3.7065504
3691797867000.0,-3.720918778965708,8.523138428202358,5.824528193776724,-1.529912,-0.038789943,-0.38362336,316.73117,-45.66654,-4.011712
3691802863000.0,-3.665187563484676,8.425251535668597,5.830006047110124,-1.5421293,-0.038179077,-0.344528,316.8179,-45.577126,-4.2894793
3691807859000.0,-3.609456348003644,8.327364643134835,5.835483900443523,-1.5613716,-0.03604105,-0.30970868,316.89923,-45.47594,-4.5454273
3691812900000.0,-3.553223149997262,8.228596063218362,5.841011093929046,-1.5519031,0.0125227375,-0.269697,316.96524,-45.379845,-4.7909513
3691817860000.0,-3.49789352053651,8.131414520590768,5.846449475140748,-1.5393804,0.09682214,-0.2275473,317.01895,-45.279903,-5.0266795
3691822956000.0,-3.441046788332479,8.031568322762094,5.8520369732566415,-1.5143349,0.19272798,-0.21594086,317.06134,-45.18616,-5.2632513
3691827888000.0,-3.386029503554166,7.934935385617076,5.857444653929245,-1.4837917,0.28313604,-0.22296582,317.0859,-45.097942,-5.5017114
3691832940000.0,-3.329673598708254,7.835951282118164,5.8629839083408415,-1.452943,0.42913285,-0.21930063,317.07813,-45.017254,-5.756872
3691837857000.0,-3.274823641438392,7.739612240767381,5.86837514229607,-1.4107933,0.57543504,-0.22388211,317.05814,-44.947186,-6.024141
3691842877000.0,-3.21882470194384,7.64125511496284,5.873879310377269,-1.3939945,0.627664,-0.24129178,317.03308,-44.87739,-6.2939506
3691847807000.0,-3.163829727499988,7.54466136392372,5.879284798154223,-1.3878858,0.65118235,-0.25686884,316.9884,-44.815174,-6.5776534
3691852853000.0,-3.107540753657456,7.4457948187425025,5.884817473878869,-1.3866642,0.5983425,-0.28680122,316.95905,-44.753735,-6.8527822
3691857993000.0,-3.0502031940953054,7.345086526584068,5.89045321569906,-1.3967434,0.49632803,-0.32925636,316.9444,-44.688496,-7.118566
3691862918000.0,-2.995263995487603,7.248590740809693,5.895853221236889,-1.4208726,0.37965274,-0.36377025,316.9514,-44.61795,-7.366089
3691868838000.0,-2.92922540548606,7.132599867350952,5.902344192360533,-1.4498887,0.21624629,-0.41996986,317.00464,-44.53978,-7.588552
3691872892000.0,-2.8840023575356786,7.053169630695253,5.90678919184284,-1.5054774,0.1386664,-0.41599923,317.06097,-44.449223,-7.792486
3691877892000.0,-2.8282265213857265,6.955204365949694,5.91227143096754,-1.5506815,0.06383542,-0.43188173,317.16687,-44.350594,-7.973605
3691883049000.0,-2.770699323980666,6.854162991891125,5.917925812400754,-1.602605,0.030543262,-0.4382958,317.27814,-44.23704,-8.139589
3691887859000.0,-2.717042969604412,6.7599204072058985,5.923199726438715,-1.6487253,-0.01160644,-0.46120325,317.41333,-44.11301,-8.290686
3691892944000.0,-2.6603189442399118,6.660289732959665,5.928775163628535,-1.6780468,0.015577064,-0.4428773,317.53387,-43.98403,-8.437862
3691897812000.0,-2.606015590164318,6.564910751203389,5.934112671640342,-1.6786577,0.018325957,-0.44806966,317.67706,-43.85085,-8.577024
3691902794000.0,-2.5504405470245057,6.467298161410914,5.939575174704192,-1.6710218,0.0027488936,-0.47128254,317.81793,-43.715202,-8.7140045
3691907998000.0,-2.492389056759636,6.3653359138637375,5.94528108918518,-1.6533068,0.086132,-0.42455134,317.92426,-43.589554,-8.854982
3691912903000.0,-2.437672961496533,6.269231989148345,5.95065916576651,-1.6453656,0.11148291,-0.4092797,318.0562,-43.46346,-8.988384
3691917799000.0,-2.3830572627385003,6.173304401909494,5.956027374317416,-1.6551393,0.1255328,-0.4334089,318.1718,-43.340786,-9.131278
3691922797000.0,-2.327303736923008,6.075378323269833,5.961507420546465,-1.6789632,0.20769419,-0.42210788,318.25784,-43.222424,-9.279521
3691927820000.0,-2.2712713319267666,5.976962418306445,5.967014877971138,-1.702176,0.24220806,-0.43768495,318.3611,-43.101246,-9.427305
3691932930000.0,-2.214268427381516,5.876841917736485,5.972617726356581,-1.7461584,0.2144137,-0.47983465,318.46356,-42.96955,-9.577983
3691938813000.0,-2.1486425785674816,5.76157598723686,5.979068128910702,-1.7993035,0.29626966,-0.47800204,318.531,-42.833767,-9.748354
3691942845000.0,-2.103664944296161,5.682576797746042,5.98348900654086,-1.8319849,0.30390546,-0.4804455,318.62848,-42.69194,-9.902663
3691947811000.0,-2.0482683838320286,5.585277696800754,5.988933966439512,-1.8319849,0.28863382,-0.47800204,318.71246,-42.54863,-10.063046
3691952853000.0,-1.992024030658417,5.486489523831332,5.9944622563728585,-1.8304577,0.26450464,-0.47586402,318.79703,-42.400417,-10.219001
3691957860000.0,-1.9361701083378549,5.388387107715129,5.999952170632333,-1.8280143,0.22571471,-0.48655418,318.8895,-42.25565,-10.366344
3691962939000.0,-1.8795130139767335,5.288873991786591,6.005521029135203,-1.8154916,0.24801129,-0.45265114,318.9642,-42.12122,-10.508111
3691967861000.0,-1.8246072808707208,5.192436985171064,6.010917745329556,-1.7971655,0.26328292,-0.44257188,319.0548,-41.9905,-10.643437
3691972818000.0,-1.7141122393777777,5.127685890370371,5.899108575851852,-1.8099937,0.26297748,-0.43951756,319.138,-41.86006,-10.771317
3691977823000.0,-1.5152835352296297,5.113484048395062,5.600865692641976,-1.8286251,0.22693644,-0.43982297,319.22345,-41.736893,-10.890084
3691982777000.0,-1.5147229634054302,4.923870457100782,5.5074061852001845,-1.8231273,0.18417588,-0.44348818,319.2552,-41.365948,-10.923117
3691987872000.0,-1.8784873935020707,4.4029238936401285,5.785842987915324,-1.8170186,0.23701571,-0.38820487,319.26047,-41.00336,-10.954669
3691992804000.0,-2.202207249807341,3.936755087649564,6.061431012350436,-1.8112154,0.21624629,-0.3998113,319.30707,-40.697685,-10.937344
3691997863000.0,-2.4085405808152505,3.627254885946056,6.370931214053944,-1.8194622,0.27977628,-0.40744713,319.3115,-40.402058,-10.935949
3692002812000.0,-2.568614339123569,3.452113692459534,6.625254064547967,-1.7980819,0.33383787,-0.37843102,319.31866,-39.988895,-10.996616
3692007923000.0,-2.578276409198579,3.746800877339124,6.707380146861429,-1.8139644,0.35521814,-0.43096542,319.33804,-39.565716,-11.077601
3692013159000.0,-2.6362009338783854,3.911296079959121,6.865420566888094,-1.8371773,0.32589662,-0.46089783,319.33942,-39.086636,-11.173822
3692018075000.0,-2.828656933060808,3.67072588002044,7.226275816555953,-1.8903224,0.4251622,-0.4166101,319.30664,-38.605648,-11.295365
3692022843000.0,-2.9697476427558924,3.503973116268337,7.504065147024889,-1.9285016,0.4156938,-0.4456262,319.3277,-38.157352,-11.392031
3692027872000.0,-2.973716839236855,3.5396955944783253,7.567571710482941,-1.9422461,0.33078352,-0.5180137,319.343,-37.710556,-11.489633
3692032839000.0,-2.977637101499917,3.57497766830394,7.630295333608044,-1.9434677,0.4156938,-0.49418998,319.31027,-37.203434,-11.628524
3692037852000.0,-3.016752684884638,3.493484546844804,7.807264542496549,-1.9104811,0.4092797,-0.49296826,319.3302,-36.70562,-11.741221
3692042891000.0,-3.064334567738119,3.384046280871623,8.011866226385328,-1.892766,0.40194935,-0.5137377,319.33347,-36.213657,-11.868227
3692047815000.0,-3.077450275336641,3.308735926860382,8.12658868107725,-1.8463402,0.39187005,-0.5216789,319.33795,-35.744358,-11.985709
3692052770000.0,-3.08165421181786,3.241474260046066,8.219073527817152,-1.8316795,0.38026363,-0.5366451,319.34927,-35.279064,-12.101971
3692057846000.0,-2.946615750908357,3.1422114143520385,8.28255814200646,-1.8026633,0.37384954,-0.5342017,319.3614,-34.8051,-12.214141
3692062813000.0,-2.687363215987081,3.0173862125958824,8.316164599313685,-1.7959439,0.3173445,-0.5299256,319.3858,-34.33794,-12.31034
3692067794000.0,-2.814341754738578,2.612372474410709,8.530027296925017,-1.7870862,0.24862215,-0.52015173,319.43512,-33.85035,-12.400056
3692072787000.0,-3.278179201086429,1.9630001076438064,8.901097428363565,-1.8075503,0.20097467,-0.54244834,319.49515,-33.36486,-12.482249
3692077833000.0,-3.5638314128561293,1.6184803,8.923407628307817,-1.8191566,0.2864958,-0.52564955,319.55878,-32.86329,-12.53505
3692082807000.0,-3.645935848545068,1.6184803,8.561182621717531,-1.7672331,0.31673363,-0.52656585,319.6457,-32.381756,-12.567382
3692087788000.0,-3.732400409052011,1.5912824193020825,8.341175607872968,-1.7519615,0.3555236,-0.55863625,319.74918,-31.741087,-12.69457
3692092834000.0,-3.824298447009604,1.5361436061234193,8.263062165256253,-1.72264,0.4129449,-0.59650993,319.84433,-31.132374,-12.829288
3692097807000.0,-3.910582330950634,1.5575173502148625,8.306831389476995,-1.7214183,0.4905248,-0.6478226,319.99655,-30.5278,-13.003958
3692102801000.0,-3.990786148915208,1.6928613977151243,8.532405150927577,-1.7513506,0.5207626,-0.67164636,320.1478,-29.93613,-13.176665
3692107871000.0,-3.824841900442901,1.7851317120798955,8.760762563004777,-1.7690657,0.5681047,-0.71929383,320.30383,-29.35207,-13.395175
3692112909000.0,-3.4100311373686494,1.831221821172384,8.987022796265741,-1.8044959,0.49571714,-0.7996226,320.48648,-28.76438,-13.592767
3692117808000.0,-3.052019027595269,1.898284169908016,9.144164021024968,-1.8512272,0.55833083,-0.7742717,320.73553,-28.132029,-13.823264
3692122789000.0,-2.8832558699585564,2.0622254295360354,9.033262380774286,-1.7938058,0.50243664,-0.73364913,321.02362,-27.531954,-14.008318
3692127858000.0,-2.758914513831368,2.231461481868622,8.918809573714455,-1.8038851,0.473726,-0.7180721,321.31055,-26.88655,-14.1417465
3692132811000.0,-2.8059114319528384,2.405349764846924,8.801317769146934,-1.8096883,0.49174652,-0.7107417,321.58185,-26.278994,-14.263222
3692137801000.0,-2.910418886643217,2.572328021865196,8.813492885730582,-1.8148806,0.5213735,-0.6930266,321.8848,-25.700832,-14.347378
3692142823000.0,-3.26247645962544,2.704921187090028,9.389587039642551,-1.8026633,0.5861252,-0.66706485,322.165,-25.1445,-14.439719
3692148130000.0,-3.6349251977174095,2.8032523594948797,10.00337281131748,-1.7641789,0.5458081,-0.64965516,322.47278,-24.632927,-14.51361
3692152798000.0,-3.9647190736070126,2.667454843056761,10.56984243048082,-1.7415768,0.4007276,-0.6365216,322.76782,-24.13801,-14.571079
3692157845000.0,-4.32128927318174,2.520631778475959,11.18230433449054,-1.7672331,0.19730948,-0.68691796,323.0918,-23.615255,-14.641174
3692162867000.0,-4.438552269652913,2.3032146241732363,11.298536977884714,-1.8390098,-0.014049901,-0.7312057,323.4178,-23.10367,-14.666106
3692167842000.0,-4.4922115183986895,2.069064800020477,11.283902827173131,-1.8616118,-0.13805555,-0.66981375,323.72974,-22.618578,-14.652976
3692172801000.0,-4.323139217291391,1.7633433048207536,11.054984385558166,-1.8866574,-0.12705997,-0.5702427,324.04294,-22.042587,-14.667909
3692177794000.0,-4.108253317638648,1.441014429843734,10.78149282330712,-1.8118263,-0.047036625,-0.42241332,324.31982,-21.514673,-14.655232
3692182825000.0,-4.171080797046814,1.712019472215364,10.9318715665179,-1.7116444,0.08002335,-0.28221974,324.56125,-20.967447,-14.663432
3692187769000.0,-4.274489737660241,2.067206225382205,11.143185196752446,-1.5167783,0.30543262,-0.14538592,324.7337,-20.49469,-14.70234
3692192815000.0,-4.616453781771083,2.330596836572964,11.698118744027632,-1.2794572,0.4783075,-0.06078109,324.86664,-20.03854,-14.743273
3692197779000.0,-5.026943482087691,2.558646701832486,12.350341575841888,-1.1078042,0.5360342,-0.09193522,324.97687,-19.632582,-14.808764
3692202942000.0,-5.528446932499015,2.6536154698167125,13.427824227433977,-1.0537425,0.5534439,-0.13194689,325.07104,-19.315624,-14.896866
3692207841000.0,-6.0370049391013,2.681354922841939,14.62524641978715,-1.0390818,0.3924809,-0.21166481,325.19397,-19.038109,-14.956854
3692212824000.0,-6.476472043885812,2.4699265964635706,15.095789280357904,-1.0522153,0.1591304,-0.27275133,325.34558,-18.764048,-15.0344
3692217905000.0,-6.882833840818066,2.1257629939923306,15.174574006391138,-1.0311406,0.007330383,-0.30665436,325.5157,-18.507895,-15.093285
3692222816000.0,-7.2716630096972175,1.6442307138502454,15.192830203968905,-0.95814216,-0.065973446,-0.34208453,325.71634,-18.20088,-15.149403
3692227828000.0,-7.659543104705401,0.814461558408347,15.079902809942718,-0.8891144,-0.14508049,-0.36713,325.93262,-17.907856,-15.163858
3692232800000.0,-8.002177090750658,0.1634350716982844,15.068513846963784,-0.88117313,-0.2706133,-0.37110063,326.1737,-17.561556,-15.21116
3692237791000.0,-8.266829022274667,-0.1662949922056821,15.2463949534356,-0.895223,-0.44104472,-0.3662137,326.42496,-17.238533,-15.223424
3692242858000.0,-8.448242957700765,-0.4493368448853523,15.35466707465187,-0.9431759,-0.66431594,-0.3304781,326.688,-16.811771,-15.245081
3692247898000.0,-8.145025560569573,-0.44428321456392,15.061556589885877,-0.9776898,-0.8552113,-0.27672195,326.94922,-16.400318,-15.223726
3692252798000.0,-7.791386308618919,-0.4975879420954338,14.695707458212718,-0.95539325,-1.0064005,-0.20311269,327.2116,-15.950669,-15.178226
3692257856000.0,-7.230503418096928,-0.7463667277150061,14.048882823419554,-0.883922,-1.0467176,-0.14538592,327.45972,-15.522717,-15.105829
3692263168000.0,-6.566153341631816,-1.0188363958179585,13.295975095530956,-0.80481493,-1.0323622,-0.11026118,327.6867,-15.1218,-14.981287
3692267913000.0,-5.604773813669537,-1.3169385403444034,12.26379654899549,-0.72082096,-0.9947941,-0.08124508,327.89047,-14.757375,-14.849116
3692272768000.0,-4.621107299811397,-1.6219513773677738,11.207689732677329,-0.63316184,-0.90194255,-0.046120327,328.04843,-14.41049,-14.6902275
3692277878000.0,-4.028309943295419,-1.8300834782844624,10.491741395387663,-0.5183192,-0.7816021,-0.0143553335,328.18594,-14.104395,-14.549988
3692282867000.0,-3.67930567953668,-1.974670976833977,9.998149528957528,-0.398895,-0.66798115,0.0027488936,328.30463,-13.832739,-14.434364
3692287852000.0,-3.6652516337016574,-2.123813678601026,9.672969047158642,-0.27030787,-0.5494733,0.04734206,328.34628,-13.583353,-14.251165
3692292901000.0,-3.76543104640884,-2.2764680715864247,9.401053299131808,-0.15118915,-0.464563,0.08368854,328.37424,-13.368506,-14.091784
3692297936000.0,-3.878770217450192,-2.4384838877122386,9.137829199627047,-0.08979719,-0.45356745,0.090713486,328.38354,-13.167404,-13.920849
3692302851000.0,-3.994262442693101,-2.6001730609382667,8.883746033958191,-0.02107485,-0.42241332,0.087964594,328.37424,-13.004968,-13.778671
3692308191000.0,-3.880788950953624,-2.5592704404838384,8.71477274713913,0.008246681,-0.38423425,0.086437434,328.36963,-12.834272,-13.6653185
3692312820000.0,-3.69388840606304,-2.443570114234089,8.60797258181088,0.05497787,-0.33322698,0.089186326,328.35904,-12.688853,-13.5652
3692317840000.0,-3.65167248172043,-2.425841248809524,8.372677667050691,0.08307768,-0.1518,0.052839845,328.36227,-12.527406,-13.5397415
3692322796000.0,-3.683569404301075,-2.457738123809524,8.085605078341013,0.17531833,-0.115453534,0.094989546,328.34705,-12.403593,-13.483463
3692327801000.0,-3.498788834081207,-2.4114585154670904,7.854840987630299,0.20555615,-0.038789943,0.09040806,328.33832,-12.280719,-13.473526
3692332821000.0,-3.164698689139283,-2.3112314470664157,7.66393237609451,0.23762658,0.044593163,0.07880162,328.3166,-12.187074,-13.473309
3692337795000.0,-2.4969620328867115,-1.9981205733926608,7.623628398880112,0.23548855,0.076052725,0.071776666,328.30478,-12.093251,-13.496719
3692342827000.0,-1.5766157235176483,-1.5259010592640738,7.691088494790521,0.18448131,0.07696902,0.057421334,328.29608,-11.994026,-13.53535
3692347819000.0,-0.9865314508803632,-1.3203777749516816,7.69460988726324,0.12980886,0.10293079,0.021380283,328.28174,-11.90593,-13.551486
3692352812000.0,-0.6261018110262851,-1.3018942177812138,7.653021787127948,0.0888809,-0.23762658,0.15577064,328.24527,-11.818652,-13.4550085
3692357825000.0,-0.4104738004571837,-1.2488288432895795,7.590876848825788,0.0143553335,-0.49388456,0.21013765,328.1894,-11.771933,-13.25157
3692362907000.0,-0.3322482430449147,-1.161911532065363,7.508305398624877,-0.019547688,-0.5635232,0.21868975,328.11276,-11.729385,-13.001408
3692367801000.0,-0.3367238696849249,-1.0423363303150752,7.458287059195347,0.004581489,-0.47342056,0.2415972,327.99988,-11.700171,-12.657612
3692372859000.0,-0.5574369936984973,-0.8216232063015028,7.486463183906932,0.03359759,-0.3277292,0.25473082,327.87982,-11.659427,-12.314548
3692377828000.0,-0.7695751316886986,-0.6161251751517409,7.545211309551294,0.07880162,-0.15393804,0.24953845,327.7492,-11.651861,-11.992606
3692382869000.0,-0.9673198774995346,-0.4498398077080618,7.7204851244461,0.12034045,-0.008552114,0.22785273,327.6059,-11.647149,-11.707486
3692387904000.0,-1.161121751414194,-0.2912592365052924,7.898246679680722,0.13255776,0.102319926,0.20891592,327.48694,-11.67135,-11.502134
3692392845000.0,-1.308916638191914,-0.2214671956828041,8.103517665365262,0.121256754,0.14080444,0.20158553,327.36343,-11.696466,-11.319603
3692397811000.0,-1.4574593234252993,-0.1513220277563769,8.309827261582509,0.115453534,0.15821409,0.204029,327.26315,-11.740361,-11.194255
3692403347000.0,-1.648057620506692,-0.1933352246175908,8.61734582791587,0.12614368,0.07238753,0.2098322,327.16644,-11.782601,-11.051948
3692407805000.0,-1.8072395458413,-0.2545590354971319,8.882648823709369,0.11178834,0.046731193,0.20861048,327.06512,-11.813217,-10.932486
3692412886000.0,-2.043780824848032,-0.2959656952361358,9.24446044655382,0.112704635,0.026572637,0.22052236,326.97412,-11.859642,-10.80959
3692417856000.0,-2.301950688871224,-0.3226729219077902,9.627263855325914,0.13469578,0.02076942,0.22357668,326.88556,-11.904708,-10.685762
3692422793000.0,-2.489508291921263,-0.2967788999466885,9.893711050645887,0.14935656,-0.0106901415,0.22204952,326.80453,-11.924268,-10.570506
3692427830000.0,-2.618091220873488,-0.222596443716424,10.06185771939717,0.16768251,0.026572637,0.22632557,326.71643,-11.949718,-10.473812
3692432832000.0,-2.847382554835924,-0.0533000431308769,10.12694439771637,0.19883664,0.050701816,0.2125811,326.64682,-11.966952,-10.399684
3692437798000.0,-3.148558447236615,0.1839901080589138,10.117818145749377,0.21563543,0.087659165,0.19700404,326.57343,-11.984315,-10.3404455
3692442827000.0,-3.4013592746728807,0.5689093466786163,10.043261942462808,0.23273966,0.13164146,0.1695151,326.51822,-12.014964,-10.308531
3692447810000.0,-3.598094974224772,1.099240229663022,9.902125322548844,0.20922135,0.16157386,0.13225232,326.4692,-12.036338,-10.28502
3692452770000.0,-3.742120093408473,1.5096553054342357,9.791044733521185,0.1853976,0.16035213,0.10445796,326.47226,-12.105545,-10.322492
3692457857000.0,-3.732314884270907,1.573389216020932,9.766531710677269,0.13988814,0.14172074,0.0870483,326.48303,-12.158867,-10.364359
3692462828000.0,-3.7329865753311617,1.6232357820991676,9.744433527832069,0.099571034,0.09285152,0.09193522,326.5526,-12.317051,-10.4410925
3692467801000.0,-3.760565613029316,1.640472671661238,9.7271966742671,0.049480084,0.04428773,0.08399397,326.63293,-12.453378,-10.514026
3692472771000.0,-3.7881280134636266,1.657699162938835,9.709970218964893,0.0143553335,-0.017104227,0.09621128,326.71054,-12.593208,-10.566617
3692477886000.0,-3.811489302540766,1.6497447957622298,9.663317588168372,-0.036957346,-0.086132,0.1142318,326.79285,-12.710197,-10.603861
3692482834000.0,-3.829458967463026,1.618297835238908,9.591439303754266,-0.087964594,-0.16982053,0.14355333,326.87363,-12.81504,-10.618983
3692487850000.0,-3.962269418726841,1.4976851747458433,9.256088475914488,-0.13622294,-0.22204952,0.17379116,326.95154,-12.90428,-10.636618
3692492884000.0,-4.2645816134441805,1.2457583219002375,8.532370981947743,-0.16615535,-0.20891592,0.18936823,327.0262,-12.98272,-10.649251
3692497782000.0,-4.316900288811612,0.9851514062050196,8.226500399254107,-0.15515977,-0.0842994,0.1554652,327.1037,-13.054304,-10.687095
3692502849000.0,-3.7690849623223466,0.6770052410039311,8.901487517488157,-0.106901415,-0.113926366,0.18173242,327.16882,-13.130553,-10.681532
3692507902000.0,-3.3411672117949998,0.5148406567123515,9.425557703214553,-0.09682214,-0.2761111,0.18753563,327.29495,-13.182588,-10.762406
3692512835000.0,-3.164582119910292,0.65218458792923,9.633535343384002,-0.090713486,-0.26847526,0.15241088,327.41602,-13.245805,-10.88254
3692517819000.0,-2.986171396627627,0.7909484543766093,9.843663167954148,-0.04062254,-0.23060162,0.12308934,327.43826,-13.240969,-10.846281
3692522854000.0,-2.752890121771218,0.9238968345387454,9.868705132841328,0.02107485,-0.2321288,0.121256754,327.46423,-13.241118,-10.80294
3692528106000.0,-2.494855620472985,1.0586893440790608,9.85770431607112,0.06780604,-0.24770586,0.12308934,327.49536,-13.249899,-10.768984
3692533095000.0,-2.119587139841188,1.1411659195063006,9.606150375625756,0.090713486,-0.21013765,0.12614368,327.4956,-13.288967,-10.700924
3692537848000.0,-1.7620703852925943,1.2197410173226306,9.366495960124288,0.06963864,-0.13927728,0.14049901,327.4671,-13.349463,-10.598375
3692542866000.0,-1.326956189521045,1.222340656013546,9.088938898790518,0.058948494,-0.07788532,0.17348573,327.43057,-13.417737,-10.505205
3692547810000.0,-0.8734075502177068,1.1902715805999031,8.804898803580068,0.021380283,-0.054061573,0.21319197,327.386,-13.471175,-10.422214
3692552829000.0,-1.277841097302688,1.28007682066673,8.037572546747079,-0.004886922,-0.046120327,0.24617869,327.28928,-13.560228,-10.277936
3692557861000.0,-2.211534742967044,1.444846217266597,6.975724628578212,-0.023823744,-0.070249505,0.3286455,327.16882,-13.640723,-10.128802
3692562966000.0,-2.461012088070661,1.397649141853783,6.765735170054272,-0.043982297,-0.0012217305,0.36987892,326.9931,-13.722097,-9.929389
3692567807000.0,-2.120591597733319,1.1756358435458123,7.283766319644567,-0.029626964,0.09010262,0.37568212,326.80542,-13.803289,-9.731724
3692572796000.0,-2.1027762220803607,1.049140454187007,7.595968429590687,-0.0106901415,-0.034513887,0.42577308,326.77426,-13.961502,-9.713444
3692577827000.0,-2.279180311791213,0.9812927291917012,7.781418778727,-0.060170226,-0.15393804,0.3943135,326.7608,-14.0968,-9.7273245
3692582793000.0,-2.4515292504431314,0.8645770803123022,8.097404221354717,-0.09621128,-0.14660765,0.33322698,326.67648,-14.16976,-9.662616
3692587801000.0,-2.623576242466765,0.6975902289765774,8.547762808398396,-0.13500121,-0.12614368,0.28680122,326.60562,-14.224344,-9.571663
3692592837000.0,-2.761401814378761,0.5496261068975183,8.886932571564019,-0.16798794,-0.08307768,0.2733622,326.5487,-14.248217,-9.522244
3692597830000.0,-2.875730481944101,0.4155855619119465,9.151071492703435,-0.183565,-0.0852157,0.25137106,326.50958,-14.2625475,-9.470925
3692602860000.0,-2.9986385292100377,0.2863235744242717,9.38550599531994,-0.17623462,-0.09254608,0.23793201,326.46918,-14.235254,-9.439673
3692608653000.0,-3.1777024356491568,0.1654555074603405,9.501897242354556,-0.1554652,-0.12675454,0.22540927,326.437,-14.2069645,-9.402238
3692612827000.0,-3.306722415879932,0.0783670711566206,9.585760019002665,-0.11453723,-0.14874569,0.21899518,326.4042,-14.15446,-9.374245
3692617808000.0,-3.4382749852212537,-0.0673059899921408,9.59783544882966,-0.10323623,-0.16218472,0.22418754,326.37344,-14.100597,-9.339656
3692623522000.0,-3.578515513787801,-0.2542934291009738,9.569787255253717,-0.067500606,-0.16462818,0.22143865,326.34744,-14.0653925,-9.303651
3692627834000.0,-3.6740186116521016,-0.4158518070411985,9.544820282563462,-0.052839845,-0.14110987,0.21746802,326.3299,-14.00598,-9.301088
3692632804000.0,-3.7681029039950062,-0.6337311158426966,9.5101579968789,-0.06047566,-0.1001819,0.19700404,326.31665,-13.950531,-9.304172
3692637791000.0,-3.8247634791252487,-0.698688001888668,9.530408157057654,-0.07788532,-0.07941248,0.18967366,326.30737,-13.876993,-9.328361
3692642832000.0,-3.833109342864552,-0.5651541079851327,9.622212396749935,-0.09560041,-0.10354166,0.1695151,326.30774,-13.801092,-9.3531065
3692647859000.0,-3.832277708868252,-0.4387455949331564,9.69796255117869,-0.08979719,-0.106595986,0.15454891,326.30768,-13.701024,-9.400255
3692652798000.0,-3.774353556383304,-0.3566864561975711,9.673827529645882,-0.07269296,-0.092240654,0.13591751,326.31467,-13.600101,-9.446384
3692658006000.0,-3.7052243172920063,-0.2953655909787928,9.639313597879282,-0.056505036,-0.061391957,0.11942416,326.33057,-13.524091,-9.496238
3692662824000.0,-3.61113567418434,-0.3330010383972268,9.573451714722676,-0.047036625,-0.064751714,0.11178834,326.35043,-13.452263,-9.5403385
3692667881000.0,-3.512877246747874,-0.3735945151528384,9.516120734313953,-0.029321533,-0.09407325,0.1001819,326.37216,-13.402308,-9.577485
3692672797000.0,-3.4191003945299934,-0.4168761383842795,9.501693613192373,-0.002443461,-0.09468412,0.07788532,326.39725,-13.3580265,-9.622022
3692677821000.0,-3.323263351091703,-0.4611086190829694,9.486949541484718,0.0076358155,-0.07422013,0.05681047,326.4153,-13.311335,-9.645854
3692682803000.0,-3.2442679815845823,-0.4759420088722341,9.492632267665954,0.02076942,-0.069027774,0.031154128,326.44186,-13.272743,-9.666814
3692687800000.0,-3.175952158733557,-0.4710622883144693,9.51215098684613,0.07513642,-0.06352998,0.004276057,326.4732,-13.248481,-9.694672
3692693561000.0,-3.1798045868968186,-0.3785288128111401,9.464905212068466,0.10140363,-0.06566802,-0.014660766,326.49387,-13.207075,-9.698453
3692697832000.0,-3.211447571366405,-0.2796444202610966,9.40557461618799,0.13713925,-0.06566802,-0.02687807,326.51947,-13.183411,-9.705748
3692702813000.0,-3.195501915096559,-0.1341973387079698,9.333184631310656,0.15241088,-0.062308256,-0.048258353,326.5446,-13.158582,-9.701795
3692707895000.0,-3.138249530898931,0.0375599334496617,9.256848019409862,0.13316862,-0.07880162,-0.0693332,326.57413,-13.133863,-9.693424
3692713001000.0,-3.088290953678447,0.2008641069726232,9.222465,0.10140363,-0.087659165,-0.083383106,326.6224,-13.1287775,-9.704937
3692717913000.0,-3.046143401981085,0.3507218284101543,9.222465,0.07849618,-0.05497787,-0.09773844,326.67468,-13.119838,-9.72506
3692722792000.0,-2.9575885287425674,0.4321111144858342,9.254659942068905,0.04153884,-0.030848695,-0.103847094,326.73706,-13.129472,-9.73535
3692727825000.0,-2.822715967471144,0.4531849403567681,9.317881613326335,0.030848695,0.0106901415,-0.10629055,326.7986,-13.139465,-9.76054
3692732789000.0,-2.6849803180927,0.4672145397810983,9.412219525506805,0.032986723,0.03726278,-0.10903945,326.86462,-13.170109,-9.781477
3692737804000.0,-2.529565816522318,0.4580725150499666,9.617914950699532,0.06291912,0.02443461,-0.124311075,326.9343,-13.204408,-9.804003
3692742799000.0,-2.383018779803414,0.4569439945100879,9.798315582307294,0.09437868,-0.007941248,-0.12461651,326.96896,-13.240214,-9.795895
3692747918000.0,-2.2917175351681323,0.5127391719058458,9.80846036513192,0.12889257,-0.0711658,-0.122783914,327.01,-13.283817,-9.776991
3692752837000.0,-2.208232659833304,0.5707396466040078,9.77631659921972,0.16065755,-0.11911872,-0.115453534,327.01532,-13.324792,-9.711294
3692757847000.0,-2.140164093598156,0.6473167280900869,9.576365491310517,0.16798794,-0.18509217,-0.11178834,327.02634,-13.367112,-9.625228
3692763558000.0,-2.062466757814129,0.7244353871614145,9.349788291235669,0.15241088,-0.20219639,-0.105068825,327.0249,-13.421386,-9.522424
3692767816000.0,-2.003609834953091,0.691737091751263,9.192836212412798,0.13775012,-0.18997909,-0.09040806,327.02228,-13.476375,-9.412089
3692772768000.0,-1.9351599800898085,0.653709388869377,9.010302935209689,0.14019357,-0.14660765,-0.07849618,327.02222,-13.55055,-9.305307
3692777836000.0,-1.7620843722408026,0.5559992822575252,8.808339908026756,0.16065755,-0.07544186,-0.06078109,327.0132,-13.624101,-9.211727
3692782810000.0,-1.4655824023411372,0.3878339844481605,8.591495411371238,0.1872302,-0.032070424,-0.041233405,326.99905,-13.698232,-9.124515
3692787793000.0,-1.2413585257324842,0.2784197416687898,8.469441487261147,0.21105394,0.053145275,-0.026572637,326.9625,-13.777229,-9.061294
3692792857000.0,-1.1950238933757962,0.3144578105605096,8.582704136942676,0.21288654,0.12583824,-0.0076358155,326.91742,-13.8558445,-9.006888
3692797832000.0,-1.1624397470717789,0.3767033990269296,8.679487407047752,0.24129178,0.16187929,0.0012217305,326.8168,-13.920976,-8.907933
3692802851000.0,-1.148004029832816,0.4777531483752127,8.756477229051958,0.23151793,0.1704314,-0.00061086525,326.71152,-13.97352,-8.822225
3692807845000.0,-1.1888898847881666,0.5435974764061359,8.781020392257123,0.2180789,0.15851954,-0.0030543262,326.59473,-14.032563,-8.728405
3692812919000.0,-1.3086856256391526,0.5613449867056246,8.73221510956903,0.17898351,0.14660765,-0.0021380284,326.47803,-14.078697,-8.63816
3692817781000.0,-1.440604442003834,0.5787440822520432,8.685401805165977,0.10720685,0.17531833,0.013744468,326.35782,-14.12436,-8.552025
3692822795000.0,-1.639246666683483,0.5981238119826455,8.636952531429724,0.03023783,0.2275473,0.02443461,326.2392,-14.154439,-8.471185
3692827789000.0,-1.797679689021043,0.6220046991460811,8.724947465385789,-0.064751714,0.3463606,0.040011674,326.1306,-14.163723,-8.447292
3692832933000.0,-1.827727300609942,0.6620682126400326,9.275820344515605,-0.1740966,0.52198434,0.0711658,326.0081,-14.147135,-8.452093
3692837822000.0,-1.8986841708102005,0.7153244883014962,9.736945824691825,-0.27672195,0.71837753,0.08368854,325.90875,-14.112589,-8.539111
3692842839000.0,-2.084053563366896,0.8102697899218971,10.044388264514916,-0.31673363,0.8017606,0.13316862,325.78748,-14.068583,-8.635792
3692847868000.0,-2.221340390188185,0.8871372707555473,10.334093548825017,-0.3659083,0.7644979,0.20738874,325.63586,-13.9826145,-8.732078
3692852792000.0,-2.0977214823705648,0.8650624545922667,10.519521495646476,-0.3576616,0.66828656,0.24404067,325.4817,-13.90441,-8.829681
3692858277000.0,-1.981041072907625,0.8410287110619078,10.686971643787087,-0.34269542,0.5519168,0.2144137,325.35275,-13.827036,-8.933259
3692863100000.0,-2.058765825914445,0.8246656060650075,10.4987956202285,-0.26297748,0.40469822,0.19883664,325.22086,-13.77446,-8.994032
3692867782000.0,-2.1342183022938626,0.8087808750686387,10.316120906917014,-0.19486602,0.35521814,0.20708331,325.05807,-13.714367,-9.010668
3692872795000.0,-2.1805797629843218,0.7367315417588755,9.966432489998198,-0.1328632,0.4016439,0.19425514,324.91144,-13.674315,-9.015155
3692877797000.0,-2.2151107801766083,0.6460875675437016,9.565009595422598,-0.05497787,0.3912592,0.183565,324.77145,-13.658717,-8.989395
3692882805000.0,-2.258893228701496,0.6693322348233254,9.191462452850638,0.023823744,0.39584067,0.18142697,324.6485,-13.667973,-9.007057
3692887786000.0,-2.3105971532625187,0.793421740151745,8.845045942336874,0.06047566,0.4147775,0.19364429,324.52625,-13.686701,-9.024537
3692892844000.0,-2.3871186108879794,0.9026033561435234,8.661471537451224,0.10170906,0.45845437,0.20158553,324.42242,-13.72297,-9.077786
3692897823000.0,-2.473344494080137,1.0024438923765109,8.557093083658515,0.08979719,0.49632803,0.21471913,324.31464,-13.7541685,-9.131637
3692902802000.0,-2.629744845007542,1.3861005545701357,8.337057188054299,0.07696902,0.52595496,0.22082779,324.22876,-13.827081,-9.218187
3692907872000.0,-2.839683476380091,1.9817403663348416,8.029472293936651,0.044593163,0.49754974,0.22602014,324.14307,-13.889742,-9.29562
3692912875000.0,-2.8353291843620334,2.119092873902144,8.069048531016598,0.021685716,0.5589417,0.17684549,324.09067,-13.970053,-9.430433
3692917801000.0,-2.69667416501556,1.9682035067340944,8.325968557780083,0.0421497,0.44165558,0.23487769,324.02332,-14.0569,-9.496987
3692922782000.0,-2.6067813917960088,1.833693054323725,8.569841290465632,-0.009162978,0.36285394,0.24801129,324.05374,-14.239466,-9.639265
3692927825000.0,-2.648684672033163,1.7452306278415115,8.774701436710693,-0.021991149,0.32986724,0.25411993,324.0779,-14.434944,-9.75648
3692932782000.0,-2.701241675023023,1.6789015512534533,8.94897595190832,-0.029932396,0.30695978,0.26083946,324.05908,-14.555147,-9.817318
3692937794000.0,-2.7994692849687914,1.6936356927453189,9.017735176302056,-0.04520403,0.29932398,0.25350907,324.04562,-14.665743,-9.87293
3692942838000.0,-2.870769580704497,1.709216462319507,9.080598155798768,-0.0421497,0.30268374,0.24007004,324.01547,-14.753273,-9.926396
3692948511000.0,-2.860776220500322,1.7292032870780834,9.130565217695208,-0.055283304,0.31673363,0.23945917,323.9851,-14.829846,-9.979177
3692952850000.0,-2.8508027471888413,1.7372481287017167,9.168971375429184,-0.07086037,0.34116822,0.22602014,323.96344,-14.90232,-10.057913
3692957884000.0,-2.8145937037124464,1.6700029088519313,9.215525612982832,-0.07422013,0.37507126,0.22571471,323.93787,-14.973196,-10.140355
3692962835000.0,-2.801430721709234,1.613334416306483,9.262344468402096,-0.086132,0.3943135,0.20952678,323.91525,-15.034235,-10.223478
3692967811000.0,-2.867747164145383,1.5899286418467584,9.313057224132285,-0.09132435,0.39400807,0.18784106,323.89456,-15.09415,-10.308764
3692972815000.0,-2.9344367698428293,1.566391162868369,9.36405534102816,-0.08674286,0.39003745,0.18387043,323.85965,-15.136368,-10.390837
3692977837000.0,-2.914947433471718,1.568732625895174,9.34098461131292,-0.08002335,0.37384954,0.16340645,323.8376,-15.174685,-10.470037
3692982831000.0,-2.870272928770109,1.5786602936066425,9.29630969195641,-0.073303826,0.35460728,0.16065755,323.8134,-15.214018,-10.544044
3692987805000.0,-2.9313761903762376,1.6001468912871288,9.289502,-0.07269296,0.3378085,0.14080444,323.80008,-15.241655,-10.633717
3692992782000.0,-3.0116022766336634,1.623742799009901,9.289502,-0.058948494,0.30909783,0.13255776,323.78766,-15.274529,-10.711833
3692997822000.0,-3.091481965775772,1.6280571,9.24145186549809,-0.03359759,0.2828306,0.124311075,323.7729,-15.307571,-10.784574
3693002799000.0,-3.1700668263970844,1.6280571,9.183547381377991,-0.007330383,0.23701571,0.116980694,323.7648,-15.343602,-10.842695
3693007890000.0,-3.2627742304676155,1.61814002644012,9.1306343161003,-0.011301007,0.20158553,0.112704635,323.76672,-15.381367,-10.914192
3693012847000.0,-3.36388652041824,1.599755982447478,9.084674206118695,-0.01740966,0.15943582,0.12339478,323.7713,-15.425188,-10.9690695
3693018641000.0,-3.5100887660997406,1.584051855837417,9.053960836840588,-0.021991149,0.10170906,0.12797627,323.79602,-15.472084,-11.030447
3693022793000.0,-3.6323538555203223,1.5764102927356587,9.046319114153937,-0.05131268,0.065973446,0.12492194,323.82184,-15.509518,-11.084686
3693027819000.0,-3.783689735650224,1.54690709160212,9.047794139421116,-0.079107046,0.03726278,0.14172074,323.85605,-15.545653,-11.147963
3693032799000.0,-3.939229874663677,1.4837189513656748,9.067237050142683,-0.112704635,0.03023783,0.13775012,323.89795,-15.570044,-11.208006
3693037849000.0,-4.096777227032715,1.413627046594605,9.057802446623302,-0.14630222,0.029932396,0.13530666,323.9537,-15.587839,-11.291925
3693042878000.0,-4.253415808494356,1.335307659651808,9.007125193418787,-0.16035213,0.03390302,0.13439035,324.0098,-15.601544,-11.3735485
3693047821000.0,-4.37338017114686,1.2338991528074728,8.971874649610795,-0.18203785,0.011911872,0.12095132,324.08392,-15.594426,-11.477637
3693052857000.0,-4.423435972703684,1.0787261157135444,8.966868964919565,-0.1863139,-0.01038471,0.11301007,324.15558,-15.589079,-11.579882
3693057798000.0,-4.462288003409644,0.9229000382367268,8.971149364831954,-0.18509217,-0.0143553335,0.10323623,324.24304,-15.575691,-11.711978
3693062878000.0,-4.485985102289333,0.7570202471018023,8.990106944958598,-0.15821409,-0.023518313,0.099265605,324.33215,-15.569006,-11.833914
3693067772000.0,-4.475458157151019,0.627090288754523,8.973540583698343,-0.14019357,-0.0580322,0.09254608,324.4217,-15.538538,-11.954465
3693072856000.0,-4.396644345153304,0.5529124196057894,8.88545454713388,-0.11942416,-0.06841691,0.0888809,324.50916,-15.517331,-12.076581
3693077841000.0,-4.32772526748343,0.5050395111417956,8.824936012151035,-0.086437434,-0.065973446,0.09040806,324.5907,-15.478763,-12.192262
3693082864000.0,-4.284248826672022,0.5340238302369954,8.844258773850171,-0.048563786,-0.09590584,0.087659165,324.67682,-15.448071,-12.2946005
3693088317000.0,-4.24051197575781,0.5554548,8.871424174450976,-0.039095376,-0.13255776,0.090713486,324.744,-15.412366,-12.381358
3693092883000.0,-4.210079614004021,0.5554548,8.90523771357872,-0.034208454,-0.14721853,0.09101892,324.8126,-15.386446,-12.464823
3693097785000.0,-4.177407814328797,0.5554548,8.941539502629137,-0.03359759,-0.16310102,0.09132435,324.87354,-15.365532,-12.528867
3693102854000.0,-4.142252139320344,0.5643267726068889,8.99571641942931,-0.021991149,-0.19303341,0.08857546,324.93686,-15.349517,-12.584181
3693107845000.0,-4.106941171511681,0.5775684039708191,9.057510520916058,-0.029321533,-0.22204952,0.08827003,324.99985,-15.329194,-12.634253
3693112831000.0,-4.067960378712625,0.5770732645872654,9.13343164626999,-0.04917465,-0.25473082,0.08857546,325.05426,-15.302516,-12.667436
3693117807000.0,-4.02535703026721,0.5628721451435383,9.223372339624516,-0.065973446,-0.2843578,0.08582657,325.11087,-15.275058,-12.693304
3693122796000.0,-3.983482549056963,0.4377197362288055,9.259447613069156,-0.092240654,-0.31673363,0.0852157,325.16202,-15.237657,-12.698952
3693127832000.0,-3.942135828157744,0.1896386562489998,9.236477159268432,-0.10354166,-0.33322698,0.064446285,325.21973,-15.199021,-12.702754
3693132818000.0,-3.9071240791169664,0.008937442713192,9.18167366298736,-0.111177474,-0.34697145,0.05467244,325.26596,-15.148725,-12.683986
3693137801000.0,-3.8816365264732062,-0.0675252715507388,9.075475526971694,-0.12339478,-0.33628133,0.04062254,325.31738,-15.093686,-12.669865
3693142881000.0,-3.852600096600212,-0.1429843208234614,8.967282852162189,-0.12034045,-0.3155119,0.030848695,325.3495,-15.001172,-12.643562
3693147844000.0,-3.806823579543485,-0.2024937021785611,8.861996796012713,-0.10476339,-0.28955013,0.016798794,325.38397,-14.909655,-12.623548
3693152858000.0,-3.759015369739562,-0.2575731345959073,8.758441928689543,-0.08979719,-0.2507602,0.0070249503,325.41504,-14.813948,-12.610202
3693158114000.0,-3.686185765440265,-0.2419667853854898,8.69081465626292,-0.056505036,-0.21410827,-0.0106901415,325.4492,-14.728349,-12.605346
3693162986000.0,-3.615160929752281,-0.2239324600312907,8.63039877809648,-0.027794369,-0.1777618,-0.017715093,325.47482,-14.643629,-12.604634
3693167823000.0,-3.526581480591047,-0.1876954218200782,8.582082592611908,0.008246681,-0.13836098,-0.031154128,325.5033,-14.570491,-12.616636
3693172792000.0,-3.435584729943503,-0.1504694877966101,8.532447875706215,0.042455133,-0.10293079,-0.037873644,325.52893,-14.507137,-12.628551
3693177874000.0,-3.322845578881338,-0.0768177037633037,8.652849639519081,0.067500606,-0.09407325,-0.048563786,325.55786,-14.451579,-12.645009
3693182844000.0,-3.208394506743335,0.0028004528273915,8.807109814113957,0.07941248,-0.09040806,-0.052534413,325.584,-14.40312,-12.66937
3693187884000.0,-3.1008121354877374,0.1033413907360317,8.922156955006454,0.07849618,-0.10476339,-0.055283304,325.60132,-14.367071,-12.674859
3693192860000.0,-2.9953630062234926,0.2043967445741286,9.031999654619216,0.07849618,-0.10323623,-0.056199603,325.61743,-14.335207,-12.685704
3693197880000.0,-2.860095083085448,0.282447370955575,9.143825285700398,0.07941248,-0.118507855,-0.054061573,325.61353,-14.309166,-12.66004
3693202776000.0,-2.7187974368912218,0.3508172243239039,9.253216879751143,0.07269296,-0.13103059,-0.050396383,325.60883,-14.281572,-12.635828
3693207857000.0,-2.579718528419641,0.37349546,9.316824032545904,0.06414085,-0.14630222,-0.05375614,325.5925,-14.264085,-12.580784
3693212827000.0,-2.4471508278832266,0.37349546,9.356103899989684,0.052534413,-0.15118915,-0.04520403,325.5716,-14.24505,-12.525132
3693217807000.0,-2.8552726704961344,0.7980144750719249,8.360494451619532,0.052534413,-0.15943582,-0.047036625,325.5316,-14.236445,-12.428827
3693222782000.0,-3.447391825012232,1.36682193534201,7.013073318925531,0.053450707,-0.14019357,-0.0711658,325.49362,-14.223728,-12.341938
3693227832000.0,-3.4166757538004524,1.3607131299603925,6.960725473264806,0.112399206,-0.0842994,-0.06047566,325.42773,-14.224074,-12.234445
3693232805000.0,-3.1157604336099585,1.104710509128631,7.472730761825726,0.106595986,-0.12583824,-0.058337633,325.37668,-14.204295,-12.110246
3693237896000.0,-2.893107807119108,0.8509141686240955,7.871518036769021,0.098043874,-0.09743301,-0.05681047,325.50073,-14.387656,-12.222469
3693242819000.0,-2.736351996225308,0.6111699660179934,8.171198079405437,0.13133603,-0.062002823,-0.07238753,325.6327,-14.576234,-12.32702
3693247813000.0,-2.6386738861714165,0.4743155169410433,8.404750995164111,0.13805555,-0.03176499,-0.07391469,325.67065,-14.663487,-12.342982
3693252800000.0,-2.5944475753987035,0.4300891702500257,8.576742716843297,0.16249016,-0.0061086523,-0.07269296,325.71027,-14.76199,-12.368914
3693257867000.0,-2.5761611,0.452450010165456,8.737861479418886,0.19486602,0.010079277,-0.08277224,325.7008,-14.800957,-12.3447275
3693262833000.0,-2.5761611,0.5196229358232445,8.886600995157385,0.2125811,0.028405234,-0.08582657,325.68713,-14.842052,-12.328154
3693267793000.0,-2.5813625678780245,0.5796875683637672,9.025359806422596,0.204029,0.03634648,-0.08857546,325.66235,-14.869882,-12.29206
3693273677000.0,-2.591500175362058,0.6455820699379329,9.182492828281012,0.204029,0.032375857,-0.09162979,325.6383,-14.90367,-12.258682
3693277845000.0,-2.602861072033471,0.7062216932856135,9.283123213630407,0.18845193,0.02076942,-0.08857546,325.61377,-14.937334,-12.21611
3693282803000.0,-2.622008929015021,0.7971738265046879,9.388436851900392,0.17898351,0.003970624,-0.098043874,325.59457,-14.970471,-12.173149
3693287794000.0,-2.6394658502358004,0.8776592595037933,9.471788568587243,0.16676621,-0.02076942,-0.10140363,325.57294,-15.004477,-12.118386
3693292828000.0,-2.654293442013533,0.9419124324584786,9.521214046545008,0.14630222,-0.040317107,-0.0888809,325.55054,-15.032708,-12.061333
3693297805000.0,-2.6582585262660943,0.9809280737339056,9.537842565665237,0.13316862,-0.04642576,-0.08552113,325.52933,-15.074998,-12.001552
3693302797000.0,-2.649139330157368,0.9900472698426324,9.515044575393418,0.10720685,-0.05589417,-0.07544186,325.50476,-15.107587,-11.935876
3693307896000.0,-2.6431987,0.9792391479992424,9.47339497301392,0.09896017,-0.044898596,-0.07086037,325.48398,-15.149166,-11.877491
3693312822000.0,-2.6431987,0.9345697639409148,9.401923895085693,0.087964594,-0.028405234,-0.06780604,325.4614,-15.181692,-11.819343
3693317882000.0,-2.638680269139466,0.906997511008902,9.281446681750742,0.07666359,-0.013133603,-0.062308256,325.4375,-15.2132635,-11.764609
3693322801000.0,-2.621206871810089,0.9332076252485164,9.028082146791542,0.06811147,0.012217305,-0.054061573,325.41022,-15.241464,-11.718435
3693327851000.0,-2.6053055976062067,0.9597511880310342,8.786125705175513,0.07391469,0.05222898,-0.058643065,325.38773,-15.2617035,-11.686152
3693332890000.0,-2.609871544734601,0.982580923673006,8.726768106443371,0.077579886,0.0842994,-0.043982297,325.35638,-15.279824,-11.65754
3693338186000.0,-2.613614646997102,1.006845181732787,8.669144132507244,0.082161374,0.108123146,-0.03573562,325.3368,-15.318715,-11.649364
3693343615000.0,-2.5928322158189268,1.0380188827520735,8.721100210452683,0.10720685,0.13164146,-0.034513887,325.31305,-15.363601,-11.649505
3693348214000.0,-2.575764803281608,1.0646107703213772,8.766146495209023,0.10751228,0.14110987,-0.02107485,325.28354,-15.407743,-11.658645
3693352808000.0,-2.5683033806410585,1.0944561492410751,8.829568081234632,0.099571034,0.1469131,-0.014966198,325.25494,-15.454724,-11.673354
3693357819000.0,-2.5601646804121088,1.1270106102264057,8.898746480793692,0.08277224,0.12705997,0.0021380284,325.21857,-15.5019,-11.675029
3693362826000.0,-2.5599708716407354,1.1603852490503133,9.01152841311376,0.079107046,0.10781772,0.0061086523,325.18457,-15.548566,-11.678691
3693367840000.0,-2.564822111669024,1.1943443345019196,9.152215741664982,0.04795292,0.076358154,0.020463986,325.1463,-15.583059,-11.671191
3693372796000.0,-2.580177885764738,1.195802659521869,9.227779784297743,0.028099801,0.07147124,0.029626964,325.10617,-15.622847,-11.658507
3693377825000.0,-2.601984473168523,1.1783574988952277,9.267031304627366,0.013744468,0.04337143,0.02076942,325.07224,-15.653887,-11.631497
3693382802000.0,-2.619988620468908,1.1591699466709406,9.272941077021706,-0.02107485,0.0125227375,0.029321533,325.02905,-15.672586,-11.595163
3693387793000.0,-2.633121089229783,1.137282453026834,9.233543762157709,-0.030848695,-0.0009162979,0.03145956,324.99167,-15.692334,-11.557927
3693392843000.0,-2.64427395271489,1.1151101364255476,9.192558472851095,-0.049480084,0.0009162979,0.03023783,324.95837,-15.6918955,-11.520122
3693397857000.0,-2.6486930651021536,1.0930145744892326,9.148367348978464,-0.057421334,0.015577064,0.033292156,324.9237,-15.691706,-11.48265
3693402892000.0,-2.6531558913266315,1.069939656741573,9.10335868746304,-0.06994407,0.02565634,0.025961773,324.8944,-15.683334,-11.450619
3693407852000.0,-2.6578376307313225,1.037167432022472,9.051859456238912,-0.06414085,0.046731193,0.02321288,324.86124,-15.67824,-11.425704
3693413063000.0,-2.661539677002379,1.002314205888184,9.003010639968279,-0.049480084,0.069027774,0.018020526,324.83102,-15.673392,-11.40582
3693418014000.0,-2.6521394516256938,0.964713279842387,9.012411061657415,-0.044898596,0.08735373,0.018020526,324.79907,-15.667497,-11.390779
3693423102000.0,-2.644547896044904,0.9276010525462792,9.022161506356404,-0.04886922,0.086132,0.01740966,324.7721,-15.656304,-11.3821125
3693427843000.0,-2.6614253062002824,0.9107236247676752,9.032287811463831,-0.03573562,0.083383106,0.025350908,324.74176,-15.651797,-11.37726
3693432805000.0,-2.6790894507248533,0.8930594617983794,9.042886150620772,-0.046731193,0.0729984,0.02321288,324.70764,-15.629343,-11.370308
3693437807000.0,-2.7131782661418917,0.8558141267635483,9.054816859521647,-0.044898596,0.065973446,0.032375857,324.66855,-15.615529,-11.3618555
3693442868000.0,-2.781656931325058,0.7775528024220406,9.069491154707842,-0.044593163,0.04886922,0.032070424,324.6347,-15.597836,-11.348601
3693447796000.0,-2.8432633461422694,0.7377129366318852,9.080458799939802,-0.04337143,0.047036625,0.03176499,324.6016,-15.580971,-11.337177
3693452859000.0,-2.896776111768837,0.7669016980254841,9.085323181197952,-0.054061573,0.03573562,0.027794369,324.572,-15.560894,-11.318876
3693457809000.0,-2.9401852848261325,0.788525602207108,9.088389,-0.04337143,0.03970624,0.02565634,324.55023,-15.533524,-11.315351
3693462975000.0,-2.9686211480505795,0.7980042348290066,9.088389,-0.043066,0.049785517,0.025961773,324.52942,-15.500913,-11.310465
3693467802000.0,-2.996356983951559,0.80445176,9.085990993992562,-0.03604105,0.05375614,0.022602014,324.52356,-15.477182,-11.316804
3693472791000.0,-3.0282489059883666,0.80445176,9.076879301706876,-0.029321533,0.058948494,0.02107485,324.5162,-15.454215,-11.325774
3693477861000.0,-3.057507872308754,0.8077938250039431,9.07174251123817,-0.041233405,0.0580322,0.019547688,324.51694,-15.428157,-11.341297
3693482799000.0,-3.0714936961060726,0.8264414148225552,9.085727994282337,-0.034208454,0.062308256,0.020463986,324.51657,-15.409905,-11.359126
3693487824000.0,-3.088972620598523,0.8394836057986786,9.100586300038865,-0.032375857,0.059864793,0.027183503,324.5207,-15.38763,-11.382321
3693492825000.0,-3.126200381412748,0.8162162103429849,9.11920010755927,-0.032070424,0.06383542,0.022602014,324.52682,-15.366885,-11.40861
3693497841000.0,-3.1614254823483057,0.7955944245232466,9.136273,-0.044898596,0.050701816,0.02321288,324.52838,-15.347516,-11.431739
3693502795000.0,-3.1738876486734964,0.8039025310690833,9.136273,-0.0421497,0.046731193,0.023823744,324.53018,-15.33278,-11.458109
3693509289000.0,-3.1890767,0.8132002180955994,9.135030503793626,-0.046120327,0.036957346,0.022602014,324.53613,-15.306684,-11.486845
3693512841000.0,-3.1890767,0.8067478706297421,9.12535211229135,-0.04337143,0.04337143,0.022907447,324.54044,-15.284017,-11.5180025
3693517975000.0,-3.1890767,0.797421758048179,9.111363130880122,-0.039095376,0.047036625,0.019547688,324.55215,-15.264861,-11.546346
3693522796000.0,-3.20404424928689,0.7858943997924666,9.098562576705064,-0.040317107,0.029321533,0.018020526,324.56433,-15.24561,-11.569698
3693527826000.0,-3.2260643642073505,0.7726822710577802,9.085350664106784,-0.047036625,0.030848695,0.021380283,324.57416,-15.226621,-11.598558
3693532854000.0,-3.2583533992191795,0.7634704105685692,9.070790564170242,-0.03970624,0.02565634,0.022907447,324.58435,-15.211665,-11.620816
3693537794000.0,-3.299976253942593,0.7582675741009568,9.055181728802376,-0.036957346,0.03176499,0.022602014,324.593,-15.194157,-11.645918
3693542833000.0,-3.3221067392231665,0.7451924477024449,9.033019062164035,-0.027794369,0.027488936,0.018936822,324.60785,-15.178589,-11.671988
3693547873000.0,-3.334661032269811,0.7284533903069187,9.007910388676954,-0.03634648,0.01740966,0.022296581,324.62067,-15.159736,-11.696969
3693552812000.0,-3.335457881913775,0.7131246766561514,8.999468907465825,-0.027183503,0.011911872,0.021380283,324.6416,-15.149217,-11.730221
3693558775000.0,-3.3136217646687696,0.6967477169773444,9.021305309721823,-0.02687807,0.016187929,0.026267206,324.6598,-15.134858,-11.762013
3693562804000.0,-3.3026169876466955,0.684005250586782,9.02954775880173,-0.021380283,0.01160644,0.020158553,324.6866,-15.12403,-11.792503
3693567830000.0,-3.29766197459337,0.6641851983734817,9.02459264226889,-0.018325957,0.0012217305,0.016798794,324.7112,-15.113477,-11.821337
3693572781000.0,-3.2944214,0.6558384035335008,9.025967439273993,-0.021380283,0.004276057,0.020158553,324.7276,-15.100525,-11.846703
3693577833000.0,-3.2944214,0.6698513385402587,9.039980179185171,-0.02565634,0.009468411,0.016493361,324.7473,-15.087822,-11.870156
3693582772000.0,-3.291949291412081,0.6787172457060404,9.050082,-0.016798794,-0.004581489,0.016493361,324.7651,-15.074552,-11.887692
3693587797000.0,-3.282371538401831,0.6739283692009156,9.050082,-0.018936822,-0.003970624,0.013439035,324.78305,-15.057104,-11.910735
3693592902000.0,-3.265343889171304,0.6683917157617687,9.056036373439614,-0.017715093,-0.007330383,0.01863139,324.79755,-15.044992,-11.928609
3693598648000.0,-3.223963053451647,0.6601155399759363,9.080864987216122,-0.01985312,-0.0061086523,0.020158553,324.81332,-15.031323,-11.948035
3693602818000.0,-3.1939320605955785,0.6541093351331028,9.09888366446082,-0.01985312,-0.011301007,0.01985312,324.8282,-15.021001,-11.9597025
3693607863000.0,-3.165393996289838,0.6512229,9.107543,-0.022296581,-0.024740042,0.015882496,324.84406,-15.009569,-11.969349
3693612827000.0,-3.142368114666279,0.6512229,9.107543,-0.02321288,-0.020158553,0.020158553,324.85648,-14.999351,-11.981743
3693617797000.0,-3.129282174115593,0.6488891741155932,9.105209249747311,-0.029626964,-0.029932396,0.008552114,324.8632,-14.979705,-11.979357
3693622803000.0,-3.1248769585132776,0.6444839585132777,9.10080398814665,-0.01740966,-0.020463986,0.0067195175,324.86395,-14.966267,-11.982463
3693627829000.0,-3.118512939129101,0.6328308091628335,9.092676954717367,-0.0070249503,-0.017715093,-0.0036651916,324.86218,-14.94954,-11.9791
3693632951000.0,-3.108484908157007,0.6077606217847287,9.077635039149545,-0.008857546,-0.014966198,0.004581489,324.85486,-14.93417,-11.977083
3693637792000.0,-3.097633574144136,0.5902607609707483,9.065734655162869,-0.00061086525,-0.008552114,0.010995574,324.8477,-14.924476,-11.976656
3693642830000.0,-3.0842770862784907,0.5813564481240195,9.056830174956168,0.0012217305,-0.016493361,0.007330383,324.84192,-14.91259,-11.973137
3693647771000.0,-3.07186235396504,0.576901038853123,9.051228340972074,0.011301007,-0.00580322,0.009162978,324.8255,-14.904747,-11.973203
3693652854000.0,-3.061485221466638,0.587278138844596,9.056416988488596,0.016798794,-0.008246681,0.007941248,324.81265,-14.895865,-11.967975
3693658352000.0,-3.0550013,0.5978667616612828,9.05760659630826,0.017104227,0.0018325958,0.0021380284,324.79968,-14.886544,-11.966101
3693662836000.0,-3.0550013,0.6057933645592986,9.053643212090448,0.014049901,-0.0036651916,0.0021380284,324.7869,-14.878184,-11.958948
3693667816000.0,-3.0541515578092926,0.6171643562772905,9.056879990763202,0.023518313,-0.004276057,-0.0036651916,324.77332,-14.876212,-11.953709
3693672791000.0,-3.0497062713752565,0.6393908162978168,9.092442560738943,0.032375857,-0.0033597588,-0.008857546,324.76004,-14.873246,-11.947417
3693677887000.0,-3.0442541091658293,0.6616774931256282,9.126404396180904,0.02321288,-0.009468411,0.0018325958,324.7501,-14.870997,-11.93708
3693682803000.0,-3.0253276573869345,0.675872331959799,9.12167268442211,0.021380283,-0.020463986,0.0012217305,324.74515,-14.872118,-11.927065
3693687919000.0,-3.00613701763458,0.6892033392115265,9.118100268717404,0.021685716,-0.016187929,0.007330383,324.73108,-14.874318,-11.916753
3693692832000.0,-2.993660004004243,0.685044334668081,9.130577108636082,0.013744468,-0.021991149,0.009162978,324.72012,-14.873207,-11.901318
3693697864000.0,-2.980880778971095,0.6807845929903651,9.143356155750022,0.01282817,-0.036957346,0.008246681,324.71234,-14.877029,-11.879428
3693702800000.0,-2.97123752452563,0.6942520509487398,9.14227523760974,0.01038471,-0.035430185,0.00580322,324.7037,-14.878009,-11.860962
3693707817000.0,-2.9621660989426983,0.712394902114604,9.137739430095346,0.0018325958,-0.03756821,0.004886922,324.69632,-14.876858,-11.83789
3693717906000.0,-2.9592333,0.7107684215005082,9.12878154735286,0.0076358155,-0.040317107,-0.003970624,324.6902,-14.872758,-11.814925
3693722796000.0,-2.954664849096386,0.6972625727409639,9.103854745481929,-0.008857546,-0.038179077,-0.00580322,324.68204,-14.860427,-11.79283
3693727835000.0,-2.9455802302710845,0.6745510256777109,9.058431651355422,-0.0036651916,-0.032986723,0.002443461,324.66907,-14.860053,-11.770595
3693732800000.0,-2.936626079481865,0.6642533024870466,9.027475325388602,0.004581489,-0.021380283,0.008552114,324.65152,-14.857433,-11.751304
3693738484000.0,-2.9263698730946777,0.674509455327367,9.01721895836081,0.008246681,-0.008857546,0.009468411,324.63278,-14.855041,-11.733947
3693742831000.0,-2.916418097858786,0.6844612256768713,9.01515589718634,0.010079277,0.0012217305,0.0033597588,324.6195,-14.847289,-11.721477
3693747819000.0,-2.899511770129181,0.70136764167404,9.027835532649087,0.021380283,0.009162978,0.014966198,324.60034,-14.844382,-11.710684
3693753255000.0,-2.881860769802067,0.7190187262392713,9.042779686635138,0.014049901,0.015271631,0.014660766,324.5844,-14.838452,-11.702088
3693758448000.0,-2.873149510028026,0.7277299405324925,9.06891342047644,0.006414085,0.008552114,0.019242255,324.56442,-14.836453,-11.691022
3693762806000.0,-2.865838963119636,0.7350404492730775,9.090845023033806,0.014966198,0.015271631,0.015577064,324.54724,-14.838103,-11.681132
3693767800000.0,-2.8665766842864926,0.7405255167755991,9.11974604738562,0.013439035,-0.0033597588,0.009773844,324.532,-14.834842,-11.662451
3693772769000.0,-2.8708964575526505,0.7448453351488744,9.149984956427016,0.002443461,-0.013133603,0.008552114,324.51553,-14.831237,-11.648213
3693777824000.0,-2.867782462318225,0.7364717697165906,9.1860421507271,-0.0030543262,-0.01985312,0.009162978,324.49878,-14.825948,-11.629074
3693782813000.0,-2.8576395038743234,0.7161857469164632,9.226613984502707,-0.0106901415,-0.023823744,0.007330383,324.48364,-14.816755,-11.60869
3693787804000.0,-2.863084364584393,0.7025531449486214,9.214030566283448,-0.005192355,-0.030543262,0.0036651916,324.46902,-14.810259,-11.584657
3693792824000.0,-2.8777579946586638,0.692770758948011,9.170009931427408,-0.005192355,-0.03023783,0.009468411,324.45206,-14.800607,-11.561424
3693797805000.0,-2.885729060741901,0.686420006782813,9.146096850249585,-0.01282817,-0.0143553335,0.009162978,324.43365,-14.786704,-11.53563
3693802840000.0,-2.890448516991289,0.6817005012528139,9.13193853078203,-0.008857546,-0.004886922,0.01740966,324.4117,-14.776951,-11.507779
3693808266000.0,-2.895614820136313,0.6902106604089405,9.089086607096322,-0.0012217305,0.008857546,0.0070249503,324.3945,-14.766305,-11.492769
3693812856000.0,-2.900020704871204,0.7034283146136113,9.040621783000905,0.0021380284,0.014049901,0.014966198,324.36987,-14.757209,-11.4763565
3693817808000.0,-2.904487764629613,0.7059684353703872,9.018636678665336,0.004581489,0.025045475,0.004886922,324.35092,-14.748912,-11.4694395
3693822794000.0,-2.908817252779037,0.7016389472209629,9.014307100099735,0.0070249503,0.036651913,0.010079277,324.3252,-14.742914,-11.46252
3693827835000.0,-2.913462977555048,0.6991069,9.026570985666805,0.0067195175,0.041233405,0.016798794,324.3039,-14.740259,-11.462869
3693832812000.0,-2.918413459056917,0.6991069,9.06122492480266,0.014660766,0.047036625,0.015577064,324.2827,-14.740372,-11.466785
3693837791000.0,-2.9232212985832926,0.6968116493502686,9.085698656082071,0.0030543262,0.034208454,0.015577064,324.2636,-14.730551,-11.469667
3693847813000.0,-2.928356034427542,0.6852362585268215,9.098955361889512,0.002443461,0.024129177,0.020158553,324.24323,-14.726263,-11.474336
3693852797000.0,-2.923579036028823,0.6756824612489992,9.079847867093674,0.0015271631,0.02565634,0.024129177,324.22162,-14.717423,-11.477781
3693857817000.0,-2.9168751282870025,0.6724019464312547,9.059108767843728,0.0030543262,0.008552114,0.021685716,324.20554,-14.707056,-11.473084
3693862828000.0,-2.9078613990890307,0.6769088345604808,9.036574327197595,0.011301007,0.009773844,0.02565634,324.18527,-14.699066,-11.472996
3693867773000.0,-2.90028905168305,0.6844036449508489,9.013934758415251,0.007330383,0.013133603,0.016187929,324.17133,-14.687803,-11.468444
3693872790000.0,-2.895518243858604,0.6987160684241883,8.99008071929302,0.015271631,0.016493361,0.018020526,324.15317,-14.683129,-11.463158
3693877914000.0,-2.895153855012317,0.7086837,8.977905170740952,0.023518313,0.021991149,0.021685716,324.13376,-14.68193,-11.457926
3693882803000.0,-2.9040265052302443,0.7086837,8.991213960773166,0.011911872,0.022602014,0.0143553335,324.1173,-14.676748,-11.453002
3693887799000.0,-2.9179519758497,0.7128103724060623,9.006324672406063,0.010995574,0.0125227375,0.016798794,324.10052,-14.679778,-11.446803
3693892857000.0,-2.95270362459869,0.7345301528741817,9.028044452874182,0.02107485,0.024740042,0.019242255,324.0843,-14.682125,-11.447466
3693898169000.0,-2.988874090282545,0.7576298229469236,9.05190278690256,0.015882496,0.018936822,0.0125227375,324.07205,-14.677606,-11.443419
3693902807000.0,-3.012331813229469,0.784997190879324,9.098818396091891,0.017104227,0.0125227375,0.011911872,324.05676,-14.678086,-11.441879
3693907846000.0,-3.037817683416953,0.8147307327101487,9.14979031388082,0.008857546,0.004581489,0.014049901,324.04807,-14.677838,-11.446228
3693913011000.0,-3.0553436211335345,0.8136862768436439,9.141859326480573,0.004276057,0.008246681,0.007941248,324.04166,-14.678298,-11.452548
3693917815000.0,-3.0683595888815542,0.8006703589296491,9.11148865956243,0.0076358155,0.003970624,0.018020526,324.0314,-14.679662,-11.45304
3693923934000.0,-3.059912771695469,0.7841933006305465,9.083723883232134,0.004276057,0.004581489,0.004886922,324.03552,-14.680527,-11.460293
3693927852000.0,-3.045892407248949,0.7736780291256422,9.069703628584774,-0.0067195175,0.0033597588,-0.002443461,324.03574,-14.680871,-11.464671
3693932811000.0,-3.0378979659769203,0.75999370206924,9.0494076701154,-0.011301007,0.0070249503,-0.00030543262,324.03735,-14.680619,-11.47609
3693937794000.0,-3.042645398766415,0.745751403700756,9.025670506167929,-0.011911872,0.013744468,-0.00061086525,324.0416,-14.677853,-11.488536
3693947881000.0,-3.064039870052413,0.718798794740647,8.993159953912887,0.00030543262,0.016187929,0.00030543262,324.04376,-14.676376,-11.496061
3693952811000.0,-3.0732387696151,0.7077674887490748,8.987626056254626,0.0030543262,0.01863139,0.0070249503,324.0439,-14.672492,-11.504852
3693958135000.0,-3.06852115784604,0.7030499754996299,9.01121362250185,0.005497787,0.022907447,0.008857546,324.0504,-14.670103,-11.515816
3693963032000.0,-3.062767163102792,0.6995596104060914,9.031381672588832,-0.0012217305,0.009773844,0.008857546,324.06128,-14.66254,-11.526346
3693967810000.0,-3.043411058640017,0.7043986491539763,9.036220307106598,0.01160644,0.011911872,0.005497787,324.07098,-14.661198,-11.542092
3693972817000.0,-3.027538657898328,0.7080498210508359,9.0424066765609,0.012217305,0.014660766,0.0143553335,324.08023,-14.650487,-11.55192
3693977826000.0,-3.0357219044353463,0.7039581977823268,9.054681802712384,0.004581489,0.008246681,0.0125227375,324.09378,-14.640454,-11.560674
3693982781000.0,-3.043816930706244,0.6999106846468782,9.066824595701126,-0.0021380284,0.0009162979,0.01038471,324.106,-14.631268,-11.564271
3693987793000.0,-3.0768402756820588,0.6991069,9.075518945190977,0.008552114,0.007941248,0.01038471,324.1173,-14.625087,-11.570039
3693993743000.0,-3.1232463991448816,0.6991069,9.084799859760569,-0.00030543262,0.0015271631,0.009468411,324.13077,-14.611653,-11.570326
3693997824000.0,-3.1429080052928158,0.7008222052928155,9.088389,0.0070249503,-0.004886922,0.0106901415,324.14917,-14.604951,-11.571727
3694002797000.0,-3.147700259911451,0.705614459911451,9.088389,0.006414085,-0.002443461,0.0125227375,324.16714,-14.593831,-11.573928
3694007871000.0,-3.145220243803681,0.7128456421472393,9.0814524297546,0.0009162979,0.002443461,0.0061086523,324.19016,-14.587651,-11.583084
3694012834000.0,-3.1306405939877298,0.7237803795092025,9.06322786748466,0.005497787,0.008246681,0.006414085,324.21024,-14.584692,-11.592568
3694017815000.0,-3.116008066134969,0.734754775398773,9.044937207668712,0.008246681,-0.0030543262,0.00580322,324.22983,-14.584883,-11.598
3694022799000.0,-3.101513420663909,0.7337644608515791,9.02590651962466,0.008857546,0.009773844,0.019547688,324.24286,-14.586536,-11.610623
3694027883000.0,-3.086775771062456,0.7288518938855817,9.006256354353749,0.003970624,0.0009162979,0.01282817,324.26413,-14.585992,-11.615768
3694032817000.0,-3.0805042086081222,0.7278373,9.028019994099273,0.008552114,0.010079277,0.01740966,324.2761,-14.591407,-11.626058
3694037776000.0,-3.076383040350573,0.7278373,9.060988909840331,0.0125227375,0.0106901415,0.015271631,324.293,-14.594408,-11.6325445
3694042945000.0,-3.074155,0.7255811615282644,9.08332513559322,0.008857546,0.005192355,0.005192355,324.30637,-14.593848,-11.640396
3694047826000.0,-3.074155,0.7211550313511977,9.092177118644068,0.005192355,-0.004276057,0.0125227375,324.31558,-14.595251,-11.646095
3694052841000.0,-3.068873594181708,0.7129791125642835,9.097966,0.0067195175,-0.004886922,0.016187929,324.3257,-14.597177,-11.648535
3694057860000.0,-3.054333069880004,0.6984386388726429,9.097966,0.006414085,-0.004581489,0.008246681,324.3376,-14.597144,-11.649126
3694062795000.0,-3.038104652866242,0.6950199853503185,9.094306191082802,0.009162978,-0.009162978,0.009162978,324.34372,-14.597316,-11.64762
3694067864000.0,-3.0181561017259093,0.7099813987055681,9.084332227963838,0.011301007,-0.01160644,0.010079277,324.35184,-14.596614,-11.647561
3694072862000.0,-3.012975032168092,0.7182605,9.080765414280402,0.01282817,-0.02687807,0.005497787,324.35492,-14.593983,-11.640688
3694077903000.0,-3.026440069951655,0.7182605,9.085253385273337,0.005497787,-0.018020526,0.004886922,324.35498,-14.58957,-11.639717
3694082777000.0,-3.0345846199492734,0.7195235800507267,9.078284412350014,0.005497787,-0.01863139,-0.002443461,324.35626,-14.589865,-11.630261
3694087855000.0,-3.029840595912594,0.7242676040874061,9.040332418203102,-0.005192355,-0.025045475,-0.005497787,324.35626,-14.5852,-11.621662
3694092876000.0,-3.023471348233861,0.7259709321559075,9.011775,-0.006414085,-0.023823744,0.007330383,324.35403,-14.580615,-11.619979
3694097863000.0,-3.011836877685749,0.718214618457166,9.011775,0.005497787,-0.025961773,0.007330383,324.35696,-14.575756,-11.6169815
3694102773000.0,-3.000382045042631,0.710578063361754,9.011775,0.0012217305,-0.016493361,0.00580322,324.359,-14.56939,-11.617382
3694107923000.0,-2.994252055532268,0.7152605889354642,9.024928709195704,-0.0027488936,-0.01985312,0.00580322,324.36166,-14.566508,-11.613678
3694112927000.0,-2.9900670666928653,0.7236305666142695,9.041668577154834,0.008246681,-0.023823744,0.0125227375,324.36218,-14.566937,-11.612102
3694117800000.0,-2.9879637,0.7236269719679315,9.058502612100307,0.0067195175,-0.017104227,-0.0009162979,324.3623,-14.558707,-11.612406
3694122801000.0,-2.9879637,0.7146974340169665,9.076361594760884,0.0018325958,-0.013133603,0.011301007,324.35382,-14.554524,-11.608589
3694127845000.0,-2.9879637,0.7103572185903452,9.095083214159107,0.010995574,-0.0009162979,0.009162978,324.3479,-14.552529,-11.610445
3694133190000.0,-2.9879637,0.7156943050255448,9.116432005734543,0.007330383,-0.009468411,-0.0067195175,324.34378,-14.545455,-11.6078
3694137781000.0,-2.9897901332169483,0.7182605,9.137655446730207,0.00030543262,-0.013744468,0.01282817,324.32892,-14.539448,-11.605533
3694142848000.0,-2.994369320307634,0.7182605,9.165130186750968,0.0061086523,-0.0125227375,0.01160644,324.3247,-14.5337715,-11.605241
3694147777000.0,-2.9951437682411,0.7146654023616497,9.179363561508636,0.007330383,-0.0125227375,0.009162978,324.31146,-14.526633,-11.601822
3694152796000.0,-2.986672502960874,0.7019585044413112,9.1624211194043,0.004886922,-0.015271631,0.002443461,324.30005,-14.519625,-11.598527
3694158159000.0,-2.979173630697548,0.6883500039536777,9.144669920383606,-0.0033597588,-0.013133603,0.004276057,324.2841,-14.513257,-11.594117
3694162885000.0,-2.9873632546548445,0.6760655680177328,9.132385655478153,-0.0021380284,-0.011911872,0.0125227375,324.26868,-14.508672,-11.588912
3694167778000.0,-2.995842270740975,0.663347043888537,9.119667308423052,-0.00030543262,-0.0036651916,0.0009162979,324.25156,-14.497613,-11.5888815
3694172786000.0,-2.9941649880644032,0.6641752119355968,9.120495582429122,-0.006414085,-0.003970624,0.0067195175,324.22806,-14.486127,-11.585024
3694177799000.0,-2.98996403440672,0.6683761655932797,9.124696623818693,0.0012217305,-0.010079277,0.010995574,324.2083,-14.478186,-11.582817
3694182806000.0,-2.9951380600838733,0.6775508850552803,9.121913976744183,0.005192355,0.0030543262,0.01985312,324.18988,-14.466239,-11.586416
3694187793000.0,-3.008793988991613,0.691206861494472,9.11280980232558,0.009162978,0.0070249503,0.007941248,324.17743,-14.455442,-11.5870495
3694192822000.0,-3.016694,0.7007694634979756,9.097567584291498,0.008246681,0.005497787,0.016493361,324.1605,-14.442027,-11.588523
3694197832000.0,-3.016694,0.7046544649554656,9.074257494412954,0.008857546,0.002443461,0.01038471,324.15106,-14.428664,-11.592531
3694203240000.0,-3.015788109584152,0.7086837,9.050625545600573,0.011301007,0.00030543262,0.013439035,324.1404,-14.419593,-11.59906
3694207861000.0,-2.9960422623594503,0.7086837,9.062473301356416,-0.00030543262,0.0018325958,0.011911872,324.13287,-14.406143,-11.606429
3694212868000.0,-2.9746470108870247,0.7086837,9.075310720328396,0.0027488936,-0.0009162979,0.008552114,324.1268,-14.399532,-11.613786
3694217801000.0,-2.961897065212992,0.7190531563189315,9.078813,0.007941248,0.0009162979,0.009468411,324.1196,-14.3905525,-11.622441
3694222760000.0,-2.952286399777396,0.7334692297379338,9.078813,0.009773844,-0.0030543262,0.010995574,324.11392,-14.381422,-11.628763
3694227874000.0,-2.96467007713332,0.7299073114333402,9.093826498748175,0.00061086525,-0.0070249503,0.0070249503,324.1064,-14.366578,-11.631803
3694232932000.0,-2.9848826598163987,0.7198010200918005,9.114038975902355,0.012217305,-0.0009162979,0.017104227,324.09415,-14.35904,-11.635396
3694237857000.0,-2.991699101615023,0.7107896967699531,9.102178471549296,0.0076358155,-0.0018325958,0.016187929,324.0863,-14.345523,-11.635821
3694242940000.0,-2.996269887943662,0.7016481241126761,9.08389542169014,0.011301007,0.00030543262,0.0009162979,324.0792,-14.33726,-11.639113
3694247822000.0,-2.9942805726915904,0.7056267546168188,9.069033013835735,0.010079277,0.0027488936,0.010079277,324.0767,-14.324803,-11.640792
3694252850000.0,-2.989555604543224,0.7150766909135512,9.054857813364734,0.009468411,0.011301007,0.0036651916,324.0822,-14.311842,-11.647044
3694257895000.0,-2.9848582367911747,0.7120495735823495,9.05629305612541,0.00030543262,-0.002443461,0.008552114,324.08826,-14.294715,-11.64848
3694262860000.0,-2.980257035707373,0.7028471714147474,9.065495650474164,0.009468411,0.005192355,0.011301007,324.09436,-14.282282,-11.658767
3694267929000.0,-2.9783869,0.7049865290974947,9.069236,0.0021380284,0.0027488936,0.0067195175,324.10632,-14.2655525,-11.661344
3694272798000.0,-2.9783869,0.7143696539993963,9.069236,0.004276057,0.004886922,0.0143553335,324.113,-14.2550745,-11.666276
3694277832000.0,-2.975407090557276,0.7271998349845201,9.081155051083591,0.011911872,0.005497787,0.009162978,324.12103,-14.239623,-11.6713705
3694282835000.0,-2.9704624847058825,0.7420334976470588,9.100933164705882,0.006414085,0.0125227375,0.009162978,324.12476,-14.222098,-11.677922
3694292828000.0,-3.0043535115075826,0.7540996023015165,9.121760701516504,0.0009162979,-0.0027488936,0.007330383,324.13544,-14.209866,-11.676972
3694297879000.0,-3.005491185585976,0.7610488491613462,9.119975170977169,0.006414085,-0.0061086523,0.008246681,324.14383,-14.199485,-11.681119
3694302799000.0,-2.9799972693431447,0.7712464688994698,9.10467850178552,0.00030543262,0.005497787,0.008246681,324.15192,-14.187208,-11.682913
3694307889000.0,-2.9798360921437688,0.764695307856231,9.089696567612688,-0.003970624,-0.0033597588,0.004581489,324.169,-14.177113,-11.682502
3694312811000.0,-2.998352102219385,0.7461792977806148,9.075809789649416,-0.005497787,-0.006414085,0.0027488936,324.18402,-14.166312,-11.686874
3694318766000.0,-3.00043280977183,0.7440985902281698,9.07592028083181,0.00580322,-0.0015271631,0.010995574,324.19296,-14.160951,-11.686878
3694322797000.0,-2.9929996566381054,0.7515317433618947,9.08335320111678,0.0015271631,0.00061086525,0.00580322,324.2064,-14.149961,-11.68661
3694327824000.0,-2.9966598964801263,0.7543936508799683,9.090563094522444,0.005497787,-0.0009162979,0.009162978,324.2177,-14.143226,-11.689662
3694332821000.0,-3.015586243958869,0.7496620640102828,9.095294780205656,-0.00061086525,0.004581489,0.0033597588,324.23224,-14.131699,-11.696367
3694337793000.0,-3.01806956754255,0.742890233771275,9.091815086294416,-0.0018325958,0.0106901415,0.0036651916,324.24075,-14.126318,-11.699132
3694342816000.0,-2.9989178739424704,0.7333143869712352,9.07745151607445,-0.0067195175,0.005192355,0.004581489,324.25107,-14.117898,-11.700685
3694347862000.0,-2.9858393240914656,0.7257129240914659,9.06711157972642,0.003970624,0.011301007,0.013439035,324.2618,-14.112472,-11.710242
3694352943000.0,-2.9808720189873417,0.7207456189873418,9.062144170886077,0.0033597588,0.019242255,0.007941248,324.27646,-14.10182,-11.719769
3694357836000.0,-2.982533319300184,0.7099676613996316,9.063805505893184,0.0067195175,0.0033597588,0.0033597588,324.289,-14.093477,-11.7203245
3694362992000.0,-2.9916268700920807,0.691780559815838,9.072899246593002,0.00030543262,0.0033597588,0.008552114,324.2985,-14.08257,-11.727193
3694367943000.0,-2.99607616870156,0.6799533,9.077348638120757,0.0012217305,0.0021380284,0.01282817,324.30927,-14.076388,-11.727122
3694372795000.0,-2.991630026361113,0.6799533,9.07290240292795,0.00580322,-0.0033597588,0.008552114,324.3212,-14.06927,-11.726289
3694382801000.0,-3.005912664991677,0.6919193183104453,9.075219134103204,-0.00061086525,-0.011911872,0.0067195175,324.3322,-14.055284,-11.725326
3694388609000.0,-3.0204076446176886,0.6972500873854828,9.076956148608176,0.00030543262,-0.0067195175,0.011301007,324.34186,-14.044872,-11.726692
3694392814000.0,-3.0275025449436224,0.6937026557434813,9.073408642882312,-0.00061086525,-0.01282817,0.01038471,324.3513,-14.033932,-11.722137
3694398084000.0,-3.0358477,0.6895301,9.068181320530252,0.0061086523,-0.0036651916,0.015577064,324.3579,-14.026369,-11.726951
3694402794000.0,-3.0358477,0.6895301,9.052849406016316,0.008552114,0.00061086525,0.0067195175,324.36945,-14.01654,-11.72993
3694407823000.0,-3.0358477,0.6895301,9.036479087950374,0.005497787,-0.0067195175,0.01160644,324.37433,-14.007446,-11.734226
3694412832000.0,-3.030843443729242,0.6995385602878381,9.04093740803416,0.004276057,-0.002443461,0.016187929,324.38058,-13.999049,-11.743538
3694417825000.0,-3.02328101892298,0.7146633309346829,9.056062099715325,0.009162978,0.0076358155,0.011911872,324.38803,-13.991321,-11.752721
3694422847000.0,-3.0172907827500004,0.7284340765185185,9.072816671574074,0.0033597588,0.00580322,0.0143553335,324.3939,-13.98452,-11.757853
3694427828000.0,-3.0217076845,0.7328509321481481,9.099317897592591,0.013133603,0.00580322,0.014049901,324.40085,-13.982959,-11.766741
3694433154000.0,-3.0265489585531093,0.7371360414468908,9.125862821437211,-0.0015271631,-0.0018325958,0.01282817,324.40277,-13.977092,-11.770353
3694437800000.0,-3.033725958762804,0.7299590412371965,9.104331745866602,0.003970624,-0.0012217305,0.005497787,324.40598,-13.978985,-11.776723
3694442875000.0,-3.041565665190741,0.7221193348092588,9.080812544721349,0.004276057,-0.007330383,0.004276057,324.40466,-13.975663,-11.7793
3694447815000.0,-3.055316317172465,0.7207334349265094,9.066763013429206,0.0061086523,-0.008246681,0.007941248,324.40366,-13.974009,-11.783673
3694452836000.0,-3.075654897853442,0.7258180402770434,9.061678301892778,-0.003970624,-0.003970624,0.0076358155,324.4042,-13.968644,-11.788226
3694457843000.0,-3.075368174,0.7222614742222222,9.06802262222222,0.004886922,0.0033597588,0.011911872,324.40604,-13.972737,-11.7929125
3694462839000.0,-3.0614997124347822,0.7130159297198068,9.08189074589372,0.0061086523,-0.0076358155,0.013439035,324.40973,-13.97152,-11.793981
3694467814000.0,-3.0525661912829425,0.7062485912829424,9.088389,0.00030543262,-0.016493361,0.011301007,324.4149,-13.972163,-11.802173
3694472796000.0,-3.0479603782121827,0.7016427782121827,9.088389,0.004581489,-0.009162978,0.004276057,324.42065,-13.9754925,-11.812047
3694477843000.0,-3.0432903528677824,0.6991069,9.08625503114421,-0.004886922,-0.016493361,0.006414085,324.42477,-13.970161,-11.811006
3694482815000.0,-3.038684892997389,0.6991069,9.081649955991876,0.00030543262,-0.004886922,0.009468411,324.4287,-13.969616,-11.8177805
3694487802000.0,-3.033990264193549,0.6991069,9.069525820967742,0.007330383,-0.00030543262,0.010995574,324.43433,-13.964768,-11.81985
3694492858000.0,-3.029109185483871,0.6991069,9.045120427419356,0.009468411,0.0061086523,0.0125227375,324.4381,-13.960131,-11.825508
3694497809000.0,-3.0262709,0.6952635663739772,9.03285050628617,0.002443461,-0.004581489,0.0070249503,324.44205,-13.9512825,-11.830497
3694502805000.0,-3.0262709,0.6857154337058471,9.0376241738176,0.0106901415,0.0030543262,0.008552114,324.44183,-13.9477825,-11.84165
3694507846000.0,-3.030028544388496,0.6855897665827443,9.06117208337368,0.0067195175,-0.002443461,0.008857546,324.45123,-13.936231,-11.847477
3694513121000.0,-3.0398121446596305,0.7002651669894452,9.114981987024304,0.009773844,-0.0009162979,0.005192355,324.4602,-13.928859,-11.85748
3694517899000.0,-3.0454245,0.7057444771568714,9.15466769922046,0.017715093,-0.006414085,0.008857546,324.46207,-13.924194,-11.861793
3694522799000.0,-3.0454245,0.697524047972322,9.17932907261102,0.01282817,-0.00580322,-0.0009162979,324.46823,-13.915729,-11.869411
3694527871000.0,-3.0454245,0.6897774147375505,9.200837852624495,0.00580322,-0.020463986,-0.004276057,324.47037,-13.909487,-11.871113
3694532900000.0,-3.0454245,0.693828704037685,9.160324959623148,0.005497787,-0.0076358155,0.008857546,324.4686,-13.904129,-11.88013
3694537772000.0,-3.0454245,0.6977535164199192,9.121076835800809,0.009468411,-0.0030543262,0.006414085,324.4699,-13.892337,-11.88435
3694542835000.0,-3.051796443209755,0.7022928882387649,9.094799113580487,0.0036651916,0.0036651916,0.005192355,324.46616,-13.878855,-11.891543
3694547890000.0,-3.0613176294129216,0.7070535061952995,9.075756741174157,-0.008552114,0.0030543262,0.0070249503,324.4624,-13.864958,-11.897734
3694552806000.0,-3.056189110606894,0.7086837,9.066439635405208,0.0030543262,0.006414085,0.012217305,324.4602,-13.859192,-11.909209
3694558891000.0,-3.0401619859735973,0.7086837,9.061097130363036,0.013744468,0.0036651916,0.0125227375,324.4594,-13.849704,-11.918846
3694562823000.0,-3.0379998531347963,0.7086837,9.04674603624608,0.0070249503,-0.0021380284,0.011911872,324.46338,-13.839818,-11.930681
3694567815000.0,-3.042683178526646,0.7086837,9.01864598608934,0.011911872,0.008246681,0.010995574,324.46646,-13.836118,-11.946075
3694572789000.0,-3.0415427037333336,0.7106245981333333,9.006079877333333,0.011911872,0.0106901415,0.016798794,324.4681,-13.829487,-11.954006
3694577843000.0,-3.0319819832987656,0.7154049583506172,9.015640797432098,0.015577064,0.009162978,0.005497787,324.4745,-13.824106,-11.964858
3694582797000.0,-3.024627033992726,0.7215481976847334,9.021352,0.014049901,0.0061086523,0.0076358155,324.47763,-13.819686,-11.976942
3694587794000.0,-3.020381866841125,0.730038443333629,9.021352,0.005497787,0.004581489,0.0125227375,324.48322,-13.813734,-11.989465
3694592841000.0,-3.0138817461109726,0.738539001555611,9.023601791365111,0.00580322,0.0030543262,0.016187929,324.48145,-13.807285,-12.002715
3694597891000.0,-2.993765765743283,0.746585393702687,9.039694491639631,0.02321288,0.0106901415,0.020158553,324.4778,-13.803585,-12.017484
3694602777000.0,-2.9743030568172366,0.7543704772731054,9.055264577489394,0.01863139,0.005192355,0.009468411,324.47763,-13.7944975,-12.028384
3694607937000.0,-2.978539513703538,0.7533245400537394,9.062902227675773,0.014049901,0.0012217305,0.0061086523,324.47382,-13.790804,-12.040794
3694613083000.0,-2.991781533676668,0.7489105487595163,9.067316311150918,0.013133603,0.003970624,0.007941248,324.47162,-13.786424,-12.05372
3694617796000.0,-2.9975405,0.7493119517038778,9.071557100176264,0.0076358155,0.009162978,0.016798794,324.46375,-13.7811985,-12.059606
3694622801000.0,-2.9975405,0.7540056340383862,9.076250880532706,0.015271631,0.007941248,0.009162978,324.46045,-13.778363,-12.065448
3694627832000.0,-2.9975405,0.7609990531548757,9.081028479923518,0.004886922,0.019547688,0.015577064,324.44928,-13.759604,-12.085378
3694632822000.0,-2.9975405,0.7706173446915568,9.085837198852772,0.007330383,0.005192355,0.004276057,324.44742,-13.745217,-12.099092
3694637796000.0,-2.992993523719126,0.7734478881200245,9.07929509491733,0.0033597588,0.0009162979,0.0027488936,324.43564,-13.728767,-12.117942
3694642838000.0,-2.983137180465401,0.7685196650336803,9.059582511328845,-0.0061086523,0.0012217305,0.014049901,324.42432,-13.711779,-12.133548
3694647817000.0,-2.971327541064199,0.759085141064199,9.050082,0.011911872,-0.004886922,0.015271631,324.41458,-13.704772,-12.145793
3694653000000.0,-2.9569734189126664,0.7447310189126662,9.050082,0.005497787,-0.0021380284,0.002443461,324.4052,-13.688258,-12.160426
3694657806000.0,-2.944257680791942,0.7338148997221257,9.048282362278568,-0.0027488936,-0.017104227,0.003970624,324.39185,-13.676817,-12.166539
3694663055000.0,-2.931162300929142,0.7250846768669676,9.043917159690864,0.0033597588,-0.009773844,-0.0009162979,324.3824,-13.666489,-12.180659
3694667790000.0,-2.921556814382491,0.7188913012089629,9.039243437102655,0.0012217305,-0.005497787,0.0021380284,324.36746,-13.654154,-12.182639
3694672798000.0,-2.926555419489317,0.7238898019280875,9.029246748827514,-0.0012217305,-0.0027488936,-0.0009162979,324.35547,-13.642768,-12.186936
3694677914000.0,-2.934850451319648,0.7321847740175953,9.024612560117305,-0.00030543262,-0.0061086523,-0.00061086525,324.33096,-13.631812,-12.189517
3694682817000.0,-2.953210101466276,0.7505445200195504,9.038382177908112,-0.006414085,-0.0061086523,0.0033597588,324.30618,-13.618255,-12.193588
3694687850000.0,-2.973724530955904,0.7636872387984611,9.051720208345664,-0.005192355,-0.0030543262,0.0106901415,324.28754,-13.606371,-12.198435
3694692848000.0,-3.00205535646641,0.7495218506954721,9.061163997632436,-0.0009162979,-0.0030543262,0.009468411,324.27066,-13.593447,-12.202623
3694697848000.0,-3.028693588628269,0.7368084262618365,9.075292737381636,0.007330383,-0.0030543262,0.013133603,324.25162,-13.586919,-12.210136
3694702801000.0,-3.045176523759882,0.7326876817218313,9.116500182781689,-0.004276057,-0.00030543262,0.0067195175,324.23593,-13.575266,-12.218991
3694707821000.0,-3.061882426114152,0.728511195230649,9.15826504769351,0.0021380284,-0.0021380284,0.0076358155,324.21985,-13.56786,-12.231823
3694713782000.0,-3.0595076349367867,0.7024852099599137,9.139651909959914,-0.0036651916,0.00030543262,0.0067195175,324.20584,-13.553379,-12.246795
3694722823000.0,-3.047605978882256,0.6910462816766156,9.102329434985725,0.0076358155,0.005497787,0.00580322,324.1918,-13.545574,-12.26161
3694727846000.0,-3.0392827214378406,0.7035311678432391,9.085683007007528,-0.014049901,0.0033597588,0.0009162979,324.17996,-13.526089,-12.274734
3694732807000.0,-3.0314842160842472,0.7174106222686756,9.07444944774,0.0033597588,0.00030543262,0.00580322,324.16028,-13.520515,-12.287598
3694737858000.0,-3.0238526519365783,0.7326736708763903,9.066817764060898,-0.00030543262,0.002443461,0.0070249503,324.14304,-13.502645,-12.301514
3694742879000.0,-3.016976172066632,0.7467087308797501,9.060787670588237,-0.002443461,-0.004581489,0.005497787,324.12976,-13.492472,-12.310503
3694747838000.0,-3.021920664216554,0.7417642903591879,9.080565329411764,0.0012217305,-0.0030543262,0.0027488936,324.11603,-13.482915,-12.322174
3694752836000.0,-3.0251111273290743,0.7374141,9.097386101554305,-0.003970624,-0.0036651916,-0.00030543262,324.10727,-13.475674,-12.327445
3694758111000.0,-3.0154767952989414,0.7374141,9.092568834938495,0.00061086525,0.0015271631,0.0106901415,324.095,-13.472767,-12.333906
