timestamp,acc_x,acc_y,acc_z,gyro_x,gyro_y,gyro_z,ori_azimuth,ori_pitch,ori_roll
7112395360000.0,-0.3237328533373059,9.774123262475886,1.886236741193403,-7.2017956,-4.532315,1.8994855,329.86536,-10.877717,-34.480404
7112399351000.0,-0.326242036527002,9.766402704396482,1.8995547119421077,-1.2883148,-1.0002918,3.163671,329.1364,-12.462877,-35.3599
7112404302000.0,-0.3293547816966801,9.756825033875025,1.91607620359253,3.7568212,0.73731434,0.032375857,329.67834,-12.235991,-34.686043
7112409340000.0,-0.3325222246707941,9.747079062538504,1.932888014324671,-1.169807,0.73914695,0.035124753,328.57855,-11.801045,-34.18749
7112414331000.0,-0.3356601182563048,9.737424012331964,1.9495429860126647,-1.1655309,0.7486154,0.035124753,328.34775,-13.186477,-34.36961
7112419416000.0,-0.3388571106190221,9.727587119865468,1.9665116357889527,-1.1676689,0.75991637,0.038789943,328.09583,-13.423076,-34.54141
7112424341000.0,-0.341953509318409,9.718059746139318,1.982946365414954,-1.1835514,0.7693848,0.03359759,327.8257,-13.663515,-34.7048
7112429331000.0,-0.3450907741935239,9.708406630424902,1.9995980001020088,-1.2067643,0.77732605,0.03359759,327.53238,-13.910696,-34.859215
7112434318000.0,-0.3482261529374513,9.698759318186868,2.016239623786246,-1.210735,0.7516697,0.03359759,327.2251,-14.165214,-34.99681
7112439307000.0,-0.3513627891021704,9.68910813696458,2.0328879214723616,-1.1939361,0.7119634,0.021685716,326.9054,-14.42446,-35.12345
7112444355000.0,-0.3545365191802426,9.67934282070679,2.049733102213896,-1.1371256,0.8222246,0.057726767,326.54022,-14.707401,-35.269684
7112449377000.0,-0.3576939027880235,9.669627801244308,2.066491520931008,-1.2770138,0.77366084,0.055588737,326.19885,-14.9473505,-35.356785
7112454367000.0,-0.3608311676631384,9.65997468552989,2.083143155618062,-1.2583824,0.7593055,0.058643065,325.81308,-15.250539,-35.469368
7112459337000.0,-0.363955858330337,9.650360259658015,2.099728050286332,-1.2617421,0.7583892,0.06688975,325.4172,-15.523721,-35.562817
7112464361000.0,-0.3671144993589096,9.64064137121128,2.1164931430053224,-1.2617421,0.73884153,0.07727446,325.0113,-15.809188,-35.63773
7112469361000.0,-0.3702580513379826,9.630968910575591,2.1331781477017704,-1.2641857,0.7309003,0.08277224,324.59174,-16.100023,-35.706287
7112474391000.0,-0.3734204646289301,9.62123841517609,2.149963262426397,-1.2696834,0.7141015,0.087659165,324.16205,-16.39765,-35.75758
7112479340000.0,-0.3765319523778165,9.611664613638888,2.166478080074941,-1.2880094,0.66798115,0.084910266,323.7284,-16.69693,-35.79066
7112484304000.0,-0.3796528707826403,9.60206179471978,2.1830429527375745,-1.2198979,0.63804877,0.08246681,323.28455,-17.020702,-35.814888
7112489304000.0,-0.3827964227617133,9.592389334084093,2.1997279574340225,-1.1655309,0.57360244,0.07941248,322.84485,-17.341473,-35.810226
7112494375000.0,-0.3859846131788892,9.582579524507375,2.21664988919716,-1.0461067,0.5039638,0.058643065,322.40988,-17.693336,-35.79086
7112499363000.0,-0.3891206206332124,9.572930277777216,2.2332948498823364,-0.91721416,0.43401974,0.035430185,321.97998,-18.06268,-35.74785
7112504312000.0,-0.3922321083820989,9.563356476240012,2.2498096675308803,-0.7858781,0.38026363,0.026572637,321.5551,-18.461956,-35.684586
7112509361000.0,-0.3954064671705669,9.553589225490096,2.2666581852733536,-0.6579019,0.20708331,-0.01038471,321.17007,-18.883507,-35.57083
7112514322000.0,-0.3985254994442031,9.543992210047367,2.283213046933169,-0.31673363,0.0076358155,-0.049480084,320.79816,-19.383406,-35.431488
7112519296000.0,-0.401652704952985,9.534370046206988,2.2998112896051954,0.020463986,0.009468411,-0.03604105,320.41666,-19.916042,-35.29236
7112524348000.0,-0.4048289498726404,9.524596991980689,2.316669818350486,0.01038471,0.044898596,-0.036651913,320.07715,-20.439022,-35.11144
7112529310000.0,-0.4079486108566724,9.514998042045832,2.3332280170112414,-0.027794369,0.052839845,-0.04062254,319.7402,-21.03368,-34.91772
7112534304000.0,-0.4110883905733706,9.505337188362908,2.349892999702053,-0.032986723,0.059864793,-0.040317107,319.39914,-21.633852,-34.727547
7112539301000.0,-0.4142300564212562,9.495670531203602,2.366567993395684,-0.029321533,0.06169739,-0.047036625,319.0636,-22.224907,-34.534824
7112544349000.0,-0.4174037864993283,9.485905214945811,2.383413174137217,-0.032070424,0.057421334,-0.046120327,318.7283,-22.813864,-34.336834
7112549391000.0,-0.4205737443150256,9.476151505640788,2.400238332873115,-0.03634648,0.05009095,-0.038789943,318.39645,-23.402075,-34.134274
7112554299000.0,-0.4236594549376836,9.466657018280795,2.416616333483148,-0.0571159,0.03940081,-0.039095376,318.07144,-23.983276,-33.926704
7112559318000.0,-0.4268149524142772,9.456947802294694,2.4333647411974426,-0.070249505,0.021685716,-0.038789943,317.75034,-24.564878,-33.710728
7112564311000.0,-0.4299541034205795,9.447288883103898,2.4500263868873158,-0.09040806,0.0061086523,-0.03970624,317.4353,-25.137924,-33.489445
7112569349000.0,-0.4331215463946935,9.43754291176738,2.4668381976194564,-0.092240654,-0.0018325958,-0.03145956,317.12372,-25.711601,-33.261196
7112574382000.0,-0.4362858458168284,9.427806612891496,2.483633323346901,-0.11728613,-0.010995574,-0.01863139,316.8188,-26.273645,-33.025505
7112579320000.0,-0.4393904177513609,9.418254090767691,2.5001114339851127,-0.122783914,-0.013439035,-0.014049901,316.51907,-26.837055,-32.787003
7112584316000.0,-0.4425314548888507,9.408589368100513,2.5167830906778037,-0.1414153,-0.0106901415,-0.012217305,316.2223,-27.390678,-32.543808
7112589297000.0,-0.4456630613704033,9.39895366281524,2.533404692356405,-0.14966199,-0.014049901,-0.006414085,315.93,-27.943817,-32.29525
7112594300000.0,-0.4488084994806637,9.389275398703171,2.5500997080556704,-0.15332718,-0.01740966,-0.0021380284,315.64255,-28.490568,-32.04556
7112599369000.0,-0.4410391894613942,9.386710799035482,2.5499522832227117,-0.15607607,-0.03359759,0.004886922,315.36133,-29.033684,-31.789146
7112604327000.0,-0.4260432802948696,9.389091100341892,2.5382888043358163,-0.15607607,-0.056505036,0.0015271631,315.0895,-29.571907,-31.530142
7112609397000.0,-0.410708617230271,9.3915251720691,2.526361850330864,-0.1572978,-0.08307768,0.005192355,314.856,-30.06202,-31.237808
7112614306000.0,-0.3958609128941537,9.39388194881641,2.5148136418081197,-0.15760323,-0.10476339,0.013744468,314.6315,-30.548677,-30.9419
7112619287000.0,-0.3807954381949889,9.396273292262803,2.503096056423766,-0.1518,-0.13072516,0.0070249503,314.42218,-31.030373,-30.642056
7112624367000.0,-0.3654305292466337,9.39871216492044,2.491145577854701,-0.13713925,-0.14355333,0.013133603,314.21484,-31.513445,-30.33807
7112629353000.0,-0.3503499316055906,9.40110590883205,2.479416230188292,-0.13255776,-0.16187929,0.0125227375,314.02332,-31.988888,-30.030935
7112634457000.0,-0.3349124325362195,9.403556303722716,2.4674092926653564,-0.124005646,-0.16493362,0.017715093,313.8341,-32.466324,-29.723959
7112639308000.0,-0.3202401543258906,9.405885235073542,2.455997526614464,-0.11575896,-0.14110987,0.02107485,313.64963,-32.939877,-29.421185
7112644362000.0,-0.3049538846753025,9.408311625312065,2.4441082119120905,-0.12308934,-0.13103059,0.015882496,313.47525,-33.406635,-29.11725
7112649347000.0,-0.289876311622635,9.410704889130631,2.4323812167020926,-0.11911872,-0.11728613,0.008552114,313.30063,-33.873398,-28.821224
7112654440000.0,-0.2744720830253963,9.413150002997824,2.420400156199681,-0.10934488,-0.10445796,-0.002443461,313.13187,-34.333553,-28.530882
7112659307000.0,-0.2597514114010567,9.415486615837334,2.4089507508462087,-0.10567969,-0.0888809,-0.014660766,312.9672,-34.786926,-28.247803
7112664304000.0,-0.2446375432878813,9.417885640772417,2.397195526159276,-0.101098195,-0.06872234,-0.022296581,312.80576,-35.2368,-27.971748
7112669295000.0,-0.2295418227049599,9.42028178514924,2.38545441621081,-0.08368854,-0.062308256,-0.034208454,312.65305,-35.682858,-27.701218
7112674366000.0,-0.2142041350519856,9.42271633696949,2.373525109749446,-0.07666359,-0.07360926,-0.04153884,312.5056,-36.122017,-27.433847
7112679316000.0,-0.1992324225924663,9.425092797531557,2.361880450513841,-0.07147124,-0.08246681,-0.040927973,312.36218,-36.559093,-27.17118
7112684393000.0,-0.1838765874092381,9.427530229910063,2.3499370293140096,-0.062002823,-0.095294975,-0.044898596,312.2297,-36.99173,-26.909712
7112689305000.0,-0.1690198093079938,9.429888446936504,2.3383817634220314,-0.056199603,-0.11911872,-0.04337143,312.10486,-37.420517,-26.645187
7112694294000.0,-0.1539301379018237,9.432283631127245,2.326645358386388,-0.05009095,-0.13103059,-0.04917465,311.98755,-37.84453,-26.38511
7112699346000.0,-0.138649917427987,9.43470906117968,2.3147607485968376,-0.044898596,-0.14905111,-0.04795292,311.87943,-38.26577,-26.119728
7112704352000.0,-0.1235088280194307,9.437112406952146,2.302984351802204,-0.03268129,-0.15363261,-0.044898596,311.77643,-38.684162,-25.858164
7112709302000.0,-0.1085371155599113,9.439488867514212,2.2913396925665985,-0.0143553335,-0.1563815,-0.040011674,311.68076,-39.10036,-25.59552
7112714300000.0,-0.0934202228583603,9.441888372542335,2.2795821154232545,-0.0021380284,-0.14660765,-0.029932396,311.58588,-39.513905,-25.335745
7112720252000.0,-0.0754178728464292,9.44474588633333,2.265580294863594,0.01160644,-0.14935656,-0.032070424,311.5004,-39.925503,-25.07731
7112724333000.0,-0.0630745276853588,9.446705146041168,2.255979920249351,0.029626964,-0.14446963,-0.034513887,311.41312,-40.337013,-24.823439
7112729419000.0,-0.0476914712067496,9.44914689925706,2.244015326941818,0.05009095,-0.13255776,-0.032986723,311.3287,-40.74706,-24.57305
7112734334000.0,-0.0328256193403784,9.451506556562627,2.2324530036806065,0.059253927,-0.113926366,-0.030848695,311.24622,-41.15276,-24.328321
7112739345000.0,-0.0176694069899437,9.45391230280031,2.220664844603916,0.07544186,-0.10629055,-0.038789943,311.16943,-41.55796,-24.08853
7112744312000.0,-0.0026462765280382,9.456296924944104,2.20898019360932,0.09712757,-0.096516706,-0.03359759,311.08865,-41.963333,-23.852545
7112749372000.0,0.0126581406528037,9.458726195740883,2.19707676416848,0.09101892,-0.08307768,-0.034513887,311.0122,-42.35793,-23.624542
7112754293000.0,0.027542140049429,9.46108873360471,2.1855003261688006,0.08002335,-0.07544186,-0.032070424,310.9369,-42.752033,-23.39834
7112759306000.0,0.0427044015766149,9.463495440028474,2.173707462179288,0.07666359,-0.071776666,-0.02443461,310.86224,-43.14137,-23.175833
7112764303000.0,0.0578182696897903,9.465894464963556,2.161952237492355,0.06963864,-0.0711658,-0.027183503,310.7919,-43.520203,-22.958681
7112769294000.0,0.0729139902727117,9.46829060934038,2.1502111275438893,0.054061573,-0.089491755,-0.014049901,310.72382,-43.89406,-22.736404
7112774357000.0,0.0882274812186807,9.470721320416288,2.138300640733815,0.026572637,-0.102319926,-0.005497787,310.6594,-44.256542,-22.519686
7112779317000.0,0.1032294395619566,9.473102581908783,2.126632456934098,0.02443461,-0.112399206,-0.00061086525,310.6001,-44.617268,-22.300951
7112784303000.0,0.1183100372029998,9.475496325820393,2.1149031092676887,0.026267206,-0.13805555,0.005192355,310.5489,-44.96827,-22.077946
7112789336000.0,0.1335327904976989,9.477912634105015,2.103063196149951,0.010995574,-0.16157386,0.015882496,310.50082,-45.310654,-21.854494
7112794266000.0,0.148444011189705,9.480279492806226,2.091465586042571,0.0015271631,-0.1826487,0.021685716,310.46124,-45.649616,-21.629843
7112799396000.0,0.1211905034541644,9.488158789628075,2.312012801215296,0.004886922,-0.19150625,0.02687807,310.4254,-45.984177,-21.404327
7112804326000.0,0.0766726499392352,9.498051845678363,2.623637713839707,0.003970624,-0.18845193,0.027488936,310.39444,-46.310314,-21.180374
7112809319000.0,0.06703765,9.5152564296875,2.190220733333333,0.007330383,-0.19761491,0.030848695,310.34705,-46.708252,-20.894737
7112814346000.0,0.06703765,9.53454421905048,1.5488979858974357,0.014660766,-0.18509217,0.028710667,310.2982,-47.100266,-20.618734
7112819353000.0,0.0353505056944983,9.563145317799354,1.6708646500323625,0.006414085,-0.1863139,0.044898596,310.2768,-47.453373,-20.32013
7112824354000.0,-0.0045054824020342,9.594144119186316,1.9897125492556635,0.022907447,-0.1740966,0.040927973,310.25613,-47.80483,-20.036516
7112829358000.0,-0.019153614,9.64838627755794,2.2011660404560014,0.02565634,-0.15760323,0.038179077,310.17316,-48.24969,-19.780937
7112834345000.0,-0.019153614,9.715881333521764,2.3496552105615227,0.016798794,-0.14844026,0.029932396,310.09534,-48.687656,-19.531397
7112839321000.0,-0.0101697760272286,9.753681009511377,2.1826144222678105,0.020158553,-0.13439035,0.02565634,310.04083,-49.088436,-19.265688
7112844327000.0,0.007712169456546,9.762622162439389,1.704272356769862,0.026572637,-0.10629055,0.02107485,309.98608,-49.47927,-19.01053
7112849283000.0,0.0208259061524056,9.768343,1.473466869558721,0.030543262,-0.1001819,0.015577064,309.94464,-49.86495,-18.734388
7112854353000.0,0.025662484140253,9.768343,1.6911129446658033,0.033292156,-0.09437868,0.0015271631,309.9024,-50.24177,-18.471848
7112859325000.0,0.0253092274022988,9.77176426172312,1.8839091979961349,0.03573562,-0.089186326,-0.0021380284,309.81528,-50.703754,-18.222164
7112864374000.0,0.0154723245402298,9.781601363340451,2.041299691038552,0.028405234,-0.10048734,-0.008552114,309.7392,-51.152664,-17.978518
7112869314000.0,0.0002295310106068,9.778149730647629,2.1412363616114227,0.035430185,-0.079107046,-0.0030543262,309.66943,-51.59374,-17.709154
7112874351000.0,-0.0243693347984701,9.753550882304946,2.155995670617032,0.033292156,-0.07666359,-0.005192355,309.6146,-52.018677,-17.444088
7112879316000.0,-0.0397200885105877,9.733961438884618,2.157294096135299,0.029321533,-0.04795292,-0.00030543262,309.5516,-52.45277,-17.153828
7112884355000.0,-0.0430926177156335,9.720471047382766,2.14043145891397,0.021685716,-0.032375857,-0.0036651916,309.49805,-52.872124,-16.872293
7112891928000.0,-0.04515479751834,9.698965690333363,2.104387786232668,0.022296581,-0.00030543262,-0.007330383,309.4282,-53.326706,-16.564941
7112894320000.0,-0.0293858871798603,9.685449678926147,2.0345540177991936,0.018325957,0.00030543262,-0.0125227375,309.3689,-53.763233,-16.26613
7112899308000.0,0.0034967736764677,9.65726495279772,1.8889307582063133,0.023823744,0.0009162979,-0.014660766,309.291,-54.264263,-15.919837
7112904218000.0,0.0271597269636143,9.643845,1.811587192052325,0.028405234,-0.0027488936,-0.012217305,309.2215,-54.745213,-15.586284
7112909214000.0,0.0429382438733648,9.643845,1.7958086850280313,0.032986723,0.00030543262,-0.0076358155,309.15695,-55.20982,-15.2662945
7112914190000.0,0.047884032,9.637550778163249,1.8003040355883204,0.036957346,0.003970624,-0.008552114,309.07693,-55.77413,-14.873074
7112919186000.0,0.047884032,9.628329097137902,1.8141362682567213,0.04062254,0.009468411,-0.00580322,309.00375,-56.316715,-14.495335
7112924236000.0,0.0658092549981762,9.609753326646404,1.8405060426950357,0.037873644,0.016187929,-0.004581489,308.90802,-56.993225,-13.99948
7112929236000.0,0.0949180939039513,9.585495981155017,1.8744663263829788,0.03604105,0.019547688,-0.00580322,308.8249,-57.633583,-13.531449
7112934189000.0,0.1083855308283964,9.576807,1.8987935350637613,0.026267206,0.019547688,-0.0070249503,308.70313,-58.503567,-12.856744
7112939185000.0,0.1131897976021688,9.576807,1.9180106523245304,0.023518313,0.025350908,-0.0067195175,308.5999,-59.30711,-12.235543
7112944183000.0,0.1266276840441598,9.55632138673294,1.9600561846300897,0.022602014,0.03573562,-0.0106901415,308.47162,-60.220333,-11.513999
7112949243000.0,0.1451551724593767,9.52389811393615,2.0156386063467786,0.0036651916,0.040011674,-0.02107485,308.3662,-61.05183,-10.852339
7112954395000.0,0.1722579915912155,9.512487495376616,2.053452049797727,-0.01282817,0.050701816,-0.018020526,308.27316,-61.813015,-10.244516
7112959219000.0,0.2034070549084954,9.516937451839723,2.075701460392988,-0.045814894,0.061391957,-0.020463986,308.1963,-62.505566,-9.686163
7112964214000.0,0.2312083285104955,9.519346,2.09868576708521,-0.047036625,0.05955936,-0.026572637,308.13348,-63.136517,-9.170648
7112969216000.0,0.2541658688248825,9.519346,2.1216432834275856,-0.07788532,0.06658431,-0.02107485,308.07443,-63.707657,-8.690339
7112974262000.0,0.2955048033802817,9.52325382261686,2.1375818705041847,-0.10445796,0.07391469,-0.027488936,308.02588,-64.23704,-8.241221
7112979249000.0,0.3637466304225352,9.533002852827108,2.142456283813023,-0.11056661,0.09407325,-0.029321533,307.97794,-64.72937,-7.8205304
7112984223000.0,0.4414673898573566,9.550892087980053,2.1596621856558604,-0.12156218,0.09682214,-0.028710667,307.93274,-65.182106,-7.422841
7112989216000.0,0.5320931339451371,9.579510818453866,2.1930505883291773,-0.14477506,0.0852157,-0.032986723,307.89233,-65.60038,-7.0511136
7112994213000.0,0.6211239844301387,9.61627713818116,2.223323994786472,-0.160963,0.077579886,-0.027488936,307.847,-65.99299,-6.694442
7112999250000.0,0.7085995160213981,9.664388275002269,2.2495665866715027,-0.183565,0.064751714,-0.014966198,307.80994,-66.35393,-6.3547397
7113004268000.0,0.8008040251006712,9.711566164274652,2.243480356117708,-0.1994475,0.056505036,0.0015271631,307.77527,-66.68946,-6.018188
7113009295000.0,0.9101625302013424,9.756304128549305,2.129151012235416,-0.22540927,0.06261369,0.018325957,307.7414,-66.996704,-5.6958632
7113014293000.0,0.99986082157247,9.790859380653758,2.0057250195186955,-0.25625798,0.07452556,0.034513887,307.70734,-67.281296,-5.3717957
7113019293000.0,1.044903425632986,9.802119865093674,1.859336605314729,-0.2941316,0.103847094,0.04917465,307.6669,-67.54017,-5.0619297
7113024340000.0,1.0903694301716704,9.813486198087324,1.7115721400172454,-0.3359759,0.16035213,0.06169739,307.6175,-67.78772,-4.757831
7113029301000.0,1.1906482965813434,9.813147092080396,1.4418729094657277,-0.36835176,0.22204952,0.063224554,307.55994,-68.01202,-4.4703965
7113034357000.0,1.31126238598179,9.80898790018897,1.1257806880604706,-0.4147775,0.2919936,0.054061573,307.48636,-68.20655,-4.2020235
7113039343000.0,1.4178288710843374,9.810342337349397,0.9259502789156626,-0.4636467,0.3463606,0.06078109,307.40582,-68.38367,-3.9607892
7113045286000.0,1.525292866678655,9.820577207156983,0.8645423157840316,-0.50335294,0.3659083,0.058337633,307.31967,-68.5394,-3.7363532
7113049384000.0,1.5922855916554297,9.817729011184262,0.8444871927738558,-0.54183745,0.31612277,0.070249505,307.2527,-68.67934,-3.5381722
7113054304000.0,1.6483471710954232,9.780354650908226,0.8968113361862458,-0.60048056,0.26847526,0.059864793,307.18408,-68.796165,-3.352744
7113059287000.0,1.705126612223368,9.742501716506702,0.9498054838740382,-0.657291,0.19120082,0.054061573,307.13876,-68.89945,-3.1527789
7113064293000.0,1.72682882866996,9.663956043806506,1.048355536816106,-0.7171558,0.124005646,0.04428773,307.106,-68.98079,-2.9568717
7113069316000.0,1.731312402758878,9.56531722658216,1.1694121308509646,-0.7761043,0.09987647,0.035124753,307.08356,-69.0428,-2.7631724
7113074312000.0,1.7061416969298246,9.50943322368421,1.265482612280702,-0.8567385,0.035430185,0.035124753,307.0829,-69.06452,-2.5590847
7113079373000.0,1.6541777067836256,9.49053734385965,1.3410665261988304,-0.8903361,-0.02565634,0.043676864,307.0879,-69.08101,-2.357266
7113084327000.0,1.5446074026303895,9.46017658654976,1.3957500525445177,-0.9584476,-0.067500606,0.06078109,307.097,-69.04641,-2.146088
7113089298000.0,1.3724794168941516,9.417144612582485,1.4301756766519027,-1.028697,-0.105374254,0.07238753,307.12027,-69.00061,-1.9335703
7113094263000.0,1.1794243104097453,9.369190035840129,1.433408731098359,-1.0873401,-0.12980886,0.0852157,307.1462,-68.93473,-1.7169362
7113099377000.0,0.9181017420819492,9.305091788986209,1.3446576371287629,-1.1462886,-0.13927728,0.089491755,307.17648,-68.84848,-1.503287
7113104369000.0,0.6514952489460486,9.25877384681522,1.2333391885476823,-1.2125676,-0.116675265,0.06352998,307.20898,-68.74891,-1.3111128
7113109344000.0,0.3579195044450813,9.251946365981228,1.062655646669055,-1.2654073,-0.06688975,0.03481932,307.2346,-68.636826,-1.1272212
7113114334000.0,0.0634586069456186,9.24509829977789,0.89145748104607,-1.2962561,0.004276057,-0.0009162979,307.26398,-68.532295,-0.98251605
7113119300000.0,-0.1385566191899355,9.286842792881252,0.7901702943356858,-1.3191634,0.032070424,-0.040011674,307.29343,-68.41586,-0.85275847
7113124374000.0,-0.2478989371034059,9.381275138181444,0.7603496536851795,-1.3005321,0.04520403,-0.07941248,307.31027,-68.30392,-0.74318814
7113129309000.0,-0.3178352621945957,9.431436000821945,0.7443716210931881,-1.2705997,0.06261369,-0.12980886,307.35257,-68.22558,-0.7032557
7113134294000.0,-0.3570752687085174,9.446151302887085,0.7394666228398232,-1.2299771,0.070554934,-0.16584991,307.3965,-68.15705,-0.67273104
7113139294000.0,-0.3658685634089459,9.442139599252984,0.8594444666939964,-1.2027937,0.07727446,-0.20952678,307.4568,-68.10071,-0.67130345
7113144308000.0,-0.3527452760007288,9.424641529470712,1.0694171017673315,-1.1863003,0.10354166,-0.2648101,307.51495,-68.05369,-0.68657
7113149340000.0,-0.3251683686232694,9.400936629718808,1.3359106442170436,-1.1985176,0.112704635,-0.31764993,307.59402,-67.99863,-0.7178203
7113154322000.0,-0.2759345729607017,9.368114293490413,1.6846500015994497,-1.2186762,0.11056661,-0.36010507,307.6738,-67.94696,-0.762497
7113159485000.0,-0.2313410731364099,9.339259139465645,2.0526909274151848,-1.2492194,0.10842858,-0.40194935,307.7495,-67.853355,-0.8174134
7113164320000.0,-0.2458529829851915,9.357399007835149,2.455396308281752,-1.2632693,0.071776666,-0.42424592,307.83667,-67.76135,-0.87339115
7113169305000.0,-0.2608151072036355,9.376101643579096,2.8705951342631044,-1.2699889,0.03848451,-0.43096542,307.9064,-67.6084,-0.9204708
7113174366000.0,-0.3427044018244918,9.581595822905305,3.3599446342092216,-1.2819008,-0.03604105,-0.4083634,307.99445,-67.455025,-0.95590365
7113179362000.0,-0.4850317972830937,9.956390937630143,3.905533099058007,-1.2901474,-0.16646078,-0.31306845,308.09717,-67.30665,-0.9628955
7113184366000.0,-0.6222686340973569,10.099770082253292,4.128470783222777,-1.2705997,-0.30848694,-0.16310102,308.18787,-67.09896,-0.93459415
7113189316000.0,-0.7528880964914788,10.017528299928564,4.036553238575365,-1.2308935,-0.29718593,-0.0888809,308.2669,-66.90189,-0.90413606
7113194297000.0,-0.8558888525740759,9.804204189605253,3.7620656762474662,-1.2647965,-0.049480084,-0.22113322,308.31396,-66.642075,-0.91171145
7113199379000.0,-0.9357439602548016,9.470691624505358,3.320514038818647,-1.4208726,0.24648413,-0.38973203,308.33737,-66.36646,-0.91866904
7113204338000.0,-0.9973160931062448,9.15115511030008,2.868009070884023,-1.5836681,0.48533243,-0.5015204,308.33173,-66.08731,-0.98406696
7113209334000.0,-1.0409709729521492,8.835870232765613,2.387805595174372,-1.6166549,0.7058548,-0.5907067,308.2693,-65.80704,-1.1162037
7113214299000.0,-1.026354121607456,8.5601010474301,2.071861838709975,-1.5720617,0.88239485,-0.6740898,308.20462,-65.532715,-1.3103921
7113219303000.0,-0.9511783420596106,8.32130723069115,1.9215102703792564,-1.4902058,1.0122037,-0.7486154,308.1056,-65.26615,-1.5386217
7113224334000.0,-0.8653460449484952,8.024699362351042,1.8893409267925672,-1.4013249,1.0778717,-0.820392,308.02145,-65.0455,-1.8096741
7113229366000.0,-0.7582776878166028,7.611026478489195,2.103477630892749,-1.3399329,1.1038336,-0.92271197,307.9295,-64.84288,-2.1092136
7113234305000.0,-0.5769548332525809,7.319679495526497,2.385712441293875,-1.2974777,1.0589349,-0.9944886,307.85654,-64.651344,-2.4108272
7113239303000.0,-0.2475337658031658,7.244383207845837,2.80925385065382,-1.3066407,0.9502009,-1.0146471,307.80273,-64.46496,-2.7104666
7113244295000.0,0.0441590384980812,7.156208882013185,3.294262368090131,-1.3423764,0.77121735,-1.0036516,307.77612,-64.225655,-2.9830153
7113249322000.0,0.2525891001273246,7.037782644868641,3.924289555967726,-1.3967434,0.56199604,-1.0112875,307.7923,-63.983074,-3.2388632
7113254321000.0,0.395823534116968,6.9591640298384,4.471355392862639,-1.4624114,0.41080686,-0.9786061,307.79868,-63.66969,-3.422221
7113259316000.0,0.3728165429761447,6.982170963322432,4.8118587675740665,-1.5494597,0.30298916,-0.9251554,307.8452,-63.34477,-3.5746357
7113264291000.0,0.3007645415995647,7.021574260282916,4.991523723612622,-1.6157386,0.2593123,-0.8579602,307.8624,-62.92718,-3.6738377
7113269294000.0,0.022707151602285,7.13019053351469,4.504923451033732,-1.6743816,0.24190263,-0.8384125,307.8964,-62.49994,-3.7562346
7113274645000.0,-0.280563742362508,7.253735438262358,3.999606884870533,-1.6966782,0.32436943,-0.8029824,307.8918,-62.0236,-3.8298798
7113279308000.0,-0.6341473324534559,7.473530578322276,3.78936805090948,-1.7263051,0.39095375,-0.7800749,307.8907,-61.54312,-3.893238
7113284359000.0,-0.9854140658470996,7.699360784287361,3.605827855205532,-1.704314,0.54275376,-0.70249504,307.8866,-61.13921,-4.0061326
7113289298000.0,-1.1216986839608143,7.8401882198424895,3.7148555686707647,-1.6716328,0.61544675,-0.6374379,307.88135,-60.74303,-4.10973
7113294630000.0,-1.2408523715886477,7.981764161633642,3.8485646478757465,-1.649947,0.5873469,-0.59986967,307.89752,-60.38542,-4.2543764
7113299376000.0,-1.115002327797006,8.021092268235702,4.100264653326988,-1.6780468,0.48502702,-0.57910025,307.90613,-60.035625,-4.3804913
7113304355000.0,-0.9829738052435752,8.062351147875745,4.36432161226962,-1.7296649,0.3145956,-0.5580254,307.9419,-59.683308,-4.4986324
7113309418000.0,-0.8043846515015014,8.066061894694695,4.484363186646647,-1.7687603,0.10873401,-0.5342017,308.00656,-59.338318,-4.58587
7113314341000.0,-0.6156094075825825,8.05662294154154,4.550434478898899,-1.8090774,-0.06261369,-0.50701815,308.09833,-58.99048,-4.6432443
7113319304000.0,-0.5032539204174042,8.054094,4.506359067949315,-1.8634444,-0.16737708,-0.4972443,308.1952,-58.596207,-4.666547
7113324396000.0,-0.4169279202981458,8.054094,4.42003313424951,-1.9117028,-0.20189096,-0.5290093,308.31354,-58.203815,-4.676755
7113329327000.0,-0.3804584617488372,8.09591482660465,4.441067263274419,-1.9596558,-0.1591304,-0.5497787,308.42508,-57.78059,-4.66978
7113334323000.0,-0.376007699627907,8.167127113488373,4.534533267813954,-1.9813415,-0.059253927,-0.5543602,308.5269,-57.36357,-4.668977
7113339304000.0,-0.460522796054484,8.194079738504435,4.693236609269586,-1.9953914,0.06963864,-0.550695,308.6177,-56.93981,-4.6837683
7113344301000.0,-0.6617609257464119,8.163456611390437,4.938222128668068,-1.9905044,0.2098322,-0.5561928,308.67838,-56.527794,-4.7170753
7113349299000.0,-0.8423953667564498,8.112864286248579,5.15763157916599,-1.958434,0.34269542,-0.57757306,308.70648,-56.107914,-4.7824554
7113354304000.0,-0.9590558990621452,8.000092573162421,5.297624263410676,-1.8982637,0.49174652,-0.62888575,308.69962,-55.7087,-4.8773394
7113359327000.0,-1.076135989725783,7.886915287481746,5.438120417848451,-1.8234328,0.59681535,-0.6637051,308.6734,-55.28561,-5.012774
7113364314000.0,-1.2114296247056786,7.810748177285319,5.581691597437673,-1.7412714,0.6386596,-0.6924158,308.63318,-54.89247,-5.166369
7113369300000.0,-1.3519679677631578,7.744612547368421,5.726363460526316,-1.6716328,0.65270954,-0.6979135,308.57635,-54.52821,-5.32836
7113374375000.0,-1.566181216825095,7.594520173510773,5.886598502851711,-1.6523905,0.59681535,-0.70738196,308.53442,-54.133766,-5.510841
7113379339000.0,-1.8523808255703424,7.358530942416561,6.057313860266159,-1.6337591,0.51343226,-0.70952,308.49576,-53.770267,-5.6828084
7113384351000.0,-2.0175797064454883,7.158515254311982,6.1067773051963625,-1.6334536,0.42058071,-0.70402217,308.47696,-53.370613,-5.8680124
7113389307000.0,-2.0934668778255223,6.987769192994904,6.06883381855701,-1.6646078,0.355829,-0.70738196,308.47263,-52.978615,-6.039015
7113394259000.0,-2.165101658550672,6.787540407770057,6.035457098899016,-1.6853772,0.2941316,-0.72204274,308.5011,-52.53053,-6.2391677
7113399389000.0,-2.2360396374334446,6.556991791219204,6.004421686842343,-1.6835446,0.23548855,-0.71929383,308.54053,-52.0931,-6.418434
7113404305000.0,-2.294522824693555,6.328390997518783,6.048168871293001,-1.6673567,0.15943582,-0.70616025,308.60388,-51.637047,-6.6007237
7113409323000.0,-2.337277712514828,6.081363181168446,6.223938756227757,-1.6395624,0.14844026,-0.6918049,308.66345,-51.1974,-6.7765894
7113414307000.0,-2.3614216297399646,5.85637006629639,6.3614448029117225,-1.6215417,0.13316862,-0.66767573,308.7374,-50.735962,-6.9511275
7113419297000.0,-2.3493569410249937,5.671378004695784,6.425789893377093,-1.6212363,0.11789699,-0.70921457,308.8212,-50.2864,-7.1290073
7113424717000.0,-2.338366368509494,5.47110684547135,6.49632574211057,-1.6236799,0.16371189,-0.70829827,308.87482,-49.796116,-7.310701
7113429301000.0,-2.3752509687447487,5.3161913704251385,6.570095058124685,-1.6172657,0.22021692,-0.7141015,308.9366,-49.317722,-7.4963455
7113434337000.0,-2.415772532179466,5.146000634750462,6.651138311930768,-1.6136005,0.28924468,-0.74220127,308.98776,-48.80903,-7.694903
7113439360000.0,-2.3887328336526017,5.131643674631116,6.68704328102511,-1.5916094,0.35460728,-0.83169305,309.03894,-48.315575,-7.9112806
7113444312000.0,-2.3150734467167142,5.225764106834067,6.691135421710242,-1.5586227,0.45845437,-0.8038987,309.04904,-47.843616,-8.121674
7113449341000.0,-2.3041349283318624,5.284690074051191,6.694188,-1.5146403,0.5027421,-0.76052725,309.07648,-47.344944,-8.353476
7113454308000.0,-2.467873025878199,5.242705991438658,6.694188,-1.4477507,0.5299256,-0.75808376,309.08804,-46.873226,-8.596774
7113460123000.0,-2.6564654194985304,5.206436321528288,6.692803557999632,-1.4025466,0.54367006,-0.7495316,309.09494,-46.421497,-8.8224745
7113464321000.0,-2.778316340788024,5.239668380455547,6.6854186945720055,-1.3594806,0.548557,-0.73945236,309.0974,-45.99974,-9.043164
7113469324000.0,-2.923533148603968,5.279272951873622,6.676617724650992,-1.348485,0.5439755,-0.729984,309.1174,-45.568363,-9.287073
7113474329000.0,-3.1290409295805546,5.39678781568094,6.778525418699544,-1.3133603,0.5354234,-0.72387534,309.1364,-45.167137,-9.521966
7113479372000.0,-3.349415029062829,5.53240252018252,6.905664201404002,-1.2864822,0.5006041,-0.7147123,309.1596,-44.77815,-9.740577
7113484309000.0,-3.4903348277426707,5.6595494427224695,7.07438498800373,-1.2721269,0.40500367,-0.7315111,309.22308,-44.389603,-9.970165
7113489315000.0,-3.5697986601263856,5.783711726199109,7.282977483186574,-1.2654073,0.30268374,-0.70707655,309.28473,-44.020157,-10.173553
7113494301000.0,-3.646052879349625,5.877448820387499,7.412561221808977,-1.2825116,0.2302962,-0.6951646,309.39227,-43.63863,-10.393819
7113499390000.0,-3.721973565086165,5.9533694070295,7.49322695040405,-1.3191634,0.16920967,-0.68416905,309.51224,-43.26566,-10.584175
7113504331000.0,-3.764897706457807,5.963925099747347,7.554343878807479,-1.3414601,0.15118915,-0.6914995,309.65283,-42.88396,-10.769047
7113509348000.0,-3.784320366629611,5.925079982213239,7.602900732046488,-1.3594806,0.14569137,-0.7263188,309.80392,-42.50333,-10.941255
7113514313000.0,-3.775319919751553,5.869814565572316,7.598716183354037,-1.3600914,0.13316862,-0.7504479,309.96664,-42.11804,-11.117208
7113519301000.0,-3.745649684720497,5.801996796983141,7.556329956273292,-1.3487904,0.124005646,-0.77824235,310.13477,-41.73995,-11.29399
7113524319000.0,-3.6728925829216106,5.682181692958569,7.518372508266874,-1.3408492,0.118507855,-0.7816021,310.31888,-41.34884,-11.469118
7113529360000.0,-3.508558434292939,5.452113875072943,7.490200858685081,-1.3439035,0.12583824,-0.77213365,310.5017,-40.968742,-11.641725
7113534367000.0,-3.3544583597975413,5.274487090744757,7.479437352277658,-1.3381003,0.11453723,-0.7993172,310.70306,-40.58462,-11.816662
7113539310000.0,-3.2261011502621115,5.231701369125091,7.513666018926248,-1.3295482,0.13164146,-0.8008443,310.88593,-40.214878,-11.986451
7113544780000.0,-3.0848029296822683,5.179263308319071,7.543940379522287,-1.3374895,0.13836098,-0.7968737,311.0747,-39.81448,-12.142648
7113549337000.0,-2.97114462218171,5.107820914539772,7.52770350267133,-1.3384057,0.16890424,-0.8032878,311.25385,-39.429466,-12.30409
7113554286000.0,-2.8477092559714263,5.030232938499888,7.510069905231044,-1.3075571,0.22418754,-0.7828238,311.42062,-39.047558,-12.447557
7113559401000.0,-2.7079816073024525,5.005816190953679,7.54044049959673,-1.2776246,0.27000242,-0.75533485,311.57825,-38.677544,-12.590002
7113564343000.0,-2.553228869645777,5.072875764468665,7.648767739138965,-1.2702943,0.28710666,-0.74067414,311.72473,-38.321953,-12.731354
7113569297000.0,-2.43703333924196,5.140571063208269,7.682890838437979,-1.2605205,0.29535335,-0.7281514,311.86166,-37.97212,-12.853759
7113574383000.0,-2.3531188664050533,5.2104998149119455,7.650257294410413,-1.2705997,0.32253686,-0.73853606,311.9889,-37.62928,-12.980621
7113579300000.0,-2.289121492112396,5.197090386555837,7.666714929147091,-1.2599095,0.31856623,-0.7315111,312.11194,-37.303112,-13.071786
7113584317000.0,-2.2457109794362125,5.079881698626672,7.74485402421395,-1.2492194,0.34300083,-0.7275405,312.222,-36.983913,-13.1734915
7113589270000.0,-2.2122424,4.9895163,7.787828146276098,-1.2400564,0.3753767,-0.7452556,312.34656,-36.663345,-13.278544
7113594298000.0,-2.2122424,4.9895163,7.7077997468993455,-1.219287,0.41905355,-0.74281216,312.45346,-36.361153,-13.383304
7113599355000.0,-2.323147644250976,4.877132335835085,7.687358617632342,-1.2092078,0.41691554,-0.7498371,312.5774,-36.02648,-13.486083
7113604359000.0,-2.6828170170519363,4.512667425477835,7.802452620634444,-1.1988231,0.4636467,-0.7501425,312.67728,-35.709034,-13.603612
7113609311000.0,-3.0296227944404555,4.260199631900708,7.883191398994769,-1.1841623,0.4654793,-0.7623598,312.80463,-35.392227,-13.7201395
7113614311000.0,-3.3587057773104934,4.255288051225767,7.888103082244333,-1.185384,0.46670106,-0.7443393,312.9118,-35.086708,-13.837092
7113619299000.0,-3.596169001916443,4.39622244494059,7.95534217188578,-1.1841623,0.5012149,-0.7290677,313.0177,-34.71691,-14.021604
7113624377000.0,-3.666067895745496,4.81561590523189,8.141739319413569,-1.1859949,0.52473325,-0.73853606,313.12442,-34.356434,-14.198475
7113629299000.0,-3.738660773417081,5.152114231202512,8.2934109216898,-1.1737776,0.4813618,-0.7119634,313.25397,-33.991753,-14.400764
7113634523000.0,-3.829890304609462,5.304163485138284,8.369435972039307,-1.2125676,0.43310347,-0.68630713,313.3811,-33.62257,-14.601907
7113639330000.0,-3.930999290949864,5.363010218933205,8.476603757888835,-1.1945469,0.39828414,-0.6585127,313.53342,-33.31267,-14.780592
7113644307000.0,-4.076059667980138,5.23321933849111,8.675106974371296,-1.1771374,0.36957347,-0.6209445,313.6805,-33.00583,-14.937546
7113649357000.0,-4.223247713791446,5.101524754156655,8.876521730898606,-1.1691961,0.2932153,-0.61300325,313.86224,-32.709026,-15.0800905
7113654343000.0,-4.392050773779484,4.8482910871091605,8.898513448710917,-1.1841623,0.22235495,-0.59895337,314.03244,-32.424507,-15.204971
7113659554000.0,-4.574551017964893,4.551727922325837,8.875700912232585,-1.20371,0.13591751,-0.6062838,314.21613,-32.149147,-15.305895
7113664308000.0,-4.654482007232308,4.367403398451279,8.705080927936272,-1.2318097,0.12186762,-0.6224717,314.39395,-31.819162,-15.43279
7113669324000.0,-4.686518877717673,4.225018021882178,8.434548664134864,-1.2504412,0.15454891,-0.63346726,314.57376,-31.496664,-15.546453
7113674948000.0,-4.713843367621274,4.062754398889538,8.146464812682641,-1.2434162,0.24465153,-0.7141015,314.76874,-31.120811,-15.721427
7113679353000.0,-4.516598155548134,3.86903138465392,8.308487862486432,-1.2275337,0.25961772,-0.7495316,314.958,-30.756489,-15.875439
7113684524000.0,-4.285053322033898,3.64162123559322,8.49868563559322,-1.2308935,0.2049453,-0.7556403,315.17514,-30.384773,-16.061697
7113689304000.0,-4.179903633305121,3.496967033897588,8.604904838975878,-1.2394456,0.13072516,-0.78893244,315.4054,-30.02082,-16.249968
7113695434000.0,-4.167481498307237,3.3851700671886022,8.662873505219354,-1.2596041,0.07452556,-0.8026769,315.63425,-29.664484,-16.421377
7113699397000.0,-4.159450679221329,3.312894148906757,8.700349822400902,-1.2892311,0.01985312,-0.81336707,315.85886,-29.256187,-16.543863
7113704317000.0,-4.162486419792953,3.275616163035426,8.80717836964574,-1.3170254,-0.0143553335,-0.8219192,316.0867,-28.853292,-16.654263
7113709318000.0,-4.171584069522272,3.261969973425776,8.943640265742236,-1.320996,-0.052534413,-0.80909103,316.31506,-28.461279,-16.744057
7113714343000.0,-4.175488,3.271660718832816,9.08511244243962,-1.3310753,-0.0720821,-0.8063421,316.552,-28.037807,-16.830599
7113719296000.0,-4.175488,3.2984067791936846,9.227757539141058,-1.3381003,-0.08124508,-0.79901177,316.7824,-27.627424,-16.9036
7113724338000.0,-4.187485233567087,3.2375930016923795,9.294659192706872,-1.3338243,-0.092240654,-0.7965683,317.0127,-27.210932,-16.966702
7113729313000.0,-4.2142144037400655,3.068308660411408,9.263475083309958,-1.3292428,-0.07391469,-0.7693848,317.22516,-26.807514,-17.026693
7113734266000.0,-4.235661935690821,2.903536083342995,9.25518296173913,-1.3133603,-0.06383542,-0.7302894,317.44373,-26.406025,-17.071732
7113739304000.0,-4.244985107594203,2.7450404086376814,9.301799794782609,-1.2858714,-0.067500606,-0.6908886,317.6476,-26.023293,-17.110977
7113744263000.0,-4.2763387385839735,2.640759813556531,9.335715536498354,-1.2409728,-0.0711658,-0.65057147,317.8436,-25.62945,-17.157166
7113749372000.0,-4.387590718660812,2.7174853046259995,9.328043023443623,-1.1591167,-0.047647487,-0.6114761,318.01993,-25.267977,-17.201235
7113754356000.0,-4.496120737980242,2.792333581684177,9.32055823090795,-1.0922271,-0.03390302,-0.559858,318.1847,-24.89338,-17.238997
7113759285000.0,-4.541426620630372,2.603933487947708,9.442902577050502,-1.0283916,-0.041233405,-0.54611355,318.34323,-24.550594,-17.274319
7113764367000.0,-4.55885831747851,2.285804929459169,9.630293363672994,-1.0045679,0.0015271631,-0.53878313,318.47626,-24.228745,-17.317814
7113769313000.0,-4.561707860619071,2.1400468110634048,9.82646859071393,-0.97310835,0.017715093,-0.5360342,318.62814,-23.94007,-17.367151
7113774475000.0,-4.546899440768846,2.194344350514229,10.0485948884673,-0.92179567,0.030848695,-0.47739118,318.75342,-23.677677,-17.416533
7113779330000.0,-4.579851320512552,2.17013949458159,10.212671799267785,-0.8732319,-0.0061086523,-0.36651915,318.85724,-23.368189,-17.450844
7113784328000.0,-4.669973573085773,2.054983378807532,10.32782812416318,-0.84788096,-0.09437868,-0.31612277,318.9624,-23.07479,-17.472664
7113789305000.0,-4.704827729498632,2.003873031577029,10.429988111577028,-0.7965683,-0.1554652,-0.29779682,319.04987,-22.801678,-17.473063
7113794303000.0,-4.691738026727438,2.008236281020966,10.521616441020964,-0.7611381,-0.21899518,-0.28191432,319.13077,-22.543291,-17.442848
7113799316000.0,-4.68766237628973,1.9973183230595115,10.567026358955012,-0.73914695,-0.26511553,-0.2434298,319.21283,-22.271997,-17.407726
7113804409000.0,-4.701462566603791,1.9559176080165992,10.521025564462889,-0.7535023,-0.32589662,-0.22143865,319.29916,-22.007767,-17.351616
7113809280000.0,-4.715867109671588,1.933094398051622,10.463154760269155,-0.7672467,-0.37507126,-0.20555615,319.37598,-21.744492,-17.282833
7113814321000.0,-4.73526121425128,1.971882505955609,10.35163814000201,-0.77182823,-0.40622538,-0.19272798,319.4469,-21.488607,-17.200949
7113819322000.0,-4.7480815207625175,1.9914787038125863,10.260291746440055,-0.7831292,-0.42424592,-0.183565,319.52216,-21.223085,-17.116241
7113824350000.0,-4.739234088442811,1.947241542214056,10.233749819016996,-0.77091193,-0.43066,-0.15882497,319.5859,-20.97221,-17.024012
7113829361000.0,-4.732284403308031,1.906857962646425,10.202972494236716,-0.7724391,-0.43860126,-0.12858713,319.65924,-20.722948,-16.936115
7113834346000.0,-4.754653603945272,1.9247533231562175,10.104547824571268,-0.7687739,-0.43890667,-0.10354166,319.72162,-20.486614,-16.847408
7113839315000.0,-4.776951007749976,1.9425912461999808,10.006439061568738,-0.7467828,-0.4120286,-0.070554934,319.77435,-20.248177,-16.76569
7113844303000.0,-4.73030113693985,1.911741410551603,9.921354009793957,-0.70280045,-0.3576616,-0.06963864,319.8212,-20.022442,-16.692926
7113849294000.0,-4.677305275838492,1.8764108211124455,9.837444061628014,-0.66798115,-0.31215215,-0.044593163,319.8459,-19.81112,-16.620018
7113854384000.0,-4.633501289900479,1.8032918779211204,9.748663434942868,-0.6261369,-0.2950479,-0.015577064,319.88208,-19.620073,-16.562044
7113859360000.0,-4.593979643752303,1.7198575361592334,9.660837860302248,-0.59620446,-0.24648413,-0.010079277,319.9067,-19.44057,-16.52496
7113864310000.0,-4.524431555996932,1.6109232027300613,9.577802780674848,-0.5757405,-0.22388211,0.003970624,319.9321,-19.26499,-16.4819
7113869300000.0,-4.432813051319019,1.4826571660736196,9.497178309815952,-0.53023106,-0.20769419,0.028710667,319.94623,-19.11048,-16.44875
7113874715000.0,-4.336337373342401,1.3490256488949337,9.410523259180552,-0.50671273,-0.19608775,0.049480084,319.9572,-18.944815,-16.421227
7113879331000.0,-4.302517364909894,1.3264789766065963,9.350398721268276,-0.49113566,-0.18570304,0.059864793,319.96082,-18.794958,-16.396269
7113884344000.0,-4.265788659911594,1.3019931732743966,9.285103160489628,-0.46792278,-0.15607607,0.06536258,319.95135,-18.63069,-16.371239
7113889290000.0,-4.254163857080915,1.28668447807539,9.240156998671235,-0.43768495,-0.10415252,0.07391469,319.93326,-18.47797,-16.353619
7113894287000.0,-4.2575105435764735,1.2766441739632142,9.206689434785648,-0.4175264,-0.04642576,0.06352998,319.91418,-18.33167,-16.34658
7113899320000.0,-4.260881340681166,1.266531536261277,9.172980759773411,-0.3915646,-0.016187929,0.06719518,319.89056,-18.19283,-16.344019
7113904299000.0,-4.2039941128987,1.2777114166962866,9.127678505658965,-0.35033122,0.015882496,0.06352998,319.8656,-18.065937,-16.358324
7113909413000.0,-4.126116469647367,1.296035570863343,9.07728711757553,-0.32436943,0.055588737,0.06383542,319.8346,-17.946112,-16.381142
7113914349000.0,-4.064538074454474,1.2918811629743232,8.972501082376654,-0.3005457,0.08032878,0.055283304,319.81177,-17.834171,-16.413181
7113919303000.0,-4.010488115397424,1.275250336210674,8.835297293401103,-0.2959642,0.07696902,0.03176499,319.7922,-17.72596,-16.448215
7113924336000.0,-3.9743748,1.2641385,8.743625,-0.30115658,0.08735373,0.01038471,319.77264,-17.62343,-16.486385
7113929314000.0,-3.9743748,1.2641385,8.743625,-0.28619036,0.09712757,-0.005192355,319.7586,-17.529047,-16.52364
7113934297000.0,-3.9236294548898414,1.2410724559365969,8.711332466055229,-0.27305678,0.09254608,-0.01282817,319.753,-17.433287,-16.560797
7113939351000.0,-3.817475905971488,1.1928208885953544,8.64378012062606,-0.2611449,0.0870483,-0.015882496,319.74963,-17.343079,-16.599905
7113944285000.0,-3.724045857284495,1.143335230184522,8.632498412007712,-0.27091873,0.06872234,-0.034208454,319.76013,-17.249922,-16.633717
7113949333000.0,-3.6397228937666393,1.0900785753052418,8.681316830808775,-0.27397305,0.0571159,-0.04795292,319.76974,-17.164484,-16.666475
7113954264000.0,-3.5869766647876737,1.024569016253288,8.72670841835776,-0.27763826,0.064446285,-0.04886922,319.77585,-17.069595,-16.689157
7113959414000.0,-3.605511245772266,0.9226287240698984,8.76841112880496,-0.27488935,0.079107046,-0.053145275,319.78635,-16.976877,-16.711235
7113964340000.0,-3.622942614275972,0.8267561113548534,8.802539837519891,-0.27763826,0.093767814,-0.0571159,319.78363,-16.868526,-16.722326
7113969288000.0,-3.639100606910661,0.7378870956240055,8.810619002557399,-0.2751948,0.11362094,-0.063224554,319.7801,-16.764687,-16.738388
7113974334000.0,-3.6555786244601047,0.6472579417481246,8.818858183393953,-0.27305678,0.14752395,-0.05222898,319.76935,-16.642344,-16.761913
7113981479000.0,-3.679921563551402,0.510943924663162,8.825365091705606,-0.2724459,0.20799962,-0.04184427,319.75565,-16.522902,-16.797441
7113984395000.0,-3.6962334495327114,0.4049165834598909,8.795459910630841,-0.28191432,0.22968534,-0.049785517,319.74396,-16.403772,-16.830793
7113989301000.0,-3.723677246728972,0.22653176317757,8.745146186915887,-0.27030787,0.2611449,-0.044593163,319.71927,-16.268826,-16.882746
7113994289000.0,-3.799770482417687,0.1721335372018218,8.75417830999146,-0.269697,0.2773328,-0.040927973,319.6966,-16.13105,-16.935211
7113999346000.0,-3.910057803207136,0.2043006636350697,8.80472671733561,-0.2593123,0.31703907,-0.03481932,319.66693,-16.003195,-16.999914
7114004296000.0,-4.003527201520913,0.2065974045188651,8.784252205518182,-0.23915374,0.3585779,-0.0027488936,319.6253,-15.859111,-17.070244
7114009365000.0,-4.083985530418251,0.1782003149926879,8.689595289850834,-0.22296582,0.35063666,0.00030543262,319.59137,-15.718373,-17.1372
7114014354000.0,-4.1446379637272805,0.1781366662060481,8.622949098261767,-0.19456059,0.35430184,0.008857546,319.55298,-15.592986,-17.22991
7114019293000.0,-4.182180675172633,0.2119249497007699,8.589160912770856,-0.16523905,0.37048978,0.01985312,319.5132,-15.475854,-17.320688
7114025000000.0,-4.224266254356813,0.2445256718367512,8.549853352435763,-0.13439035,0.36743546,0.03268129,319.4885,-15.366219,-17.42226
7114029407000.0,-4.23795020904596,0.1761054947345383,8.515643287103835,-0.12370021,0.38240165,0.026572637,319.464,-15.261059,-17.530956
7114034357000.0,-4.25332020580368,0.0992550575537002,8.4772180945935,-0.10842858,0.42210788,0.02076942,319.44482,-15.174252,-17.653526
7114039344000.0,-4.261679,0.1134434495873662,8.507824868568518,-0.098043874,0.45998153,0.030848695,319.42264,-15.092199,-17.775942
7114044306000.0,-4.261679,0.2344829741069791,8.61918094518594,-0.11209377,0.43768495,0.03756821,319.4058,-15.009026,-17.890224
7114049335000.0,-4.287650016162825,0.2945200180824104,8.683670015614087,-0.1151481,0.42577308,0.028099801,319.38907,-14.917333,-18.022898
7114054308000.0,-4.339917868602215,0.2897683942312681,8.697924907013867,-0.106901415,0.42424592,0.019547688,319.37213,-14.827962,-18.148354
7114059313000.0,-4.354558616292587,0.3247002491621211,8.73648074233211,-0.106901415,0.41508293,-0.0070249503,319.36118,-14.747949,-18.263952
7114064311000.0,-4.328877665027274,0.4017428929017258,8.800682673567021,-0.108123146,0.43860126,-0.004581489,319.34262,-14.673589,-18.383568
7114069260000.0,-4.324086876699235,0.4633176985429056,8.865913609175871,-0.11453723,0.40744713,-0.016493361,319.34473,-14.593038,-18.49549
7114074333000.0,-4.386002529216228,0.4787966089783347,8.93814890526763,-0.13897185,0.35308012,-0.00580322,319.34018,-14.511669,-18.60232
7114079328000.0,-4.438811963005076,0.5922900265177665,9.029608515939088,-0.15760323,0.33750305,-0.002443461,319.33655,-14.439706,-18.70245
7114084374000.0,-4.47806026328934,0.8768408055126902,9.15716524852792,-0.17898351,0.3222314,0.033292156,319.32486,-14.366477,-18.781872
7114089342000.0,-4.506442350917856,1.0545586646393472,9.219573336176524,-0.1863139,0.24801129,0.03359759,319.335,-14.284861,-18.850266
7114094292000.0,-4.519627588726126,1.0809290484702392,9.188808163730762,-0.20066923,0.20861048,0.020158553,319.33716,-14.199914,-18.919952
7114099318000.0,-4.516225272270172,1.10768144907752,9.126912124475414,-0.22143865,0.18173242,0.03970624,319.33508,-14.154301,-18.969906
7114104326000.0,-4.459260412344603,1.1342650900308813,8.967410358064772,-0.23732115,0.19914207,0.049785517,319.33908,-14.105409,-19.021458
7114109278000.0,-4.402932539670599,1.1605514698234225,8.809692157732204,-0.2443461,0.21166481,0.0571159,319.3471,-14.059008,-19.068027
7114114311000.0,-4.397834362295923,1.165456253996068,8.721979042824174,-0.22113322,0.19394971,0.098043874,319.34305,-14.022197,-19.106375
7114119332000.0,-4.414275122292503,1.1613460210787248,8.664436468672536,-0.20677789,0.1572978,0.15210545,319.3333,-13.984573,-19.139946
7114124301000.0,-4.419189999641577,1.1570286998805257,8.6322328739546,-0.18081611,0.13041973,0.18203785,319.3223,-13.968112,-19.17298
7114129453000.0,-4.404452940621266,1.1521163468737556,8.64205778514536,-0.1282817,0.11636983,0.2012801,319.30075,-13.967335,-19.19536
7114134270000.0,-4.38086076538237,1.1277039243432574,8.659440743140689,-0.105068825,0.10934488,0.2312125,319.2765,-13.964866,-19.221558
7114139352000.0,-4.338243117338004,1.0661451213660245,8.692587467600701,-0.079107046,0.1020145,0.26236662,319.24796,-13.979161,-19.24161
7114144258000.0,-4.297008615957656,0.989844911137032,8.703734579886296,-0.057421334,0.10445796,0.28069258,319.21765,-13.996465,-19.257874
7114149328000.0,-4.2541750176436,0.8708623529033523,8.665660380709664,-0.034513887,0.08827003,0.27916542,319.18695,-14.021406,-19.265852
7114154275000.0,-4.188204238830646,0.8242338776643146,8.669679739919355,-0.023823744,0.07238753,0.2761111,319.13446,-14.039252,-19.266874
7114159391000.0,-4.04991195125,0.97734308628125,8.793154812500001,-0.006414085,0.12186762,0.28069258,319.0774,-14.064702,-19.280952
7114164311000.0,-3.9702631144189913,1.0696442473212635,8.842602156059487,-0.009773844,0.11148291,0.3100141,319.01102,-14.067417,-19.272682
7114169297000.0,-4.023191120977277,1.025537490753741,8.719103320570849,-0.008857546,0.06536258,0.33750305,318.94382,-14.075745,-19.267424
7114174317000.0,-4.068720596600613,0.989729357764696,8.606705298151065,0.010079277,0.067500606,0.31398472,318.86865,-14.101784,-19.244213
7114179356000.0,-4.056717281643313,1.0177372319293592,8.582698710015753,0.04550946,0.055588737,0.3036,318.7876,-14.134958,-19.202063
7114184262000.0,-4.045030783691236,1.045005862739408,8.55932575478816,0.07849618,0.04184427,0.2919936,318.725,-14.16693,-19.18107
7114189309000.0,-4.020733143831424,1.1302575274634956,8.537318102736732,0.112704635,0.030543262,0.27916542,318.66772,-14.20631,-19.15863
7114194305000.0,-3.991449253860278,1.239026349007607,8.516401038471628,0.15363261,0.029932396,0.27305678,318.61322,-14.254416,-19.136164
7114199312000.0,-3.985981138882994,1.364346294241343,8.502270569788754,0.17654006,0.009773844,0.25809056,318.56454,-14.305749,-19.112959
7114204355000.0,-4.01393279455966,1.5134218398283017,8.497611863219833,0.2125811,-0.014660766,0.2510656,318.51703,-14.3699255,-19.088717
7114209309000.0,-4.050011567053643,1.5361995282626102,8.408705009807846,0.24709499,-0.029626964,0.22693644,318.4847,-14.453606,-19.061666
7114214303000.0,-4.102662831244996,1.325594171617294,8.15980743845076,0.26542094,-0.028099801,0.21624629,318.4525,-14.54054,-19.033092
7114219299000.0,-4.124645399800475,1.096645878038955,7.979398006090261,0.30909783,-0.016187929,0.20463985,318.44006,-14.66267,-19.01174
7114224331000.0,-4.088016121168645,0.8310830366289788,7.929032730042755,0.34391713,0.014049901,0.20280726,318.42767,-14.783758,-18.997393
7114229302000.0,-4.059663927786499,0.6437959304709576,7.887680586499215,0.3640757,0.024129177,0.18570304,318.4322,-14.887304,-19.00773
7114234348000.0,-4.055870714128728,0.6931067059513344,7.872508048728414,0.39278635,0.02321288,0.18906279,318.4311,-15.001586,-19.022215
7114239303000.0,-4.052145907613815,0.7415282066459968,7.857609133814757,0.40133846,-0.02687807,0.2012801,318.4226,-15.069126,-19.024874
7114244300000.0,-4.057407596239946,0.9234504649966082,7.897911505591627,0.4361578,-0.05375614,0.1966986,318.41724,-15.148274,-19.034657
7114249373000.0,-4.06682388852602,1.1682729828762477,7.963825158300223,0.46914452,-0.0711658,0.18142697,318.41574,-15.227374,-19.033442
7114254323000.0,-4.053063292836999,1.3627315263959392,8.001289653243091,0.48747048,-0.1001819,0.18845193,318.41193,-15.321788,-19.024107
7114259330000.0,-4.026018197433728,1.5340175228426396,8.02382741316977,0.49113566,-0.14874569,0.172264,318.42343,-15.4149065,-19.008339
7114264303000.0,-4.084762671801616,1.6680357442231826,8.118284262070262,0.47250426,-0.1441642,0.1591304,318.43735,-15.541987,-18.99837
7114269289000.0,-4.228290718767612,1.7667112413864363,8.284238537103137,0.45265114,-0.14172074,0.122783914,318.46805,-15.662409,-18.979319
7114274348000.0,-4.315483368699839,1.8383116782504008,8.433162537419744,0.43676865,-0.1441642,0.094989546,318.5064,-15.80037,-18.957628
7114279357000.0,-4.305858530979133,1.862373772552167,8.548660489566613,0.42424592,-0.11942416,0.043982297,318.56018,-15.924444,-18.950853
7114284331000.0,-4.3710331679063765,1.8624804196270952,8.653738452841417,0.38637227,-0.04062254,0.043066,318.61224,-16.052147,-18.969614
7114289314000.0,-4.555614004443122,1.8246177244768425,8.743662254983636,0.3585779,0.013133603,0.011301007,318.68823,-16.167871,-18.99632
7114294261000.0,-4.6421738628875024,1.8894205111717683,8.837336496393059,0.33567044,0.04153884,-0.015271631,318.75198,-16.270975,-19.026981
7114299347000.0,-4.551956760703841,2.145826406706961,8.941798315461103,0.35796702,0.098043874,-0.017104227,318.81055,-16.375446,-19.080648
7114304301000.0,-4.392645299571671,2.5020591681641595,9.073757629943222,0.3585779,0.13500121,-0.0030543262,318.87625,-16.46643,-19.159168
7114309325000.0,-4.071534730630541,3.1011462208188068,9.275050928478931,0.29871312,0.19792034,0.059864793,318.92102,-16.549528,-19.25456
7114314312000.0,-3.749305451231456,3.5230689288059915,9.47371500561717,0.19730948,0.21105394,0.12308934,318.9499,-16.654778,-19.32516
7114319303000.0,-3.418858048134812,3.5506062663113926,9.669918166930724,0.09773844,0.1872302,0.14080444,318.97256,-16.742672,-19.399424
7114324325000.0,-3.0863581766959527,3.5783146431801818,9.867339981420136,-0.016493361,0.18173242,0.17287487,318.94693,-16.858644,-19.431559
7114329352000.0,-2.863483668512738,3.367045597895479,9.91090342785218,-0.13316862,0.15882497,0.18203785,318.9281,-16.942215,-19.452436
7114334310000.0,-2.739173213775048,2.951083676296445,9.820061345282449,-0.21563543,0.09407325,0.17562376,318.91034,-17.002535,-19.458427
7114339304000.0,-2.723656180644157,2.5393408618017737,9.60530489466314,-0.26206118,0.007330383,0.16982053,318.82413,-17.024715,-19.358221
7114344297000.0,-2.80177639295161,2.133859891154504,9.285383877236658,-0.2678644,-0.04184427,0.17287487,318.74203,-17.034359,-19.253902
7114349686000.0,-2.8905268321328133,1.6990113475278965,8.93811257171369,-0.22815818,-0.15210545,0.18020524,318.64902,-16.993437,-19.086407
7114354308000.0,-3.0551664723033656,1.3817786604735554,8.600801753968975,-0.16462818,-0.16462818,0.19150625,318.55057,-16.958483,-18.936325
7114359313000.0,-3.233448903946294,1.0382586261362603,8.235539823460039,-0.12644911,-0.16401732,0.19058995,318.46283,-16.893837,-18.788107
7114364292000.0,-3.442294929955012,0.9360290388337154,7.995207498854087,-0.0729984,-0.1441642,0.19853121,318.36856,-16.852604,-18.643866
7114369265000.0,-3.660593462745098,0.907731085882353,7.793079552941177,-0.046120327,-0.1151481,0.18784106,318.2791,-16.812572,-18.50783
7114374311000.0,-3.87601134370295,0.9443832584557478,7.692916501505595,-0.043066,-0.079107046,0.17165314,318.2099,-16.762989,-18.421545
7114379345000.0,-4.081993713062055,1.076800370069176,7.746864082014242,-0.06658431,-0.030543262,0.15241088,318.1407,-16.71231,-18.349407
7114384322000.0,-4.2416674559705605,1.223674478601656,7.815555230358785,-0.09682214,-0.011301007,0.14202617,318.10657,-16.673473,-18.339386
7114389292000.0,-4.346756711444342,1.3900659636062558,7.9031296480220785,-0.13530666,0.016493361,0.1337795,318.07224,-16.624979,-18.346142
7114394309000.0,-4.429896635240202,1.5686076479140327,8.000374498419722,-0.1685988,0.02107485,0.122783914,318.06055,-16.591518,-18.38537
7114399343000.0,-4.45021258005689,1.7768457508217446,8.122269743046777,-0.1777618,0.019547688,0.11911872,318.04715,-16.55492,-18.42928
7114404308000.0,-4.479118462484625,1.9348094895448955,8.208630371463714,-0.19211712,0.009773844,0.1255328,318.04724,-16.536238,-18.48442
7114409361000.0,-4.52376002900779,2.0141724586305862,8.238391588458384,-0.16462818,-0.0030543262,0.13805555,318.04703,-16.527292,-18.536438
7114415340000.0,-4.570803010757589,2.119018379742912,8.227932022153341,-0.12705997,0.03573562,0.14477506,318.0403,-16.544386,-18.598133
7114419306000.0,-4.5985040871547085,2.195196276561218,8.193305721852495,-0.09132435,0.03970624,0.15149458,318.03476,-16.569315,-18.644327
7114424290000.0,-4.618153380062305,2.2409900120188926,8.15624870254246,-0.034513887,0.046120327,0.15607607,318.03506,-16.62367,-18.700727
7114429354000.0,-4.5840384267912775,2.109403516510904,8.141628190031152,0.00580322,0.08124508,0.16829337,318.02908,-16.683298,-18.763384
7114434363000.0,-4.53861764261755,2.04514870688829,8.14713208325846,0.02076942,0.093462385,0.183565,318.0324,-16.771236,-18.82959
7114439324000.0,-4.457986807267645,2.1826953910552063,8.213533807826694,0.0421497,0.043982297,0.20097467,318.03555,-16.870539,-18.885618
7114444340000.0,-4.384453326016502,2.301287819763396,8.277215225966795,0.054367006,0.013133603,0.19181168,318.0312,-16.950914,-18.94131
7114449390000.0,-4.336374203340292,2.3541750605427976,8.330102918580376,0.055283304,-0.01282817,0.18173242,318.02765,-17.033268,-18.982428
7114454353000.0,-4.29350273971519,2.3931211899525318,8.391742200949366,0.05222898,-0.03268129,0.1591304,318.02072,-17.12916,-19.005972
7114459330000.0,-4.2652212522151896,2.388407608702532,8.486013825949367,0.045814894,-0.06383542,0.1282817,318.02423,-17.219553,-19.020954
7114464329000.0,-4.2425256,2.3873461433418157,8.600669016680804,0.029321533,-0.074830994,0.10629055,318.02603,-17.307314,-19.026583
7114469300000.0,-4.2425256,2.400805649363868,8.793588415606447,0.016187929,-0.08307768,0.083383106,318.04083,-17.388298,-19.028034
7114474360000.0,-4.2459221951765,2.41165710241175,8.978562892764751,0.0021380284,-0.083383106,0.055283304,318.05188,-17.453728,-19.022642
7114479368000.0,-4.285946074338646,2.391645162830677,9.03859871150797,0.004581489,-0.077579886,0.029626964,318.0697,-17.51595,-19.01935
7114484549000.0,-4.3273525675373445,2.370941916231328,9.100708451306016,0.0027488936,-0.0711658,0.008857546,318.08185,-17.56428,-19.00287
7114489302000.0,-4.356981924774742,2.356127188827218,9.124128024219708,-0.016187929,-0.063224554,-0.0125227375,318.1011,-17.604527,-18.991714
7114494305000.0,-4.384611265450876,2.34231244636344,9.134488882721833,-0.0143553335,-0.06872234,-0.03176499,318.1266,-17.646666,-18.981165
7114499341000.0,-4.41242285042889,2.328406581272976,9.144918081885676,-0.014049901,-0.070554934,-0.03848451,318.15155,-17.677776,-18.976124
7114504388000.0,-4.426933238013293,2.3151386782755163,9.15787553100246,-0.02107485,-0.056505036,-0.03970624,318.1793,-17.70522,-18.975716
7114509314000.0,-4.439819103241373,2.3022527233451697,9.170761710188472,-0.027183503,-0.062002823,-0.051618114,318.21387,-17.73051,-18.971651
7114514287000.0,-4.424965362416746,2.2210741593006658,9.067878499524262,-0.043982297,-0.057726767,-0.051923547,318.25198,-17.74775,-18.975388
7114519270000.0,-4.398478813035204,2.111344129495718,8.916526788772597,-0.05009095,-0.059253927,-0.06414085,318.29752,-17.763527,-18.978607
7114524292000.0,-4.367420133266321,2.001426939879378,8.77682002803936,-0.05009095,-0.04153884,-0.073303826,318.335,-17.77637,-18.989391
7114529301000.0,-4.3166635562585975,1.8948377412654744,8.695609144429161,-0.05467244,-0.03573562,-0.077579886,318.3753,-17.785503,-18.997358
7114534299000.0,-4.268528507865367,1.7949842900342736,8.624745032955444,-0.053145275,-0.030848695,-0.07696902,318.41782,-17.78154,-19.017683
7114539305000.0,-4.226396984181386,1.710721154679673,8.578400268916425,-0.064751714,-0.030848695,-0.084910266,318.46326,-17.771992,-19.039127
7114544732000.0,-4.182890146976498,1.6241424263269078,8.533369973329812,-0.06047566,-0.027488936,-0.0870483,318.49884,-17.757967,-19.057522
7114549357000.0,-4.1633965515623625,1.5890545082299092,8.537268716838307,-0.04734206,-0.021685716,-0.08582657,318.53482,-17.743456,-19.076725
7114554259000.0,-4.142735447839098,1.5518651083355337,8.541400963471526,-0.050396383,-0.016187929,-0.0870483,318.56247,-17.716745,-19.09012
7114559323000.0,-4.117635384282212,1.5353509600653772,8.558799429764823,-0.05009095,-0.028099801,-0.090713486,318.59103,-17.695047,-19.100267
7114564331000.0,-4.091505929419777,1.5266410508308363,8.580573975483519,-0.056199603,-0.028405234,-0.08827003,318.61603,-17.671984,-19.114342
7114569303000.0,-4.077016154000624,1.4875686737800435,8.601209327541358,-0.049480084,-0.033292156,-0.07941248,318.63928,-17.645498,-19.11842
7114574375000.0,-4.071962202320258,1.421867249162418,8.621425028717095,-0.052839845,-0.047647487,-0.08307768,318.66577,-17.614544,-19.120695
7114579340000.0,-4.061403900416667,1.34578072,8.608312579166666,-0.049785517,-0.038789943,-0.07391469,318.68015,-17.58567,-19.12026
7114584323000.0,-4.047531508468992,1.2625460786046512,8.575943841666668,-0.04734206,-0.034513887,-0.07086037,318.69855,-17.555603,-19.11581
7114589317000.0,-4.0259136158209525,1.212915646517461,8.574581518618562,-0.038789943,-0.026572637,-0.06169739,318.7088,-17.520447,-19.109098
7114594306000.0,-3.9982585964113446,1.189869797009454,8.597627127484083,-0.03756821,-0.027794369,-0.04428773,318.71573,-17.485966,-19.100248
7114599333000.0,-3.96949627584079,1.1755380793067984,8.61677718723645,-0.03359759,-0.036651913,-0.043676864,318.72284,-17.442265,-19.091015
7114604370000.0,-3.939728709287257,1.1705768182145428,8.631661022318214,-0.025961773,-0.044898596,-0.027794369,318.7201,-17.404093,-19.078732
7114609350000.0,-3.897355365256889,1.155127092914101,8.606495778742303,-0.024129177,-0.04428773,-0.017104227,318.7124,-17.362453,-19.059086
7114614306000.0,-3.8446563818310286,1.1311729595134754,8.549005778540426,-0.0012217305,-0.011301007,0.01740966,318.69055,-17.33326,-19.042814
7114619324000.0,-3.82581383774961,1.143825613118597,8.532693870463623,0.005497787,-0.0027488936,0.022602014,318.67365,-17.29575,-19.017017
7114624380000.0,-3.8342215996527176,1.1858644665306477,8.549509745441917,0.006414085,-0.008552114,0.038789943,318.6418,-17.26777,-18.992483
7114629328000.0,-3.8492099224506577,1.2188003064144737,8.551482694592929,0.013439035,-0.01160644,0.057726767,318.6064,-17.243517,-18.963264
7114634344000.0,-3.883776184950658,1.2286763814144737,8.511978085217928,0.011911872,-0.0012217305,0.058948494,318.57068,-17.217392,-18.936682
7114639330000.0,-3.898453905445936,1.2324470018153115,8.508739816397002,0.01863139,0.024740042,0.06078109,318.531,-17.202488,-18.914175
7114644367000.0,-3.869899243883189,1.222928781294396,8.584885679952643,0.0106901415,0.06566802,0.061391957,318.48914,-17.1833,-18.898958
7114649331000.0,-3.864520262893753,1.2719012095782167,8.632422485424453,0.01038471,0.028405234,0.058948494,318.46423,-17.171007,-18.875969
7114654245000.0,-3.914771619220502,1.4628564685638017,8.612322047837694,0.013439035,-0.023518313,0.0720821,318.43256,-17.159178,-18.858446
7114659195000.0,-3.949346291862677,1.6153410920228206,8.599973,0.01740966,-0.05100725,0.06719518,318.3994,-17.13836,-18.831375
7114664243000.0,-3.959023738844961,1.707276888879992,8.599973,0.008857546,-0.05375614,0.07666359,318.36102,-17.117735,-18.79512
7114669190000.0,-3.977618493773473,1.789604924906108,8.607298958193319,0.009468411,-0.051618114,0.06658431,318.3475,-17.126148,-18.768438
7114674260000.0,-4.011210175133425,1.8615871994662976,8.626494104467286,0.007330383,-0.045814894,0.06688975,318.32843,-17.132898,-18.741081
7114679187000.0,-4.026850206045533,1.9323731826669217,8.654897864166825,-0.0012217305,-0.03573562,0.06414085,318.31775,-17.148848,-18.721825
7114684180000.0,-4.013128005375933,2.005557743447484,8.700638214654678,-0.00580322,-0.032375857,0.058643065,318.3082,-17.164278,-18.703253
7114689182000.0,-4.005655201336347,2.0564632252923256,8.734048,-0.024740042,-0.05100725,0.057726767,318.30655,-17.180138,-18.68982
7114694173000.0,-4.015048599764175,2.047069924948413,8.734048,-0.026267206,-0.052839845,0.059253927,318.30414,-17.19838,-18.682573
7114699239000.0,-4.021088586484615,2.0410300135153854,8.728196932423073,-0.030848695,-0.05681047,0.05467244,318.30457,-17.220425,-18.664742
7114704288000.0,-4.016304450420501,2.0458141495794995,8.704276252102503,-0.04337143,-0.062002823,0.052534413,318.30438,-17.239359,-18.646486
7114709228000.0,-4.011621475661743,2.0526181065728166,8.690405986616437,-0.044898596,-0.06688975,0.046731193,318.30768,-17.255863,-18.631344
7114714214000.0,-4.006887568454446,2.06681953161495,8.709341121146029,-0.032375857,-0.07971791,0.042760566,318.31238,-17.272158,-18.613312
7114719219000.0,-3.9989966504369754,2.0773453266554625,8.717897647563024,-0.025350908,-0.0852157,0.04337143,318.32086,-17.286629,-18.597315
7114724259000.0,-3.978716452789916,2.073289270184874,8.685449365210085,-0.036957346,-0.079107046,0.035430185,318.33295,-17.297533,-18.58301
7114729235000.0,-3.958693781462185,2.069284719193277,8.653413124537815,-0.021991149,-0.07941248,0.02687807,318.34662,-17.321857,-18.559927
7114734235000.0,-3.942010389196399,2.059782992797599,8.661067626875624,-0.01038471,-0.0842994,0.029932396,318.35898,-17.341818,-18.537897
7114739567000.0,-3.925206029862624,2.048151829862624,8.675730491046897,-0.014660766,-0.043676864,0.026572637,318.3712,-17.359371,-18.53045
7114744212000.0,-3.91256247628612,2.0355082762861203,8.667301499336807,-0.021380283,-0.040927973,0.020158553,318.39148,-17.378872,-18.508825
7114749261000.0,-3.898819246575083,2.0217650465750827,8.658139394031265,-0.010995574,-0.021685716,0.01863139,318.40186,-17.402481,-18.496967
7114754280000.0,-3.8825700663240834,2.013111033162042,8.653636035542995,-0.01038471,-0.017104227,0.018325957,318.4148,-17.420319,-18.483248
7114759328000.0,-3.866008337512847,2.004830168756424,8.649495733042137,-0.014966198,-0.0027488936,0.01740966,318.42554,-17.438494,-18.478327
7114764300000.0,-3.841061095092251,1.9831605499631,8.655739197416974,-0.014660766,0.00030543262,0.015577064,318.43396,-17.455275,-18.471338
7114769312000.0,-3.8100653890405902,1.952164936383764,8.669022846863468,-0.005192355,0.0030543262,0.013744468,318.44138,-17.472534,-18.468687
7114775161000.0,-3.7836062734643736,1.9022148387080264,8.667777996109747,-0.008246681,-0.02076942,0.007330383,318.44708,-17.482897,-18.460464
7114779339000.0,-3.771317615479116,1.857156383323096,8.655489509213758,-0.0018325958,-0.016493361,0.0070249503,318.44876,-17.498154,-18.460533
7114784316000.0,-3.754503298410143,1.8222838238076071,8.652447706983297,-0.0061086523,-0.028405234,0.0012217305,318.45142,-17.501724,-18.444546
7114789302000.0,-3.7352841698933386,1.807869477420004,8.662056970215335,-0.01038471,-0.043982297,0.010995574,318.4497,-17.508026,-18.4279
7114794300000.0,-3.7297379107069193,1.7873593451153198,8.680090377648602,0.0021380284,-0.05589417,0.0012217305,318.4528,-17.509321,-18.408018
7114799422000.0,-3.7389358048753047,1.7597656145884115,8.707684156197262,0.002443461,-0.05589417,0.01038471,318.4479,-17.508762,-18.38523
7114804311000.0,-3.7463034378209135,1.7465228756418285,8.719154960551032,0.006414085,-0.06872234,0.012217305,318.446,-17.509386,-18.353079
7114809373000.0,-3.751362690753496,1.7566413815069923,8.703977413066166,0.0067195175,-0.07696902,0.0106901415,318.44196,-17.509428,-18.32253
7114814304000.0,-3.760194989727174,1.7636540974317934,8.700306028737723,0.0070249503,-0.09193522,0.009468411,318.43488,-17.50459,-18.288239
7114819304000.0,-3.77412994789378,1.767137836973445,8.71075710185522,0.008246681,-0.093462385,0.008552114,318.4276,-17.499748,-18.256504
7114824350000.0,-3.7881931076755184,1.7706536269188795,8.721304324845399,0.010995574,-0.09773844,0.013439035,318.42395,-17.496422,-18.223047
7114829378000.0,-3.801822669810793,1.774844967517942,8.74955674722714,0.018325957,-0.10293079,0.008552114,318.42346,-17.493462,-18.190971
7114834388000.0,-3.815238673725417,1.779316984388107,8.785332321838009,0.004581489,-0.10751228,0.01038471,318.41983,-17.486395,-18.157934
7114839348000.0,-3.818567594759996,1.7735508573565353,8.7933498919738,-0.0033597588,-0.10415252,0.008246681,318.42615,-17.4815,-18.12679
7114844344000.0,-3.813890139212044,1.7595184418711507,8.77931772069606,0.0018325958,-0.11178834,0.008857546,318.43237,-17.476772,-18.09215
7114849325000.0,-3.816350433882072,1.7382118983537862,8.786698751571386,0.005497787,-0.10934488,0.012217305,318.43454,-17.469786,-18.062017
7114854338000.0,-3.8259301003292423,1.7094728990122716,8.81543785094283,0.00061086525,-0.1151481,0.020158553,318.43646,-17.462296,-18.028206
7114859338000.0,-3.823581038723192,1.6974753870922692,8.82267408957606,0.009162978,-0.11636983,0.03023783,318.4339,-17.461418,-17.994755
7114864338000.0,-3.8092516621645887,1.702251845945137,8.808344413765587,0.008552114,-0.1414153,0.030848695,318.4344,-17.45641,-17.954527
7114869301000.0,-3.7871629185252615,1.6856051585798817,8.805322070550751,0.024740042,-0.16126843,0.032070424,318.4303,-17.448723,-17.918661
7114874413000.0,-3.7559660834228494,1.645495015147929,8.814235611561221,0.021991149,-0.19364429,0.037873644,318.42804,-17.436216,-17.87328
7114879274000.0,-3.732321304983517,1.6211135950164826,8.812339087453948,0.04184427,-0.23854288,0.038179077,318.42993,-17.436619,-17.817492
7114884407000.0,-3.7227890741516383,1.6306458258483614,8.783742295423696,0.059253927,-0.28710666,0.049785517,318.43,-17.436956,-17.752031
7114889269000.0,-3.719892710836816,1.635588044581592,8.75459462105161,0.07941248,-0.31887165,0.05497787,318.43164,-17.43248,-17.674677
7114894324000.0,-3.738713091437457,1.6261778542812713,8.716954056370882,0.0842994,-0.34330627,0.06658431,318.43146,-17.429865,-17.58702
7114899364000.0,-3.759009178188869,1.621980995573148,8.681963159463608,0.093462385,-0.3643811,0.0852157,318.42984,-17.4351,-17.496397
7114904248000.0,-3.7854582140722193,1.6408731471524356,8.659292546005332,0.09773844,-0.3744604,0.08460484,318.43112,-17.439001,-17.405651
7114909268000.0,-3.8126437505452784,1.6602913701106712,8.63599064601341,0.11209377,-0.35705075,0.08857546,318.42764,-17.452005,-17.321817
7114914234000.0,-3.862596643764706,1.6950609995294117,8.609571867058824,0.112704635,-0.3304781,0.08124508,318.42715,-17.460653,-17.241592
7114919213000.0,-3.923368950980392,1.7371341352941176,8.581523012254902,0.10934488,-0.27488935,0.0711658,318.42157,-17.471437,-17.176464
7114924244000.0,-3.970415050100847,1.7680372886446147,8.571242,0.09285152,-0.22388211,0.061391957,318.41992,-17.480848,-17.131666
7114929249000.0,-4.009085388140379,1.7922063003933038,8.571242,0.07849618,-0.15454891,0.056199603,318.41275,-17.48883,-17.10887
7114934220000.0,-4.0318374885667625,1.8291759657411188,8.596785547366272,0.061086524,-0.118202426,0.047647487,318.42072,-17.499893,-17.103987
7114939224000.0,-4.046513470681911,1.873204218579012,8.635922078603512,0.0580322,-0.061391957,0.04795292,318.41928,-17.510876,-17.123259
7114944218000.0,-4.032200261474637,1.8866309,8.647857,0.044898596,0.009468411,0.047036625,318.42886,-17.515446,-17.161192
7114949267000.0,-4.004846068621535,1.8866309,8.647857,0.025961773,0.06078109,0.04550946,318.43518,-17.517382,-17.208523
7114954217000.0,-3.9961954546675753,1.8972993693176288,8.669193771537039,0.029932396,0.10170906,0.04520403,318.43417,-17.527472,-17.273392
7114959344000.0,-4.000974898666407,1.9164175944806772,8.707429922417989,0.028405234,0.12705997,0.050701816,318.42914,-17.531153,-17.345709
7114964211000.0,-3.981347626866109,1.9267513175832236,8.74078902038422,0.01282817,0.14080444,0.053145275,318.42242,-17.525549,-17.422997
7114969219000.0,-3.93914742366916,1.9302680073031235,8.77243915442147,0.018325957,0.15454891,0.051923547,318.4136,-17.525494,-17.504635
7114974288000.0,-3.896433200425282,1.933827532101481,8.804474803270274,0.020158553,0.13225232,0.051618114,318.4085,-17.520212,-17.576092
7114979245000.0,-3.831966339636006,1.923271563580915,8.814409890408264,0.01863139,0.122783914,0.049785517,318.40244,-17.515524,-17.652514
7114984189000.0,-3.7620975273585833,1.909297820580423,8.819067902016725,0.014049901,0.11759156,0.05100725,318.3979,-17.510973,-17.721575
7114989222000.0,-3.748015711414035,1.8988159407890948,8.827207768359413,0.019547688,0.11484267,0.050396383,318.39532,-17.505049,-17.770815
7114994169000.0,-3.752563703119901,1.889719909887684,8.836303941729865,0.004276057,0.09773844,0.056505036,318.39267,-17.49333,-17.812542
7114999230000.0,-3.744383754870357,1.889872381709881,8.81994404204625,-0.00061086525,0.09315695,0.04734206,318.38174,-17.483238,-17.844534
7115004225000.0,-3.730017116768445,1.894661261077185,8.791210665832415,0.0018325958,0.077579886,0.040011674,318.37158,-17.47201,-17.867258
7115009213000.0,-3.715204145609065,1.8894252637393767,8.795496801699716,-0.00061086525,0.06536258,0.033292156,318.3589,-17.460905,-17.887623
7115014213000.0,-3.7001320650299023,1.879377210019935,8.815592804217816,-0.00061086525,0.056199603,0.037873644,318.3465,-17.451674,-17.903593
7115019184000.0,-3.707436500895757,1.8770541,8.820239,-0.01740966,0.042760566,0.03481932,318.34344,-17.435144,-17.916353
7115024259000.0,-3.7217889745644257,1.8770541,8.820239,-0.012217305,0.025961773,0.032070424,318.34033,-17.425156,-17.924955
7115029175000.0,-3.7253778,1.8735261616565655,8.823767012020202,-0.010079277,0.021991149,0.030848695,318.331,-17.405924,-17.933163
7115034171000.0,-3.7253778,1.8686932633939397,8.82860001121212,-0.01282817,0.009773844,0.03573562,318.32312,-17.387402,-17.934141
7115039170000.0,-3.7253778,1.86415480921565,8.819848319488225,-0.013744468,-0.0012217305,0.024740042,318.33057,-17.363111,-17.938723
7115044169000.0,-3.7253778,1.859716238549972,8.806532329408492,-0.015271631,-0.0067195175,0.026572637,318.33337,-17.340061,-17.939878
7115049219000.0,-3.716188353273017,1.8701530956359764,8.78883246833422,-0.009773844,-0.024740042,0.029321533,318.34247,-17.319672,-17.931686
7115054177000.0,-3.7010265306865353,1.8903688590846195,8.768616810431082,0.0030543262,-0.040927973,0.03023783,318.3516,-17.301342,-17.922775
7115059170000.0,-3.700005315005908,1.892849784994092,8.725841040124065,0.0036651916,-0.043676864,0.018020526,318.3634,-17.282904,-17.913137
7115064167000.0,-3.7047173344623863,1.8881377655376133,8.674008973710123,-0.0027488936,-0.047036625,0.02687807,318.37015,-17.268263,-17.897587
7115069169000.0,-3.712737572067932,1.8996576781418584,8.6574335,0.0018325958,-0.041233405,0.023823744,318.37744,-17.25901,-17.888668
7115074208000.0,-3.722379429250749,1.9189414428471527,8.6574335,-0.003970624,-0.040011674,0.02107485,318.38266,-17.246141,-17.877302
7115079173000.0,-3.735108279338184,1.9152076867935808,8.654190108491976,-0.015577064,-0.035430185,0.011911872,318.38873,-17.239101,-17.871347
7115084168000.0,-3.749411912149905,1.900904004196153,8.649422380245191,-0.008246681,-0.030543262,0.013744468,318.39218,-17.236443,-17.865381
7115089171000.0,-3.751289719348911,1.8849337773956416,8.653493784720398,-0.014049901,-0.0033597588,0.01282817,318.4022,-17.227903,-17.868711
7115094180000.0,-3.74709175039818,1.868141901592719,8.661889459613196,-0.010079277,0.004581489,0.004581489,318.41492,-17.223566,-17.868877
7115099626000.0,-3.7420902348827294,1.855459334882729,8.684098257782516,-0.015882496,0.00061086525,0.0021380284,318.4219,-17.21552,-17.876013
7115104242000.0,-3.737377387462687,1.8507464874626864,8.717088386567164,-0.007941248,-0.00030543262,-0.004886922,318.4315,-17.211159,-17.887138
7115109230000.0,-3.732359436062176,1.845728536062176,8.72885756373057,-0.011911872,-0.00030543262,-0.0021380284,318.42914,-17.205936,-17.893442
7115114223000.0,-3.727404310424871,1.8407734104248703,8.718947105492227,-0.004886922,0.00030543262,-0.005192355,318.4306,-17.204544,-17.900774
7115119224000.0,-3.7150317791164658,1.8465064156626507,8.717480559236947,-0.00061086525,0.0036651916,-0.0033597588,318.43234,-17.196903,-17.90443
7115124321000.0,-3.6972103298284047,1.8598725026286969,8.72193601460387,-0.0015271631,0.0012217305,0.0018325958,318.43445,-17.189798,-17.906725
7115129273000.0,-3.6726406036504775,1.8736615841497957,8.726532471100388,-0.0012217305,-0.004581489,0.005497787,318.43298,-17.187048,-17.907652
7115139261000.0,-3.6262219596837935,1.9044596677865613,8.727859018774703,0.004886922,0.0033597588,0.008857546,318.42917,-17.185905,-17.911333
7115144235000.0,-3.638501132187661,1.920831940531019,8.715579803531535,0.011911872,0.00061086525,0.005497787,318.42407,-17.18547,-17.909834
7115149266000.0,-3.6487634,1.935196384174536,8.706680261234125,0.0033597588,0.01038471,0.005497787,318.40634,-17.184507,-17.911171
7115154335000.0,-3.6487634,1.9391482564636928,8.714583964547378,-0.002443461,0.020158553,-0.0018325958,318.39227,-17.1848,-17.91285
7115159283000.0,-3.6487634,1.9430057952458484,8.72229900183165,-0.00580322,0.035124753,-0.004276057,318.38364,-17.186724,-17.91945
7115164330000.0,-3.665735297069217,1.9562145836208689,8.741442998337144,-0.02076942,0.056199603,-0.009468411,318.37665,-17.182722,-17.93124
7115169311000.0,-3.6888707703318784,1.9727399216656276,8.764578609644564,-0.02565634,0.06658431,-0.012217305,318.3695,-17.180323,-17.944014
7115175281000.0,-3.715655935306033,1.991250476530163,8.790783676530163,-0.035430185,0.083383106,-0.01160644,318.36044,-17.17078,-17.965172
7115179385000.0,-3.712194624236019,1.9739439211800969,8.773477121180097,-0.040927973,0.10567969,-0.0125227375,318.35135,-17.160727,-17.990515
7115184304000.0,-3.708045942668428,1.95320051334214,8.75273371334214,-0.049480084,0.116980694,-0.012217305,318.34363,-17.152954,-18.017693
7115189292000.0,-3.70397868218224,1.937355246546721,8.763834613464887,-0.04886922,0.12858713,-0.019242255,318.3365,-17.145433,-18.050907
7115194291000.0,-3.7000093244838737,1.925447173451621,8.799558749854903,-0.06261369,0.13133603,-0.020463986,318.3277,-17.132364,-18.083307
7115199364000.0,-3.6966474,1.9127144040602868,8.827830716768242,-0.06505715,0.13072516,-0.018325957,318.31863,-17.122679,-18.115124
7115204371000.0,-3.6966474,1.896917611843189,8.815982906111019,-0.05955936,0.122478485,-0.023518313,318.31274,-17.110828,-18.145412
7115209265000.0,-3.6966474,1.8814773280184485,8.804402481633998,-0.05681047,0.118507855,-0.024740042,318.29715,-17.096794,-18.17153
7115214330000.0,-3.6995054591820105,1.8570476857259248,8.798227179566563,-0.05009095,0.10567969,-0.015271631,318.28186,-17.086044,-18.19171
7115219274000.0,-3.703363019814241,1.8300447613003092,8.79436994117647,-0.04428773,0.07819075,-0.005192355,318.26877,-17.075914,-18.206148
7115224272000.0,-3.701099375072872,1.8138601186953465,8.783821735852849,-0.052839845,0.051618114,-0.013439035,318.25394,-17.061838,-18.220657
7115229307000.0,-3.6817128284852743,1.828400028636044,8.754741814755251,-0.043982297,0.04917465,-0.011911872,318.23407,-17.055882,-18.232079
7115234277000.0,-3.6745525388150666,1.8334384689479468,8.726085325706864,-0.03573562,0.01740966,-0.0030543262,318.22015,-17.043024,-18.227962
7115239265000.0,-3.698415601258867,1.8143480189929064,8.697449551104006,-0.034513887,0.008552114,-0.0015271631,318.20618,-17.030243,-18.22979
7115244273000.0,-3.7209460726099706,1.7952946139589443,8.667583136363636,-0.033292156,-0.012217305,-0.003970624,318.20157,-17.022738,-18.215065
7115249322000.0,-3.739852529384165,1.7763881078299122,8.634496886363635,-0.022907447,-0.015271631,-0.0067195175,318.19583,-17.018093,-18.203072
7115254292000.0,-3.760204454606824,1.7672126050994343,8.617677821793468,-0.023518313,-0.018936822,-0.005497787,318.19562,-17.006552,-18.193905
7115259348000.0,-3.78670717454844,1.7892981743021346,8.653014704844006,-0.026267206,-0.025045475,-0.0027488936,318.19617,-16.997204,-18.183697
7115264528000.0,-3.8119701447786936,1.8100165,8.686564953151944,-0.032375857,-0.018936822,-0.004581489,318.19742,-16.987215,-18.181238
7115269297000.0,-3.816345672580954,1.8100165,8.690940572331865,-0.04153884,-0.019547688,-0.0030543262,318.19794,-16.976395,-18.174948
7115274726000.0,-3.8213301692307695,1.810569007692308,8.695925163461538,-0.025350908,0.0018325958,-0.0036651916,318.20236,-16.969711,-18.180332
7115279463000.0,-3.825758644591956,1.8238544337758689,8.700353500097618,-0.036651913,0.007941248,-0.003970624,318.20752,-16.953495,-18.181393
7115284318000.0,-3.8302974345177674,1.8374708035533,8.704892147842639,-0.046731193,0.01282817,-0.002443461,318.2148,-16.936947,-18.190872
7115289307000.0,-3.8245033326649,1.8511858346702,8.72086616833775,-0.038179077,0.025045475,-0.004581489,318.22183,-16.922356,-18.204226
7115294296000.0,-3.8176597238129344,1.864873052374132,8.737975190467663,-0.053145275,0.03176499,-0.004886922,318.22778,-16.899391,-18.216923
7115299365000.0,-3.810023698640212,1.873447955263833,8.755777290772256,-0.0580322,0.036957346,-0.002443461,318.23117,-16.884542,-18.233494
7115304335000.0,-3.797812026528693,1.8449542520225777,8.77612972342427,-0.069027774,0.03390302,-0.00580322,318.2364,-16.86379,-18.249786
7115314347000.0,-3.796807053249944,1.8016354630556173,8.787116750949297,-0.062308256,0.04184427,0.0015271631,318.23425,-16.849396,-18.26677
7115319261000.0,-3.8143264456109,1.7911238715434443,8.769597614697341,-0.070554934,0.038179077,0.011301007,318.23367,-16.828318,-18.279474
7115324368000.0,-3.8340461810263857,1.776716446750918,8.7532015,-0.061391957,0.038789943,0.0106901415,318.23062,-16.809437,-18.287867
7115329366000.0,-3.8667435400222017,1.7317575354538468,8.7532015,-0.07147124,0.03145956,0.0143553335,318.22455,-16.78489,-18.29168
7115334261000.0,-3.898767063888652,1.6877251483391684,8.7532015,-0.06780604,0.04062254,0.009468411,318.2183,-16.766546,-18.30753
7115339342000.0,-3.904603974176947,1.6622750423446606,8.747735076893967,-0.06963864,0.041233405,0.008552114,318.2113,-16.745113,-18.318066
7115344260000.0,-3.901039401226065,1.6444521403693333,8.740605968213123,-0.06261369,0.04184427,0.014049901,318.20306,-16.727606,-18.33059
7115349365000.0,-3.899228893217208,1.6236516254596638,8.733068984076713,-0.057726767,0.04337143,0.0106901415,318.19397,-16.70258,-18.351347
7115354313000.0,-3.911735097070467,1.5861330574294008,8.724731340723146,-0.063224554,0.037873644,0.009162978,318.18344,-16.67779,-18.369106
7115359274000.0,-3.924274158775402,1.5485159159584765,8.716371791677663,-0.046731193,0.028710667,0.0036651916,318.1792,-16.656197,-18.383434
7115364349000.0,-3.9295152043030166,1.5479147770255022,8.705820913413074,-0.0421497,0.038179077,0.004886922,318.17227,-16.63095,-18.40046
7115369277000.0,-3.933065529316181,1.5550153899796886,8.695170086662152,-0.03634648,0.03145956,0.00580322,318.16928,-16.610407,-18.410738
7115374317000.0,-3.9360676,1.5592915878888085,8.686164,-0.03848451,0.030848695,0.009468411,318.16394,-16.580963,-18.429857
7115379295000.0,-3.9360676,1.5494387282215565,8.686164,-0.02321288,0.032986723,0.0027488936,318.16165,-16.557484,-18.448215
7115384482000.0,-3.938635880748768,1.54700254808867,8.684879832807882,-0.01038471,0.040317107,0.0030543262,318.15643,-16.537985,-18.467426
7115389303000.0,-3.947733368985221,1.5651974770640396,8.68033099369458,-0.005497787,0.032986723,0.004581489,318.15393,-16.52031,-18.48323
7115394322000.0,-3.953232419758941,1.583156270361589,8.676587,-0.0067195175,0.038179077,0.003970624,318.1503,-16.50327,-18.50355
7115399340000.0,-3.9437369875518673,1.5973994186721991,8.676587,-0.0061086523,0.03359759,0.002443461,318.14807,-16.48834,-18.518738
7115404302000.0,-3.9360676,1.607187153154574,8.677445191344637,-0.00030543262,0.032070424,0.0061086523,318.14798,-16.47692,-18.537714
7115409313000.0,-3.9360676,1.5977255315457413,8.682176100946371,0.008246681,0.03268129,0.012217305,318.1479,-16.46671,-18.555532
7115414326000.0,-3.9341687655553694,1.5884840103702462,8.686164,0.0033597588,0.030543262,0.010995574,318.15045,-16.452805,-18.573307
7115419284000.0,-3.922236672809516,1.5805292818730106,8.686164,0.017715093,0.03023783,0.0018325958,318.1534,-16.446356,-18.591503
7115424675000.0,-3.909262507421679,1.5718798382811192,8.686164,0.02321288,0.02687807,0.0012217305,318.1558,-16.43419,-18.607
7115429339000.0,-3.8933215745099896,1.5741002063725027,8.682660020452609,0.0290161,0.024740042,0.0027488936,318.16016,-16.425478,-18.62301
7115434291000.0,-3.875359520310577,1.578590719922356,8.678169413123756,0.032986723,0.015882496,0.004581489,318.1655,-16.417841,-18.635996
7115439368000.0,-3.86123569184172,1.582771202719427,8.668792800358247,0.048563786,0.01160644,0.008552114,318.16727,-16.415344,-18.645144
7115444313000.0,-3.849668208695652,1.5866270304347827,8.65722547826087,0.04520403,-0.0036651916,0.0067195175,318.172,-16.408419,-18.649132
7115449308000.0,-3.8387625922995854,1.5912869077004133,8.652467999027316,0.059864793,-0.019547688,0.004581489,318.17264,-16.410997,-18.650394
7115454304000.0,-3.8310061372781066,1.5990433627218934,8.67573724260355,0.053450707,-0.03145956,0.00580322,318.17392,-16.406979,-18.648556
7115464350000.0,-3.8310258350860864,1.6385430396463472,8.731663761284318,0.059253927,-0.06291912,0.004276057,318.17926,-16.412344,-18.634705
7115469256000.0,-3.8441436891949743,1.6778966476314563,8.76664475123313,0.056199603,-0.076358154,0.005497787,318.18286,-16.41372,-18.62261
7115474311000.0,-3.852221853878513,1.7138584310281002,8.803041035924617,0.055283304,-0.080634214,0.0036651916,318.19147,-16.417,-18.599194
7115484342000.0,-3.8615091261638543,1.7737651368977436,8.867095015450296,0.05589417,-0.0729984,0.0027488936,318.19934,-16.41975,-18.576204
7115489297000.0,-3.871156014555804,1.783412075655621,8.862271470522465,0.042455133,-0.06627888,0.009468411,318.20377,-16.427855,-18.550577
7115495777000.0,-3.8826088871701976,1.7948649871701976,8.856544914625502,0.035124753,-0.060170226,0.008857546,318.21338,-16.43707,-18.528027
7115499313000.0,-3.887942992045365,1.800199092045365,8.853877806489722,0.02565634,-0.049785517,0.010995574,318.21912,-16.442654,-18.50854
7115504299000.0,-3.895464441962668,1.8077205419626683,8.850117002992834,0.029626964,-0.022296581,0.019547688,318.21646,-16.454445,-18.499065
7115509338000.0,-3.89450927976834,1.8002631393050192,8.842466963223938,0.026267206,-0.005497787,0.022602014,318.21484,-16.461048,-18.49031
7115514348000.0,-3.889878028030888,1.786369384092664,8.833204749903475,0.021991149,0.0036651916,0.019547688,318.21085,-16.468325,-18.487036
7115519348000.0,-3.871886058033315,1.7867186139888949,8.821667058839333,0.010995574,0.011301007,0.022296581,318.21075,-16.468557,-18.492245
7115524349000.0,-3.846150659430414,1.7952970801898622,8.808799090811393,0.0125227375,0.019242255,0.01863139,318.2126,-16.470032,-18.500744
7115529366000.0,-3.8227788147288417,1.7944817214153657,8.803071027423995,0.01038471,0.02687807,0.01740966,318.21448,-16.467276,-18.507435
7115534351000.0,-3.8031647649137215,1.7797712096548892,8.807974616680362,0.012217305,0.0290161,0.023518313,318.21512,-16.466356,-18.514359
7115539330000.0,-3.783458823957379,1.7752918491217848,8.803496776575377,0.013439035,0.032070424,0.03268129,318.2076,-16.46448,-18.524992
7115544294000.0,-3.763672244751519,1.7832065221260305,8.78766759585449,0.007941248,0.02107485,0.024129177,318.20477,-16.460016,-18.533155
7115549509000.0,-3.743880013570488,1.790537206785244,8.771703616971344,0.005497787,0.03176499,0.020158553,318.19574,-16.455275,-18.54125
7115554354000.0,-3.736238446376812,1.7867164231884058,8.764062089673912,0.002443461,0.013439035,0.013744468,318.1936,-16.447775,-18.539373
7115559344000.0,-3.728368184189723,1.7827812920948616,8.756191868577075,-0.008246681,0.0061086523,0.005192355,318.19415,-16.43829,-18.539564
7115564269000.0,-3.722925718241758,1.7861902635164837,8.743393096153845,-0.013133603,0.004276057,0.008552114,318.1942,-16.430069,-18.536018
7115569310000.0,-3.718844851901944,1.7943519961961116,8.72706950295858,-0.0143553335,0.015882496,0.0106901415,318.1964,-16.419142,-18.535257
7115574329000.0,-3.715801,1.7992299888331496,8.711264917026186,-0.0125227375,0.026267206,0.002443461,318.19717,-16.405645,-18.53656
7115579338000.0,-3.715801,1.794417087137554,8.696826412962777,-0.014966198,0.025961773,0.016493361,318.19077,-16.393158,-18.536087
7115584334000.0,-3.714733986032128,1.7908629,8.68723103625118,-0.015577064,0.03970624,0.012217305,318.18903,-16.38445,-18.54326
7115589298000.0,-3.710650210136586,1.7908629,8.691314897431493,0.0018325958,0.05681047,0.018936822,318.17993,-16.382307,-18.549177
7115594278000.0,-3.70655327138562,1.7908629,8.695411921742119,-0.00030543262,0.054367006,0.01985312,318.1737,-16.377588,-18.551908
7115599385000.0,-3.677919034660925,1.8191680653390745,8.699784468379978,0.0012217305,0.05681047,0.015577064,318.16537,-16.378426,-18.560406
7115604329000.0,-3.648188688912809,1.8488984110871904,8.704031527583423,-0.014049901,0.05100725,0.01740966,318.15625,-16.374542,-18.56529
7115609366000.0,-3.628283339279588,1.8651693404802745,8.734392899871354,-0.02107485,0.03726278,0.016493361,318.14117,-16.377157,-18.567972
7115614262000.0,-3.613203575300171,1.8752225164665524,8.774605656303601,-0.013439035,0.032986723,0.016187929,318.12546,-16.379513,-18.571367
7115619288000.0,-3.606747141427769,1.8881813144463184,8.804186428892637,-0.01863139,0.022907447,0.01282817,318.1123,-16.379608,-18.563967
7115624355000.0,-3.602200987633502,1.9018198232996064,8.831463446599212,-0.0070249503,0.0106901415,0.015882496,318.0983,-16.386457,-18.554558
7115629316000.0,-3.6073674797125377,1.9090286398562688,8.832904784791687,-0.0106901415,-0.0070249503,0.016187929,318.08124,-16.389729,-18.535679
7115634317000.0,-3.616669912809556,1.913679856404778,8.823602157424492,-0.013133603,-0.019242255,0.006414085,318.06714,-16.395197,-18.516191
7115639358000.0,-3.6353391519650655,1.90005522139738,8.820239,-0.014660766,-0.031154128,0.019242255,318.0536,-16.394484,-18.492043
7115644297000.0,-3.658722104193788,1.8766722284749116,8.820239,-0.018325957,-0.046120327,0.01282817,318.0498,-16.389566,-18.466984
7115649323000.0,-3.680173855776332,1.858793851925444,8.818452258835942,-0.029321533,-0.054367006,0.005192355,318.04504,-16.38447,-18.442465
7115654323000.0,-3.692803713346229,1.8630038044487427,8.81003217794971,-0.030543262,-0.043066,0.0009162979,318.04065,-16.380524,-18.420397
7115659942000.0,-3.7075178289582102,1.8681241144791052,8.80000698712478,-0.03481932,-0.03390302,-0.004581489,318.04227,-16.364664,-18.404276
7115664351000.0,-3.726157077575044,1.877443738787522,8.78447444213508,-0.025350908,-0.028710667,-0.0070249503,318.04337,-16.352276,-18.390846
7115669290000.0,-3.747036925367864,1.887883662683932,8.767074750662154,-0.03268129,-0.01282817,-0.0033597588,318.0439,-16.336506,-18.385992
7115674304000.0,-3.772174939196705,1.8940852207415035,8.7532015,-0.03848451,0.009468411,-0.0070249503,318.04608,-16.322937,-18.385496
7115679308000.0,-3.811657890628218,1.8842145086508757,8.7532015,-0.034513887,0.022296581,-0.013744468,318.0474,-16.310274,-18.386896
7115684313000.0,-3.8416045350906742,1.867919554365276,8.740152149093252,-0.03848451,0.04337143,-0.006414085,318.05344,-16.296461,-18.40075
7115689296000.0,-3.84633361985928,1.834815960985036,8.692861301407195,-0.039095376,0.05131268,-0.008857546,318.0641,-16.283365,-18.415707
7115694307000.0,-3.846531760612133,1.7999825701949352,8.655203752049554,-0.04153884,0.051618114,-0.0067195175,318.07474,-16.272875,-18.434452
7115699334000.0,-3.833375655602113,1.760514209373292,8.64643306116779,-0.03756821,0.054061573,-0.0015271631,318.08423,-16.264236,-18.455462
7115704434000.0,-3.8189950896907217,1.7225346592047128,8.636559287923417,-0.043676864,0.04153884,0.0012217305,318.1002,-16.248259,-18.474508
7115709390000.0,-3.794030425773196,1.7075559234167894,8.616587744477172,-0.03604105,0.03756821,0.008552114,318.11218,-16.238312,-18.495262
7115714349000.0,-3.7740242956952383,1.6935698086095237,8.602260455238095,-0.03481932,0.032986723,0.007941248,318.1286,-16.21707,-18.50873
7115719333000.0,-3.7785700834285714,1.6844782331428572,8.615897628571428,-0.02687807,0.0290161,0.014660766,318.14078,-16.201683,-18.519741
7115724440000.0,-3.782483379916608,1.6759412,8.629413455003474,-0.021991149,0.014660766,0.01985312,318.14642,-16.184961,-18.52731
7115729309000.0,-3.778432872689368,1.6759412,8.637514638637944,-0.02076942,0.01038471,0.02107485,318.1506,-16.1701,-18.536018
7115734401000.0,-3.774196852397498,1.6759412,8.645986856150104,-0.023518313,-0.004276057,0.027488936,318.15073,-16.156168,-18.53687
7115739334000.0,-3.785063230491751,1.6729908577806536,8.6508072497978,-0.028405234,-0.02565634,0.025350908,318.1538,-16.1416,-18.535221
7115744260000.0,-3.800325463781948,1.6691753193788417,8.654622668675186,-0.01038471,-0.03359759,0.026572637,318.15408,-16.133678,-18.532454
7115749340000.0,-3.815946562356277,1.667458740589069,8.660716533194204,-0.008857546,-0.04337143,0.028710667,318.1604,-16.114862,-18.524036
7115754332000.0,-3.8310063782642936,1.6712236945660734,8.672011434438494,-0.009773844,-0.050396383,0.033292156,318.1658,-16.100876,-18.514233
7115759265000.0,-3.845888203559616,1.674944150889904,8.683172842258623,-0.008552114,-0.04795292,0.03145956,318.17188,-16.085337,-18.510868
7115764337000.0,-3.862035871813103,1.6972202756729304,8.710482816658203,-0.0018325958,-0.0580322,0.03359759,318.17694,-16.072086,-18.501755
7115769345000.0,-3.878274441103775,1.7256377719316065,8.74295978567801,-0.004886922,-0.046731193,0.03176499,318.18134,-16.056211,-18.499956
7115774304000.0,-3.8913553108249217,1.7429788,8.769121388531152,0.0033597588,-0.039095376,0.03756821,318.18527,-16.04208,-18.500969
7115779358000.0,-3.899778761434041,1.7429788,8.785968201792551,0.006414085,-0.040927973,0.031154128,318.19287,-16.024742,-18.503696
7115784360000.0,-3.9096297802747593,1.7448128690075866,8.800626522247283,-0.002443461,-0.02565634,0.029626964,318.1962,-16.01101,-18.513863
7115789306000.0,-3.9339105126922287,1.7642375056489643,8.795770781423006,-0.004581489,-0.03268129,0.030543262,318.20267,-15.999759,-18.517689
7115794325000.0,-3.957883112637081,1.779289658573332,8.792174422568412,-0.0030543262,-0.0290161,0.023518313,318.21323,-15.983912,-18.528933
7115799436000.0,-3.977949536660859,1.764239788172594,8.797190609511121,0.004276057,-0.029626964,0.026267206,318.22137,-15.97055,-18.536001
7115804379000.0,-3.9943053980028296,1.7502245573104769,8.794868918615295,-0.002443461,-0.02076942,0.025350908,318.23196,-15.959751,-18.55058
7115809301000.0,-3.9982278433053176,1.738456975651161,8.763488864691686,-0.0009162979,-0.0143553335,0.02443461,318.24185,-15.953635,-18.563847
7115814262000.0,-4.002181368527919,1.726596152284264,8.73186016751269,-0.00030543262,-0.022602014,0.021991149,318.249,-15.948839,-18.575708
7115820490000.0,-4.011904221696574,1.7282247649084648,8.728870656788109,-0.00030543262,-0.006414085,0.024129177,318.25235,-15.944765,-18.595325
7115824310000.0,-4.018535317944536,1.7315402784121807,8.732186239532354,0.007941248,-0.008857546,0.01985312,318.26056,-15.942366,-18.607996
7115829378000.0,-4.009188958558222,1.7386299365767113,8.728819954244093,0.005192355,-0.0030543262,0.01985312,318.2635,-15.94051,-18.628313
7115834351000.0,-3.986952789728266,1.7475244041086937,8.719925300961807,0.0012217305,0.0018325958,0.014049901,318.2698,-15.939421,-18.648214
7115839334000.0,-3.96991170543346,1.7436294108669197,8.719357187772925,-0.0018325958,0.0009162979,0.011301007,318.27893,-15.941235,-18.66431
7115844295000.0,-3.9597082896986175,1.7232225793972369,8.729560816593885,0.008552114,-0.0012217305,0.017715093,318.2868,-15.945821,-18.680809
7115849380000.0,-3.949249839988546,1.702305679977092,8.740019484716157,0.01038471,0.011301007,0.014660766,318.2927,-15.946805,-18.701288
7115854449000.0,-3.9395302935695033,1.6981518532152482,8.758910266076242,0.0067195175,0.0021380284,0.01038471,318.29932,-15.949322,-18.714573
7115859341000.0,-3.930510327146707,1.702661836426646,8.78146018213323,0.004886922,0.0070249503,0.0125227375,318.3028,-15.952881,-18.734516
7115864330000.0,-3.9246328518544096,1.7046716,8.789651013053387,0.00580322,0.0061086523,0.00580322,318.3067,-15.950148,-18.747824
7115869292000.0,-3.921350851605774,1.7046716,8.786368944264106,0.0015271631,-0.0027488936,0.007941248,318.30783,-15.946459,-18.759127
7115874406000.0,-3.917968314469231,1.7046716,8.782986336487326,0.01038471,-0.004276057,0.009162978,318.3038,-15.949537,-18.76842
7115879368000.0,-3.926083334520989,1.7138409345209893,8.791101206860608,0.007330383,-0.009468411,0.0061086523,318.30164,-15.947854,-18.774363
7115884340000.0,-3.939619537382735,1.727377137382735,8.804637221264096,0.016493361,-0.0027488936,0.007941248,318.29697,-15.952172,-18.782595
7115889268000.0,-3.9375222564623193,1.73137146411558,8.80863142171027,0.019242255,-0.00061086525,0.015271631,318.29056,-15.95716,-18.78554
7115894291000.0,-3.922495543022257,1.7276147857555644,8.804874664896525,0.017715093,0.0027488936,0.0036651916,318.28864,-15.961391,-18.792124
7115899683000.0,-3.905806607425621,1.724335397524793,8.800064610277847,0.0076358155,-0.0021380284,0.0061086523,318.28314,-15.970887,-18.792885
7115904487000.0,-3.8831820944184905,1.7318769018605031,8.78498168035407,0.0143553335,-0.005497787,0.0106901415,318.2802,-15.983091,-18.79584
7115909333000.0,-3.860359781755594,1.739484339414802,8.769766884681584,0.0076358155,0.0033597588,0.0106901415,318.27655,-15.990001,-18.795038
7115914350000.0,-3.8458882100865415,1.748961084870188,8.752807525216355,0.002443461,0.004581489,0.0033597588,318.27484,-15.998271,-18.791813
7115919307000.0,-3.8388049218740674,1.7595860171888988,8.735099304685168,0.0027488936,-0.008246681,0.007941248,318.2704,-16.006834,-18.786428
7115924297000.0,-3.8316744784243513,1.7702816823634735,8.717273196060876,0.004276057,-0.013133603,0.010079277,318.27057,-16.010485,-18.783121
7115929310000.0,-3.800949541802253,1.7679875524405508,8.74094568836045,-0.0012217305,-0.008552114,0.008552114,318.27087,-16.012066,-18.779203
7115934320000.0,-3.766635296674415,1.763698282996603,8.770970753620597,0.0030543262,-0.0067195175,0.009162978,318.27066,-16.016748,-18.773249
7115939350000.0,-3.7632236733273854,1.7666901604594112,8.77281657426405,0.0021380284,-0.013744468,0.0021380284,318.27237,-16.027338,-18.76174
7115944315000.0,-3.777362481534345,1.7737596014719,8.75867783987511,-0.013439035,-0.0125227375,0.0036651916,318.27072,-16.035366,-18.752771
7115949804000.0,-3.7927689068097097,1.781109346595145,8.743801746022365,-0.007941248,-0.011911872,0.0067195175,318.26776,-16.040611,-18.73733
7115954333000.0,-3.80065576563324,1.7771659171833802,8.747745010728247,-0.0143553335,-0.0067195175,0.011911872,318.2632,-16.038527,-18.723791
7115959285000.0,-3.809279242094736,1.7728541789526322,8.752056568869897,-0.0070249503,-0.004581489,0.004276057,318.26422,-16.0478,-18.7111
7115964353000.0,-3.8142746369890856,1.7717092,8.755906852239368,-0.010995574,-0.014966198,-0.0030543262,318.2644,-16.052328,-18.696535
7115969263000.0,-3.817814124230335,1.7717092,8.75944622860369,-0.011911872,-0.0125227375,0.0033597588,318.2616,-16.059761,-18.68612
7115974372000.0,-3.819504350598381,1.7725300247008096,8.763598837557199,-0.0067195175,-0.01282817,0.004276057,318.2697,-16.060472,-18.676258
7115979413000.0,-3.802511425272791,1.7810264873636044,8.772095433298135,-0.0076358155,0.0009162979,0.008246681,318.27356,-16.059992,-18.670649
7115984272000.0,-3.786132011633228,1.7892161941833862,8.780285268391411,-0.013439035,-0.006414085,0.005192355,318.2782,-16.060211,-18.661058
7115989298000.0,-3.7787326636171112,1.7990747727657772,8.790143615523084,-0.00580322,-0.005497787,0.008857546,318.27786,-16.064537,-18.656935
7115994261000.0,-3.773699874714104,1.809140350571792,8.80020887801779,-0.01282817,-0.0036651916,0.01160644,318.27924,-16.062727,-18.65177
7115999392000.0,-3.759874507660271,1.8100165,8.8144725719173,-0.004276057,-0.0021380284,0.014966198,318.28357,-16.062702,-18.64447
7116004336000.0,-3.7457892185928894,1.8100165,8.828558155139074,-0.013744468,-0.0015271631,0.009468411,318.2895,-16.055246,-18.638348
7116014325000.0,-3.7056384456057008,1.7631105917458432,8.8100768456057,-0.017715093,-0.0021380284,0.005497787,318.29202,-16.052374,-18.632381
7116019325000.0,-3.6870706,1.733402,8.788448473159566,-0.009468411,0.0021380284,0.006414085,318.29416,-16.050112,-18.628311
7116024385000.0,-3.6870706,1.733402,8.774135843018533,-0.009468411,0.010995574,0.01863139,318.2948,-16.03845,-18.62383
7116029652000.0,-3.6870706,1.733402,8.759237696189913,-0.004581489,0.010079277,0.016187929,318.29544,-16.026001,-18.615564
7116034336000.0,-3.697537048087432,1.7150857158469943,8.750584969945354,-0.0027488936,0.002443461,0.008246681,318.2939,-16.013483,-18.607601
7116039344000.0,-3.7180923312332586,1.679113970341798,8.745446310136076,-0.005497787,0.009773844,0.008857546,318.28934,-16.001709,-18.603264
7116044288000.0,-3.71566304993598,1.668793087516005,8.748482222871319,-0.0106901415,0.013744468,0.0061086523,318.2898,-15.991339,-18.596792
7116049411000.0,-3.699958201536492,1.672719299615877,8.756334401088349,-0.018020526,0.018325957,0.013133603,318.28647,-15.980678,-18.591923
7116054308000.0,-3.6897507503886926,1.6786213503886926,8.762778,-0.015271631,0.018936822,0.007330383,318.28595,-15.967538,-18.591038
7116059363000.0,-3.709300765128723,1.698171365128723,8.762778,-0.018325957,0.01985312,0.00061086525,318.2832,-15.951616,-18.591074
7116064349000.0,-3.7253778,1.7148753083385977,8.767166384554644,-0.01282817,0.022296581,0.0076358155,318.284,-15.93411,-18.587614
7116069292000.0,-3.7253778,1.7186133154769423,8.793332590650664,-0.011911872,0.03390302,0.007941248,318.28754,-15.913708,-18.588217
7116074300000.0,-3.7253778,1.7224004770688566,8.81984287997473,-0.020463986,0.026572637,0.002443461,318.2967,-15.895046,-18.58722
7116079443000.0,-3.7253778,1.7238252,8.823896894557178,-0.01985312,0.01863139,0.009468411,318.301,-15.880634,-18.588194
7116084364000.0,-3.7253778,1.7238252,8.814959208799545,-0.01740966,0.0143553335,0.006414085,318.3099,-15.863313,-18.589525
7116089290000.0,-3.736730183774773,1.7170137697351362,8.806121188738656,-0.013744468,0.009162978,0.004581489,318.3112,-15.846444,-18.589102
7116094285000.0,-3.758880635710317,1.70372349857381,8.797261285515836,-0.009773844,0.010995574,0.0018325958,318.31323,-15.83027,-18.589855
7116099390000.0,-3.768193010460489,1.6967843965131704,8.78812973640326,-0.0015271631,0.0009162979,0.010995574,318.31567,-15.811656,-18.591318
7116104333000.0,-3.754737034792496,1.7012697217358348,8.779158898616638,-0.002443461,-0.011301007,0.016493361,318.31976,-15.791511,-18.593136
7116109401000.0,-3.742847833533253,1.7071969497001198,8.774038601626016,-0.0015271631,-0.008246681,0.0125227375,318.32153,-15.778142,-18.59824
7116114357000.0,-3.736522014420898,1.7166856783686526,8.780364552845528,0.0009162979,-0.021991149,0.010995574,318.32346,-15.765874,-18.594826
7116119260000.0,-3.730263844302279,1.7260729335465814,8.786622853658535,-0.00030543262,-0.034513887,0.012217305,318.3284,-15.750872,-18.591543
7116124313000.0,-3.7253778,1.7376595140627835,8.792573289602613,0.004581489,-0.034208454,0.021380283,318.33133,-15.7390375,-18.58772
7116129382000.0,-3.7253778,1.7552769334784977,8.796977276537833,0.010995574,-0.026267206,0.010079277,318.34003,-15.725697,-18.584473
7116134597000.0,-3.7257558111525366,1.7698191442373157,8.79995098233101,0.0015271631,-0.013133603,0.016798794,318.34225,-15.713164,-18.577429
7116139338000.0,-3.7294357924136814,1.7514192379315936,8.78891119225158,0.005497787,-0.015577064,0.006414085,318.35315,-15.703424,-18.570993
7116144290000.0,-3.7332795526341385,1.7322004368293078,8.777380072134868,-0.005192355,-0.011301007,0.006414085,318.3557,-15.693067,-18.56873
7116149330000.0,-3.749161073955116,1.7238252,8.769513645871937,-0.0018325958,-0.0106901415,0.0036651916,318.36246,-15.686385,-18.566132
7116154695000.0,-3.7756071991352687,1.7238252,8.764224310376777,0.00030543262,0.010995574,0.004276057,318.3659,-15.676944,-18.570423
7116159326000.0,-3.7738231298423086,1.7238252,8.77179365843499,-0.0033597588,0.01160644,0.008857546,318.36734,-15.668166,-18.568867
7116164307000.0,-3.759630317941089,1.7238252,8.785986766736091,-0.0033597588,0.018020526,0.005497787,318.36853,-15.660301,-18.575457
7116174328000.0,-3.773838686253186,1.7632862411809689,8.791509,-0.013133603,0.018325957,0.009468411,318.37033,-15.650525,-18.583109
7116179378000.0,-3.784152722460485,1.7773437188966072,8.787566550286922,-0.01160644,0.029321533,0.0106901415,318.3724,-15.643295,-18.59581
7116184295000.0,-3.7888933975435415,1.7631216441457769,8.773344228027787,-0.0143553335,0.03023783,0.0012217305,318.3759,-15.628536,-18.604898
7116189259000.0,-3.7924154,1.7488395823993683,8.765255396803473,-0.015271631,0.035124753,0.013744468,318.37827,-15.6190195,-18.618385
7116194292000.0,-3.7924154,1.7345735895816892,8.77476625730071,-0.018020526,0.0421497,0.011911872,318.38715,-15.606257,-18.634384
7116199278000.0,-3.7912715869360807,1.716962321616485,8.781932,-0.01863139,0.034208454,0.010995574,318.3874,-15.598436,-18.647287
7116204322000.0,-3.786439599419826,1.6879703965189556,8.781932,-0.01740966,0.03023783,0.010079277,318.38733,-15.590287,-18.662956
7116209312000.0,-3.78393362515326,1.6696494754597808,8.7874071257663,-0.014966198,0.029932396,0.006414085,318.3885,-15.57717,-18.678455
7116215206000.0,-3.7891765806799182,1.6853783420397548,8.813621903399591,-0.013744468,0.031154128,0.012217305,318.3874,-15.56511,-18.692255
7116219330000.0,-3.79314064971778,1.6950948,8.827640265992473,-0.02443461,0.026572637,0.011301007,318.38696,-15.5465975,-18.703314
7116224408000.0,-3.800765531843838,1.6950948,8.804765778849168,-0.02443461,0.018325957,0.0067195175,318.38617,-15.53176,-18.713223
7116229339000.0,-3.80816968579492,1.6950948,8.782553471621197,-0.010995574,0.023518313,0.016798794,318.3796,-15.521786,-18.72283
7116234327000.0,-3.814214424416954,1.700385248833908,8.767064578787263,-0.022602014,0.01038471,0.008246681,318.38202,-15.503086,-18.726877
7116239351000.0,-3.8190931349422015,1.7101426698844049,8.75730720867978,-0.016187929,0.003970624,0.011911872,318.377,-15.495103,-18.732244
7116244375000.0,-3.8287389038234494,1.7117174320588502,8.7532015,-0.011911872,0.00030543262,0.009162978,318.37677,-15.485365,-18.73941
7116249350000.0,-3.841719899191717,1.7073904336027608,8.7532015,-0.017104227,-0.00061086525,0.010995574,318.37448,-15.475642,-18.744837
7116254217000.0,-3.8498764,1.7064404530447697,8.758508077604498,-0.0125227375,-0.00580322,0.011911872,318.37305,-15.473799,-18.74883
7116259209000.0,-3.8498764,1.711512316571186,8.773723721143645,-0.004276057,-0.005497787,0.018020526,318.36926,-15.472134,-18.753492
7116264190000.0,-3.851990410458273,1.705792358166908,8.767133838494935,0.0061086523,-0.01160644,0.01282817,318.371,-15.469099,-18.759586
7116269185000.0,-3.856605568779546,1.6873317248818138,8.734827537481909,-0.004276057,-0.0018325958,0.022296581,318.36545,-15.4645405,-18.768387
7116274222000.0,-3.857452917521367,1.68394232991453,8.718894648504273,0.005497787,-0.0061086523,0.017715093,318.36588,-15.467206,-18.771986
7116279241000.0,-3.8523176654700855,1.7044833381196582,8.729165367094017,0.0106901415,0.0027488936,0.02076942,318.35956,-15.467291,-18.780441
7116284199000.0,-3.852327786305733,1.7216025589171975,8.721791068471337,0.004581489,0.014660766,0.02107485,318.36185,-15.465449,-18.78764
7116289187000.0,-3.857081874522293,1.735864823566879,8.698020627388535,-0.0012217305,0.011301007,0.018936822,318.3646,-15.464918,-18.793045
7116294182000.0,-3.8594532,1.738368327105137,8.699995466826692,0.005192355,0.020158553,0.017715093,318.35852,-15.469248,-18.80726
7116299224000.0,-3.8594532,1.729095888199712,8.727812880364858,0.003970624,0.017104227,0.006414085,318.35748,-15.468542,-18.818079
7116304307000.0,-3.8445252367014864,1.7174275205303335,8.75855278515468,0.0030543262,0.005192355,0.008552114,318.3571,-15.474565,-18.828186
7116309248000.0,-3.811255472760144,1.7031690928083567,8.791822152069104,-0.005192355,0.009468411,0.0106901415,318.359,-15.476901,-18.842623
7116314245000.0,-3.788532054397935,1.6950948,8.808720286649457,-0.0015271631,0.010995574,0.011301007,318.36356,-15.473735,-18.85443
7116319237000.0,-3.7797163830721,1.6950948,8.804312358934169,0.0076358155,0.021380283,0.019547688,318.36414,-15.470803,-18.868843
7116324241000.0,-3.778775743939394,1.6992302363636362,8.799706636363636,0.0036651916,0.018020526,0.013439035,318.36426,-15.460149,-18.872757
7116329258000.0,-3.7992823834827143,1.7146101357234316,8.79458043149808,0.0033597588,0.0067195175,0.01282817,318.36032,-15.454233,-18.87613
7116334233000.0,-3.818977064545276,1.725677166136319,8.784101077440582,0.0018325958,0.00061086525,0.011301007,318.3534,-15.446058,-18.882524
7116339231000.0,-3.837780775564722,1.7303780938911806,8.765297219161264,0.004886922,0.0106901415,0.021991149,318.34277,-15.440159,-18.88925
7116344233000.0,-3.845488636150756,1.734864587949748,8.756126660627297,0.008552114,0.009162978,0.014966198,318.33972,-15.434669,-18.898058
7116349300000.0,-3.8330472262883513,1.7390117245705496,8.764420890564908,0.00030543262,0.009773844,0.018020526,318.32977,-15.428681,-18.908297
7116354583000.0,-3.820816156821234,1.7426489568212338,8.770046101192827,0.003970624,0.0012217305,0.02076942,318.32523,-15.431879,-18.916817
7116359317000.0,-3.817234786160044,1.7390675861600442,8.744976543960817,0.004276057,0.00061086525,0.019242255,318.32053,-15.431623,-18.927574
7116364327000.0,-3.813444615688443,1.7352774156884432,8.718445390236194,0.008857546,0.0036651916,0.016798794,318.31787,-15.4311,-18.933807
7116369305000.0,-3.807407357881923,1.7354828993304932,8.7053175,0.004886922,0.011301007,0.006414085,318.31775,-15.427289,-18.941872
7116374381000.0,-3.798953772211112,1.739709648030606,8.7053175,-0.005497787,0.004581489,0.018325957,318.31293,-15.424726,-18.945185
7116379309000.0,-3.7943759789764018,1.7449393585044437,8.706297748544284,0.003970624,0.005192355,0.014049901,318.31708,-15.424667,-18.954754
7116384318000.0,-3.804176917192768,1.7547401943814485,8.711198012973746,-0.007941248,0.0027488936,0.01160644,318.3181,-15.417299,-18.96048
7116389311000.0,-3.8084356561041295,1.7610878926391382,8.716983058348294,-0.004886922,-0.0009162979,0.017104227,318.3198,-15.414976,-18.965038
7116394332000.0,-3.7954862537163376,1.7567714552244165,8.72561611346499,0.004886922,0.0021380284,0.015882496,318.32373,-15.410419,-18.971485
7116399517000.0,-3.7822023605485056,1.75319184166601,8.734472157419813,0.008857546,-0.0030543262,0.017715093,318.33026,-15.401892,-18.978903
7116404348000.0,-3.77126402321696,1.7641302170699031,8.741764344235165,0.008857546,0.003970624,0.0143553335,318.3373,-15.3944,-18.990898
7116409284000.0,-3.760087945165104,1.7753063340215935,8.749215024036566,0.00030543262,-0.00061086525,0.014660766,318.33722,-15.387905,-18.995077
7116414302000.0,-3.756020342259555,1.77363751099538,8.747465053254935,0.00061086525,-0.0021380284,0.018936822,318.33615,-15.383825,-19.001875
7116419287000.0,-3.7600304512893743,1.7575970330029398,8.735434684292313,-0.00030543262,-0.0027488936,0.01740966,318.337,-15.376615,-19.00804
7116424302000.0,-3.761764146032084,1.7439392269839582,8.726391843939233,0.004886922,-0.005497787,0.02443461,318.334,-15.367368,-19.015633
7116429324000.0,-3.741326585381919,1.7541580073090406,8.746829297885903,0.005497787,-0.004581489,0.014966198,318.336,-15.35509,-19.025324
7116434405000.0,-3.7331604098997593,1.760402935146476,8.767101662133811,0.010995574,-0.0067195175,0.0143553335,318.33292,-15.349404,-19.029823
7116439309000.0,-3.76600543481234,1.7531040576579378,8.785348855855156,0.008857546,-0.0027488936,0.017104227,318.33102,-15.341296,-19.036665
7116444286000.0,-3.799339384443236,1.745696530484109,8.803867673789728,-0.0021380284,-0.01282817,0.0070249503,318.33987,-15.329078,-19.032589
7116449333000.0,-3.8115692,1.7459354637400557,8.789965539058755,-0.0021380284,-0.0021380284,0.0067195175,318.34283,-15.320556,-19.034477
7116454382000.0,-3.8115692,1.750570109882105,8.757523306431516,-0.0033597588,-0.0009162979,0.008246681,318.34967,-15.308172,-19.031885
7116459349000.0,-3.814251316180584,1.7391450190970834,8.748989064322812,0.0015271631,-0.00030543262,0.01985312,318.35608,-15.297245,-19.03558
7116464332000.0,-3.819017715940871,1.7153130202956453,8.758521565221734,0.007330383,0.006414085,0.021991149,318.364,-15.285754,-19.041933
7116470525000.0,-3.810542054246117,1.7011369760208352,8.766312697795554,-0.0036651916,-0.0012217305,0.01160644,318.37595,-15.273769,-19.045712
7116474399000.0,-3.800189310836201,1.697686085573435,8.769763660310668,-0.0027488936,-0.0036651916,0.014049901,318.38245,-15.268071,-19.051544
7116479325000.0,-3.796467551730648,1.7011729641283826,8.770328902978813,-0.0015271631,0.009162978,0.008246681,318.3873,-15.254751,-19.063845
7116484353000.0,-3.806568800566394,1.7163246791692888,8.76527822582337,-0.0067195175,0.004886922,0.0106901415,318.39063,-15.241211,-19.069803
7116489291000.0,-3.8078120789587504,1.7238252,8.76089951794153,-0.01038471,0.012217305,0.014660766,318.39374,-15.227056,-19.078135
7116494349000.0,-3.800052373680416,1.7238252,8.757019827352824,-0.0067195175,0.0076358155,0.015882496,318.3982,-15.213739,-19.081995
7116499608000.0,-3.7912879151667513,1.7242761939332998,8.7529760100972,-0.0009162979,0.007330383,0.015882496,318.40475,-15.198621,-19.093788
7116504505000.0,-3.7716391848164905,1.7321356860734036,8.74904638712921,-0.0015271631,0.0067195175,0.018325957,318.41052,-15.183463,-19.103743
7116509594000.0,-3.751220073370203,1.740303330651919,8.74496269276856,0.0061086523,0.00030543262,0.017104227,318.41748,-15.173083,-19.109526
7116514345000.0,-3.747352841650745,1.7429788,8.752089207107375,0.008246681,0.005192355,0.01863139,318.4219,-15.161792,-19.117758
7116519347000.0,-3.7519289931218953,1.7429788,8.765817470385937,0.014966198,0.004886922,0.021685716,318.42712,-15.153983,-19.122751
7116524330000.0,-3.746728408334979,1.7478986611100138,8.764975311080386,0.023518313,-0.002443461,0.014049901,318.43512,-15.149273,-19.121553
7116529308000.0,-3.732604377997234,1.7573146813351768,8.750851477384948,0.022907447,-0.0027488936,0.015271631,318.43903,-15.145025,-19.121426
7116534304000.0,-3.718305657111268,1.7527028761483567,8.748339614232586,0.013439035,-0.005192355,0.010995574,318.44946,-15.137764,-19.11927
7116539314000.0,-3.703837941360941,1.7334125884812543,8.75798445592522,0.0125227375,-0.0036651916,0.015271631,318.45663,-15.133584,-19.117601
7116544328000.0,-3.702391204324752,1.721910598558416,8.760863458534654,0.008246681,-0.004886922,0.003970624,318.46774,-15.128685,-19.113462
7116549372000.0,-3.713869710273267,1.7180844299089109,8.757037409742574,-0.004581489,-0.003970624,0.009773844,318.4722,-15.123226,-19.108961
7116554264000.0,-3.725002313584159,1.7143735621386138,8.753326658217821,0.005497787,0.004581489,0.0033597588,318.47546,-15.117887,-19.107819
7116559380000.0,-3.720811226100356,1.7096818261003563,8.7532015,-0.00061086525,0.0012217305,0.008246681,318.4746,-15.106506,-19.102526
7116569347000.0,-3.7274446428954415,1.7007903857015192,8.764845183422699,-0.0033597588,0.014966198,0.0009162979,318.47696,-15.097005,-19.10592
7116579319000.0,-3.738765677956257,1.6950948,8.787697541428441,-0.009773844,0.019547688,0.00030543262,318.4767,-15.088765,-19.10574
7116584309000.0,-3.7300918904982314,1.6950948,8.796371057173973,-0.018325957,0.015882496,0.004276057,318.47742,-15.078311,-19.10547
7116589301000.0,-3.727366606266509,1.6931059937334911,8.795118664268148,-0.015271631,0.015577064,-0.0009162979,318.48813,-15.064557,-19.107037
7116594344000.0,-3.731765531705984,1.688707068294016,8.781922071682303,-0.011911872,0.020158553,-0.002443461,318.49628,-15.049666,-19.108477
7116599343000.0,-3.736252575819962,1.689411927459885,8.774951005853264,-0.008246681,0.018325957,0.011301007,318.49573,-15.038437,-19.106564
7116604298000.0,-3.741041459057423,1.7037785771722678,8.784528972348369,-0.004581489,0.02321288,0.0070249503,318.49982,-15.026436,-19.109385
7116609302000.0,-3.749364470337832,1.7142484,8.783051076442352,-0.0070249503,0.02107485,0.009468411,318.50244,-15.01176,-19.112192
7116614361000.0,-3.766916877257495,1.7142484,8.75233418105244,0.005192355,0.02107485,0.009468411,318.5063,-15.0016365,-19.11741
7116619409000.0,-3.7828386,1.714938200109847,8.726195500274617,-0.004276057,0.0076358155,0.014049901,318.50397,-14.991526,-19.118414
7116624385000.0,-3.7828386,1.7224162945468813,8.744890736367202,-0.0030543262,0.014049901,0.008246681,318.50305,-14.986544,-19.12566
7116629392000.0,-3.7828386,1.7299409767908984,8.763702441977244,-0.003970624,0.01863139,0.008552114,318.5004,-14.983633,-19.133074
7116634341000.0,-3.7828386,1.7357325631196543,8.760702184401728,-0.007941248,0.015882496,0.007330383,318.50006,-14.979432,-19.140678
7116639348000.0,-3.7828386,1.7401426649866645,8.738651675066679,-0.0021380284,0.015882496,0.00580322,318.49918,-14.97755,-19.150135
7116644337000.0,-3.784168272647359,1.7429788,8.731119363236793,-0.008552114,0.005497787,0.009773844,318.49536,-14.972208,-19.155483
7116649325000.0,-3.787917513554666,1.7429788,8.74986556777333,-0.0015271631,0.009773844,0.006414085,318.49304,-14.971084,-19.165405
7116655694000.0,-3.7920910910898056,1.743951726730583,8.773003631365995,-0.011301007,0.015271631,0.002443461,318.50006,-14.96401,-19.1699
7116659364000.0,-3.788999626932888,1.753226119201337,8.779186688802884,-0.009162978,0.004581489,0.004581489,318.50723,-14.962245,-19.17096
7116664346000.0,-3.7848029853988914,1.7658160438033248,8.787580147154543,0.0015271631,0.0143553335,0.0106901415,318.51276,-14.959301,-19.177385
7116669342000.0,-3.7828386,1.7557894133713674,8.77786342110893,-0.0061086523,0.0027488936,0.0106901415,318.52197,-14.951648,-19.175432
7116674349000.0,-3.7828386,1.725868102692102,8.752216494116597,0.00030543262,0.009773844,0.016187929,318.52542,-14.951713,-19.180481
7116679323000.0,-3.7828386,1.7079430874561123,8.732957481407595,-0.004276057,0.005497787,-0.0015271631,318.53323,-14.949293,-19.179478
7116684529000.0,-3.7828386,1.719878170635174,8.728979037264603,-0.005497787,0.0076358155,0.013133603,318.52896,-14.952928,-19.179373
7116689273000.0,-3.7828386,1.7307540896903928,8.72535365520268,-0.0015271631,0.004886922,0.013439035,318.543,-14.944919,-19.179985
7116694326000.0,-3.793160432147465,1.7299614132350232,8.738233275207373,-0.004886922,0.005497787,0.0106901415,318.55304,-14.935849,-19.18136
7116699352000.0,-3.806469187502304,1.7255251923317974,8.755978066175116,-0.00030543262,0.0067195175,0.0106901415,318.5622,-14.930363,-19.18209
7116704298000.0,-3.808903338077242,1.7291569238455158,8.760112221587244,-0.007330383,0.01038471,0.0125227375,318.57126,-14.924898,-19.183126
7116709508000.0,-3.8043042848926167,1.7383550302147663,8.755513312471196,-0.013439035,0.007330383,0.0012217305,318.58447,-14.919582,-19.183867
7116714329000.0,-3.803890007630703,1.7410811923692973,8.751303951813192,-0.015271631,0.008857546,0.015271631,318.5858,-14.914631,-19.188694
7116719327000.0,-3.808197111599028,1.736774088400972,8.746996982767929,-0.004276057,0.009773844,0.0067195175,318.59717,-14.908327,-19.195162
7116724293000.0,-3.812662356682927,1.7355883133658538,8.745811244878048,-0.008246681,0.010079277,0.0067195175,318.60382,-14.898418,-19.2015
7116729317000.0,-3.817877949441735,1.746019498883469,8.756242103631436,-0.00580322,0.0143553335,0.009468411,318.6116,-14.892731,-19.209602
7116734275000.0,-3.821146,1.754266249166091,8.764488684890951,-0.008857546,0.011911872,0.007330383,318.62314,-14.883955,-19.216003
7116739338000.0,-3.821146,1.7590513412809632,8.76927387693674,-0.01038471,0.004886922,0.009773844,318.63242,-14.877066,-19.22169
7116744259000.0,-3.821146,1.7544097741139917,8.772355,-0.0036651916,0.0018325958,0.015271631,318.63992,-14.874882,-19.227013
7116749335000.0,-3.821146,1.730809503796485,8.772355,-0.0036651916,-0.0061086523,0.011911872,318.65015,-14.869874,-19.22961
7116754304000.0,-3.8197970604064473,1.7142484,8.779099697967764,0.0033597588,-0.008552114,0.004581489,318.6538,-14.871156,-19.234785
7116759328000.0,-3.814980377735509,1.7142484,8.803183111322454,-0.0033597588,-0.0076358155,0.004581489,318.6567,-14.868976,-19.238455
7116764330000.0,-3.809101490578159,1.7154822418272662,8.812835923269095,0.004581489,-0.01038471,0.009468411,318.6587,-14.866114,-19.2441
7116769292000.0,-3.800621730085653,1.7197220778015705,8.787396818879373,0.004886922,-0.009162978,0.008857546,318.66183,-14.85892,-19.251436
7116774524000.0,-3.793258057458564,1.7229825513402903,8.762356688868428,0.0061086523,-0.006414085,0.0106901415,318.66245,-14.854615,-19.25377
7116779317000.0,-3.8026507486187846,1.7135899582565992,8.757660539441375,0.005497787,-0.0125227375,0.005192355,318.666,-14.849096,-19.254683
7116784400000.0,-3.8127536833230007,1.7046716,8.752017012554246,-0.008246681,0.0015271631,0.016798794,318.66708,-14.844168,-19.257477
7116789302000.0,-3.823667851084935,1.7046716,8.741102806804092,-0.0021380284,-0.010079277,0.010995574,318.67737,-14.8421335,-19.253523
7116795326000.0,-3.8370801208927454,1.7046716,8.72769049031308,0.008552114,-0.00061086525,0.01160644,318.6771,-14.840979,-19.259201
7116799318000.0,-3.8402996,1.71426724454939,8.724471,0.00580322,0.00580322,0.0125227375,318.6796,-14.837238,-19.261414
7116804300000.0,-3.8402996,1.7330439535615898,8.724471,-0.00061086525,0.004276057,0.01282817,318.682,-14.83523,-19.264118
