timestamp,acc_x,acc_y,acc_z,gyro_x,gyro_y,gyro_z,ori_azimuth,ori_pitch,ori_roll
762454584000.0,-0.952974178292638,9.81365884941157,0.6991069,-1.1756102,0.7425067,0.03726278,349.62613,-95.121605,-4.9066563
762459506000.0,-0.9490996874226146,9.815254212158282,0.6991069,-1.1756102,0.75747293,0.03573562,349.611,-95.12143,-4.9063697
762464508000.0,-0.9451622223003356,9.816875505221882,0.6991069,-1.1902709,0.74372846,0.03604105,349.39542,-95.02183,-4.902955
762469538000.0,-0.941202716189767,9.818505873896394,0.6991069,-1.1682798,0.74281216,0.029626964,349.17303,-94.95408,-4.9003773
762474504000.0,-0.9372935894810028,9.820115498317394,0.6991069,-1.1746938,0.75411314,0.03145956,348.9523,-94.908035,-4.894175
762479933000.0,-0.9330199992873098,9.8218751944474,0.6991069,-1.1734722,0.7666359,0.03604105,348.73267,-94.88784,-4.8877525
762484489000.0,-0.9294336156213556,9.823351925994332,0.6991069,-1.1878275,0.77579886,0.03573562,348.51202,-85.10958,-4.8809566
762489532000.0,-0.9254638761947956,9.82498650834534,0.6991069,-1.2070698,0.76083267,0.033292156,348.29605,-85.08741,-4.8722205
762494547000.0,-0.921516177756525,9.826612015085436,0.6991069,-1.2009611,0.7309003,0.03481932,348.083,-85.04888,-4.861134
762499472000.0,-0.9176393253520418,9.828208350219027,0.6991069,-1.1636983,0.70188415,0.029321533,347.87534,-84.993195,-4.8514633
762504490000.0,-0.9136892653793116,9.829834829346009,0.6991069,-1.1276573,0.8011498,0.06719518,347.64026,-84.93736,-4.8285055
762509514000.0,-0.9097344823376624,9.831463253246753,0.6991069,-1.2705997,0.7648033,0.054061573,347.45392,-84.840485,-4.819719
762514485000.0,-0.9058214197381322,9.83307449831256,0.6991069,-1.2431108,0.7583892,0.060170226,347.23145,-84.76962,-4.7943797
762519441000.0,-0.9019201648109002,9.834680881443948,0.6991069,-1.2492194,0.74067414,0.06963864,347.0238,-84.66776,-4.770586
762524530000.0,-0.8979142151892932,9.836330373727169,0.6991069,-1.2513574,0.7293731,0.07360926,346.81726,-84.56176,-4.7457223
762529588000.0,-0.8939326680904353,9.83796981801259,0.6991069,-1.2483032,0.7079928,0.09010262,346.61942,-84.4545,-4.713478
762534478000.0,-0.890083366921314,9.839554808632544,0.6991069,-1.2528846,0.69058317,0.10629055,346.41626,-84.341774,-4.6786785
762539514000.0,-0.8861191377418263,9.841187122080823,0.6991069,-1.2611313,0.63132924,0.099265605,346.23227,-84.22273,-4.644272
762544569000.0,-0.8821399521774279,9.842825593979365,0.6991069,-1.1930199,0.5543602,0.111177474,346.05862,-84.12079,-4.598741
762549626000.0,-0.8781591922567231,9.844464714135826,0.6991069,-1.0809261,0.47433686,0.102319926,345.9039,-84.017395,-4.559685
762554546000.0,-0.874286275743006,9.846059428624615,0.6991069,-0.95447695,0.4288274,0.10323623,345.76135,-83.933235,-4.513561
762559522000.0,-0.8703692772527101,9.847672294335226,0.6991069,-0.88606006,0.35613444,0.09437868,345.6502,-83.855034,-4.470716
762564483000.0,-0.866464086434712,9.84928029811142,0.6991069,-0.7535023,0.29352075,0.087964594,345.5495,-83.81512,-4.426303
762569474000.0,-0.862535280272118,9.850898025756448,0.6991069,-0.63804877,0.13561209,0.06078109,345.49777,-83.7801,-4.387079
762574539000.0,-0.8585482229261877,9.8525397389446,0.6991069,-0.33414328,-0.06505715,0.0143553335,345.477,-83.8057,-4.353292
762579537000.0,-0.8546139065165215,9.854159735492356,0.6991069,0.034208454,-0.069027774,0.0125227375,345.44455,-83.87184,-4.3161697
762584476000.0,-0.8507260336178937,9.855760608431403,0.6991069,0.035430185,-0.039095376,0.008857546,345.46057,-83.91364,-4.2903714
762589542000.0,-0.8467381890938102,9.857402645748518,0.6991069,-0.012217305,-0.04062254,0.018020526,345.48657,-84.01779,-4.2620955
762594490000.0,-0.8428432315918035,9.859006435848215,0.6991069,-0.01038471,-0.049480084,0.015577064,345.50665,-84.12399,-4.2399163
762599479000.0,-0.838915999785516,9.860623515235323,0.6991069,-0.0027488936,-0.04734206,0.02107485,345.52374,-84.22089,-4.2142763
762604501000.0,-0.8349627911001731,9.862251290878149,0.6991069,-0.011301007,-0.040011674,0.019242255,345.54218,-84.30868,-4.1925507
762609501000.0,-0.8310269003342003,9.863871935683823,0.6991069,-0.007330383,-0.03756821,0.017715093,345.56128,-84.39741,-4.1703095
762614482000.0,-0.8271059659531385,9.865486422039242,0.6991069,-0.0030543262,-0.043676864,0.01160644,345.58096,-84.4792,-4.1509895
762619491000.0,-0.823162990583787,9.86710998400557,0.6991069,-0.018020526,-0.045814894,0.01160644,345.5988,-84.5553,-4.1315293
762624503000.0,-0.819217653679976,9.868734518358782,0.6991069,-0.018020526,-0.038179077,0.014660766,345.61566,-84.63066,-4.113981
762629480000.0,-0.8152998680115268,9.870347708198354,0.6991069,-0.017715093,-0.03604105,0.01160644,345.6349,-84.69854,-4.098983
762634468000.0,-0.8113734233833925,9.8719644634565,0.6991069,0.00030543262,-0.020463986,0.009468411,345.648,-84.76717,-4.0841036
762642006000.0,-0.8054396744646121,9.87440774756554,0.6991069,-0.012217305,-0.040011674,-0.00061086525,345.6708,-84.824776,-4.0726666
762644496000.0,-0.8034796008631576,9.875214828678768,0.6991069,-0.015882496,-0.03604105,0.0030543262,345.68237,-84.88663,-4.0592914
762649546000.0,-0.7995043511895252,9.876851679932503,0.6991069,-0.01038471,-0.032070424,0.004276057,345.69974,-84.94212,-4.049875
762654497000.0,-0.7956070321530592,9.878456442419086,0.6991069,-0.014049901,-0.036651913,0.003970624,345.71848,-84.99312,-4.04046
762659501000.0,-0.7916679926744736,9.880078383740608,0.6991069,-0.015577064,-0.03940081,0.0012217305,345.7356,-85.04245,-4.0321345
762665764000.0,-0.7867378959010163,9.8821084034242,0.6991069,-0.022907447,-0.037873644,0.0012217305,345.75278,-85.08822,-4.0237436
762669478000.0,-0.7838143162400518,9.88331221838586,0.6991069,-0.02443461,-0.04153884,-0.0021380284,345.77237,-85.13085,-4.017586
762674525000.0,-0.779841428100879,9.88494809725271,0.6991069,-0.027183503,-0.041233405,0.0009162979,345.79028,-85.171364,-4.010236
762679489000.0,-0.7759338757484213,9.886557073415789,0.6991069,-0.027488936,-0.049785517,0.0009162979,345.81186,-85.2084,-4.005079
762684469000.0,-0.7720137285455125,9.888171235642243,0.6991069,-0.028099801,-0.046731193,-0.004581489,345.83005,-85.24234,-4.0013065
762689525000.0,-0.768033755802961,9.889810031669745,0.6991069,-0.035430185,-0.04795292,-0.004886922,345.85178,-85.27451,-3.9964137
762694514000.0,-0.7641065239966734,9.891427111056853,0.6991069,-0.04184427,-0.036957346,-0.009773844,345.86923,-85.302505,-3.9950538
762699485000.0,-0.7601934613971434,9.893038356122656,0.6991069,-0.026267206,-0.034513887,-0.012217305,345.88937,-85.33152,-3.9933908
762704529000.0,-0.7562229347924302,9.894673262602623,0.6991069,-0.029932396,-0.038179077,-0.005192355,345.90808,-85.35634,-3.9908135
762709636000.0,-0.7522028159640657,9.896328589207146,0.6991069,-0.03726278,-0.03940081,-0.002443461,345.92545,-85.379776,-3.9905236
762714498000.0,-0.7483755557832339,9.897904504216188,0.6991069,-0.04153884,-0.0290161,-0.00030543262,345.94046,-85.40324,-3.9888453
762719465000.0,-0.7444656418963166,9.899514452766148,0.6991069,-0.03756821,-0.03023783,0.0015271631,345.95908,-85.42606,-3.9866838
762724509000.0,-0.7404951152916034,9.901149359246116,0.6991069,-0.046120327,-0.027183503,0.00061086525,345.97348,-85.44511,-3.9851966
762729502000.0,-0.7379847898310531,9.901743551188654,0.6989512574665495,-0.040317107,-0.023518313,0.01038471,345.98788,-85.46861,-3.9804535
762735473000.0,-0.7411428889795406,9.898011267729384,0.69808995851638,-0.034208454,-0.016187929,0.007941248,346.00046,-85.48656,-3.9798465
762739589000.0,-0.7433198670561064,9.895438486165434,0.6974962377863687,-0.04428773,-0.014966198,0.008857546,345.9911,-85.50175,-3.973083
762744513000.0,-0.7459242013731643,9.89236064932848,0.6967859654650432,-0.024740042,-0.01740966,0.015271631,345.98083,-85.52182,-3.9656372
762749470000.0,-0.7485459895960838,9.889262185234092,0.6960709329920923,-0.03145956,-0.0125227375,0.020463986,345.96835,-85.536385,-3.9585083
762754500000.0,-0.7512063879743943,9.886118091145978,0.6953453704867578,-0.03940081,-0.009773844,0.010079277,345.95743,-85.55033,-3.9541614
762759640000.0,-0.7539249660389105,9.882905239533075,0.6946039408093385,-0.03573562,-0.008552114,0.01160644,345.94556,-85.56857,-3.9451792
762764504000.0,-0.7564975659816744,9.879864906800552,0.6939023233091502,-0.021380283,-0.015882496,0.010079277,345.9357,-85.58319,-3.9401114
762769473000.0,-0.7591257010794528,9.876758941885278,0.6931855598719718,-0.028099801,-0.015577064,0.010995574,345.92343,-85.59603,-3.9341254
762774507000.0,-0.7617882150827162,9.873612347523537,0.6924594203785616,-0.034208454,-0.023823744,0.008246681,345.916,-85.60887,-3.9296117
762779486000.0,-0.7644216392428769,9.870500131924189,0.6917412144711936,-0.02107485,-0.03145956,0.010995574,345.9084,-85.62439,-3.9234138
762784473000.0,-0.7670592946529434,9.867382915777585,0.6910218545876742,-0.02076942,-0.027183503,0.0106901415,345.8999,-85.63552,-3.9190452
762789613000.0,-0.7697778727174595,9.86417006416468,0.6902804249102548,-0.014966198,-0.027794369,0.00580322,345.89517,-85.64795,-3.9152625
762794559000.0,-0.7723938429717585,9.861078475822769,0.6895669791545124,-0.018325957,-0.035430185,0.013744468,345.8912,-85.66196,-3.9080305
762799472000.0,-0.7749923593201958,9.858007514738295,0.6888582935503954,-0.008552114,-0.032375857,0.01740966,345.88458,-85.67543,-3.9036374
762804688000.0,-0.7777511342588176,9.854747157926449,0.6881059010995356,-0.006414085,-0.043066,0.015271631,345.88416,-85.68753,-3.898635
762809500000.0,-0.7802962310771934,9.8517393287511,0.6874117844443329,-0.014966198,-0.044593163,0.021380283,345.88022,-85.70201,-3.890557
762814486000.0,-0.7829333575810217,9.8486227376729,0.6866925688078324,0.00061086525,-0.036651913,0.018020526,345.87677,-85.71607,-3.8860176
762819469000.0,-0.7855688973661353,9.845508021799924,0.6859737859123886,-0.007941248,-0.04428773,0.023823744,345.8781,-85.729576,-3.8772225
762824513000.0,-0.7882367004317811,9.842355176754111,0.6852462039487888,-0.0067195175,-0.042455133,0.022907447,345.87463,-85.742905,-3.8716893
762829490000.0,-0.7908690667794653,9.83924421129158,0.6845282865354588,-0.0009162979,-0.03634648,0.01985312,345.8721,-85.75613,-3.8653517
762834667000.0,-0.7936072143747961,9.83600823214761,0.6837815197183381,-0.003970624,-0.026572637,0.025350908,345.86792,-85.76988,-3.8571305
762839564000.0,-0.7961972682234216,9.83294727215765,0.6830751420665244,-0.003970624,-0.018020526,0.028099801,345.8625,-85.78263,-3.8508193
762844577000.0,-0.7988486751956821,9.82981380423246,0.6823520317605122,0.0033597588,-0.021685716,0.026267206,345.85782,-85.79561,-3.84444
762854561000.0,-0.8041292750781975,9.823573121255178,0.6809118695232835,0.007941248,0.00580322,0.02321288,345.84186,-85.80816,-3.838168
762859636000.0,-0.8068134742372286,9.82040089908874,0.6801798159020962,-0.004276057,0.004886922,0.020463986,345.8352,-85.8187,-3.8322616
762864493000.0,-0.8093823718363249,9.81736494183507,0.6794792081310406,-0.004276057,0.004886922,0.024129177,345.82062,-85.831635,-3.8257246
762869470000.0,-0.812014738184009,9.814253976372536,0.6787612907177106,-0.0036651916,0.015271631,0.01985312,345.8036,-85.84009,-3.8223917
762874692000.0,-0.8147766865600603,9.810989869150244,0.6780080327847371,-0.004276057,0.017715093,0.022602014,345.78894,-85.85087,-3.8160245
762879551000.0,-0.817346641971633,9.807952661759758,0.6773071365196436,-0.0061086523,0.025045475,0.013439035,345.77026,-85.85703,-3.814445
762884522000.0,-0.8199758348818879,9.804845446707668,0.6765900845884273,-0.020158553,0.025961773,0.009773844,345.7529,-85.86365,-3.8105159
762889505000.0,-0.8226113746670014,9.801730730834691,0.6758713016929836,-0.023518313,0.01740966,0.013133603,345.73645,-85.870514,-3.8071284
762894496000.0,-0.8252511457020208,9.79861101441446,0.6751513648213883,-0.022296581,0.027794369,0.007941248,345.71466,-85.873024,-3.807308
762899527000.0,-0.8279120729865697,9.795466295257938,0.6744256580690348,-0.017104227,0.027488936,0.0021380284,345.69858,-85.87623,-3.8065114
762904955000.0,-0.8307829760476968,9.792073423943767,0.6736426852501569,-0.021685716,0.028099801,0.0009162979,345.67953,-85.87828,-3.8058739
762909511000.0,-0.833192672869085,9.789225612280658,0.6729854958318062,-0.03726278,0.024740042,0.004276057,345.66202,-85.879364,-3.8054087
762914482000.0,-0.8358218657793398,9.786118397228568,0.6722684439005899,-0.03848451,0.013439035,0.0067195175,345.64688,-85.88096,-3.8053472
762924545000.0,-0.8411442492546756,9.77982833384712,0.6708168861488641,-0.042760566,0.0125227375,0.002443461,345.62997,-85.87968,-3.8061862
762929485000.0,-0.8413118526526261,9.778281784711863,0.6711000732014695,-0.038789943,0.013744468,0.00580322,345.6158,-85.88184,-3.8040042
762934600000.0,-0.8373891400496491,9.779262457102533,0.6730614282229408,-0.04428773,0.01038471,0.00061086525,345.6035,-85.87916,-3.805361
762939593000.0,-0.8335599897023053,9.780219739066675,0.6749760021471257,-0.051618114,-0.00030543262,-0.010079277,345.58447,-85.85467,-3.8288717
762944533000.0,-0.8297714852529005,9.78116685961602,0.6768702531356043,-0.05222898,0.003970624,-0.017104227,345.56265,-85.83072,-3.852088
762949485000.0,-0.8259737779586791,9.782116280863054,0.6787691055434881,-0.048563786,0.007330383,-0.016187929,345.54468,-85.80661,-3.8751364
762954937000.0,-0.8217926187971092,9.783161564513868,0.6808596837599223,-0.044593163,0.007330383,-0.01740966,345.52704,-85.78096,-3.899913
762959685000.0,-0.8181513598647662,9.78407187390016,0.6826803120379176,-0.046731193,0.007941248,-0.019547688,345.50876,-85.75592,-3.9238558
762964487000.0,-0.8144686881307495,9.784992536426062,0.6845216467032362,-0.043676864,0.0076358155,-0.026572637,345.49127,-85.731064,-3.9487097
762969482000.0,-0.8106380039759362,9.78595020183982,0.6864369875306554,-0.040927973,0.0021380284,-0.028099801,345.4756,-85.70763,-3.971741
762974518000.0,-0.8067758767680003,9.78691572797069,0.6883680498743757,-0.03573562,0.002443461,-0.022907447,345.4588,-85.68552,-3.9940574
762979532000.0,-0.8029306214422278,9.787877036155797,0.6902906762825197,-0.040927973,-0.009773844,-0.01740966,345.4477,-85.663025,-4.0157604
762984473000.0,-0.7991413500890883,9.788824348429946,0.6921853107226155,-0.03940081,-0.0106901415,-0.020158553,345.4337,-85.64169,-4.03769
762989512000.0,-0.7952769221699483,9.789790449735236,0.694117523421187,-0.02443461,-0.008246681,-0.011911872,345.42245,-85.62624,-4.0541835
762999669000.0,-0.7874874809366272,9.79173779860562,0.6980122414960812,-0.032375857,-0.003970624,-0.011911872,345.41138,-85.606186,-4.073193
763004972000.0,-0.7834205904315272,9.792754515260109,0.7000456854215674,-0.028099801,-0.0009162979,-0.017715093,345.4003,-85.59016,-4.090968
763009504000.0,-0.7799449827058789,9.793623412087967,0.7017834881502688,-0.025350908,-0.005497787,-0.014966198,345.39044,-85.57587,-4.1057215
763014493000.0,-0.7761188999734738,9.79457992715288,0.7036965282679853,-0.033292156,0.013744468,-0.0125227375,345.37326,-85.55978,-4.121866
763019477000.0,-0.7722966517597422,9.795535483593758,0.7056076511276164,-0.05375614,0.011911872,-0.015882496,345.36377,-85.54229,-4.13815
763024515000.0,-0.7684329907443369,9.796501393174244,0.7075394803745708,-0.038789943,0.01985312,-0.0125227375,345.34625,-85.53065,-4.1515074
763029509000.0,-0.7646030734932584,9.797458866863192,0.7094544377503729,-0.04153884,0.014049901,-0.007941248,345.3336,-85.51496,-4.1647906
763034472000.0,-0.7607969302579554,9.798410397083112,0.7113575081260448,-0.04520403,0.004886922,-0.017104227,345.32,-85.4985,-4.18056
763041294000.0,-0.7555651129798501,9.799718343720285,0.7139734150579073,-0.039095376,0.0033597588,-0.013133603,345.3061,-85.48793,-4.1908193
763044503000.0,-0.7531041188952063,9.80033358862774,0.7152039112971842,-0.033292156,-0.004276057,-0.01282817,345.29694,-85.47401,-4.204132
763049482000.0,-0.7492857052001481,9.80128818644458,0.7171131168987298,-0.03848451,-0.0021380284,-0.01038471,345.2856,-85.46161,-4.215332
763054519000.0,-0.7454228110884776,9.802253904300256,0.7190445626940671,-0.032986723,-0.008246681,-0.019547688,345.2792,-85.4483,-4.2292404
763060096000.0,-0.7411457889600706,9.803323153552016,0.721183072362639,-0.03756821,-0.01985312,-0.021685716,345.2739,-85.43625,-4.2400446
763064507000.0,-0.7377629765863205,9.804168851678162,0.7228744774456712,-0.026267206,-0.023823744,-0.019547688,345.26843,-85.42554,-4.2518473
763069471000.0,-0.7339560664472828,9.805120573622888,0.7247779312729603,-0.03023783,-0.025961773,-0.017104227,345.26593,-85.41261,-4.2637086
763074548000.0,-0.7300624961862244,9.806093960470866,0.7267247151329816,-0.040927973,-0.026572637,-0.01863139,345.2643,-85.39997,-4.2757344
763079491000.0,-0.7262716910256154,9.807041656194633,0.7286201164763115,-0.036651913,-0.028099801,-0.013133603,345.2636,-85.39129,-4.284719
763084478000.0,-0.7224471421006797,9.807997787809931,0.7305323896907939,-0.029626964,-0.01985312,-0.021685716,345.26053,-85.37794,-4.29793
763089624000.0,-0.7185006554819271,9.808984403669632,0.7325056317123952,-0.031154128,-0.02107485,-0.02107485,345.2606,-85.368286,-4.3066
763094480000.0,-0.7147765709462368,9.80991541933514,0.7343676727650374,-0.03145956,-0.023823744,-0.02443461,345.25897,-85.35647,-4.318582
763099542000.0,-0.7108945042411988,9.810885930311008,0.7363087048508024,-0.03970624,-0.0143553335,-0.014660766,345.2542,-85.347595,-4.326411
763105119000.0,-0.7066174821127917,9.811955179562768,0.7384472145193742,-0.037873644,-0.005192355,-0.01985312,345.2506,-85.33516,-4.33914
763109503000.0,-0.7032553761398785,9.812795701119107,0.7401282664087446,-0.037873644,0.004276057,-0.01985312,345.2442,-85.32592,-4.347404
763114494000.0,-0.699427759600004,9.813752599633636,0.7420420734296954,-0.040011674,0.0125227375,-0.021380283,345.23575,-85.31516,-4.3573427
763119465000.0,-0.6956154811348235,9.814705663652015,0.7439482114183041,-0.050701816,0.016493361,-0.024740042,345.226,-85.30334,-4.367515
763124496000.0,-0.6917571884455611,9.815670231158848,0.7458773565039389,-0.062308256,0.022602014,-0.032375857,345.2136,-85.28998,-4.3790784
763129481000.0,-0.6891319873380677,9.815629828928577,0.7414173190955263,-0.067500606,0.020158553,-0.02687807,345.20264,-85.279175,-4.387414
763134682000.0,-0.6881369926457516,9.814137331695282,0.7274873843121685,-0.06169739,0.03023783,-0.02687807,345.18668,-85.26533,-4.399207
763139572000.0,-0.6872014948481308,9.812734080114662,0.7143904065981482,-0.06688975,0.020463986,-0.025045475,345.15247,-85.249626,-4.4059157
763144495000.0,-0.6862596838751885,9.811321358738102,0.7012050443719474,-0.06505715,0.025045475,-0.028405234,345.11182,-85.234604,-4.4137335
763149578000.0,-0.6852872635673549,9.809862723199393,0.6875911511775987,-0.06047566,0.030848695,-0.03573562,345.07413,-85.21942,-4.4215574
763155148000.0,-0.6842216760964452,9.808264336429648,0.6726729168489498,-0.076052725,0.028405234,-0.030543262,345.0379,-85.205315,-4.426181
763159514000.0,-0.683386423870594,9.80701145373006,0.6609793780556138,-0.08399397,0.022602014,-0.0290161,345.0016,-85.19031,-4.433376
763164486000.0,-0.6824352387888413,9.80558467114134,0.6476627782204177,-0.07696902,0.023518313,-0.028710667,344.96448,-85.176956,-4.438942
763169471000.0,-0.6814815666986287,9.804154158026948,0.6343113602440595,-0.08155051,0.026572637,-0.03726278,344.92892,-85.160126,-4.4460883
763174546000.0,-0.6805106768575395,9.802697818196346,0.6207188935981183,-0.06872234,0.030543262,-0.035430185,344.89316,-85.14947,-4.44973
763179544000.0,-0.679554517758867,9.801263574556277,0.6073326574805982,-0.07269296,0.02565634,-0.04428773,344.85968,-85.13198,-4.458302
763184476000.0,-0.6786109850108372,9.799848270508097,0.594123190387439,-0.07666359,0.029932396,-0.05009095,344.82288,-85.117836,-4.4651074
763189543000.0,-0.6776416256364927,9.7983942263856,0.580552150289905,-0.08827003,0.032375857,-0.053450707,344.78848,-85.10131,-4.4731507
763194585000.0,-0.6766770489707249,9.796947356350945,0.5670480681561442,-0.089186326,0.032375857,-0.049785517,344.75403,-85.08658,-4.480287
763199756000.0,-0.6756877935287009,9.795463468023051,0.5531984829293142,-0.09590584,0.03940081,-0.062308256,344.71753,-85.06543,-4.4925237
763204524000.0,-0.6747756353489348,9.79409522599107,0.5404282600785066,-0.102319926,0.041233405,-0.06505715,344.68283,-85.048386,-4.5003195
763209751000.0,-0.6737756666396988,9.792595267706428,0.5264286890128248,-0.12461651,0.037873644,-0.07360926,344.6483,-85.02466,-4.5127335
763214490000.0,-0.6728690564018818,9.791235347616336,0.513736137399994,-0.12797627,0.02687807,-0.07788532,344.61584,-85.00363,-4.523997
763219473000.0,-0.6719157669283553,9.789805408428968,0.5003900760607377,-0.1328632,0.03176499,-0.0842994,344.58038,-84.977875,-4.5377502
763224526000.0,-0.6709490858708138,9.788355381795665,0.4868565324229167,-0.1432479,0.03756821,-0.09101892,344.54828,-84.95074,-4.5520296
763229547000.0,-0.6699885266802506,9.786914537994786,0.4734086949787253,-0.16768251,0.045814894,-0.09743301,344.51456,-84.92061,-4.5674124
763234472000.0,-0.6690463330906222,9.785501242691195,0.4602179761154227,-0.18387043,0.047647487,-0.10140363,344.48154,-84.89009,-4.5832396
763239567000.0,-0.6680716170826717,9.784039163590329,0.4465719430984629,-0.18936823,0.05375614,-0.10842858,344.44543,-84.85654,-4.6010814
763244491000.0,-0.6671296148013864,9.782626155250252,0.4333839025537111,-0.18753563,0.065973446,-0.10567969,344.40747,-84.82451,-4.6165075
763249485000.0,-0.6661742209360861,9.781193059464238,0.4200083797103947,-0.21197024,0.07574729,-0.106901415,344.36902,-84.78675,-4.634231
763254644000.0,-0.6651872611941789,9.779712614698507,0.4061909343061757,-0.20738874,0.08032878,-0.11575896,344.32913,-84.752945,-4.6525636
763259519000.0,-0.6642546330217042,9.77831366757059,0.3931341313704192,-0.20311269,0.08552113,-0.11911872,344.2867,-84.71824,-4.66891
763264486000.0,-0.6633044044816668,9.776888319799438,0.3798309231279777,-0.2284636,0.07696902,-0.1133155,344.24744,-84.68147,-4.68412
763269476000.0,-0.6623497758497389,9.775456371867476,0.366466113558865,-0.23243423,0.08399397,-0.1255328,344.20306,-84.64403,-4.7047563
763274502000.0,-0.6613882601174603,9.774014093249033,0.3530048845219189,-0.25473082,0.07849618,-0.13072516,344.165,-84.60506,-4.7206087
763279535000.0,-0.6604254052267802,9.772569805885997,0.3395249072551164,-0.27122417,0.07452556,-0.12370021,344.12503,-84.5676,-4.735626
763284472000.0,-0.659480915937035,9.771153067020244,0.3263020485692027,-0.28527406,0.07941248,-0.13225232,344.08484,-84.52351,-4.755688
763289616000.0,-0.6584968258202739,9.769676926707218,0.3125247779432475,-0.29565877,0.07147124,-0.13255776,344.04968,-84.48272,-4.770301
763294494000.0,-0.65756362372277,9.76827711868876,0.2994599400518383,-0.29657507,0.06505715,-0.13744467,344.01328,-84.439384,-4.787848
763299487000.0,-0.6566084211658128,9.76684430986626,0.2860870955270728,-0.30909783,0.04153884,-0.14049901,343.98444,-84.394585,-4.803739
763304577000.0,-0.6556346616995775,9.765383665582956,0.2724544541028676,-0.3118467,0.029626964,-0.16157386,343.95477,-84.34684,-4.8253894
763309505000.0,-0.65469189418492,9.763969509388827,0.2592557002839122,-0.3277292,0.01985312,-0.15790866,343.93118,-84.30192,-4.839733
763315641000.0,-0.6535180261918317,9.762208701270488,0.24282153765544,-0.3323107,0.018325957,-0.16768251,343.90942,-84.25135,-4.8629823
763319469000.0,-0.6527856978545531,9.76111020494112,0.2325689342425014,-0.32803464,0.0012217305,-0.17348573,343.895,-84.203064,-4.88283
763324503000.0,-0.65182265165553,9.759665630614569,0.219086278657148,-0.3381139,-0.0027488936,-0.17592919,343.87753,-84.15184,-4.903804
763329499000.0,-0.6584408071793205,9.757607575070622,0.2303830505637359,-0.34483343,-0.013133603,-0.18570304,343.8672,-84.10012,-4.927315
763334467000.0,-0.6777092450443739,9.754515122061948,0.2829549566360841,-0.3484986,-0.011911872,-0.19364429,343.85477,-84.04868,-4.950283
763339494000.0,-0.697206515001625,9.751385943061424,0.3361512070035749,-0.35460728,-0.0033597588,-0.19730948,343.83502,-84.000946,-4.9848065
763344604000.0,-0.7170257012919677,9.748205098682533,0.3902257722269443,-0.36254853,-0.00580322,-0.19394971,343.81857,-83.95377,-5.0181785
763349484000.0,-0.7359528302737433,9.745167423424414,0.4418664529099272,-0.34972036,0.0070249503,-0.19914207,343.79596,-83.90771,-5.05417
763354997000.0,-0.7573350561090973,9.741735721846954,0.5002056071323217,-0.3472769,0.004581489,-0.19853121,343.77872,-83.862526,-5.086054
763359716000.0,-0.7756377449748757,9.738798264973376,0.550142568637034,-0.33414328,-0.004886922,-0.18845193,343.76025,-83.823685,-5.115585
763364492000.0,-0.7941615089127773,9.735825327056824,0.6006827102234944,-0.31215215,-0.02076942,-0.1704314,343.7447,-83.790184,-5.1413445
763369475000.0,-0.8134881244283894,9.732723536931577,0.6534133478963026,-0.30757064,-0.015882496,-0.17623462,343.72653,-83.75402,-5.170219
763374541000.0,-0.8331366562770931,9.729570081427964,0.7070223004249894,-0.31795537,-0.01985312,-0.17837265,343.71545,-83.725075,-5.191705
763379528000.0,-0.8524787858328542,9.726465801404965,0.7597952665245868,-0.32925636,-0.0143553335,-0.18020524,343.7007,-83.69635,-5.214218
763385476000.0,-0.8755481635344117,9.722763323446914,0.8227376371603209,-0.35033122,0.004276057,-0.17562376,343.68362,-83.66638,-5.234887
763389571000.0,-0.8914306621369465,9.720214290622735,0.8660713640858978,-0.36285394,0.017104227,-0.18112154,343.66718,-83.63418,-5.258166
763394521000.0,-0.9106292868213296,9.717133042153948,0.918452792237694,-0.3747658,0.025045475,-0.18448131,343.64703,-83.60138,-5.2789693
763399471000.0,-0.9298279115057124,9.714051793685158,0.9708342203894902,-0.3747658,0.030848695,-0.19486602,343.62445,-83.56673,-5.302686
763404537000.0,-0.9494764433544162,9.710898338181543,1.0244431729181769,-0.37507126,0.02443461,-0.1957823,343.6034,-83.532814,-5.323689
763409560000.0,-0.9689581992715182,9.707771649078772,1.0775970948588784,-0.37751472,0.013439035,-0.19639318,343.5826,-83.49749,-5.346626
763414488000.0,-0.9880714967350815,9.704704095047624,1.1297457166633331,-0.38545597,-0.013133603,-0.19486602,343.56854,-83.46276,-5.367891
763419468000.0,-1.007386476720582,9.701604172345691,1.1824446080160491,-0.398895,-0.030543262,-0.1872302,343.55527,-83.429245,-5.386681
763424513000.0,-1.0269535598585036,9.69846378880528,1.2358313363040925,-0.40408736,-0.054367006,-0.18875736,343.55185,-83.39514,-5.4063
763429481000.0,-1.046221997723557,9.695371335796604,1.2884032423764404,-0.41905355,-0.0720821,-0.18203785,343.55148,-83.36206,-5.420555
763434479000.0,-1.0656067908897278,9.692260208554789,1.3412926116497086,-0.4266894,-0.08399397,-0.18234327,343.5565,-83.32838,-5.436377
763441377000.0,-1.092360753126672,9.687966379880503,1.4142879836479083,-0.42760566,-0.0852157,-0.19914207,343.5636,-83.29208,-5.454443
763444505000.0,-1.104492732523187,9.686019279838003,1.4473888133971649,-0.42546764,-0.07971791,-0.21074851,343.57202,-83.25722,-5.4706373
763449485000.0,-1.1238077125086874,9.682919357136072,1.500087704749881,-0.43004912,-0.062308256,-0.21960606,343.5775,-83.21893,-5.490561
763454540000.0,-1.1434135807469814,9.67977274885128,1.5535802541048973,-0.41630468,-0.043066,-0.2302962,343.58115,-83.18215,-5.5138764
763459662000.0,-1.1632793091577711,9.67658443477913,1.6077818046086343,-0.419359,-0.0061086523,-0.2321288,343.5747,-83.14307,-5.537186
763464490000.0,-1.1820047556176094,9.673579128191797,1.6588722157433562,-0.40744713,0.024129177,-0.24251351,343.56522,-83.10563,-5.565426
763469473000.0,-1.2013313711332216,9.670477338066547,1.7116028534161645,-0.38453966,0.05222898,-0.23976462,343.54578,-83.07349,-5.590215
763474550000.0,-1.221022566592335,9.667317035344116,1.7653282091185218,-0.37323865,0.050701816,-0.2312125,343.52664,-83.041664,-5.6152587
763479512000.0,-1.240267733397165,9.66422831718207,1.817836622550686,-0.36193767,0.04428773,-0.22815818,343.50146,-83.01424,-5.6404753
763484476000.0,-1.2595206572220694,9.661138354071149,1.8703662001962449,-0.34880406,0.011911872,-0.22143865,343.48444,-82.992836,-5.6606755
763489517000.0,-1.279072226319842,9.65800046042849,1.9237106000574984,-0.34238997,-0.013133603,-0.19822577,343.46722,-82.9776,-5.674429
763494511000.0,-1.2984415054458638,9.654891823084425,1.976557640903977,-0.3463606,-0.038789943,-0.18112154,343.4598,-82.96361,-5.6866546
763499479000.0,-1.3177099433109172,9.651799370075748,2.0291295469763253,-0.3631594,-0.055283304,-0.17104226,343.45682,-82.95267,-5.6935506
763504570000.0,-1.337455437910552,9.648630352711182,2.0830030521724456,-0.3707952,-0.05009095,-0.16035213,343.45468,-82.94694,-5.695163
763509512000.0,-1.3566230345146373,9.6455540840379,2.135299823470663,-0.37995818,-0.046120327,-0.15332718,343.45746,-82.93982,-5.6945667
763514480000.0,-1.3758914723796905,9.642461631029224,2.1878717295430112,-0.4025602,-0.038789943,-0.1563815,343.45773,-82.92948,-5.694031
763519465000.0,-1.3952258449153772,9.639358595955102,2.2406235314292138,-0.41783184,-0.040011674,-0.16035213,343.45914,-82.9204,-5.6917496
763524526000.0,-1.4148549842138949,9.63620825282368,2.2941795734244144,-0.44348818,-0.030543262,-0.17073683,343.4555,-82.90387,-5.69258
763529524000.0,-1.436153990332815,9.622801037070824,2.3382698026324493,-0.48655418,-0.021380283,-0.1872302,343.45245,-82.87986,-5.6962504
763534481000.0,-1.4604242906942009,9.59258214539622,2.3675369284426844,-0.53878313,-0.0036651916,-0.20005837,343.44437,-82.84894,-5.7020793
763539606000.0,-1.4855171471299684,9.561339091163353,2.397795960070172,-0.56199604,0.030848695,-0.21777347,343.43893,-82.66234,-5.7840786
763544496000.0,-1.509459404295023,9.531528645270914,2.4266675043937647,-0.6273586,0.06261369,-0.2312125,343.42917,-82.46046,-5.8666215
763549488000.0,-1.5339010705052378,9.501096386396672,2.456141277249261,-0.6704246,0.12889257,-0.2556471,343.40018,-82.255554,-5.956599
763554628000.0,-1.559067369447647,9.469761889078242,2.486488871896145,-0.6817256,0.19975294,-0.2828306,343.36115,-82.04514,-6.0496345
763559614000.0,-1.5834796586552051,9.439366207438225,2.515927219543882,-0.66859204,0.24984388,-0.3005457,343.30966,-81.832726,-6.1453514
763564479000.0,-1.6072995116425242,9.409708166688388,2.544651158835146,-0.66767573,0.27458394,-0.32650748,343.24658,-81.61334,-6.2493596
763569473000.0,-1.631750970186958,9.379263715402738,2.574136740093228,-0.6579019,0.3032946,-0.35216382,343.16922,-81.39975,-6.3566537
763574509000.0,-1.6564080677499875,9.34856322347752,2.6038702978056234,-0.6542367,0.32986724,-0.3594942,343.08643,-81.18914,-6.463462
763579492000.0,-1.6808056684562176,9.318185830454611,2.633290932849481,-0.6560693,0.34666604,-0.3857614,343.00055,-80.975716,-6.5800586
763584475000.0,-1.705203269162448,9.287808437431709,2.6627115678933384,-0.63346726,0.34666604,-0.39950588,342.91284,-80.77471,-6.6919227
763589595000.0,-1.7302716447626685,9.256595864227355,2.69294107851436,-0.6114761,0.3463606,-0.4098906,342.8223,-80.57443,-6.8071365
763594520000.0,-1.7543852677765526,9.226572051135282,2.722019269883214,-0.5897904,0.33078352,-0.41874814,342.73773,-80.38189,-6.921622
763599482000.0,-1.7786800489734849,9.19632267843216,2.7513159166999146,-0.5852089,0.301462,-0.42302418,342.6586,-80.194824,-7.03357
763604745000.0,-1.804448576470352,9.16423834781214,2.7823897281058594,-0.57910025,0.26542094,-0.4071417,342.58667,-80.0202,-7.137883
763609571000.0,-1.828077478940404,9.134818059084758,2.8108834035466894,-0.5876524,0.2275473,-0.38423425,342.52457,-79.84949,-7.2367926
763614504000.0,-1.8522302712911636,9.10474547634705,2.8400088285258884,-0.63132924,0.17959438,-0.36132678,342.476,-79.68122,-7.326293
763619538000.0,-1.876877576519974,9.07405717683324,2.869730577835697,-0.6575964,0.14294247,-0.3381139,342.43488,-79.5242,-7.4052825
763624535000.0,-1.901343723565736,9.04359443693048,2.899233871697659,-0.7031059,0.122478485,-0.31245756,342.40222,-79.364235,-7.473307
763629534000.0,-1.925819662945717,9.01311950461631,2.9287489739622075,-0.7367035,0.11881329,-0.28130344,342.37433,-79.21151,-7.53015
763634551000.0,-1.9503837333336675,8.982534840599468,2.9583703518500326,-0.7501425,0.087659165,-0.25870144,342.35938,-79.06133,-7.578264
763641087000.0,-1.982385081560824,8.94269004011829,2.9969602115021803,-0.7831292,0.0693332,-0.23548855,342.34036,-78.91064,-7.615921
763644548000.0,-1.99933071592652,8.921591072176833,3.017394652177836,-0.8246681,0.0842994,-0.21746802,342.31964,-78.76259,-7.6472654
763649509000.0,-2.023620600956343,8.891347795679415,3.0466853947932435,-0.86620694,0.09468412,-0.2098322,342.3044,-78.6138,-7.672826
763654795000.0,-2.049501740296727,8.859123252328203,3.0778950028289307,-0.883922,0.12980886,-0.22388211,342.2774,-78.46431,-7.699955
763659520000.0,-2.0726361298887275,8.830318680376923,3.105792353939151,-0.8949176,0.160963,-0.24770586,342.24814,-78.31087,-7.7269187
763664516000.0,-2.09709738076738,8.799862036679865,3.1352897435998197,-0.8875872,0.1731803,-0.27275133,342.21448,-78.1587,-7.757656
763669492000.0,-2.1214607083038444,8.769527317096887,3.1646690492346248,-0.8784242,0.18081611,-0.30818152,342.1745,-78.00243,-7.797774
763674527000.0,-2.1461129096997644,8.738832921377375,3.1943967027457267,-0.8857546,0.18448131,-0.32742378,342.13245,-77.846886,-7.8391438
763679501000.0,-2.1704664449020097,8.708510394205804,3.223764199977946,-0.9077458,0.20097467,-0.34574974,342.08615,-77.688194,-7.8893747
763684473000.0,-2.1948101877700363,8.678200059445642,3.2531198888075785,-0.9184359,0.21044308,-0.3659083,342.04184,-77.53105,-7.943482
763689551000.0,-2.219672924351661,8.647243526880859,3.283101422974287,-0.9282097,0.22479841,-0.41325033,341.99377,-77.365715,-8.009386
763694501000.0,-2.243908951543281,8.617067308646183,3.3123272193754696,-0.9483683,0.21197024,-0.44348818,341.95117,-77.200005,-8.073102
763699547000.0,-2.2686150107774044,8.586305854663927,3.342119819100797,-0.95264435,0.18967366,-0.4822781,341.91022,-77.0306,-8.150281
763704407000.0,-2.2924103829291766,8.556678294942609,3.370814237385595,-0.9841039,0.15302174,-0.52473325,341.8791,-76.84979,-8.233007
763709853000.0,-2.3190749090070675,8.523478358678762,3.4029685176281887,-0.9993755,0.094989546,-0.55924714,341.8623,-76.67144,-8.319384
763714389000.0,-2.3412839230153875,8.495825969605534,3.4297499746940003,-1.0375546,0.03940081,-0.5885687,341.85748,-76.479866,-8.411526
763719365000.0,-2.365647250551852,8.465491250022556,3.4591292803288054,-1.071763,0.0061086523,-0.6114761,341.8644,-76.2864,-8.506764
763724416000.0,-2.390377790621523,8.434699315011779,3.488951401060598,-1.1068878,-0.011301007,-0.61178154,341.88293,-76.088844,-8.598864
763729375000.0,-2.4026264260483066,8.408272903195002,3.5152712581145003,-1.1221595,-0.028710667,-0.60994893,341.91187,-75.89041,-8.692077
763734390000.0,-2.400025997439961,8.38628748443845,3.538202262364824,-1.1297953,-0.04337143,-0.6020077,341.9444,-75.6929,-8.780016
763739418000.0,-2.3974188279399096,8.364245074566476,3.561192708899346,-1.1267409,-0.034208454,-0.5891795,342.01474,-75.327225,-8.972541
763744387000.0,-2.394842251717604,8.342461316679874,3.583913378913276,-1.1242975,-0.03023783,-0.57757306,342.09012,-74.970146,-9.157233
763749382000.0,-2.3922521937118835,8.32056357656243,3.606752933495602,-1.0974194,-0.015271631,-0.5561928,342.15814,-74.63232,-9.332103
763754383000.0,-2.3896590245253764,8.298639532853255,3.629619922978328,-1.0742066,-0.0033597588,-0.5479461,342.22565,-74.30281,-9.502956
763759395000.0,-2.387060151507425,8.276667265892568,3.652537209778452,-1.040609,-0.0015271631,-0.52564955,342.28928,-73.99644,-9.6599045
763764384000.0,-2.384473204682493,8.254795829366856,3.6753493294603783,-1.0024298,-0.01282817,-0.49632803,342.35196,-73.70719,-9.808345
763769378000.0,-2.381883665206905,8.232902473181369,3.6981843115593054,-0.99082345,-0.04428773,-0.46486846,342.4179,-73.43149,-9.944859
763774407000.0,-2.3792759771767216,8.21085567937744,3.721179330577227,-0.99082345,-0.09193522,-0.42302418,342.48862,-73.17589,-10.064883
763780143000.0,-2.376301688343727,8.185709445681011,3.747407095358853,-0.9984592,-0.121256754,-0.3820962,342.56042,-72.93326,-10.172295
763784482000.0,-2.374051786104124,8.166687564926338,3.767247100830868,-1.0192287,-0.14844026,-0.34238997,342.64148,-72.701035,-10.262569
763789469000.0,-2.371465876339455,8.144824896264538,3.790050075545996,-1.040609,-0.16676621,-0.30726522,342.72473,-72.47925,-10.338958
763794482000.0,-2.368866484791372,8.122848245371896,3.81297193482952,-1.070236,-0.1740966,-0.28099802,342.80914,-72.26189,-10.403656
763799473000.0,-2.3662785009061778,8.100968040982275,3.835793199478246,-1.087951,-0.13958271,-0.27000242,342.8841,-72.051384,-10.462851
763804746000.0,-2.363544291523964,8.077851567781218,3.8599039044457353,-1.072374,-0.09773844,-0.25503623,342.95532,-71.85243,-10.512261
763809695000.0,-2.3609780859042826,8.056155488533724,3.882533124791668,-1.0262536,-0.07513642,-0.25289822,343.02103,-71.66171,-10.561856
763814538000.0,-2.358466844478517,8.034924106073507,3.904677661897215,-0.9804387,-0.06261369,-0.258396,343.07602,-71.48111,-10.610355
763819526000.0,-2.3558804161837164,8.013057053479752,3.927485209095742,-0.9560041,-0.050396383,-0.25045475,343.12256,-71.3138,-10.6548605
763824569000.0,-2.353265468731695,7.990948884628447,3.9505442428812616,-0.94714653,-0.040011674,-0.24740042,343.1661,-71.15642,-10.701723
763829497000.0,-2.3507101522447718,7.969344867952018,3.973077441075797,-0.9324858,-0.020463986,-0.23701571,343.20178,-71.012955,-10.744766
763834526000.0,-2.3481024642145885,7.947298074148089,3.996072460093719,-0.9257663,0.012217305,-0.24251351,343.2313,-70.871735,-10.791981
763841415000.0,-2.3445303101402333,7.917097166907034,4.027572298235389,-0.9266826,0.03268129,-0.25870144,343.2583,-70.73605,-10.838703
763844574000.0,-2.342892273455535,7.903248325859786,4.042016773295564,-0.91599244,0.05222898,-0.27885997,343.27682,-70.60696,-10.889275
763849516000.0,-2.340329697546773,7.881582934135981,4.064613986257697,-0.8921687,0.0580322,-0.30604348,343.29514,-70.48078,-10.945385
763854667000.0,-2.3376587488405747,7.859001300633488,4.0881668482504026,-0.8677341,0.053450707,-0.32650748,343.31192,-70.35885,-11.00438
763859516000.0,-2.3351443962340213,7.837743614581539,4.110338820256349,-0.84788096,0.037873644,-0.35460728,343.33304,-70.23939,-11.070871
763864540000.0,-2.3325393008544943,7.815718740437387,4.133310976857271,-0.8240572,0.018325957,-0.36957347,343.3573,-70.12885,-11.1369705
763869530000.0,-2.3299518354994317,7.793842919979721,4.156127669022598,-0.7993172,0.002443461,-0.3726278,343.38638,-70.02388,-11.204786
763874569000.0,-2.327338962167936,7.771752286856238,4.179168412874518,-0.77854776,-0.029626964,-0.38453966,343.42764,-69.92278,-11.274506
763879535000.0,-2.324763941536023,7.749981680765502,4.201875365438249,-0.75900006,-0.05681047,-0.38789943,343.4717,-69.83095,-11.340194
763884527000.0,-2.322175439120697,7.728097092443924,4.224701202570375,-0.7443393,-0.09162979,-0.3866777,343.52762,-69.744286,-11.403112
763889579000.0,-2.319555824897495,7.70594946820502,4.247801388706494,-0.729984,-0.10903945,-0.38240165,343.5864,-69.66452,-11.463945
763894562000.0,-2.3169719892533505,7.684104335271042,4.270586073488022,-0.72112644,-0.12522738,-0.38026363,343.6547,-69.58898,-11.521071
763899531000.0,-2.314395413031044,7.662320577384439,4.293306743501952,-0.71593404,-0.1282817,-0.37048978,343.72314,-69.51995,-11.5735445
763904817000.0,-2.311654462757124,7.639147113067962,4.317476890753639,-0.71837753,-0.129198,-0.36285394,343.7955,-69.453125,-11.623933
763909514000.0,-2.309218926730524,7.61855578467324,4.338953845282806,-0.70188415,-0.115453534,-0.34513888,343.86285,-69.39699,-11.669048
763914545000.0,-2.3066102016400785,7.5965002230054,4.361958009267527,-0.70157874,-0.09743301,-0.33414328,343.92914,-69.33834,-11.713461
763919643000.0,-2.303966735030837,7.574150937896546,4.385268529640039,-0.68477994,-0.069027774,-0.3222314,343.98706,-69.29196,-11.754169
763924512000.0,-2.3014420118216585,7.552805573205488,4.407531951313983,-0.68844515,-0.053145275,-0.3115413,344.0426,-69.24387,-11.792047
763929450000.0,-2.298881510033421,7.531157717209504,4.430110874342517,-0.6936375,-0.049785517,-0.30818152,344.09338,-69.201324,-11.829388
763934528000.0,-2.325837121969802,7.51407119047952,4.472950460142598,-0.70554936,-0.05467244,-0.3036,344.14117,-69.15948,-11.863507
763939745000.0,-2.359763248172096,7.497607049694434,4.52109562033812,-0.72173727,-0.053450707,-0.3005457,344.18628,-69.11686,-11.8973465
763944535000.0,-2.3909125954040262,7.482490462697969,4.56530020483813,-0.75136423,-0.059864793,-0.29749137,344.22128,-68.955864,-11.950844
763949530000.0,-2.4233950566615405,7.4667269236484195,4.611396634812566,-0.8060367,-0.050396383,-0.31520647,344.25232,-68.78655,-12.009078
763954803000.0,-2.457685350597651,7.450086054497613,4.660058591820615,-0.82741696,-0.051923547,-0.34330627,344.28812,-68.621216,-12.066305
763959514000.0,-2.4883209612050887,7.435218780731362,4.703534123674382,-0.8445212,-0.062002823,-0.3659083,344.32397,-68.4467,-12.125272
763965831000.0,-2.529400382178806,7.415283189905335,4.761830649830241,-0.8686504,-0.073303826,-0.3933972,344.3628,-68.26489,-12.191185
763969541000.0,-2.553526494544247,7.40357493567634,4.796068438660103,-0.86651236,-0.07574729,-0.40561453,344.40192,-68.08892,-12.257139
763974564000.0,-2.5861910396686705,7.38772303244393,4.842423267040802,-0.84238315,-0.036651913,-0.40103304,344.43286,-67.915726,-12.3268
763979478000.0,-2.618146758311198,7.37221511835194,4.887772187339977,-0.8338311,-0.02107485,-0.39003745,344.4709,-67.74335,-12.3938
763984528000.0,-2.6509868843072835,7.356278006800344,4.934376185612431,-0.8081747,-0.053450707,-0.39370266,344.51178,-67.58375,-12.460714
763989497000.0,-2.6833002676883826,7.340596520206307,4.980232674209622,-0.7690793,-0.08399397,-0.39461896,344.54608,-67.43606,-12.5235405
763994635000.0,-2.716712657266182,7.324381692651436,5.027648781758902,-0.7284568,-0.08032878,-0.39003745,344.57913,-67.29929,-12.5843115
763999531000.0,-2.748551321994268,7.30893058410557,5.072831588796909,-0.6768387,-0.08093964,-0.36682457,344.6196,-67.18107,-12.635511
764004780000.0,-2.782685544044457,7.292365455682931,5.121272061456732,-0.6606508,-0.08674286,-0.36713,344.6618,-67.06448,-12.690223
764009559000.0,-2.813763358328673,7.277283583186874,5.165375132297138,-0.6267477,-0.110872045,-0.38056904,344.70786,-66.968864,-12.739184
764014489000.0,-2.8458231248951487,7.2617251752761085,5.210871708828464,-0.605062,-0.09712757,-0.40194935,344.7454,-66.87564,-12.792219
764019525000.0,-2.87857220895778,7.245832245815942,5.257346507897785,-0.571159,-0.0983493,-0.4447099,344.79678,-66.79021,-12.8498745
764024552000.0,-2.9112627660631905,7.229967719128837,5.303738250336522,-0.54702985,-0.09712757,-0.48258355,344.84506,-66.70729,-12.912296
764029526000.0,-2.943608664420523,7.214270453216432,5.349640881506261,-0.5381723,-0.061086524,-0.48472157,344.88458,-66.62986,-12.97844
764035628000.0,-2.983289941416189,7.195013373080227,5.4059532770426,-0.5311473,0.01160644,-0.48655418,344.91736,-66.553734,-13.056817
764039532000.0,-3.0086776348595,7.182692881298556,5.441981397687284,-0.4905248,0.029626964,-0.49418998,344.95618,-66.488335,-13.133895
764044524000.0,-3.0411405871312738,7.166938809840027,5.488050142118192,-0.47739118,0.04917465,-0.50762904,344.97556,-66.41875,-13.218241
764049538000.0,-3.073746605298476,7.151115309380679,5.534321913868307,-0.45540005,0.070249505,-0.51893,344.9905,-66.361496,-13.304007
764054848000.0,-3.1082775100587168,7.134357673273951,5.583325325913203,-0.42302418,0.09468412,-0.5326745,345.00122,-66.30864,-13.394215
764059563000.0,-3.138939132647141,7.119477776053005,5.626837771825008,-0.4120286,0.105374254,-0.54825157,345.0118,-66.2551,-13.486529
764064544000.0,-3.171330551971201,7.103758419094885,5.672805002596313,-0.39736784,0.1386664,-0.5665775,345.01172,-66.208336,-13.585595
764069530000.0,-3.2037544862714946,7.088023282818398,5.718818375940165,-0.39675698,0.17195857,-0.5665775,345.00916,-66.16238,-13.6826315
764074569000.0,-3.236523079319866,7.072120885767211,5.765320860553015,-0.38912117,0.18692477,-0.5684101,345.00528,-66.119064,-13.784059
764079479000.0,-3.2684527859814065,7.056625595129916,5.810632866794152,-0.38515055,0.19853121,-0.56107974,344.9931,-66.07754,-13.883325
764084529000.0,-3.301292911977492,7.040688483578319,5.857236865066605,-0.37323865,0.24648413,-0.54183745,344.9666,-66.04222,-13.982222
764089531000.0,-3.3338208942017333,7.024902853483054,5.903397894642607,-0.39370266,0.2501493,-0.5360342,344.9507,-66.00019,-14.0771055
764094726000.0,-3.367603954508598,7.008508141698788,5.951340027518922,-0.39736784,0.20219639,-0.52534413,344.93442,-65.96961,-14.16258
764099526000.0,-3.398818331692996,6.993359996065587,5.995636897164027,-0.39187005,0.17501289,-0.5290093,344.9131,-65.93578,-14.250239
764104876000.0,-3.4336093562631067,6.976476125411915,6.0450094497892986,-0.39614612,0.19486602,-0.49327368,344.88776,-65.90838,-14.32213
764109499000.0,-3.4636727032888297,6.961886567648938,6.087672872366239,-0.4111123,0.19761491,-0.50335294,344.8803,-65.871994,-14.401139
764114540000.0,-3.496454302327695,6.945977858870404,6.134193814008108,-0.42577308,0.15943582,-0.5207626,344.8765,-65.8403,-14.468641
764119508000.0,-3.5287611827135468,6.930299528140041,6.180041074090791,-0.44684792,0.14782938,-0.52595496,344.86484,-65.80494,-14.536507
764124499000.0,-3.5612176319900746,6.914548612545186,6.2261005900071895,-0.46120325,0.113926366,-0.5323691,344.87234,-65.765465,-14.601867
764129466000.0,-3.59351800938068,6.898873437678496,6.271938621575362,-0.4859433,0.09773844,-0.54153204,344.87927,-65.71855,-14.6682415
764134475000.0,-3.5832975226063075,6.76519550383559,6.345679794251349,-0.5161811,0.08582657,-0.54367006,344.89462,-65.66846,-14.730044
764139499000.0,-3.5605140941755846,6.596598647315087,6.427699794024055,-0.54825157,0.08155051,-0.54611355,344.91342,-65.61204,-14.792044
764144486000.0,-3.567599551974347,6.4679375451213925,6.498580572927164,-0.5876524,0.08582657,-0.5421429,345.02283,-65.343735,-14.9759
764149511000.0,-3.589644270710032,6.357714411818598,6.564714452908841,-0.6383542,0.1020145,-0.5348125,345.13037,-65.072914,-15.155921
764154544000.0,-3.60314418997417,6.265302313115852,6.616538114388214,-0.6762278,0.11209377,-0.52534413,345.22125,-64.74344,-15.355044
764159733000.0,-3.607898233330144,6.18923752013776,6.6545706598010135,-0.72295904,0.14355333,-0.5195409,345.3012,-64.41006,-15.551771
764164472000.0,-3.628120115877226,6.135945185107996,6.703296765403562,-0.7791586,0.18112154,-0.5103779,345.37375,-64.01988,-15.768784
764169474000.0,-3.673500140128836,6.104178978590375,6.775904804206139,-0.8323039,0.22999077,-0.50793445,345.43414,-63.6299,-15.984643
764174479000.0,-3.724984193367585,6.132340865997198,6.8678677171415226,-0.88331115,0.28008172,-0.5164866,345.47617,-63.186985,-16.222784
764179516000.0,-3.792576529985988,6.316342209364783,7.010562602078468,-0.9505063,0.33261612,-0.52687126,345.50366,-62.7399,-16.459797
764184455000.0,-3.8588537883854896,6.496763617919975,7.150481211707924,-1.0149527,0.38240165,-0.5311473,345.51883,-62.23936,-16.722523
764189633000.0,-3.915944962662586,6.655761608358837,7.229520233550114,-1.0601566,0.43157628,-0.5335908,345.5207,-61.73911,-16.986088
764194489000.0,-3.964869441315991,6.793639916775057,7.278444805087988,-1.1120802,0.4810564,-0.5375614,345.5096,-61.234486,-17.24966
764199548000.0,-4.075777322266774,6.914935871959369,7.34343977653034,-1.1420126,0.52290064,-0.54611355,345.4705,-60.694416,-17.53096
764204750000.0,-4.226702253461641,7.02591001790965,7.4189021030740445,-1.1545353,0.5552765,-0.55924714,345.4216,-60.159565,-17.81103
764209497000.0,-4.352959952646384,7.118913072723484,7.533918582496353,-1.176221,0.5720753,-0.57635134,345.35446,-59.593365,-18.10815
764214479000.0,-4.467292907741196,7.203420208793498,7.727787625963742,-1.1829406,0.57757306,-0.589485,345.28342,-59.041462,-18.401463
764219465000.0,-4.481261719710281,7.312376367906542,7.801449423457943,-1.1826351,0.5687156,-0.6041457,345.21866,-58.44934,-18.727596
764224515000.0,-4.372784368775701,7.452492912766355,7.72913106364486,-1.1866057,0.5375614,-0.6041457,345.15894,-57.871403,-19.041567
764229486000.0,-4.334277649711934,7.496645418600823,7.739829356687243,-1.1756102,0.5143485,-0.57757306,345.10278,-57.267765,-19.365711
764234475000.0,-4.4424186388477365,7.339349434403292,7.926618389248971,-1.1355985,0.49968776,-0.5348125,345.0503,-56.689705,-19.672935
764241291000.0,-4.538807300240315,7.140327578903292,8.108452200444217,-1.128879,0.4972443,-0.5311473,344.96063,-56.117626,-19.967817
764244709000.0,-4.565028403109525,7.047361687627439,8.168045548172152,-1.1236867,0.4831944,-0.52564955,344.87198,-55.578266,-20.238703
764249490000.0,-4.601705726929799,6.917323675284008,8.251403007355083,-1.1414018,0.44898596,-0.5174029,344.8098,-54.98411,-20.529654
764254544000.0,-4.590820998459281,6.818971092993396,8.306337202494497,-1.1291844,0.40133846,-0.5002986,344.75266,-54.417313,-20.803564
764259512000.0,-4.551551200073368,6.7447948527146,8.341244418928833,-1.0998629,0.3268129,-0.49357912,344.71127,-53.86634,-21.060139
764264504000.0,-4.523996582059169,6.655157418167013,8.323611152537772,-1.073901,0.25686884,-0.49938235,344.70023,-53.27444,-21.327501
764269613000.0,-4.510716556319551,6.544490691079345,8.239504245815615,-1.042747,0.22052236,-0.50518554,344.6969,-52.707993,-21.57814
764274501000.0,-4.492823797381546,6.422968363466334,8.12421299127182,-1.0305296,0.21930063,-0.52412236,344.69354,-52.115234,-21.834503
764279499000.0,-4.458009434850374,6.248896031483791,7.8954324495012465,-1.0152581,0.23823744,-0.5458081,344.6937,-51.54503,-22.081713
764284495000.0,-4.432594952486731,6.064627940043248,7.682331102614508,-1.0057896,0.26542094,-0.5580254,344.68594,-50.962475,-22.344538
764289511000.0,-4.427873384883036,5.856879064084922,7.502911237861214,-0.99021256,0.2919936,-0.57726765,344.6774,-50.395702,-22.608175
764294528000.0,-4.4063321663959485,5.674065099656029,7.352098661943436,-0.96944314,0.30390546,-0.59131753,344.6579,-49.83276,-22.888487
764299480000.0,-4.342894377823428,5.5562518812344734,7.275067146025225,-0.9379836,0.28955013,-0.59895337,344.64133,-49.28849,-23.162912
764304537000.0,-4.313447791900413,5.391151666639722,7.217281034087786,-0.9049969,0.27885997,-0.58001655,344.62482,-48.74936,-23.450405
764309515000.0,-4.432910416150675,5.040470579694447,7.248110068555493,-0.8323039,0.23579398,-0.54367006,344.6197,-48.24189,-23.719328
764314463000.0,-4.55165309690405,4.6919028781666805,7.278753311332957,-0.77640975,0.21563543,-0.58276546,344.62048,-47.732838,-23.999277
764319469000.0,-4.657241515060679,4.517339231023753,7.259969608930609,-0.77396625,0.16401732,-0.6209445,344.63452,-47.246765,-24.25023
764324508000.0,-4.757350624032776,4.417230331117104,7.219926101234312,-0.73914695,0.09987647,-0.70402217,344.67337,-46.77799,-24.507225
764329492000.0,-4.887023064502123,4.3957543,7.121171843236202,-0.7199047,0.055283304,-0.7275405,344.7619,-46.260223,-24.789976
764334521000.0,-5.026433650482439,4.3957543,7.004996071864145,-0.7058548,0.041233405,-0.72356987,344.86923,-45.75137,-25.071623
764339469000.0,-5.1443068747399705,4.4364058949479945,6.906247271582466,-0.7113526,0.038789943,-0.7150178,344.99976,-45.230362,-25.367704
764344540000.0,-5.257057696471025,4.495036224294205,6.811536786654903,-0.69974613,0.05222898,-0.70738196,345.12863,-44.72862,-25.655344
764349512000.0,-5.352993981796668,4.530795612365645,6.702273638428163,-0.68752885,0.06841691,-0.6979135,345.2549,-44.231647,-25.963238
764354535000.0,-5.438377750182428,4.54976983264964,6.578941330411202,-0.6780604,0.106901415,-0.6948592,345.3719,-43.748245,-26.269123
764359627000.0,-5.502665515815692,4.561307984173931,6.469593026805728,-0.68233645,0.12980886,-0.68661255,345.46997,-43.275936,-26.590662
764364571000.0,-5.54688814894147,4.566221558769199,6.376234083343711,-0.6780604,0.16187929,-0.68477994,345.55786,-42.818077,-26.913183
764369500000.0,-5.569454457879125,4.576131542473118,6.313196432332221,-0.6747007,0.18020524,-0.6704246,345.64236,-42.37135,-27.24442
764374525000.0,-5.578376022117167,4.589513981989247,6.268588145346682,-0.6563747,0.19394971,-0.6603453,345.72195,-41.939087,-27.572739
764379512000.0,-5.60806384297643,4.574334543811436,6.235065064580911,-0.64476824,0.18387043,-0.6435465,345.79166,-41.51964,-27.90182
764384641000.0,-5.665173721065426,4.522416768523412,6.214298062889759,-0.6169739,0.16646078,-0.63316184,345.86075,-41.118473,-28.222866
764389552000.0,-5.707047902057613,4.458985879923574,6.174186029394474,-0.6065892,0.14966199,-0.63499445,345.92206,-40.724007,-28.541868
764394591000.0,-5.740146321262003,4.383332399686459,6.117445684695277,-0.57757306,0.13103059,-0.62949663,345.98602,-40.352516,-28.84523
764399518000.0,-5.75084820768025,4.3478703,6.037908284482759,-0.57757306,0.116675265,-0.6386596,346.06357,-39.964287,-29.158861
764404482000.0,-5.7415340942006265,4.3478703,5.935453036206897,-0.5546656,0.11178834,-0.6426302,346.14255,-39.598694,-29.46048
764409404000.0,-5.71379806243789,4.366037770049688,5.873346598731367,-0.5555819,0.092240654,-0.6554584,346.23508,-39.21945,-29.769852
764414396000.0,-5.6632563713500375,4.40647112291997,5.858184091405011,-0.5479461,0.06627888,-0.6536258,346.32938,-38.858097,-30.06684
764419385000.0,-5.614506031067961,4.437601329680998,5.909142143203884,-0.5308419,0.05100725,-0.6383542,346.42026,-38.507427,-30.363369
764424412000.0,-5.566811584188627,4.46144845351694,6.014069438280167,-0.51251596,0.04337143,-0.63529986,346.5193,-38.165585,-30.650747
764429817000.0,-5.568499749327,4.525308355275138,6.188585650475059,-0.47739118,0.0143553335,-0.6249151,346.60062,-37.84307,-30.92045
764434396000.0,-5.603220388440222,4.603429747961203,6.375209266983373,-0.4184427,-0.032986723,-0.6188065,346.68994,-37.537807,-31.177816
764439391000.0,-5.671817550667161,4.706399526871757,6.546986203076353,-0.36835176,-0.08857546,-0.6188065,346.78622,-37.237953,-31.409916
764444399000.0,-5.7695877063380285,4.82639013028169,6.689197254225352,-0.28619036,-0.14874569,-0.6206391,346.8945,-36.966396,-31.624153
764449378000.0,-5.850343677024864,4.952109423433998,6.861686622078754,-0.22204952,-0.19425514,-0.64721173,347.01715,-36.692234,-31.821371
764454428000.0,-5.901952726219187,5.091454071817308,7.093927559011846,-0.1600467,-0.20891592,-0.68111473,347.14847,-36.440784,-32.008865
764459356000.0,-5.96790785593963,5.208407605160662,7.306567580477118,-0.12522738,-0.18997909,-0.72173727,347.28445,-36.184444,-32.20087
764464382000.0,-6.052269437224926,5.3068296049659205,7.508098288383642,-0.1151481,-0.16920967,-0.73945236,347.4254,-35.941082,-32.386856
764469358000.0,-6.131098115494527,5.352787882853669,7.637452164004864,-0.08002335,-0.1142318,-0.7654142,347.56198,-35.696983,-32.578953
764474402000.0,-6.2045255781212,5.328312113092825,7.671718241670045,-0.077579886,-0.059864793,-0.8014552,347.6999,-35.450027,-32.774895
764479348000.0,-6.204425876595152,5.271510649763165,7.702071659793814,-0.060170226,0.012217305,-0.83260936,347.83188,-35.20217,-32.980053
764484384000.0,-6.1148394730658495,5.17296557314015,7.728947632302406,-0.052839845,0.077579886,-0.8594874,347.9603,-34.954193,-33.194984
764489395000.0,-5.98049785797131,5.07650264709533,7.79321566258012,-0.041233405,0.12064589,-0.87689704,348.0962,-34.694252,-33.43016
764494372000.0,-5.742882084759385,4.984365966242751,7.943543696815546,-0.025350908,0.12858713,-0.883922,348.22977,-34.441322,-33.66759
764499367000.0,-5.50420460878087,4.88836860744806,8.070875270090161,-0.01863139,0.09773844,-0.82802784,348.35724,-34.190456,-33.88422
764504404000.0,-5.2631073499608,4.784365861573892,8.151240940758527,0.010079277,0.06383542,-0.77366084,348.48605,-33.95348,-34.096645
764509362000.0,-5.003102894668008,4.665909918299798,8.1781272194165,0.016187929,0.047647487,-0.75808376,348.61023,-33.70833,-34.266735
764514344000.0,-4.686305333501006,4.507511037474849,8.077327927062374,0.025045475,0.019547688,-0.7305948,348.727,-33.489716,-34.409195
764519340000.0,-4.4163817040158655,4.331061238909271,7.965425301239464,0.02107485,-0.004581489,-0.7244862,348.8419,-33.263664,-34.518944
764524361000.0,-4.259037952404562,4.111733852186416,7.827153881606345,0.03970624,-0.007330383,-0.70707655,348.94592,-33.05874,-34.615795
764529345000.0,-4.177691992206954,3.915624466826524,7.711159414700728,0.05131268,-0.0143553335,-0.7263188,349.04617,-32.8512,-34.688633
764534340000.0,-4.287984844507977,3.7744498185741953,7.649395454265424,0.065973446,-0.014049901,-0.689056,349.12326,-32.66892,-34.745148
764539379000.0,-4.406657951338716,3.639727902507437,7.59681707522312,0.080634214,0.0015271631,-0.64599,349.20993,-32.472847,-34.808456
764544352000.0,-4.578700661655333,3.563826671036974,7.617057481109223,0.082161374,0.00030543262,-0.6081163,349.2891,-32.289368,-34.858982
764549345000.0,-4.733728599999999,3.506155941818182,7.622267581818182,0.086132,0.007941248,-0.56077427,349.38797,-32.100002,-34.92664
764554389000.0,-4.830293471204188,3.5107542644455023,7.576284355544979,0.06383542,0.014049901,-0.52412236,349.47754,-31.916054,-34.985664
764559353000.0,-4.918686092544721,3.5243281900320547,7.527949488408644,0.062308256,0.030543262,-0.48899764,349.57544,-31.728132,-35.06147
764564341000.0,-4.963140720608004,3.598419511880881,7.458797581139489,0.03756821,0.048258353,-0.44806966,349.65775,-31.544031,-35.128117
764569343000.0,-4.995425953322785,3.674842015348101,7.389120103164557,-0.004886922,0.06780604,-0.4196644,349.7396,-31.356768,-35.20913
764574357000.0,-4.976431560719937,3.7603173274920887,7.3178907590189874,-0.046731193,0.057726767,-0.3753767,349.80658,-31.180304,-35.27419
764579348000.0,-4.953147933052631,3.832111536808421,7.234222315696842,-0.07666359,0.13255776,-0.22235495,349.80478,-31.033302,-35.343906
764584341000.0,-4.90885424168421,3.8401649199494736,7.089261293018947,-0.15943582,0.19456059,-0.17562376,349.82303,-30.859047,-35.417126
764590721000.0,-4.863787770751445,3.86656994150289,6.908095061942197,-0.22143865,0.16432275,-0.16340645,349.8048,-30.716074,-35.46269
764594352000.0,-4.948208730635838,4.035411861271676,6.8437743945664735,-0.28680122,0.110872045,-0.16554448,349.7687,-30.565374,-35.50816
764599371000.0,-5.069901701147442,4.257441477361747,6.752920454438788,-0.31612277,0.03726278,-0.17134771,349.7316,-30.42632,-35.54444
764604444000.0,-5.25851698783539,4.332887548270209,6.635559700310586,-0.33292156,0.004886922,-0.1740966,349.6958,-30.280676,-35.575348
764609588000.0,-5.449772070571996,4.409389536985592,6.516556404581141,-0.33628133,-0.055588737,-0.17684549,349.66223,-30.146643,-35.597725
764614413000.0,-5.686219978421701,4.443230902219482,6.373099305795314,-0.35063666,-0.10323623,-0.17806722,349.63217,-30.0109,-35.613655
764619387000.0,-5.945638202219482,4.467704290628853,6.21646961997534,-0.3640757,-0.124005646,-0.183565,349.60974,-29.877552,-35.621452
764624439000.0,-6.2153698802615605,4.428310908612797,6.120530578738907,-0.36957347,-0.1328632,-0.18753563,349.5973,-29.753496,-35.6546
764629416000.0,-6.482518456543671,4.374881174759458,6.040385815235871,-0.38973203,-0.12858713,-0.18936823,349.58636,-29.6269,-35.684635
764634408000.0,-6.691008325275828,4.300831437980608,5.989970739986626,-0.41447207,-0.12186762,-0.20158553,349.59802,-29.496115,-35.75801
764639444000.0,-6.872410525777332,4.2161770524908055,5.953690367235039,-0.43127087,-0.12095132,-0.20189096,349.60684,-29.368773,-35.826496
764644478000.0,-7.039004911913044,4.134852821217391,5.940318343282609,-0.43982297,-0.115453534,-0.19914207,349.64218,-29.220224,-35.946815
764649411000.0,-7.167381089434783,4.062962281913044,5.981398597836956,-0.44806966,-0.11026118,-0.20280726,349.67908,-29.071655,-36.064484
764654482000.0,-7.248673595344249,3.996436013967252,6.034784396054449,-0.4541783,-0.12461651,-0.19486602,349.7513,-28.90705,-36.20725
764659623000.0,-7.268099252791478,3.938159041625567,6.102774450670744,-0.4746423,-0.14172074,-0.18661933,349.8233,-28.742199,-36.346638
764664446000.0,-7.2605132760858,3.887691263180287,6.178025273639426,-0.48166725,-0.16310102,-0.17073683,349.9133,-28.567303,-36.49232
764669433000.0,-7.21818084235951,3.8411255374578976,6.271156725084205,-0.48899764,-0.17654006,-0.15577064,350.00177,-28.395027,-36.63016
764674465000.0,-7.162860990105902,3.790145812414199,6.3667979626887625,-0.51007247,-0.21105394,-0.14110987,350.09903,-28.214485,-36.75334
764679444000.0,-7.045968101921945,3.720010069739165,6.469663526573838,-0.5329799,-0.23151793,-0.12522738,350.18954,-28.040607,-36.870045
764684495000.0,-6.927354917210952,3.647786803311198,6.561285092149549,-0.5564982,-0.2519819,-0.11362094,350.29285,-27.86029,-36.958622
764689554000.0,-6.80835879710725,3.5684559952151367,6.5700995701355405,-0.5748242,-0.26236662,-0.09621128,350.38907,-27.685852,-37.03835
764694452000.0,-6.693149665605386,3.4916498481397253,6.578633532020376,-0.61850107,-0.25228736,-0.09560041,350.48517,-27.492033,-37.097946
764699435000.0,-6.608109701139138,3.499457848982913,6.59726637896664,-0.6432411,-0.25350907,-0.087659165,350.57495,-27.308567,-37.14636
764704975000.0,-6.516756372249457,3.519736933022583,6.624389363007314,-0.67011917,-0.26908615,-0.062308256,350.65668,-27.124521,-37.188705
764709519000.0,-6.446810251217552,3.5896831270915373,6.718816772474484,-0.679893,-0.28252518,-0.04917465,350.74332,-26.933922,-37.216015
764714482000.0,-6.370414432845777,3.666079025235072,6.821951286819899,-0.675617,-0.3387248,-0.03726278,350.82452,-26.75279,-37.212006
764719465000.0,-6.319474378310394,3.686793340958709,6.915008995538681,-0.6579019,-0.355829,-0.02687807,350.89294,-26.579948,-37.211098
764724506000.0,-6.296561872947319,3.645550831305173,6.997493966995728,-0.6563747,-0.37048978,-0.01282817,350.96338,-26.412605,-37.19435
764729480000.0,-6.264884614895084,3.613032718648409,7.043279352438184,-0.6542367,-0.40408736,0.018936822,351.0132,-26.270391,-37.13523
764734466000.0,-6.217845037572653,3.594216868072111,7.029167366269333,-0.6301075,-0.43218717,0.049480084,351.05673,-26.139874,-37.072254
764739549000.0,-6.150309118874907,3.5565893290895634,7.012816684233901,-0.59498274,-0.42241332,0.0711658,351.0954,-26.009747,-36.99872
764744505000.0,-6.048817950653837,3.4863263004194422,6.993299280434246,-0.6035349,-0.40378192,0.099571034,351.12222,-25.886333,-36.91591
764749506000.0,-5.946405252454971,3.4154252902541327,6.973604660498396,-0.5861252,-0.38148534,0.13408493,351.13522,-25.780628,-36.829906
764754700000.0,-5.845731847828171,3.356835540876402,7.033174029034423,-0.5748242,-0.32467487,0.14355333,351.13318,-25.675644,-36.757427
764759523000.0,-5.752725224968836,3.3036887538977853,7.0951785059353725,-0.5751296,-0.28160888,0.15271631,351.11603,-25.581224,-36.682976
764764530000.0,-5.673739919632359,3.264689502790428,7.168757949358284,-0.5870415,-0.24831672,0.172264,351.0841,-25.487967,-36.60652
764769500000.0,-5.598858888084789,3.229219620617703,7.243639063211063,-0.58551437,-0.20830505,0.17470746,351.0426,-25.398615,-36.54421
764774495000.0,-5.519397214692742,3.18870210859724,7.323100744524968,-0.59528816,-0.19272798,0.1731803,350.9981,-25.298134,-36.46551
764779518000.0,-5.433436944683808,3.1409464584433637,7.409060914801946,-0.600786,-0.17745635,0.17928895,350.94073,-25.20351,-36.395634
764784456000.0,-5.378477891047884,3.1032433735996827,7.510114367681174,-0.61819565,-0.16340645,0.1695151,350.88666,-25.091362,-36.315117
764790159000.0,-5.36764891908397,3.076170491384951,7.656307241875681,-0.63285637,-0.17745635,0.16187929,350.82996,-24.983088,-36.231014
764794451000.0,-5.355012595990609,3.082176722232256,7.736505055409066,-0.6264423,-0.19364429,0.16157386,350.78143,-24.865053,-36.13119
764799487000.0,-5.333236921076395,3.1300832979953044,7.784411449268557,-0.63255095,-0.22937989,0.1695151,350.73566,-24.744558,-36.02415
764804561000.0,-5.315890410602929,3.1676357283852994,7.821963752268847,-0.61636305,-0.24373524,0.19028452,350.68457,-24.623808,-35.907124
764809552000.0,-5.32018520893162,3.154751109165244,7.809079267589182,-0.59559363,-0.25595254,0.18967366,350.63992,-24.50361,-35.785427
764814905000.0,-5.324248992472915,3.141921672614225,7.795065391521432,-0.5891795,-0.3036,0.18417588,350.59613,-24.389633,-35.64005
764819572000.0,-5.303196315949128,3.175605981431936,7.774012671031559,-0.54733527,-0.31642818,0.18875736,350.54163,-24.292696,-35.500916
764824467000.0,-5.281115139265191,3.2109358917946302,7.751931448233631,-0.52778757,-0.32620203,0.18936823,350.4996,-24.187538,-35.35721
764829545000.0,-5.2517855523548045,3.2094619798310453,7.735119317254488,-0.49235737,-0.3109304,0.20219639,350.44656,-24.100803,-35.216496
764834502000.0,-5.221708182777191,3.199436224868004,7.720080501605069,-0.47403142,-0.2950479,0.2134974,350.39178,-24.016838,-35.076088
764839533000.0,-5.227551256469288,3.1945578503821714,7.763958460263376,-0.4578435,-0.2855795,0.2302962,350.33243,-23.946835,-34.932747
764844552000.0,-5.236403951606961,3.190131479703472,7.812648445289621,-0.4428773,-0.25625798,0.22235495,350.26807,-23.880026,-34.80264
764849474000.0,-5.2385135,3.152615676992507,7.869827239100817,-0.4279111,-0.25045475,0.20616703,350.21017,-23.817608,-34.664673
764854678000.0,-5.2385135,3.101691585814033,7.933482297683923,-0.41050145,-0.25289822,0.19211712,350.14783,-23.759638,-34.53505
764859486000.0,-5.217613599704498,3.059525124351538,7.995072750355696,-0.40225476,-0.258396,0.19608775,350.08716,-23.693722,-34.406185
764864482000.0,-5.165248553628105,3.0228697287950093,8.063147009521725,-0.3830125,-0.28130344,0.20097467,350.03116,-23.633718,-34.276356
764869461000.0,-5.0848038740850825,2.994521397343489,8.079805597343489,-0.37048978,-0.3036,0.19639318,349.97833,-23.56151,-34.14557
764874512000.0,-4.981463257207877,2.9720560356492665,8.057340235649265,-0.36743546,-0.32559118,0.18051068,349.9284,-23.492304,-34.01226
764879503000.0,-4.879653298218074,2.931396811200679,8.02096352901994,-0.35979962,-0.30970868,0.1591304,349.87436,-23.418892,-33.876835
764884471000.0,-4.778725121722529,2.865793549172677,7.965453031947391,-0.355829,-0.27214047,0.14630222,349.81946,-23.346075,-33.744953
764889549000.0,-4.74206883228776,2.796906080514831,7.901343826986022,-0.36865717,-0.22082779,0.12797627,349.75552,-23.26383,-33.617817
764894586000.0,-4.762627279952267,2.7270072296539376,7.83144506199284,-0.37965274,-0.17134771,0.11789699,349.6845,-23.184233,-33.502453
764899483000.0,-4.782987407116105,2.6586148198501878,7.773038451685393,-0.3680463,-0.15118915,0.093767814,349.61972,-23.092863,-33.3934
764904754000.0,-4.806620044194756,2.582990282490637,7.754132440730337,-0.35705075,-0.14752395,0.07391469,349.54916,-23.0006,-33.294712
764909557000.0,-4.8282739817601135,2.5171368182398868,7.736496718239886,-0.32162055,-0.14782938,0.0693332,349.49075,-22.906975,-33.215153
764914478000.0,-4.85216500518098,2.4932457948190208,7.712605694819021,-0.3032946,-0.1386664,0.0711658,349.43234,-22.812658,-33.14144
764919497000.0,-4.879287747170805,2.4691400129748224,7.695204261075533,-0.28130344,-0.12705997,0.07391469,349.38882,-22.715155,-33.07575
764924542000.0,-4.938627153127468,2.447947383796824,7.758782148609527,-0.24831672,-0.10567969,0.08155051,349.3384,-22.628471,-33.014584
764929482000.0,-4.996731546670761,2.427195830151768,7.821036809544696,-0.22815818,-0.12217305,0.07880162,349.29837,-22.537664,-32.95599
764934522000.0,-5.040085265326451,2.440385065679616,7.858262151951462,-0.1881465,-0.15699236,0.07819075,349.2535,-22.463299,-32.897152
764939562000.0,-5.079422641039573,2.4622392140088745,7.888857959612424,-0.15271631,-0.20341812,0.0729984,349.21387,-22.393665,-32.83248
764944540000.0,-5.1106687854195325,2.4866237753782667,7.892961721045392,-0.11056661,-0.22235495,0.07727446,349.17343,-22.330761,-32.771065
764949567000.0,-5.137157364520862,2.513112170087116,7.879717454543788,-0.084910266,-0.2312125,0.08032878,349.139,-22.273104,-32.70208
764954643000.0,-5.148171540717736,2.546954755831608,7.859683220565907,-0.057726767,-0.22449298,0.08307768,349.10754,-22.22652,-32.634216
764959568000.0,-5.138871045055704,2.588805505363305,7.831782850359854,-0.054061573,-0.20066923,0.079107046,349.07452,-22.181168,-32.5701
764964549000.0,-5.082087441963451,2.641604889689757,7.819463240339992,-0.03970624,-0.16798794,0.07513642,349.03436,-22.146315,-32.518208
764969526000.0,-4.952445454534637,2.710477305235869,7.831617273166171,-0.04734206,-0.1337795,0.06811147,348.99173,-22.10712,-32.474472
764975619000.0,-4.818921907708986,2.7831156145507103,7.848272974849434,-0.067500606,-0.105374254,0.05955936,348.94656,-22.068453,-32.43982
764979483000.0,-4.795149480053,2.800944997350036,7.86313068007709,-0.09590584,-0.08460484,0.05222898,348.8989,-22.026234,-32.41295
764984523000.0,-4.764141965719104,2.8242007140448084,7.882510295591423,-0.11881329,-0.06658431,0.040011674,348.82742,-21.993645,-32.369484
764989522000.0,-4.737004600382525,2.850445012200524,7.865105455445943,-0.13805555,-0.070249505,0.0290161,348.75787,-21.955362,-32.326805
764994476000.0,-4.713125263156836,2.8791001670022145,7.817346880732837,-0.15027285,-0.06078109,0.023518313,348.6856,-21.913576,-32.29306
764999484000.0,-4.696976969947206,2.8948133650263967,7.764108910349636,-0.14630222,-0.05497787,0.014660766,348.61777,-21.873947,-32.24806
765004734000.0,-4.686960394591095,2.8998216527044525,7.704009249028788,-0.14446963,-0.04642576,0.013439035,348.54718,-21.832712,-32.20621
765009590000.0,-4.66662200180116,2.9099908204945555,7.669641334690139,-0.15149458,-0.048258353,0.014660766,348.4696,-21.796864,-32.16704
765014565000.0,-4.6375317942098295,2.924535873664394,7.650248099216444,-0.13744467,-0.054367006,0.014660766,348.39218,-21.767118,-32.12934
765019465000.0,-4.618012265952535,2.9583154016345,7.642292,-0.12705997,-0.058643065,0.011911872,348.3198,-21.733498,-32.09597
765024520000.0,-4.604600808061686,3.007490529393296,7.642292,-0.111177474,-0.06963864,0.019547688,348.24625,-21.707243,-32.058052
765029568000.0,-4.598986719933589,3.050685473933797,7.650770658399917,-0.09621128,-0.059864793,0.02076942,348.1733,-21.68428,-32.02185
765034474000.0,-4.603862175158244,3.084813049610875,7.6702719702189475,-0.081855945,-0.06047566,0.025961773,348.10007,-21.66753,-31.979015
765039576000.0,-4.611670727056088,3.108112245248474,7.704990514210985,-0.08093964,-0.048563786,0.016493361,348.03308,-21.651077,-31.937674
765045360000.0,-4.623743965591398,3.1201855258064515,7.761332574193548,-0.08277224,-0.053145275,0.015271631,347.96466,-21.639923,-31.890757
765049507000.0,-4.632400210440279,3.1288418007846555,7.80172858435048,-0.080634214,-0.049480084,0.0030543262,347.90546,-21.630291,-31.84609
765054698000.0,-4.674226544962605,3.1283615235987683,7.853726509036516,-0.101098195,-0.044593163,-0.004276057,347.8457,-21.615786,-31.800755
765059510000.0,-4.722885116366037,3.124306614421469,7.9023849110778706,-0.12370021,-0.048258353,-0.009468411,347.7897,-21.599968,-31.756008
765064513000.0,-4.769687134896478,3.1142027069545213,7.9335141465227395,-0.14630222,-0.04642576,-0.034208454,347.74405,-21.57418,-31.710878
765069493000.0,-4.811885386533357,3.097323494425765,7.941953752787117,-0.17440203,-0.041233405,-0.049480084,347.69687,-21.543167,-31.66586
765074475000.0,-4.854613944532637,3.0730379595613577,7.943888596522193,-0.18906279,-0.03268129,-0.06078109,347.66138,-21.501276,-31.628748
765079598000.0,-4.900729612167101,3.016674205274151,7.918268834673629,-0.20769419,-0.030543262,-0.07086037,347.6297,-21.450993,-31.593527
765084469000.0,-4.939349708581038,2.960672334378911,7.890445286483104,-0.20555615,-0.03176499,-0.08032878,347.61078,-21.399797,-31.56496
765089622000.0,-4.966371316645807,2.8950482102628285,7.851842931664581,-0.22602014,-0.034513887,-0.077579886,347.59033,-21.34091,-31.536564
765094489000.0,-4.991893180890175,2.833066333283792,7.8153830712140175,-0.22204952,-0.03634648,-0.087659165,347.58884,-21.274328,-31.521767
765099464000.0,-5.016389884673241,2.786752959217784,7.782035107170316,-0.20799962,-0.03940081,-0.089186326,347.58347,-21.20927,-31.504549
765104708000.0,-5.041571690122012,2.744783429550393,7.748459395788066,-0.20219639,-0.048563786,-0.07849618,347.57758,-21.145647,-31.485031
765109494000.0,-5.054820860525744,2.7128806230719094,7.721550623071909,-0.15424347,-0.063224554,-0.079107046,347.59668,-21.080906,-31.474113
765115181000.0,-5.048904675537693,2.6892165008689988,7.697886500868998,-0.14966199,-0.07391469,-0.07544186,347.61072,-21.01194,-31.459986
765119457000.0,-5.044817831264539,2.6836651461896346,7.694494337470922,-0.106595986,-0.07941248,-0.0720821,347.64188,-20.95851,-31.449095
765124516000.0,-5.040309686554387,2.688173243826184,7.703510626891226,-0.092240654,-0.08307768,-0.06963864,347.6721,-20.901703,-31.435741
765129563000.0,-5.035579647663751,2.6892621666737786,7.729355675698741,-0.071776666,-0.09040806,-0.06841691,347.7099,-20.856863,-31.418383
765134520000.0,-5.030515406400683,2.6841979782910177,7.78506232959249,-0.061086524,-0.09254608,-0.064446285,347.74466,-20.815365,-31.40121
765139533000.0,-5.019751668646771,2.6798916335010987,7.846961325412916,-0.06047566,-0.093767814,-0.06261369,347.78238,-20.774345,-31.380816
765144582000.0,-5.002613665449777,2.676463989912809,7.915513338200893,-0.07513642,-0.080634214,-0.07666359,347.8208,-20.731506,-31.365587
765149446000.0,-4.9861036144396405,2.673161938335578,7.98155354224144,-0.080634214,-0.086437434,-0.08399397,347.8587,-20.691053,-31.338087
765154574000.0,-4.966130896778407,2.6664056587113625,8.008971778319546,-0.08857546,-0.07544186,-0.086437434,347.89395,-20.646389,-31.320036
765159530000.0,-4.945468023117109,2.658140509246844,8.013104439355681,-0.103847094,-0.07666359,-0.095294975,347.9346,-20.597849,-31.299484
765164475000.0,-4.920049180483676,2.6501074429262395,8.015787,-0.12308934,-0.05467244,-0.096516706,347.963,-20.543324,-31.275934
765169467000.0,-4.8853642574365175,2.6423997224909312,8.015787,-0.13194689,-0.046731193,-0.09682214,347.99454,-20.48798,-31.250013
765174525000.0,-4.850220759685611,2.634590097097944,8.015787,-0.1469131,-0.03970624,-0.1001819,348.0198,-20.421453,-31.229923
765179492000.0,-4.802995436240037,2.6258276204406936,7.980712556493202,-0.15790866,-0.040011674,-0.09590584,348.0414,-20.356869,-31.20948
765185074000.0,-4.747858570454759,2.615802683413033,7.935600680075011,-0.16065755,-0.039095376,-0.09162979,348.06155,-20.292166,-31.19183
765189565000.0,-4.698045616162115,2.6144683,7.876503829997041,-0.16829337,-0.034208454,-0.087964594,348.07614,-20.227856,-31.167284
765194487000.0,-4.642267479489202,2.6144683,7.806781401834138,-0.16920967,-0.03176499,-0.08399397,348.08823,-20.167124,-31.142225
765199480000.0,-4.586951714387429,2.6089474734839184,7.75005862764547,-0.16737708,-0.03726278,-0.07819075,348.097,-20.10962,-31.110992
765204829000.0,-4.528258838963908,2.600562776994844,7.695558100466487,-0.16615535,-0.044898596,-0.06078109,348.09964,-20.056074,-31.078497
765209645000.0,-4.478628299347804,2.5938820498828083,7.6528496394578625,-0.15118915,-0.044593163,-0.054367006,348.09003,-20.009424,-31.05066
765214489000.0,-4.436081610547234,2.589154694863956,7.624485311892387,-0.14172074,-0.0421497,-0.03970624,348.0723,-19.967375,-31.018826
765219449000.0,-4.411040505638983,2.571464228450301,7.621113442394524,-0.12705997,-0.04917465,-0.025961773,348.04764,-19.933285,-30.981567
765224503000.0,-4.430818327091633,2.522019649003984,7.680446648605577,-0.12461651,-0.047647487,-0.021685716,348.0193,-19.900513,-30.947052
765229493000.0,-4.471394376430249,2.460671587120714,7.754372481559417,-0.11178834,-0.04734206,-0.015882496,347.97906,-19.87464,-30.909338
765234483000.0,-4.552201156702678,2.37537544752466,7.85762554280883,-0.10934488,-0.047647487,-0.004886922,347.93546,-19.849285,-30.87122
765239512000.0,-4.620707890139451,2.2995734203958613,7.956983920728745,-0.09285152,-0.03726278,0.0030543262,347.88968,-19.816828,-30.83947
765244510000.0,-4.642239669842555,2.26081650471435,8.038804215951417,-0.08093964,-0.033292156,0.016187929,347.83945,-19.787561,-30.804394
765249867000.0,-4.664810158390164,2.218802015867832,8.125356051484006,-0.06841691,-0.030543262,0.020158553,347.80396,-19.746275,-30.775305
765254798000.0,-4.6784178901642495,2.1734430678321006,8.1888584840073,-0.05681047,-0.026572637,0.026572637,347.76257,-19.711327,-30.74602
765259522000.0,-4.691454378686005,2.1299882573431947,8.249695127941601,-0.05222898,-0.025045475,0.034513887,347.72476,-19.667004,-30.712759
765264488000.0,-4.707040378488565,2.086437708949288,8.287618277427908,-0.052534413,-0.013744468,0.035124753,347.68488,-19.625452,-30.68348
765269444000.0,-4.7227721056347365,2.0431753771627443,8.323014992045078,-0.047647487,-0.010079277,0.03940081,347.6418,-19.58924,-30.651558
765274521000.0,-4.721471846424338,2.007447004994073,8.362234917423942,-0.035430185,-0.010995574,0.045814894,347.604,-19.549458,-30.61509
765279491000.0,-4.702666356104307,1.9811193185460287,8.403607074674042,-0.024129177,-0.0030543262,0.05681047,347.56134,-19.51317,-30.581308
765284882000.0,-4.682389052183004,1.9518270907912345,8.445906951154234,-0.028099801,-0.004581489,0.069027774,347.52545,-19.468248,-30.543304
765289533000.0,-4.667486985212446,1.9108469026095685,8.427279610572098,-0.013133603,0.0012217305,0.073303826,347.48615,-19.43221,-30.509377
765294544000.0,-4.651431457887253,1.866694736843426,8.407210463365676,-0.004581489,-0.005497787,0.08582657,347.44208,-19.390608,-30.461643
765304754000.0,-4.667375479065711,1.8181583578794336,8.353611829327388,0.004276057,0.008246681,0.10842858,347.38965,-19.356075,-30.419807
765309497000.0,-4.68569242,1.7978060545,8.324304309999999,0.027183503,0.025045475,0.11881329,347.33707,-19.328062,-30.37757
765314549000.0,-4.7098834168,1.77361500718,8.2904367124,0.036957346,0.027488936,0.12736541,347.2783,-19.296036,-30.335743
765319461000.0,-4.735653033903669,1.7740383071704084,8.262455117693602,0.04886922,0.029626964,0.13713925,347.21655,-19.270866,-30.303322
765324497000.0,-4.7642725656216,1.7978880082484423,8.238605466422708,0.06536258,0.036651913,0.15454891,347.14902,-19.252163,-30.271273
765329499000.0,-4.788196251032064,1.884972785961924,8.205395491833666,0.07513642,0.043982297,0.15821409,347.0918,-19.233877,-30.245249
765334534000.0,-4.807522629338678,2.0395835601603207,8.161911102805611,0.09132435,0.046120327,0.1572978,347.0306,-19.223385,-30.218422
765339495000.0,-4.821240111988483,2.1472704006980194,8.132073168833434,0.105374254,0.04337143,0.16554448,346.97195,-19.219978,-30.195219
765344532000.0,-4.82965789224326,2.210404082226681,8.115237388578658,0.105068825,0.05009095,0.16340645,346.9157,-19.215244,-30.176384
765349527000.0,-4.833812434718847,2.273326719450264,8.099502977792676,0.12522738,0.050701816,0.15302174,346.85306,-19.240282,-30.158932
765354442000.0,-4.821978829799715,2.336439141724629,8.087669578815051,0.13255776,0.0711658,0.14996742,346.7864,-19.262173,-30.14795
765359391000.0,-4.810063364744825,2.3999881504399565,8.075754321126288,0.12889257,0.0729984,0.1469131,346.72827,-19.287384,-30.135399
765364367000.0,-4.788735349815203,2.458527360443512,8.06571918269903,0.1386664,0.07147124,0.1441642,346.6699,-19.316263,-30.127512
765369744000.0,-4.763016413844771,2.5202528067725503,8.055431393467185,0.13316862,0.08124508,0.13347405,346.61426,-19.337984,-30.124136
765374420000.0,-4.744170106034395,2.578661708914216,8.065721474000203,0.13225232,0.09407325,0.124311075,346.55493,-19.369991,-30.118946
765379402000.0,-4.724749583596214,2.6417787870662464,8.080287246056782,0.12064589,0.09743301,0.11636983,346.49966,-19.395514,-30.114714
765384361000.0,-4.733068076592991,2.672279028872959,8.067222054709278,0.11942416,0.10445796,0.10873401,346.4458,-19.431181,-30.10672
765389357000.0,-4.74735885504779,2.696097075866189,8.048167467891277,0.10629055,0.1142318,0.099265605,346.39523,-19.458475,-30.1014
765394368000.0,-4.776985667349362,2.69681816753735,8.017628212872266,0.10873401,0.11575896,0.099265605,346.33295,-19.497541,-30.091553
765399347000.0,-4.810010373820125,2.6921003593647965,7.984603604927278,0.100792766,0.12736541,0.10751228,346.2698,-19.529387,-30.086973
765404667000.0,-4.840848826224728,2.675272788335925,7.934002660381027,0.0870483,0.1255328,0.10293079,346.21777,-19.558779,-30.083174
765409447000.0,-4.8675461576788495,2.657474536391913,7.885057374611198,0.08552113,0.12186762,0.098043874,346.16336,-19.58916,-30.080835
765414392000.0,-4.904138252183018,2.645389640875301,7.849977384064496,0.09407325,0.12614368,0.09162979,346.1187,-19.62325,-30.084497
765419398000.0,-4.944294380944404,2.6353506479949744,7.8198603530101565,0.087964594,0.12583824,0.087964594,346.07684,-19.651876,-30.086012
765424425000.0,-4.939936112623646,2.6298643185586434,7.777097977955723,0.08093964,0.116675265,0.080634214,346.0426,-19.674297,-30.102142
765429399000.0,-4.926473605586434,2.62537675373528,7.732222798304286,0.07513642,0.122478485,0.08032878,346.00647,-19.695229,-30.121088
765434390000.0,-4.927949600698846,2.632251451048269,7.694287289728588,0.071776666,0.118507855,0.07788532,345.97186,-19.71407,-30.149782
765441407000.0,-4.938871168324395,2.648633802486592,7.645140121371688,0.07360926,0.105068825,0.08093964,345.93726,-19.732904,-30.175856
765444424000.0,-4.940298821518987,2.663443341772152,7.630048070886076,0.07880162,0.105374254,0.080634214,345.89975,-19.750149,-30.210339
765449418000.0,-4.934941306205892,2.7063035202195587,7.6193331521451775,0.08124508,0.11209377,0.07727446,345.86423,-19.766586,-30.241917
765454424000.0,-4.945931525560819,2.753177528572705,7.609596932558762,0.08093964,0.10262536,0.082161374,345.82306,-19.788906,-30.276531
765459551000.0,-4.976649307534186,2.805836707757619,7.600820227044418,0.08857546,0.09743301,0.0852157,345.78342,-19.812202,-30.3133
765464516000.0,-5.003635017002237,2.8590732434004478,7.598949640715884,0.08735373,0.100792766,0.08155051,345.73624,-19.839222,-30.350718
765469541000.0,-5.02235826182278,2.919923740190643,7.617672983289563,0.08827003,0.10415252,0.08032878,345.68958,-19.868402,-30.384949
765474488000.0,-5.039243859614978,2.9798718806854243,7.640089580706579,0.07544186,0.10751228,0.06811147,345.64395,-19.899282,-30.427105
765479507000.0,-5.049412351491433,3.0408824072350327,7.680763229680559,0.07788532,0.0983493,0.06688975,345.59827,-19.93432,-30.464361
765484525000.0,-5.056554,3.096411393339245,7.719191343836831,0.076358154,0.09193522,0.061391957,345.55472,-19.970324,-30.502506
765489508000.0,-5.056554,3.138729824022071,7.752105656990836,0.070249505,0.09437868,0.06291912,345.51108,-20.00537,-30.538675
765494683000.0,-5.054370394110057,3.17538195772296,7.776367,0.07147124,0.0888809,0.0580322,345.4661,-20.046047,-30.568731
765499653000.0,-5.047145013768501,3.193445219962049,7.776367,0.06505715,0.0842994,0.046731193,345.4239,-20.081146,-30.599146
765504495000.0,-5.040105719681215,3.21104327142315,7.776367,0.05955936,0.08552113,0.04428773,345.36963,-20.122097,-30.62721
765510244000.0,-5.033997915789474,3.211002467105263,7.769562502631579,0.05497787,0.09285152,0.043676864,345.31976,-20.15881,-30.65574
765514497000.0,-5.030276229897661,3.2035591341831138,7.762119208570906,0.040317107,0.09254608,0.04184427,345.27347,-20.189873,-30.68201
765519461000.0,-5.021614139633964,3.184165225812581,7.755143889768977,0.03756821,0.09712757,0.03970624,345.22647,-20.22865,-30.70461
765524487000.0,-5.007172796459646,3.1504687584058404,7.750330209240924,0.028099801,0.09437868,0.032986723,345.18393,-20.259943,-30.725155
765529563000.0,-5.005669908554095,3.11407743140546,7.73886774281092,0.03726278,0.0888809,0.032070424,345.13678,-20.295847,-30.747063
765534472000.0,-5.019930528736097,3.0760490116481294,7.719853483296259,0.03940081,0.08979719,0.03176499,345.09238,-20.325693,-30.769773
765539507000.0,-5.03103785444541,3.038929027772951,7.698079009441066,0.024740042,0.0711658,0.039095376,345.04684,-20.352175,-30.784817
765544485000.0,-5.037941027106863,3.004413164465682,7.673917905125978,0.032375857,0.06658431,0.028099801,345.00635,-20.380524,-30.805151
765549512000.0,-5.044912149840719,2.969557550796409,7.649518975557487,0.028710667,0.06811147,0.02687807,344.96487,-20.40048,-30.826757
765554526000.0,-5.050149533126586,2.933853598139273,7.642292,0.034208454,0.06291912,0.024129177,344.9298,-20.421724,-30.846106
765559564000.0,-5.05468378047176,2.8975804242458416,7.642292,0.04428773,0.06627888,0.033292156,344.8911,-20.444147,-30.866102
765564522000.0,-5.061264254632397,2.856712279822389,7.637581696183076,0.04917465,0.057726767,0.02443461,344.86673,-20.460157,-30.888573
765569473000.0,-5.0693616402869095,2.81217610912817,7.629484225975578,0.055588737,0.06078109,0.026572637,344.83508,-20.481441,-30.911842
765574454000.0,-5.077746474995165,2.7630004643879325,7.63843146246374,0.06505715,0.04795292,0.023518313,344.80975,-20.499022,-30.933365
765579921000.0,-5.087871473177335,2.6921254242506283,7.714368948830013,0.07269296,0.05467244,0.028405234,344.77908,-20.518692,-30.95883
765584527000.0,-5.102068543374039,2.6431987,7.769673402297602,0.08735373,0.049480084,0.029626964,344.75674,-20.534761,-30.983377
765589544000.0,-5.145530376436001,2.6431987,7.7870580447580275,0.0888809,0.039095376,0.092240654,344.7147,-20.559452,-30.999731
765594816000.0,-5.190208047807968,2.643093337639607,7.805624411801967,0.0842994,0.06963864,0.093462385,344.6896,-20.571028,-31.02443
765599470000.0,-5.160489282630438,2.635663694832472,7.84277262583764,0.07727446,0.07360926,0.07941248,344.65594,-20.589058,-31.0336
765604497000.0,-5.128388674004,2.627638595049175,7.882898124754126,0.09285152,0.062308256,0.06505715,344.63083,-20.608997,-31.048717
765609517000.0,-5.100889397465848,2.608294774727777,7.9244909371510595,0.11026118,0.062308256,0.058337633,344.60632,-20.626064,-31.067972
765614494000.0,-5.077298161274995,2.5799851434963377,7.966955113027123,0.103847094,0.07849618,0.049785517,344.58676,-20.637966,-31.089924
765619475000.0,-5.052328067514641,2.571184956259151,7.9985589225018305,0.09468412,0.073303826,0.05497787,344.55838,-20.658806,-31.092684
765624490000.0,-5.0259586578330895,2.579974973645681,8.020533644729136,0.11178834,0.07574729,0.05222898,344.53247,-20.681025,-31.103277
765629591000.0,-5.003548733998624,2.5942734136269787,8.029819644872678,0.09865474,0.06780604,0.054061573,344.5061,-20.695381,-31.096455
765634473000.0,-4.98975831997837,2.617257356995379,8.016028990856356,0.106595986,0.06872234,0.058948494,344.47873,-20.718182,-31.09256
765641348000.0,-4.982342537295143,2.6456371864757124,7.989388814210836,0.10323623,0.059864793,0.064446285,344.4447,-20.734194,-31.080055
765644661000.0,-4.984684773999705,2.657348369998524,7.972993230651115,0.10354166,0.056505036,0.07788532,344.40652,-20.754341,-31.067808
765649508000.0,-4.988111523564152,2.674482117820759,7.949006091045327,0.10720685,0.055283304,0.08093964,344.37036,-20.778477,-31.050905
765654533000.0,-4.975240383218842,2.70434743703631,7.87921387933268,0.10354166,0.05100725,0.087659165,344.3306,-20.802694,-31.030666
765659513000.0,-4.951838781648675,2.741789950677134,7.780927201609421,0.10842858,0.06505715,0.089186326,344.2899,-20.828535,-31.01551
765664465000.0,-4.925380051983955,2.7836595953693206,7.7519905467864305,0.10873401,0.0693332,0.0888809,344.2456,-20.85446,-31.00408
765669471000.0,-4.896114313290312,2.8296487006278888,7.777075552978111,0.11056661,0.08246681,0.07788532,344.20184,-20.879446,-30.999777
765674467000.0,-4.865663937124369,2.8757450872972257,7.803335394202642,0.1301143,0.09132435,0.07147124,344.15524,-20.909775,-31.005547
765679500000.0,-4.831482545829271,2.922744455713146,7.833244022356174,0.13408493,0.09712757,0.06780604,344.11075,-20.93465,-31.014502
765684560000.0,-4.797786844679497,2.969196911651026,7.8625584,0.12583824,0.090713486,0.06078109,344.05942,-20.962706,-31.016693
765689543000.0,-4.7901963890726895,2.984377862494035,7.8625584,0.13408493,0.098043874,0.061086524,344.0055,-20.99514,-31.02314
765695436000.0,-4.781219757547319,3.002331172411325,7.8625584,0.13958271,0.09437868,0.059253927,343.9501,-21.024296,-31.016798
765699483000.0,-4.78084957636922,3.009140155246545,7.86458123412387,0.13622294,0.087964594,0.06352998,343.89334,-21.053228,-31.010708
765704534000.0,-4.784976211482682,3.0132667472700905,7.868707783057498,0.14080444,0.09162979,0.06078109,343.8396,-21.082884,-31.007235
765709503000.0,-4.794020263809957,3.0116389243009776,7.865956571538986,0.13897185,0.09315695,0.06688975,343.77908,-21.115461,-30.99833
765714481000.0,-4.830144618132909,2.979127080851709,7.8262198572251265,0.13591751,0.102319926,0.06352998,343.72202,-21.145676,-30.993793
765719481000.0,-4.866428622073198,2.946471553080245,7.786307528665605,0.13408493,0.09896017,0.058643065,343.66998,-21.178068,-30.98211
765724482000.0,-4.907799203474903,2.918689148262548,7.747888237220077,0.12003502,0.10048734,0.058643065,343.6167,-21.205854,-30.97392
765729514000.0,-4.95431508918919,2.895431205405405,7.710675528648649,0.12889257,0.10140363,0.058948494,343.5665,-21.236834,-30.965311
765734471000.0,-4.987714089634033,2.8729007629574586,7.662964855099387,0.1160644,0.09896017,0.065973446,343.5223,-21.259035,-30.969048
765739525000.0,-5.005697053483188,2.850422058146015,7.600024293851012,0.12003502,0.10170906,0.0693332,343.47928,-21.285902,-30.974445
765744501000.0,-5.023656766052631,2.8333824587719296,7.5561004,0.11484267,0.08827003,0.07452556,343.44995,-21.305744,-30.983082
765749713000.0,-5.043116575760234,2.8285174174463936,7.5561004,0.105374254,0.08460484,0.07788532,343.41928,-21.325008,-30.99429
765754539000.0,-5.065129071515447,2.828969161688154,7.554194844028217,0.10995574,0.07971791,0.08979719,343.39053,-21.351059,-31.00925
765759505000.0,-5.099834699181059,2.844393961153004,7.546482544960674,0.119729586,0.07727446,0.099571034,343.3624,-21.375559,-31.023205
765765828000.0,-5.143434989251968,2.864569271275591,7.537084993527559,0.124311075,0.08368854,0.09621128,343.34183,-21.399693,-31.037184
765769470000.0,-5.157166906496062,2.886540109448819,7.539831290944882,0.129198,0.0693332,0.10476339,343.3188,-21.428743,-31.042192
765774498000.0,-5.176124643976378,2.916872172692913,7.543622719669291,0.13897185,0.058948494,0.1133155,343.29645,-21.462364,-31.05815
765779523000.0,-5.202642131376447,2.9568974123589125,7.544921914701498,0.14263703,0.05467244,0.11453723,343.27582,-21.4948,-31.071438
765784527000.0,-5.253670321026478,3.02833699864414,7.538118151345213,0.14172074,0.059864793,0.121256754,343.252,-21.52954,-31.0825
765789517000.0,-5.304555745957265,3.0995767139845247,7.531333423298077,0.15302174,0.061086524,0.115453534,343.23138,-21.566626,-31.09791
765794491000.0,-5.348505474443528,3.163544795764633,7.53143402126958,0.14569137,0.06078109,0.12003502,343.20612,-21.60053,-31.111778
765799729000.0,-5.384690856636438,3.2204074852328937,7.541772701896126,0.14508049,0.06414085,0.12370021,343.1832,-21.636374,-31.127352
765804518000.0,-5.390953706652127,3.2589757520174483,7.540304380697928,0.14355333,0.06352998,0.1282817,343.16614,-21.680054,-31.148294
765809524000.0,-5.369170054889131,3.2851161341330424,7.527234098655035,0.14110987,0.06291912,0.1328632,343.14865,-21.722427,-31.16915
765814473000.0,-5.3361705124613605,3.280567789103555,7.521492564316074,0.13988814,0.05467244,0.13469578,343.12476,-21.768402,-31.195337
765819471000.0,-5.271438397894126,3.19271693114374,7.5353638489760435,0.13652839,0.051618114,0.14049901,343.0989,-21.813078,-31.220879
765824473000.0,-5.216414282974498,3.144622782681856,7.54455979548495,0.12583824,0.051923547,0.16737708,343.0628,-21.864105,-31.237959
765829488000.0,-5.201355393185619,3.2600740264632107,7.534520570568562,0.106901415,0.076358154,0.17654006,343.0286,-21.90877,-31.26144
765834457000.0,-5.185757842430587,3.344741528784706,7.528587939827037,0.09682214,0.07086037,0.16401732,342.99377,-21.945593,-31.266058
765839548000.0,-5.168004364487938,3.3536182677560307,7.533026402002731,0.0983493,0.05589417,0.15760323,342.9535,-21.98177,-31.272215
765844525000.0,-5.1492577144,3.3629915848,7.536947,0.09315695,0.058643065,0.16829337,342.90454,-22.030024,-31.272827
765849484000.0,-5.11759671442,3.37882200214,7.536947,0.086132,0.06261369,0.16646078,342.86465,-22.073477,-31.272278
765854547000.0,-5.085271720893333,3.39498441452,7.536947,0.07391469,0.055283304,0.16065755,342.82358,-22.12173,-31.25956
765859541000.0,-5.056554,3.408235008943153,7.535100008476553,0.0720821,0.046731193,0.16065755,342.7822,-22.169662,-31.247292
765864534000.0,-5.056554,3.3970793679213003,7.516507208725406,0.06536258,0.04184427,0.14630222,342.74857,-22.20873,-31.236893
765869503000.0,-5.056554,3.38597734904736,7.498003779531845,0.067500606,0.051923547,0.13347405,342.705,-22.25609,-31.218864
765874460000.0,-5.069551282619469,3.371948014761062,7.495561573451328,0.071776666,0.058337633,0.12675454,342.66623,-22.299458,-31.200254
765879502000.0,-5.095189897238938,3.354855545522124,7.508380746902655,0.0852157,0.07086037,0.12736541,342.62778,-22.343155,-31.186935
765884488000.0,-5.124313336557789,3.3345816576633163,7.520367721105527,0.079107046,0.067500606,0.116980694,342.5914,-22.38599,-31.175844
765889537000.0,-5.164810471199749,3.304208846325377,7.530492150125628,0.07391469,0.081855945,0.10445796,342.55225,-22.430315,-31.172895
765894483000.0,-5.199906176821146,3.277887113573582,7.5404257008343265,0.08307768,0.086132,0.1020145,342.5182,-22.473501,-31.170341
765899654000.0,-5.227682491726846,3.2570549408399354,7.550841660309892,0.09101892,0.09712757,0.09987647,342.4857,-22.511908,-31.174673
765904988000.0,-5.256334370223655,3.2355660974128866,7.5615859511323,0.076358154,0.0888809,0.093767814,342.4563,-22.5438,-31.184298
765909492000.0,-5.287757958055435,3.201741385491555,7.555420047747943,0.07360926,0.07666359,0.09590584,342.42514,-22.580101,-31.194502
765914497000.0,-5.329275289259419,3.1498445860112603,7.534661436336076,0.07147124,0.0711658,0.09010262,342.3994,-22.609701,-31.205746
765919465000.0,-5.357261321555633,3.1289352365015697,7.505924915940007,0.080634214,0.06291912,0.08399397,342.3873,-22.6359,-31.214622
765924502000.0,-5.378292948744332,3.124728849572724,7.47227417188699,0.071776666,0.03359759,0.08979719,342.37802,-22.657463,-31.2157
765929471000.0,-5.3846215580604,3.1095781429604425,7.4507556,0.080634214,0.031154128,0.09315695,342.3715,-22.679398,-31.234087
765934504000.0,-5.364119736388771,3.0736997141960867,7.4507556,0.08460484,0.018325957,0.10262536,342.36786,-22.699314,-31.240578
765939534000.0,-5.344331934643104,3.0550013,7.4507556,0.098043874,0.0033597588,0.10567969,342.3655,-22.727802,-31.25349
765944531000.0,-5.325433713792082,3.0550013,7.4507556,0.10140363,0.009162978,0.099265605,342.3626,-22.753895,-31.268242
765949520000.0,-5.30239014589249,3.057124246127485,7.45712450488593,0.10629055,-0.002443461,0.10048734,342.3604,-22.77583,-31.275793
765954514000.0,-5.274292600215412,3.061807105209047,7.471173228826005,0.10140363,-0.0033597588,0.10598512,342.35687,-22.795145,-31.287617
765959513000.0,-5.253773051919634,3.074312982017108,7.497008817187189,0.11301007,-0.009773844,0.10567969,342.35217,-22.82009,-31.293568
765964519000.0,-5.244236308235528,3.098155115078576,7.539924288243485,0.12644911,-0.004581489,0.10048734,342.3462,-22.843596,-31.302094
765969492000.0,-5.231065403149995,3.121772421062506,7.580573310358448,0.13408493,-0.0033597588,0.096516706,342.33163,-22.873552,-31.302187
765974571000.0,-5.211853171610546,3.1457877104868173,7.618998074355683,0.13316862,-0.007330383,0.09712757,342.318,-22.90349,-31.30243
765979514000.0,-5.188209430645161,3.1672015823348696,7.645719641167435,0.13622294,-0.014049901,0.10140363,342.3013,-22.936281,-31.295849
765984480000.0,-5.156247814112904,3.1854651725038403,7.654851436251921,0.13194689,-0.010995574,0.10048734,342.28577,-22.965273,-31.291594
765989474000.0,-5.125417039586128,3.2025289936961103,7.662737431232037,0.13255776,-0.016493361,0.099571034,342.26495,-23.000868,-31.274519
765994527000.0,-5.097600560203104,3.2164372817972797,7.667373527265759,0.13591751,-0.022602014,0.105068825,342.24283,-23.035835,-31.257795
765999498000.0,-5.068509044636492,3.232525587004429,7.66999406045155,0.1386664,-0.030543262,0.10415252,342.2179,-23.071127,-31.234777
766004399000.0,-5.033016952446797,3.257877104115804,7.6649237464405315,0.14202617,-0.029321533,0.09987647,342.19263,-23.106447,-31.212927
766009501000.0,-5.00365132014858,3.285305177170967,7.666464262383295,0.15943582,-0.028405234,0.10903945,342.15704,-23.146887,-31.186531
766014364000.0,-4.989624975253489,3.3133579157815483,7.680490558457986,0.16554448,-0.03176499,0.110872045,342.12616,-23.182335,-31.161552
766019356000.0,-4.983042188509963,3.3358316047090315,7.693278704709032,0.16401732,-0.030848695,0.1151481,342.081,-23.227886,-31.132765
766024388000.0,-4.9925971019629225,3.3453865680479824,7.702833668047982,0.17440203,-0.029321533,0.12858713,342.03406,-23.277859,-31.102604
766029367000.0,-5.003043746972639,3.357150148879082,7.7093296,0.17256944,-0.03145956,0.13072516,341.98346,-23.324871,-31.071043
766034358000.0,-5.015699830503089,3.3740248828684907,7.7093296,0.18081611,-0.042455133,0.13530666,341.93048,-23.377504,-31.03632
766040768000.0,-5.033738882870415,3.403499436458432,7.701935246411982,0.17959438,-0.050396383,0.13164146,341.87485,-23.425133,-31.007393
766044370000.0,-5.046819035908617,3.432929780794388,7.685585055114229,0.18112154,-0.05467244,0.13713925,341.8175,-23.475792,-30.975515
766049346000.0,-5.064888675419471,3.4735864696938097,7.662998005725662,0.18661933,-0.06291912,0.13194689,341.76413,-23.52468,-30.947601
766054508000.0,-5.078513728677457,3.517657981793794,7.636679428847358,0.18417588,-0.058337633,0.122783914,341.71024,-23.570566,-30.922306
766059557000.0,-5.091485184422784,3.560896257909327,7.610736607654475,0.19914207,-0.060170226,0.11911872,341.65973,-23.620249,-30.893953
766064407000.0,-5.087551002201835,3.594078993394495,7.585709776513761,0.1994475,-0.06078109,0.11178834,341.61508,-23.66957,-30.8714
766069387000.0,-5.077255812995142,3.62496456101457,7.559971480992984,0.19333886,-0.05467244,0.10629055,341.5714,-23.718819,-30.850952
766074438000.0,-5.057562683361226,3.625980856672245,7.530697872491852,0.18234327,-0.040317107,0.09743301,341.53033,-23.765654,-30.841324
766079413000.0,-5.036579427834052,3.6217842055668106,7.501321402395843,0.183565,-0.028710667,0.09743301,341.48892,-23.812832,-30.83239
766084406000.0,-5.014052588967761,3.614524664083605,7.458767094942325,0.18478674,-0.02565634,0.09040806,341.44412,-23.863428,-30.827574
766089886000.0,-4.98818215891748,3.6041764704525288,7.401851921916593,0.18020524,-0.02107485,0.0870483,341.3976,-23.911749,-30.825603
766094417000.0,-4.964700158223026,3.6008794,7.378638219407676,0.1740966,-0.014049901,0.0842994,341.35016,-23.962585,-30.824223
766099407000.0,-4.937395197552614,3.6008794,7.369536565850871,0.18142697,-0.017715093,0.08032878,341.30643,-24.012997,-30.82191
766104513000.0,-4.908779916965743,3.5852236304456087,7.374349230428436,0.19639318,-0.009468411,0.08032878,341.26263,-24.063969,-30.824457
766109518000.0,-4.8799721820554645,3.552300468000344,7.394926153241178,0.19517145,-0.023823744,0.07971791,341.22565,-24.110449,-30.820955
766114496000.0,-4.854229310125464,3.535775926559463,7.425171235412617,0.20189096,-0.035430185,0.083383106,341.1852,-24.170336,-30.809887
766119468000.0,-4.845815173175473,3.615710732779643,7.513520310372857,0.20922135,-0.046120327,0.086132,341.14862,-24.227903,-30.795992
766124593000.0,-4.8371421136684924,3.6981053188372495,7.604588091783,0.20250183,-0.05100725,0.09285152,341.10352,-24.282526,-30.774647
766129513000.0,-4.864106896794811,3.7419920492339513,7.629458504878277,0.20830505,-0.0711658,0.09162979,341.06525,-24.33913,-30.748116
766134459000.0,-4.895272182535952,3.782061762101701,7.647267359131497,0.19425514,-0.07727446,0.0888809,341.02518,-24.388449,-30.723825
766139608000.0,-4.935277358006129,3.788865142118368,7.651869,0.17745635,-0.0852157,0.09010262,340.97348,-24.450596,-30.679276
766144590000.0,-4.976400232608696,3.7842959391304345,7.651869,0.16432275,-0.07788532,0.07238753,340.92792,-24.504658,-30.64125
766149505000.0,-5.000168370445615,3.788164704740406,7.641216846133266,0.15882497,-0.067500606,0.057726767,340.88123,-24.554512,-30.609194
766154523000.0,-5.016239353457069,3.796200301128668,7.625145737262771,0.14294247,-0.06872234,0.04062254,340.84213,-24.593927,-30.579721
766160427000.0,-5.020966838923093,3.799706831910675,7.597562862026505,0.122783914,-0.052534413,0.013744468,340.80853,-24.627916,-30.567577
766164490000.0,-5.0087857249504335,3.7956463757904624,7.56914009316498,0.102319926,-0.04795292,0.0030543262,340.77805,-24.656681,-30.55281
766169467000.0,-4.989419145303601,3.784353840389999,7.520726642919201,0.08277224,-0.050396383,-0.015577064,340.76114,-24.683323,-30.543497
766174497000.0,-4.961518062090936,3.761102897248769,7.446323721980886,0.09132435,-0.045814894,-0.03268129,340.7456,-24.709373,-30.538628
766179462000.0,-4.935906633246686,3.73651546654536,7.38871444268261,0.08460484,-0.04520403,-0.045814894,340.7325,-24.730888,-30.533817
766184472000.0,-4.915119973511827,3.707414142916559,7.372085028073824,0.08002335,-0.032986723,-0.048258353,340.7191,-24.753067,-30.53412
766189901000.0,-4.892328531228669,3.676925892491468,7.353567831228669,0.071776666,-0.022907447,-0.063224554,340.71564,-24.769493,-30.540466
766194492000.0,-4.868881918174061,3.6675472472696247,7.330121218174061,0.074830994,-0.026572637,-0.06841691,340.7107,-24.788038,-30.545338
766199517000.0,-4.844436604739063,3.660243800306984,7.309959000460475,0.06719518,-0.02443461,-0.059253927,340.70102,-24.800886,-30.553574
766204540000.0,-4.830592370577514,3.67870284343822,7.337647565157329,0.08246681,-0.021991149,-0.055283304,340.69516,-24.81781,-30.562233
766209934000.0,-4.819050560194251,3.69779733611655,7.366864264228088,0.077579886,-0.028099801,-0.06169739,340.69464,-24.830072,-30.563648
766214485000.0,-4.836119572804888,3.708038743682932,7.387347008067675,0.08735373,-0.029626964,-0.060170226,340.68985,-24.850756,-30.565187
766219479000.0,-4.854850104331479,3.719277062598888,7.40982356766664,0.08368854,-0.043066,-0.056505036,340.68646,-24.867098,-30.55705
766224498000.0,-4.876938642001941,3.7420666988027182,7.455402847395103,0.0720821,-0.058337633,-0.055283304,340.68417,-24.883108,-30.548439
766229475000.0,-4.902644463164707,3.77805484843059,7.527379254017905,0.0720821,-0.052839845,-0.06169739,340.68204,-24.899775,-30.542559
766234600000.0,-4.9248145889637405,3.795393624985139,7.562056725579552,0.06688975,-0.055283304,-0.06261369,340.6777,-24.916517,-30.531567
766240274000.0,-4.946347570735091,3.800777010957004,7.572823272676838,0.06719518,-0.049480084,-0.06383542,340.6733,-24.932896,-30.525286
766244486000.0,-4.963712162939867,3.796991082601336,7.590257847750557,0.051618114,-0.051618114,-0.07147124,340.6753,-24.944569,-30.510555
766249476000.0,-4.984998680534521,3.788476386654789,7.615801757772829,0.049480084,-0.046731193,-0.07269296,340.6751,-24.957607,-30.502005
766254526000.0,-4.990256147236022,3.779303858894409,7.630947666356622,0.038789943,-0.036957346,-0.07574729,340.67725,-24.963099,-30.49584
766259515000.0,-4.9650058273966815,3.769203730958672,7.625897707853293,0.03634648,-0.041233405,-0.08002335,340.68158,-24.96938,-30.488035
766264482000.0,-4.945076549071341,3.759596685150967,7.612917527497857,0.024740042,-0.03359759,-0.077579886,340.684,-24.968637,-30.486073
766269468000.0,-4.931432461462997,3.750500595085246,7.590177112372607,0.03145956,-0.029932396,-0.074830994,340.68875,-24.970999,-30.482794
766274478000.0,-4.920829606113148,3.746180511106708,7.56865759001288,0.016187929,-0.027183503,-0.0711658,340.6923,-24.96003,-30.47992
766279497000.0,-4.916067349370851,3.750942817576538,7.549608463588625,0.016493361,-0.018325957,-0.064446285,340.69238,-24.955446,-30.478767
766284439000.0,-4.912902,3.7541082,7.52325120615415,0.013744468,-0.014049901,-0.06047566,340.695,-24.947218,-30.475655
766289604000.0,-4.912902,3.7541082,7.479204646245177,0.0106901415,-0.01282817,-0.061086524,340.69592,-24.939484,-30.47377
766294484000.0,-4.915336192443823,3.760193738299449,7.44101875397152,0.018936822,-0.013744468,-0.044898596,340.69272,-24.9407,-30.467678
766299709000.0,-4.923573663634867,3.780787609811507,7.408068611161412,0.023823744,-0.027183503,-0.044593163,340.69608,-24.937805,-30.461191
766305352000.0,-4.932966256969806,3.8031308462122575,7.371408733845597,0.023518313,-0.03756821,-0.034513887,340.6936,-24.93788,-30.457802
766309512000.0,-4.947372146682335,3.82113820835292,7.328191139920448,0.03145956,-0.030848695,-0.027183503,340.69128,-24.940609,-30.455788
766314505000.0,-4.964662677291629,3.842751371614536,7.276319638365575,0.03390302,-0.04337143,-0.02321288,340.69855,-24.950914,-30.443865
766319471000.0,-4.964298975007152,3.871099326671117,7.210709926690187,0.04642576,-0.04184427,-0.015882496,340.69946,-24.966763,-30.43596
766324513000.0,-4.955090149280061,3.903330048440927,7.137039513187756,0.060170226,-0.04153884,-0.011911872,340.70248,-24.983105,-30.424988
766329524000.0,-4.948417246848485,3.9392482584242425,7.089239706181818,0.07238753,-0.043676864,-0.0061086523,340.70865,-25.00361,-30.421309
766334560000.0,-4.943545705313132,3.9782209976565657,7.060010151757576,0.0870483,-0.055283304,0.005497787,340.7137,-25.028816,-30.414244
766339493000.0,-4.934066978622349,4.006137312849759,7.086356443878096,0.10293079,-0.051618114,0.017104227,340.71365,-25.064596,-30.415424
766344502000.0,-4.92124305483871,4.027510593548387,7.150476464516129,0.121256754,-0.06811147,0.02443461,340.71722,-25.104347,-30.407993
766349633000.0,-4.916137727022639,4.0414124,7.227775183079282,0.12370021,-0.070249505,0.025045475,340.71347,-25.152925,-30.40427
766354565000.0,-4.924658071750699,4.0414124,7.321499464417786,0.12889257,-0.07880162,0.02687807,340.71185,-25.20596,-30.394213
766359533000.0,-4.942420640952119,4.0369058251612016,7.415490028371519,0.112704635,-0.07849618,0.022907447,340.70517,-25.256046,-30.375557
766364493000.0,-5.017363934133626,4.004321843819453,7.5067253122238995,0.09132435,-0.07666359,0.0125227375,340.70172,-25.3034,-30.356752
766369475000.0,-5.092639637083276,3.9715933367540126,7.59836526870627,0.06383542,-0.070554934,-0.0061086523,340.6992,-25.342964,-30.329496
766374481000.0,-5.1662932441886165,3.9335362483698657,7.657982832639528,0.052839845,-0.076052725,-0.016798794,340.69937,-25.379498,-30.301266
766379563000.0,-5.233528413096335,3.875265768649844,7.595229914717259,0.04550946,-0.069027774,-0.035124753,340.70428,-25.405066,-30.28233
766384692000.0,-5.297014184309735,3.8173330703539823,7.531747560353982,0.043676864,-0.06169739,-0.049785517,340.7196,-25.416965,-30.268665
766389523000.0,-5.309297023185841,3.772295752212389,7.470333152212389,0.034513887,-0.04886922,-0.07544186,340.74112,-25.420393,-30.262857
766394532000.0,-5.322032427849557,3.725599017256637,7.406655907256638,0.03359759,-0.03970624,-0.099265605,340.78146,-25.417458,-30.276909
766399516000.0,-5.302885758490565,3.690865181132075,7.39017795754717,0.05100725,-0.03176499,-0.12370021,340.82703,-25.412672,-30.297447
766404505000.0,-5.2752086162859975,3.659234161469712,7.386223997517378,0.047647487,-0.02443461,-0.13439035,340.87363,-25.401413,-30.321262
766409515000.0,-5.2416524244922575,3.630289592961995,7.396173809853208,0.061391957,-0.019242255,-0.14385876,340.93494,-25.392073,-30.357729
766415273000.0,-5.191754196259803,3.6025682907299417,7.434983632978081,0.071776666,-0.021991149,-0.13713925,340.9942,-25.382406,-30.39265
766419462000.0,-5.151093191558753,3.577714072863309,7.467741214580336,0.084910266,-0.03145956,-0.13927728,341.05566,-25.37415,-30.424513
766424510000.0,-5.095445589064749,3.5406157034820143,7.514114055251799,0.079107046,-0.040011674,-0.13194689,341.11237,-25.366606,-30.453186
766429521000.0,-5.056554,3.505359224472178,7.553187011091301,0.08582657,-0.050396383,-0.122478485,341.16562,-25.360682,-30.471313
766434492000.0,-5.056554,3.47408926955053,7.575522693178193,0.09712757,-0.06719518,-0.11362094,341.21893,-25.355724,-30.484665
766439571000.0,-5.05778237531298,3.439051689435537,7.605463118910609,0.1142318,-0.06688975,-0.10445796,341.2627,-25.350636,-30.486217
766444547000.0,-5.064759995812285,3.3902078723479026,7.668262504868585,0.12889257,-0.074830994,-0.09254608,341.30673,-25.349604,-30.48032
766449556000.0,-5.071783890724064,3.341040131232155,7.731478365854016,0.14721853,-0.090713486,-0.07880162,341.35056,-25.357197,-30.465204
766454656000.0,-5.0757074,3.3135753,7.798377418644219,0.16371189,-0.10476339,-0.06536258,341.39163,-25.369379,-30.447657
766459518000.0,-5.0757074,3.3135753,7.865091617014417,0.16982053,-0.110872045,-0.06291912,341.4329,-25.383385,-30.428637
766464519000.0,-5.076492019226664,3.3112213685822183,7.923942178064198,0.16920967,-0.12217305,-0.05467244,341.47272,-25.392294,-30.398005
766469474000.0,-5.08038759865364,3.299534264198342,7.943420481980133,0.17440203,-0.12767084,-0.05222898,341.51303,-25.403158,-30.368876
766474509000.0,-5.084346073409408,3.287658467917248,7.963213269107626,0.16249016,-0.13041973,-0.05131268,341.5548,-25.40397,-30.32992
766479551000.0,-5.085284,3.307876723279479,7.967903,0.16126843,-0.1328632,-0.05467244,341.59723,-25.408087,-30.291304
766485295000.0,-5.085284,3.342248382442203,7.967903,0.16126843,-0.14080444,-0.061086524,341.64087,-25.409235,-30.252289
766489519000.0,-5.066458187253243,3.375414864222598,7.939664182590712,0.14385876,-0.13897185,-0.06505715,341.68878,-25.403105,-30.212118
766494501000.0,-5.030578233502538,3.420264993739425,7.88584406463621,0.13836098,-0.13683382,-0.06414085,341.73743,-25.399614,-30.17174
766499466000.0,-4.985599781526641,3.46764462146317,7.794537014414565,0.1282817,-0.13469578,-0.06811147,341.7845,-25.393505,-30.134089
766504607000.0,-4.923923238015701,3.5210977117087023,7.638289684984132,0.129198,-0.13561209,-0.07422013,341.83112,-25.38863,-30.097733
766509864000.0,-4.862558226901883,3.5726956156098364,7.483050222584094,0.12736541,-0.11881329,-0.07971791,341.87,-25.38768,-30.066908
766514482000.0,-4.829822687515421,3.579970171477917,7.403030032075006,0.122478485,-0.12492194,-0.0842994,341.91345,-25.3854,-30.032175
766519479000.0,-4.7944005371658855,3.5878417513117857,7.316442571708199,0.12736541,-0.110872045,-0.08735373,341.94873,-25.404505,-30.008657
766524520000.0,-4.771208831493567,3.5938418895021447,7.258058937012866,0.13164146,-0.103847094,-0.0888809,341.9865,-25.421297,-29.983479
766529517000.0,-4.757823990098825,3.598303503300392,7.222366119802349,0.1432479,-0.10445796,-0.082161374,342.0213,-25.441305,-29.960184
766534462000.0,-4.7500963,3.608516372031356,7.217032904190458,0.16401732,-0.10629055,-0.083383106,342.05997,-25.468103,-29.941591
766539518000.0,-4.7500963,3.627260318919965,7.254520700106455,0.16676621,-0.11178834,-0.074830994,342.0943,-25.495173,-29.920582
766544516000.0,-4.762599613823437,3.658834635270709,7.290876532474605,0.17684549,-0.121256754,-0.07727446,342.13416,-25.53042,-29.89984
766549480000.0,-4.797448827646874,3.713597603874751,7.3257257982825426,0.18081611,-0.13775012,-0.06780604,342.17004,-25.566994,-29.87417
766555160000.0,-4.8723154013623615,3.7941946612261255,7.369322863763858,0.18936823,-0.13530666,-0.061086524,342.20242,-25.60604,-29.848953
766559506000.0,-4.9557014828369175,3.869242134553225,7.405456716308268,0.18753563,-0.15210545,-0.070249505,342.2423,-25.64128,-29.81716
766564540000.0,-5.052288122078269,3.956170109870442,7.4473107921731,0.16982053,-0.14263703,-0.07513642,342.27438,-25.674902,-29.794838
766569523000.0,-5.119588366291252,4.025830480225249,7.469909,0.1572978,-0.13561209,-0.09285152,342.31564,-25.704601,-29.772274
766574487000.0,-5.152792082966649,4.075635903553343,7.469909,0.14263703,-0.12858713,-0.09773844,342.35278,-25.72977,-29.752125
766579499000.0,-5.180290168342776,4.121076866440712,7.456945842391745,0.118202426,-0.116675265,-0.115453534,342.4071,-25.751862,-29.750624
766584481000.0,-5.175463061968839,4.140385543959935,7.374884277964386,0.10140363,-0.0983493,-0.13041973,342.4595,-25.770964,-29.753544
766589540000.0,-5.162320590535813,4.159663255606702,7.297948260062603,0.06811147,-0.07238753,-0.1386664,342.5134,-25.783272,-29.767128
766594497000.0,-5.114244992321856,4.177145374295709,7.249873026937949,0.05009095,-0.04184427,-0.1469131,342.56738,-25.792229,-29.788763
766599847000.0,-5.059027002694412,4.193097319665063,7.19959703139612,0.022907447,-0.01160644,-0.14813483,342.62494,-25.79116,-29.821991
766604592000.0,-4.972377724506715,4.174260275476704,7.173225460636711,0.009468411,0.014049901,-0.15057829,342.68048,-25.787476,-29.862501
766609516000.0,-4.8824596958879125,4.154712624141934,7.145859050853922,-0.0018325958,0.01985312,-0.15821409,342.73154,-25.786758,-29.899033
766614470000.0,-4.800367376599915,4.146757,7.128786826186809,-0.0070249503,0.02107485,-0.15454891,342.7764,-25.78556,-29.93872
766619470000.0,-4.723253947108248,4.146757,7.118728395994959,-0.013439035,0.020463986,-0.15118915,342.8227,-25.78013,-29.97966
766624850000.0,-4.640279896975213,4.146757,7.107905525108528,-0.009162978,0.022907447,-0.1423316,342.8529,-25.781174,-30.007248
766629530000.0,-4.528352548220155,4.183643226279703,7.253534604827651,0.0021380284,-0.009468411,-0.1386664,342.88937,-25.78208,-30.025791
766634473000.0,-4.399414298046398,4.232551116971917,7.449165239072039,0.014660766,-0.040317107,-0.12614368,342.92,-25.787043,-30.042269
766641445000.0,-4.414075487684857,4.281067188515091,7.593575317305198,0.0143553335,-0.06566802,-0.115453534,342.93854,-25.796833,-30.03813
766644513000.0,-4.454731515670674,4.298854212367033,7.634231424889735,0.015577064,-0.09285152,-0.095294975,342.95605,-25.812992,-30.023153
766649468000.0,-4.532030344099379,4.317902722981367,7.705344023602485,0.018325957,-0.10598512,-0.09682214,342.94516,-25.82736,-29.971806
766654653000.0,-4.64218076934339,4.313496623158828,7.793464179769299,0.009773844,-0.11026118,-0.09987647,342.93182,-25.84163,-29.914955
766659597000.0,-4.746708948779952,4.307131436359639,7.872356056276105,-0.013439035,-0.118507855,-0.10720685,342.9252,-25.85431,-29.858442
766664482000.0,-4.842694527478567,4.2694229018099215,7.875784182970617,-0.033292156,-0.11484267,-0.11575896,342.91837,-25.864418,-29.806196
766669465000.0,-4.940605712464278,4.230957880794314,7.879281082728805,-0.04337143,-0.10476339,-0.12156218,342.92014,-25.863289,-29.766535
766674553000.0,-5.036685741293533,4.19487975920398,7.873707482587065,-0.050701816,-0.098043874,-0.13561209,342.92615,-25.855503,-29.730644
766679512000.0,-5.122233808457712,4.166363552487562,7.849265116915423,-0.07086037,-0.086132,-0.16432275,342.935,-25.83922,-29.702595
766684827000.0,-5.211073737906137,4.13312370312876,7.817612925391096,-0.08399397,-0.06780604,-0.18600847,342.9655,-25.8138,-29.69676
766689515000.0,-5.236286151672683,4.053884844243883,7.687949201363819,-0.0983493,-0.0571159,-0.2134974,343.00424,-25.77881,-29.697252
766694602000.0,-5.263644417208183,3.9679018930605694,7.547249678299238,-0.112399206,-0.048258353,-0.23426682,343.0614,-25.736591,-29.71842
766699468000.0,-5.252367126287472,3.895367993850884,7.421686612298232,-0.12064589,-0.040317107,-0.25228736,343.1229,-25.689915,-29.745092
766704633000.0,-5.200089515267102,3.8288326901421983,7.298121282215604,-0.12980886,-0.002443461,-0.26389378,343.18094,-25.63905,-29.782843
766709493000.0,-5.14154851735037,3.775581245941012,7.208043761254683,-0.11575896,0.028710667,-0.24862215,343.25458,-25.584604,-29.84173
766714492000.0,-5.067959001479489,3.734187278336055,7.152851804448074,-0.13041973,0.051923547,-0.25289822,343.3311,-25.518318,-29.910877
766719470000.0,-4.990108316999903,3.6914145247367913,7.114086655153096,-0.11728613,0.06169739,-0.2574797,343.40735,-25.466127,-29.981804
766724494000.0,-4.90180898146431,3.644941190244373,7.109439079068869,-0.10751228,0.053145275,-0.2611449,343.48294,-25.410997,-30.05257
766729511000.0,-4.818023538350724,3.604688622597726,7.097339043933967,-0.10354166,0.050701816,-0.26328292,343.56003,-25.354515,-30.118862
766734475000.0,-4.747688157724653,3.5824774090795826,7.064022262311166,-0.09468412,0.05009095,-0.2507602,343.6341,-25.305092,-30.180418
766740126000.0,-4.667618609795982,3.557192242361003,7.0260945562373465,-0.09254608,0.055283304,-0.23884831,343.6987,-25.247551,-30.235222
766744509000.0,-4.600875460621062,3.5381472810081007,7.049495055040504,-0.0983493,0.04642576,-0.23579398,343.76373,-25.192682,-30.284557
766749534000.0,-4.5229076782178215,3.516489576237624,7.092810781188119,-0.09468412,0.032986723,-0.21563543,343.81946,-25.14692,-30.328693
766754692000.0,-4.477038743158002,3.5149247649201345,7.169542230206532,-0.08674286,0.025961773,-0.19853121,343.8749,-25.099504,-30.360966
766759514000.0,-4.467642245345407,3.53371785866314,7.27290409861634,-0.084910266,-0.0070249503,-0.18387043,343.93063,-25.05597,-30.38021
766764477000.0,-4.5111033934593365,3.550850954905498,7.406156664496902,-0.07849618,-0.020463986,-0.1777618,343.97333,-25.014017,-30.385107
766769528000.0,-4.609737527801741,3.566025504148694,7.569282454866285,-0.0711658,-0.048563786,-0.15515977,344.01352,-24.979126,-30.373785
766775087000.0,-4.719138573597194,3.580767153727455,7.742533644789579,-0.06169739,-0.0720821,-0.14202617,344.0559,-24.936714,-30.351122
766779487000.0,-4.816250056563126,3.5681003561322644,7.801644867234469,-0.06536258,-0.082161374,-0.13103059,344.0932,-24.897604,-30.322618
766784996000.0,-4.937564272584956,3.551318620084001,7.873093050668194,-0.055588737,-0.087964594,-0.116675265,344.13544,-24.858614,-30.286112
766789517000.0,-5.032622138449789,3.5223880177930504,7.889624909717449,-0.057726767,-0.10323623,-0.113926366,344.17926,-24.817238,-30.245876
766794550000.0,-5.138445239289805,3.49018104558992,7.908028989919817,-0.0580322,-0.10293079,-0.11362094,344.2303,-24.772728,-30.217478
766799526000.0,-5.229358622026432,3.440436195154185,7.889432503964757,-0.064751714,-0.09896017,-0.124005646,344.2836,-24.726458,-30.188303
766804691000.0,-5.32154875253304,3.385960278558116,7.86428975303287,-0.056505036,-0.086437434,-0.13347405,344.3334,-24.68536,-30.162172
766810350000.0,-5.3936071453500745,3.2968693278357097,7.791791096318366,-0.065973446,-0.0693332,-0.14844026,344.40726,-24.62812,-30.152494
766814549000.0,-5.432117042030219,3.2155703790593746,7.714771034879761,-0.057726767,-0.038789943,-0.16584991,344.4786,-24.576942,-30.151531
766819497000.0,-5.429034188219231,3.15068734182758,7.640261316266823,-0.05467244,-0.011911872,-0.16890424,344.5744,-24.510117,-30.170189
766824551000.0,-5.395992640491516,3.103485180076068,7.574178122235225,-0.057421334,-0.0015271631,-0.17928895,344.67334,-24.442205,-30.195541
766829562000.0,-5.345790564810331,3.0753377196125906,7.577302482001614,-0.041233405,0.010995574,-0.18325958,344.78052,-24.37501,-30.2418
766834528000.0,-5.283415761097659,3.060943383837772,7.630081462671509,-0.018936822,0.013744468,-0.19333886,344.89078,-24.308311,-30.289644
766841316000.0,-5.25477063815907,3.040519339576152,7.677936468275245,-0.014660766,-0.002443461,-0.17837265,345.00043,-24.241152,-30.333967
766844519000.0,-5.252812629088472,3.030729191995404,7.695558693029491,0.005192355,-0.034513887,-0.1685988,345.1151,-24.182667,-30.376198
766849536000.0,-5.249745713226095,3.015394452559683,7.723161159964254,0.011301007,-0.059253927,-0.15515977,345.2198,-24.120714,-30.400343
766854691000.0,-5.2480903,3.004739859642893,7.723795308207365,0.03604105,-0.08002335,-0.14813483,345.32623,-24.070206,-30.416847
766859558000.0,-5.2480903,3.000011211413209,7.6954233200771025,0.04734206,-0.09987647,-0.12858713,345.42706,-24.02364,-30.423954
766864527000.0,-5.250002172465438,3.003276177287689,7.672951470210665,0.051618114,-0.108123146,-0.12217305,345.52264,-23.973566,-30.43193
766869529000.0,-5.253944128801844,3.015102169782752,7.657183562541146,0.054367006,-0.10934488,-0.122783914,345.6148,-23.929224,-30.435345
766874595000.0,-5.257949502501293,3.025988400448508,7.64059700859065,0.0580322,-0.118202426,-0.11453723,345.7081,-23.886328,-30.43607
766880206000.0,-5.262584360790064,3.02135359055546,7.612788246023806,0.062308256,-0.12064589,-0.11759156,345.80237,-23.843645,-30.440119
766884444000.0,-5.266085078920131,3.0178529089787824,7.591784229670519,0.06811147,-0.12644911,-0.122783914,345.89938,-23.80655,-30.440414
766889484000.0,-5.257313109627448,3.026624890372553,7.578210160330736,0.07238753,-0.11056661,-0.12675454,345.99234,-23.770863,-30.44639
766894681000.0,-5.243122612716213,3.040815387283786,7.568749763200913,0.07391469,-0.103847094,-0.13622294,346.0891,-23.735214,-30.450588
