timestamp,acc_x,acc_y,acc_z,gyro_x,gyro_y,gyro_z,ori_azimuth,ori_pitch,ori_roll
2893660610000.0,-0.2093581280505268,9.899755703263384,0.4703940463103064,7.1746125,-9.019731,-7.701789,341.6817,-12.840337,-23.02616
2893665868000.0,-0.2091061697860938,9.899251776737016,0.4814802062620713,7.1746125,-1.9963076,-3.3197472,339.83685,-13.315306,-24.702074
2893670619000.0,-0.2088785064703233,9.898796441071983,0.4914973888278443,-0.59712076,0.75625116,0.03268129,341.52963,-13.194604,-23.291836
2893675623000.0,-0.2086387196397369,9.898316857896264,0.5020480058682838,-1.1957687,0.7663304,0.03268129,342.58755,-15.068367,-23.037046
2893680594000.0,-0.2084005141371701,9.897840437439331,0.5125290444989843,-1.1945469,0.7498371,0.034513887,342.40088,-15.454322,-23.271523
2893685589000.0,-0.2081611585778618,9.897361716823282,0.5230606856094948,-1.1838568,0.73823065,0.040011674,342.19662,-15.694618,-23.500273
2893690626000.0,-0.207919790419256,9.896878970928778,0.5336808810596736,-1.1704178,0.7290677,0.035430185,341.98148,-15.943181,-23.716604
2893695646000.0,-0.2076792368841754,9.89639785431365,0.5442652330866532,-1.151481,0.7348709,0.0290161,341.75082,-16.20448,-23.924496
2893700627000.0,-0.2074405521912996,9.895920475457084,0.5547673560839412,-1.153619,0.7483099,0.034208454,341.5048,-16.472553,-24.122503
2893705622000.0,-0.2072011966319913,9.895441754841034,0.565298997194452,-1.1771374,0.7831292,0.03268129,341.24698,-16.746117,-24.32036
2893710598000.0,-0.20696275153427,9.894964855184284,0.5757905780084461,-1.2098186,0.8200866,0.06047566,340.9648,-17.028513,-24.51064
2893715845000.0,-0.2067113203791767,9.894461982897516,0.5868535451569645,-1.269378,0.7831292,0.0571159,340.68433,-17.301174,-24.684809
2893720759000.0,-0.2064758462613707,9.893991025318485,0.5972144028981156,-1.2495248,0.77182823,0.054367006,340.37726,-17.596548,-24.864758
2893726591000.0,-0.2061963824732054,9.893432086653258,0.6095108054920091,-1.2528846,0.7678576,0.0580322,340.06155,-17.877975,-25.028296
2893730710000.0,-0.205999003984959,9.893037321844949,0.6181954560894453,-1.2583824,0.7519751,0.064446285,339.73804,-18.1707,-25.177584
2893735671000.0,-0.205761277672701,9.892561859787644,0.6286554103535581,-1.2589933,0.74067414,0.071776666,339.40332,-18.470894,-25.318739
2893740970000.0,-0.2055073547280014,9.89205400382279,0.6398280162083321,-1.260215,0.7330383,0.076052725,339.0598,-18.776186,-25.448633
2893745713000.0,-0.205280074764478,9.89159943487746,0.649828331280835,-1.271516,0.7076874,0.080634214,338.70877,-19.08569,-25.562508
2893750935000.0,-0.2050298415851571,9.89109895858977,0.6608385875128844,-1.2770138,0.65393126,0.08246681,338.3535,-19.402246,-25.659306
2893755702000.0,-0.2048014115648923,9.890642089485324,0.6708895050651975,-1.2137892,0.6273586,0.08032878,337.9904,-19.73892,-25.749449
2893760683000.0,-0.2045627268720165,9.890164710628758,0.6813916280624855,-1.1710287,0.55771995,0.07544186,337.63266,-20.073923,-25.807312
2893766151000.0,-0.2043007056110961,9.889640657710128,0.6929205597125901,-1.0647382,0.48624873,0.06994407,337.27332,-20.445461,-25.851393
2893770800000.0,-0.2040779300364766,9.889195097721336,0.7027226817391696,-0.93737274,0.42546764,0.06169739,336.91833,-20.836449,-25.874561
2893775706000.0,-0.2038428392709177,9.88872490686201,0.7130666719870505,-0.8231409,0.37048978,0.049785517,336.56998,-21.253595,-25.875519
2893780688000.0,-0.203604106659011,9.88824743216548,0.7235709034209973,-0.7171558,0.16890424,0.0027488936,336.25763,-21.698296,-25.82161
2893785713000.0,-0.2033633135287759,9.887765836350535,0.7341657976312708,-0.35277468,-0.0061086523,-0.031154128,335.94635,-22.240158,-25.754961
2893790880000.0,-0.2031157158961541,9.88727063126082,0.7450600898470884,-0.04886922,-0.0012217305,-0.025961773,335.6387,-22.794687,-25.678913
2893796601000.0,-0.2028415711204179,9.886722330831509,0.7571224559718595,-0.070554934,0.010079277,-0.028405234,335.36548,-23.354742,-25.559887
2893800723000.0,-0.2026440488750788,9.886327278503307,0.7658134318792719,-0.12156218,0.010079277,-0.028710667,335.09143,-23.985565,-25.433805
2893805695000.0,-0.202405795453481,9.885850762206411,0.7762965789466311,-0.11759156,0.01282817,-0.026267206,334.81595,-24.624908,-25.306873
2893810691000.0,-0.2021663919751418,9.885371945750398,0.7868303284938004,-0.116980694,0.0076358155,-0.03268129,334.545,-25.249113,-25.174967
2893816064000.0,-0.2019089230221561,9.884856997628267,0.7981589586613227,-0.11362094,0.0067195175,-0.032375857,334.27164,-25.875769,-25.039568
2893820731000.0,-0.2016852849049806,9.88440971252014,0.8079990325477598,-0.11636983,-0.0027488936,-0.03481932,334.00427,-26.499031,-24.898098
2893825782000.0,-0.2014432458799423,9.883925624866151,0.8186487461111611,-0.11148291,-0.0021380284,-0.03359759,333.73602,-27.12453,-24.754646
2893830760000.0,-0.2012047049441592,9.883448533529476,0.8291445437984729,-0.11178834,-0.003970624,-0.036957346,333.47345,-27.745733,-24.605711
2893835723000.0,-0.2009668827938394,9.882972879792248,0.8396087149359032,-0.116675265,-0.0021380284,-0.03573562,333.21072,-28.366156,-24.453611
2893841074000.0,-0.2007104680595334,9.882460040149308,0.8508909594969327,-0.11789699,-0.020158553,-0.043982297,332.9573,-28.983807,-24.29496
2893845781000.0,-0.2004849131811222,9.882008921442653,0.8608153708497203,-0.11942416,-0.024129177,-0.048258353,332.69946,-29.593191,-24.170008
2893850786000.0,-0.200245078431505,9.881529242426971,0.8713680963268186,-0.12064589,-0.024740042,-0.049480084,332.44778,-30.198523,-24.03907
2893855757000.0,-0.2000068729289381,9.881052821970036,0.8818491349575189,-0.118507855,-0.03604105,-0.053145275,332.20297,-30.800081,-23.902687
2893860707000.0,-0.1997696737260199,9.88057841415233,0.8922858964183854,-0.11636983,-0.038179077,-0.04795292,331.9574,-31.398832,-23.764277
2893866581000.0,-0.1994881973385571,9.880015450208653,0.904670853351947,-0.113926366,-0.03604105,-0.052839845,331.71945,-31.992632,-23.623814
2893870759000.0,-0.199287991627488,9.879615030842515,0.91347990171225,-0.109650314,-0.03634648,-0.05589417,331.48352,-32.58451,-23.47868
2893875738000.0,-0.199049402772674,9.879137843665877,0.9239778078362204,-0.10781772,-0.050396383,-0.059864793,331.25436,-33.171535,-23.329557
2893880758000.0,-0.1988088492375934,9.878656727050746,0.9345621598632,-0.098043874,-0.057726767,-0.049480084,331.0244,-33.758953,-23.177847
2893885731000.0,-0.1985705478969647,9.878180114913889,0.945047415367218,-0.108123146,-0.062308256,-0.04520403,330.80252,-34.33606,-23.023352
2893890928000.0,-0.1983215126934162,9.877682034625275,0.9560049606827984,-0.10995574,-0.06352998,-0.03970624,330.582,-34.914722,-22.86419
2893895814000.0,-0.1980873803084751,9.877213760565212,0.9663067821975042,-0.105068825,-0.064751714,-0.04337143,330.36716,-35.48717,-22.703354
2893900920000.0,-0.1978427057367378,9.87672440171325,0.9770724597771372,-0.105068825,-0.073303826,-0.032375857,330.15283,-36.055836,-22.535616
2893905657000.0,-0.1976157132873998,9.8762704078077,0.9870601242296876,-0.122478485,-0.084910266,-0.025961773,329.9452,-36.61526,-22.367214
2893910597000.0,-0.1973789932747905,9.875796958389625,0.9974758013239664,-0.111177474,-0.0842994,-0.023823744,329.73904,-37.17775,-22.197363
2893915624000.0,-0.1971381043064937,9.875315170894751,1.0080749124075574,-0.1142318,-0.07819075,-0.027488936,329.53787,-37.727158,-22.025255
2893920632000.0,-0.1968981257997838,9.87483520435918,1.0186339631946322,-0.11148291,-0.08552113,-0.025350908,329.34146,-38.276665,-21.848228
2893925593000.0,-0.1966603994875259,9.87435974230188,1.029093917458745,-0.11209377,-0.080634214,-0.02565634,329.14667,-38.81836,-21.675705
2893930580000.0,-0.1964214272804647,9.873881788405535,1.0396086910759854,-0.122783914,-0.08032878,-0.024129177,328.95737,-39.35329,-21.499475
2893935587000.0,-0.1961814966927857,9.873401917709929,1.0501656334264011,-0.11148291,-0.073303826,-0.021380283,328.7694,-39.888203,-21.325176
2893940589000.0,-0.1959418057002611,9.872922526214136,1.0607120335935232,-0.11148291,-0.07819075,-0.01740966,328.58725,-40.41237,-21.14774
2893945625000.0,-0.1957004854606863,9.872439876159596,1.0713301206070431,-0.10476339,-0.0711658,-0.018936822,328.4056,-40.93504,-20.974644
2893950791000.0,-0.1954529357470953,9.871944766909843,1.0822223043862018,-0.10629055,-0.06627888,-0.017715093,328.2279,-41.450813,-20.798775
2893955627000.0,-0.195221199313699,9.871481284847938,1.0924187040679696,-0.10354166,-0.062002823,-0.008552114,328.0514,-41.96441,-20.622972
2893960634000.0,-0.1949812687260199,9.87100141415233,1.1029756464183853,-0.09193522,-0.06047566,-0.008857546,327.88004,-42.472897,-20.449448
2893965651000.0,-0.194740858948032,9.870520585057092,1.1135536731353888,-0.10445796,-0.0720821,-0.0033597588,327.71136,-42.97212,-20.271368
2893970736000.0,-0.1944971906759434,9.870033238844355,1.124275073545188,-0.09407325,-0.059253927,-0.0012217305,327.5416,-43.473564,-20.099487
2893975649000.0,-0.1942617644771683,9.869562377105286,1.1346338228496804,-0.09285152,-0.06963864,-0.009468411,327.38443,-43.962914,-19.92236
2893981291000.0,-0.1939914053048725,9.869021648033064,1.1465296224784092,-0.08674286,-0.076052725,-0.0012217305,327.22348,-44.452602,-19.745121
2893985644000.0,-0.1937828137633973,9.86860445667337,1.155707647253995,-0.084910266,-0.07819075,0.0030543262,327.07022,-44.93384,-19.56994
2893990652000.0,-0.1935428352566874,9.8681244901378,1.16626669804107,-0.08277224,-0.082161374,0.00061086525,326.92227,-45.410828,-19.393675
2893995689000.0,-0.1933014670980816,9.867641744243295,1.1768868934912486,-0.07422013,-0.09162979,0.0033597588,326.77792,-45.885086,-19.214827
2894000688000.0,-0.1930619198626497,9.867162640267397,1.1874269683483942,-0.074830994,-0.09132435,-0.004276057,326.63843,-46.34973,-19.040842
2894005752000.0,-0.1928192578902098,9.866677306693886,1.1981040915883594,-0.07269296,-0.087659165,-0.0070249503,326.5025,-46.812126,-18.865143
2894010718000.0,-0.1925812919827974,9.866201365436767,1.208574588035766,-0.059253927,-0.0852157,-0.013133603,326.37244,-47.269634,-18.692839
2894016207000.0,-0.1923182644222282,9.86567529987891,1.2201477968557046,-0.053145275,-0.0870483,-0.01985312,326.2466,-47.719284,-18.52236
2894020740000.0,-0.1921010474551923,9.865240857325848,1.229705340229868,-0.05222898,-0.087659165,-0.027183503,326.1246,-48.163998,-18.355263
2894025704000.0,-0.1918631773858416,9.864765107748656,1.240171619803957,-0.04337143,-0.084910266,-0.03268129,326.00647,-48.605484,-18.19077
2894030744000.0,-0.1916216654701432,9.864282074334264,1.2507981405641118,-0.034208454,-0.08827003,-0.030848695,325.8932,-49.04121,-18.02639
2894035686000.0,-0.1909302630330447,9.863202196860849,1.2528955651291531,-0.028099801,-0.07849618,-0.032070424,325.78085,-49.471176,-17.867996
2894041080000.0,-0.1898950883672999,9.861649430268326,1.2500488335823214,-0.032986723,-0.084910266,-0.027488936,325.67496,-49.89564,-17.705833
2894045764000.0,-0.1889961713976393,9.860301050824615,1.2475768108597851,-0.031154128,-0.07941248,-0.03268129,325.58374,-50.2972,-17.530676
2894050774000.0,-0.1880346910351288,9.858858826013988,1.2449327387334177,-0.032986723,-0.07086037,-0.0290161,325.4937,-50.69253,-17.354036
2894055697000.0,-0.1870899070381948,9.857441645825816,1.2423345816319986,-0.027794369,-0.07666359,-0.028099801,325.4099,-51.083195,-17.179932
2894060684000.0,-0.1861328406573884,9.856006042007332,1.239702647960503,-0.022602014,-0.07666359,-0.030543262,325.3252,-51.467644,-17.010334
2894065714000.0,-0.1851675220499178,9.85455805981223,1.2370480206559855,-0.027794369,-0.07269296,-0.025350908,325.24203,-51.846165,-16.840605
2894070769000.0,-0.184197405636247,9.853102880886537,1.2343801993787824,-0.022602014,-0.073303826,-0.033292156,325.16513,-52.2208,-16.67597
2894075791000.0,-0.1832336223267604,9.851657201645224,1.2317297941455252,-0.036651913,-0.071776666,-0.033292156,325.08698,-52.585335,-16.511412
2894080696000.0,-0.1822922927502905,9.850245203103082,1.2291411367044407,-0.030543262,-0.064446285,-0.03176499,325.011,-52.9498,-16.351347
2894085683000.0,-0.1813352263694841,9.848809599284598,1.2265092030329443,-0.030848695,-0.065973446,-0.03023783,324.93915,-53.30357,-16.192255
2894091211000.0,-0.1802743354625065,9.847218258216104,1.2235917517925134,-0.030543262,-0.06627888,-0.030848695,324.86752,-53.65345,-16.036787
2894095772000.0,-0.1793990236993507,9.845905286686904,1.2211846434155946,-0.027183503,-0.06963864,-0.025961773,324.79813,-53.99952,-15.88105
2894100739000.0,-0.1784457955635044,9.844475440252896,1.2185632649222475,-0.029626964,-0.0580322,-0.02443461,324.72784,-54.338276,-15.730639
2894105689000.0,-0.1774958299358743,9.843050487595686,1.2159508583303276,-0.03940081,-0.057421334,-0.025961773,324.663,-54.67091,-15.579712
2894110754000.0,-0.1765237943997234,9.841592429977757,1.2132777594640496,-0.03359759,-0.06169739,-0.022296581,324.59747,-55.00247,-15.430288
2894116224000.0,-0.1754740344031301,9.840017785324235,1.2103909182402508,-0.037873644,-0.052839845,-0.017715093,324.53055,-55.323704,-15.285151
2894120739000.0,-0.1746075506033826,9.838718055779326,1.2080080867730751,-0.043982297,-0.052839845,-0.024740042,324.47018,-55.63972,-15.142076
2894125770000.0,-0.173642040083664,9.837269785715002,1.205352931709651,-0.04428773,-0.05467244,-0.01863139,324.4072,-55.95336,-14.997788
2894130697000.0,-0.1726964884377379,9.835851454049935,1.2027526635726022,-0.047647487,-0.0571159,-0.025961773,324.34937,-56.25696,-14.860474
2894135692000.0,-0.1717378867589475,9.834413547277665,1.2001165078298466,-0.046120327,-0.0580322,-0.020158553,324.29053,-56.559303,-14.720436
2894140937000.0,-0.1707313070181556,9.832903673199471,1.197348412360226,-0.055283304,-0.054061573,-0.025045475,324.23547,-56.850834,-14.587214
2894145750000.0,-0.1698076333685022,9.831518158625906,1.1948083087386276,-0.051618114,-0.054367006,-0.026267206,324.18207,-57.142426,-14.452943
2894150830000.0,-0.1688327191486313,9.83005578296962,1.192127293488738,-0.04550946,-0.047036625,-0.025350908,324.12775,-57.427223,-14.32299
2894155700000.0,-0.1678981065008416,9.828653859850306,1.1895571076094145,-0.049480084,-0.042760566,-0.025350908,324.0762,-57.70544,-14.195047
2894160692000.0,-0.1669400805587952,9.827216816685704,1.186922535143381,-0.042455133,-0.029932396,-0.030543262,324.02277,-57.982807,-14.072324
2894165759000.0,-0.1659676611981483,9.825758183329324,1.1842483807592885,-0.037873644,-0.028710667,-0.02687807,323.9715,-58.25514,-13.948242
2894170828000.0,-0.1649948580130054,9.824298974234498,1.1815731708573805,-0.040927973,-0.022602014,-0.0290161,323.9187,-58.521347,-13.831172
2894175706000.0,-0.1640587100672317,9.822894748161396,1.1789987629067973,-0.043676864,-0.03023783,-0.03268129,323.87033,-58.7846,-13.713654
2894180699000.0,-0.1631004922129373,9.821457417127569,1.1763636626818563,-0.037873644,-0.028405234,-0.035430185,323.81952,-59.04469,-13.60033
2894185685000.0,-0.162143617744379,9.820022101178308,1.1737322567692678,-0.032986723,-0.022907447,-0.038179077,323.77164,-59.299038,-13.48913
2894191464000.0,-0.1610345568631517,9.818358504934672,1.1706823380430644,-0.033292156,-0.021991149,-0.03634648,323.7256,-59.549496,-13.378816
2894195793000.0,-0.1602037687415334,9.817112319065368,1.168397669732676,-0.026572637,-0.0143553335,-0.04642576,323.67966,-59.79683,-13.275513
2894200751000.0,-0.1592522678159192,9.81568506345437,1.1657810410694962,-0.03481932,-0.021685716,-0.04337143,323.63666,-60.038048,-13.168216
2894205693000.0,-0.158303837486273,9.814262413750953,1.1631728565488355,-0.03940081,-0.024740042,-0.04337143,323.59363,-60.276062,-13.067413
2894210688000.0,-0.1573452358074826,9.812824506978677,1.1605367008060798,-0.034513887,-0.027183503,-0.04184427,323.55292,-60.510944,-12.966168
2894216117000.0,-0.1563033442130575,9.811261664963329,1.1576714976974871,-0.028405234,-0.021991149,-0.04520403,323.51285,-60.740376,-12.868349
2894220764000.0,-0.1554115279965733,9.809923936680894,1.155219002054527,-0.030543262,-0.019242255,-0.04550946,323.47458,-60.96561,-12.770315
2894225750000.0,-0.1544546535280149,9.808488620731634,1.1525875961419385,-0.040927973,-0.021685716,-0.048563786,323.43826,-61.18561,-12.6754
2894230691000.0,-0.1535064151106168,9.807066258897438,1.1499799393801853,-0.03634648,-0.015271631,-0.044593163,323.39914,-61.405937,-12.581738
2894235697000.0,-0.142014691595092,9.804611063328233,1.1459884649738603,-0.049480084,-0.01740966,-0.046120327,323.36505,-61.61427,-12.490385
2894241257000.0,-0.1245003504907975,9.801426656616147,1.1409464585847209,-0.052839845,-0.018936822,-0.04886922,323.3298,-61.822926,-12.400688
2894245735000.0,-0.1103943757668711,9.798861949195874,1.1368856484029644,-0.055283304,-0.014049901,-0.050701816,323.2863,-62.04514,-12.30584
2894250712000.0,-0.0947165204294478,9.796011447000543,1.1323723272161392,-0.053145275,-0.011911872,-0.049785517,323.24506,-62.263966,-12.21191
2894255699000.0,-0.0790071644785276,9.79315521745501,1.1278499376724993,-0.058948494,-0.013133603,-0.0580322,323.2058,-62.475082,-12.1224375
2894260704000.0,-0.0632411074233128,9.790288678679111,1.1233112250865922,-0.06841691,-0.010079277,-0.06291912,323.1654,-62.682762,-12.034036
2894265704000.0,-0.0474908006748466,9.787425003578315,1.1187770466790927,-0.063224554,-0.011301007,-0.06566802,323.1282,-62.8884,-11.947919
2894270723000.0,-0.0316806427607361,9.784550446512135,1.1142256383936449,-0.079107046,-0.007330383,-0.070249505,323.0906,-63.081955,-11.865864
2894275781000.0,-0.0157476324539877,9.781653552780172,1.1096388635166183,-0.06872234,-0.01038471,-0.071776666,323.0561,-63.28021,-11.784049
2894280755000.0,-7.922730061349359e-05,9.7788047687899,1.1051282628368375,-0.07452556,-0.005497787,-0.07666359,323.02026,-63.465992,-11.706974
2894285766000.0,0.0157057301226993,9.775934793603884,1.1005841092368418,-0.07849618,-0.019547688,-0.080634214,322.99127,-63.65155,-11.628753
2894291244000.0,0.032961766196319,9.772797351163453,1.0956164633735852,-0.08002335,-0.016493361,-0.083383106,322.9577,-63.83262,-11.555249
2894295753000.0,0.0471653928220859,9.770214888957554,1.0915275412857022,-0.10293079,-0.011301007,-0.08093964,322.92798,-64.00427,-11.481258
2894300752000.0,0.0629125495092024,9.767351786591778,1.086994269713884,-0.094989546,-0.015271631,-0.086132,322.9019,-64.179016,-11.410487
2894306671000.0,0.0815577626380368,9.763961768007457,1.0816267093150862,-0.101098195,-0.014049901,-0.09315695,322.8737,-64.34151,-11.341915
2894310696000.0,0.0942367595705521,9.761656509551315,1.0779766956970491,-0.09987647,-0.011911872,-0.100792766,322.8477,-64.50424,-11.275679
2894315693000.0,0.1099776161349693,9.75879455265558,1.0734452377965942,-0.11148291,-0.016187929,-0.105374254,322.82425,-64.658844,-11.211007
2894320711000.0,0.12578462398773,9.75592056832442,1.0688947363468275,-0.1255328,-0.012217305,-0.12095132,322.80078,-64.80796,-11.153461
2894325703000.0,0.1415097302453987,9.753061475103786,1.0643678126247802,-0.12583824,-0.007941248,-0.13225232,322.77902,-64.95494,-11.096592
2894330769000.0,0.1574679410429447,9.75015999949166,1.0597737830623015,-0.12980886,0.0012217305,-0.15027285,322.758,-65.09199,-11.047524
2894335763000.0,0.1731993474233129,9.747299760800985,1.055245045668891,-0.13500121,0.00061086525,-0.15332718,322.73856,-65.22669,-10.997754
2894341249000.0,0.19048058398773,9.74415773648039,1.0502701451201826,-0.15607607,-0.0018325958,-0.17379116,322.72162,-65.34935,-10.95893
2894345736000.0,0.2046149092638036,9.741587874444935,1.0462011734172925,-0.1554652,-0.002443461,-0.18325958,322.70398,-65.47498,-10.918867
2894350731000.0,0.2203494657055214,9.738727063019242,1.0416715291882006,-0.17837265,0.013744468,-0.19639318,322.68558,-65.58398,-10.88738
2894355693000.0,0.2359800701226994,9.735885151849212,1.037171810536598,-0.19853121,0.013133603,-0.21227567,322.6736,-65.69017,-10.8578615
2894360695000.0,0.251736676993865,9.733020331278375,1.0326358184577356,-0.21227567,0.018936822,-0.2284636,322.6574,-65.78853,-10.834812
2894365696000.0,0.267490133803681,9.73015608344256,1.0281007332145544,-0.2284636,0.020463986,-0.24678956,322.6448,-65.87701,-10.816446
2894370784000.0,0.2835176459509202,9.72724200765999,1.023486753267083,-0.24678956,0.029321533,-0.25717425,322.62988,-65.95876,-10.801978
2894376733000.0,0.3022573609202454,9.723834807025064,1.01809198779784,-0.269697,0.029321533,-0.28893927,322.6215,-66.02853,-10.797538
2894380699000.0,0.3147505042331288,9.721563339935113,1.0144954774850117,-0.2919936,0.03481932,-0.29901853,322.60828,-66.09394,-10.791741
2894385685000.0,0.3304567101226994,9.7187076831246,1.009973994777053,-0.30757064,0.032375857,-0.31673363,322.60165,-66.148865,-10.795628
2894390695000.0,0.3462385174846625,9.7158382806736,1.0054307480127385,-0.31123585,0.044898596,-0.32803464,322.59006,-66.19968,-10.80257
2894395741000.0,0.3621337270552147,9.71294825976188,1.0008548551638898,-0.33750305,0.049785517,-0.33475417,322.5828,-66.23817,-10.811834
2894400837000.0,0.3781864396932515,9.710029602099146,0.9962336205309664,-0.34697145,0.04184427,-0.34483343,322.5773,-66.27723,-10.824778
2894405696000.0,0.393492587791411,9.707246682636193,0.9918273059545584,-0.36102137,0.03756821,-0.34788775,322.56964,-66.307816,-10.838289
2894410693000.0,0.4092334443558282,9.704384725740455,0.9872958480541032,-0.38240165,0.029626964,-0.3484986,322.56604,-66.33256,-10.852365
2894415709000.0,0.4250341520858895,9.70151188687934,0.9827471602757,-0.39767328,0.021380283,-0.34483343,322.5637,-66.35495,-10.86538
2894420756000.0,0.4409325117177914,9.698621293232597,0.9781703605911698,-0.410196,0.022296581,-0.35216382,322.56232,-66.37067,-10.881376
2894425829000.0,0.4569127729447852,9.69571580847533,0.9735699831789209,-0.4392121,0.01985312,-0.34666604,322.56244,-66.38026,-10.891555
2894430739000.0,0.4723795741717791,9.692903679526347,0.9691174199827564,-0.4615087,0.01863139,-0.3555236,322.56427,-66.38523,-10.907511
2894435689000.0,0.4606905066314513,9.6896507752338,0.9881783118935454,-0.47036624,0.015271631,-0.3539964,322.5657,-66.3883,-10.918545
2894440699000.0,0.4293242716275089,9.68605922432705,1.024333285190083,-0.49846604,0.0106901415,-0.35460728,322.56897,-66.37942,-10.932023
2894446935000.0,0.3902823870996477,9.681588782918968,1.069335762930045,-0.516792,0.02076942,-0.35246924,322.57794,-66.423935,-10.872136
2894450868000.0,0.3656589535127205,9.678769307925704,1.0977184994520577,-0.54519725,0.022602014,-0.3567453,322.59082,-66.457214,-10.81389
2894455703000.0,0.3353883454799736,9.67530321039394,1.132610574479754,-0.5503896,0.030848695,-0.3594942,322.59854,-66.49166,-10.757399
2894460694000.0,0.3041410642614753,9.67172528013933,1.1686284331071033,-0.5852089,0.02687807,-0.37782016,322.61084,-66.508286,-10.706168
2894465685000.0,0.272893783042977,9.668147349884723,1.2046462917344525,-0.6026186,0.039095376,-0.3885103,322.61572,-66.52827,-10.65709
2894470769000.0,0.2410642543483576,9.664502750122264,1.2413352905846715,-0.61391956,0.04062254,-0.3979787,322.626,-66.53851,-10.611938
2894475760000.0,0.2098169731298593,9.660924819867656,1.2773531492120207,-0.62980205,0.05375614,-0.3998113,322.62985,-66.54269,-10.570804
2894480756000.0,0.1785383882836126,9.657343305230905,1.3134070906470512,-0.634689,0.058948494,-0.40439278,322.6364,-66.545166,-10.532981
2894485756000.0,0.1472347605351671,9.65375892308844,1.3494898983282264,-0.643852,0.06414085,-0.40958515,322.63934,-66.54226,-10.497811
2894490755000.0,0.1159373935122712,9.650175257822402,1.3855654894478655,-0.65179324,0.062002823,-0.4120286,322.6428,-66.538284,-10.46352
2894495746000.0,0.0846901122937729,9.646597327567797,1.421583348075215,-0.67011917,0.061391957,-0.4089743,322.6441,-66.5295,-10.430405
2894500705000.0,0.0536431742928647,9.643042337358898,1.4573702767334045,-0.68875057,0.056199603,-0.39584067,322.64615,-66.51979,-10.395104
2894505885000.0,0.0212126159454751,9.639328917459304,1.494752065491102,-0.70005155,0.043982297,-0.3717115,322.64856,-66.50933,-10.355817
2894510696000.0,-0.008907734674079,9.635880024961825,1.5294709430419289,-0.7086037,0.03390302,-0.35277468,322.65063,-66.496086,-10.314708
2894516725000.0,-0.0466536490131546,9.63155797697444,1.57297959254389,-0.73792523,0.007330383,-0.32406402,322.6567,-66.479195,-10.262312
2894520745000.0,-0.0718217657229048,9.628676133731895,1.6019901699195551,-0.7498371,-0.01985312,-0.2950479,322.6634,-66.46721,-10.204506
2894525813000.0,-0.1035511228087292,9.625043003992294,1.6385637037851946,-0.7675522,-0.04795292,-0.26450464,322.674,-66.45022,-10.136782
2894530696000.0,-0.1341222456678611,9.621542496391964,1.6738021737666302,-0.7733554,-0.08368854,-0.22907446,322.69012,-66.43758,-10.057574
2894535689000.0,-0.1653820483374587,9.617963132384498,1.709834465517052,-0.79045963,-0.102319926,-0.20463985,322.70676,-66.41996,-9.973356
2894540756000.0,-0.1971051446977334,9.614330719521323,1.746400782821155,-0.8020661,-0.1441642,-0.17256944,322.73438,-66.40748,-9.8730755
2894545731000.0,-0.2282522543074366,9.61076425928957,1.7823031764639246,-0.81581056,-0.18417588,-0.13561209,322.76297,-66.39346,-9.764905
2894550713000.0,-0.2594431889959878,9.60719278092282,1.818256086037448,-0.83291477,-0.22174409,-0.09773844,322.79816,-66.37928,-9.645705
2894555698000.0,-0.2906529058611879,9.60361915192678,1.8542306452955797,-0.84299403,-0.25289822,-0.058948494,322.83783,-66.36748,-9.515002
2894560690000.0,-0.3219064478052359,9.600040504795745,1.8902557204844648,-0.86651236,-0.2959642,-0.02107485,322.8862,-66.35155,-9.371561
2894565728000.0,-0.3534479831245697,9.596428881348997,1.9266127575040173,-0.87872964,-0.33964106,0.01160644,322.9389,-66.33916,-9.2183485
2894570711000.0,-0.3846451785386704,9.592856686105817,1.9625728836390763,-0.8885035,-0.33567044,0.035124753,322.9865,-66.3238,-9.060735
2894575711000.0,-0.4159488062871159,9.58927230396335,1.998655691320252,-0.89675015,-0.3191771,0.028405234,323.04147,-66.3051,-8.902124
2894580692000.0,-0.4471334802501173,9.585701542473029,2.034601384332239,-0.9074403,-0.32834008,0.01985312,323.09912,-66.28478,-8.738431
2894585708000.0,-0.4785372796073579,9.582105690307706,2.070799656997994,-0.91813046,-0.34697145,-0.016187929,323.15787,-66.25791,-8.587445
2894590730000.0,-0.5099786433178966,9.578505536883814,2.107041229032966,-0.9080512,-0.31795537,-0.06505715,323.20786,-66.23102,-8.449102
2894595718000.0,-0.5412071423597458,9.574929757258491,2.143037437975707,-0.915687,-0.3100141,-0.13225232,323.27365,-66.190674,-8.323533
2894600734000.0,-0.5726109417169862,9.57133390509317,2.179235710641462,-0.9077458,-0.2959642,-0.21135938,323.33597,-66.15104,-8.220186
2894605760000.0,-0.6040773483297237,9.567730884163565,2.215506148922579,-0.86651236,-0.2611449,-0.28313604,323.39645,-66.11264,-8.137765
2894610764000.0,-0.6354060189803681,9.564143634515384,2.2516178228499,-0.79779,-0.21502456,-0.35246924,323.45782,-66.07676,-8.079945
2894615773000.0,-0.6667659932587606,9.560552800485064,2.287765579584901,-0.72601336,-0.1337795,-0.398895,323.50522,-66.0487,-8.043825
2894620738000.0,-0.6978504956129672,9.556993509017596,2.323595807612308,-0.68294734,-0.038789943,-0.4196644,323.54083,-66.02766,-8.026538
2894625715000.0,-0.7290101266737699,9.553425615032983,2.35951263437815,-0.6743952,0.022907447,-0.419359,323.56595,-66.01448,-8.021535
2894631794000.0,-0.7670690772903297,9.549067723224177,2.403382111956923,-0.68936145,0.02107485,-0.40775254,323.5834,-66.0058,-8.022484
2894635770000.0,-0.7905470076228686,9.52440585237713,2.4402657446308926,-0.70707655,0.009162978,-0.40408736,323.5877,-65.99804,-8.030969
2894640779000.0,-0.8191751759277833,9.478696994072216,2.492229474876128,-0.70432764,-0.0143553335,-0.40225476,323.59433,-65.992874,-8.0353
2894645715000.0,-0.8473861239719158,9.433654286028084,2.5434358978129388,-0.72387534,-0.021685716,-0.37323865,323.58826,-65.796814,-8.171633
2894650739000.0,-0.8761000224674023,9.387808547532597,2.595555239148947,-0.77182823,-0.019547688,-0.36957347,323.58926,-65.59513,-8.309364
2894655774000.0,-0.904876789769308,9.341862430230693,2.6477886952848544,-0.8338311,-0.022907447,-0.3475823,323.5889,-65.39282,-8.430163
2894660728000.0,-0.9331906140421264,9.296655465957873,2.699181851530592,-0.88239485,-0.015882496,-0.35369098,323.5884,-65.18263,-8.555902
2894665741000.0,-0.9618416437311936,9.250910106268806,2.7511870780667,-0.9108001,-0.044898596,-0.34483343,323.59448,-64.96906,-8.664714
2894670765000.0,-0.99055554222668,9.20506436777332,2.803306419402708,-0.9288206,-0.07727446,-0.35063666,323.60217,-64.7475,-8.776633
2894675720000.0,-1.0188750818455363,9.159848278154463,2.854709949721164,-0.91324353,-0.096516706,-0.36071593,323.6136,-64.53218,-8.882963
2894680766000.0,-1.0477147179538615,9.11380178204614,2.907057520656971,-0.86559606,-0.10629055,-0.37873647,323.63257,-64.32361,-8.9878
2894685757000.0,-1.0762400100300904,9.068257179969908,2.95883451759328,-0.8200866,-0.11484267,-0.37873647,323.65524,-64.12372,-9.086073
2894690757000.0,-1.104816740220662,9.022630449779337,3.010704881184052,-0.7910705,-0.102319926,-0.39645153,323.67905,-63.93238,-9.19262
2894695714000.0,-1.1331477105315948,8.977396109468405,3.062129159647944,-0.7556403,-0.047036625,-0.42546764,323.69507,-63.757305,-9.303902
2894701552000.0,-1.1665139007021064,8.924122339297893,3.122692996176529,-0.745561,0.014049901,-0.4569272,323.70868,-63.584465,-9.4203
2894705771000.0,-1.1906269456369107,8.885622504363088,3.1664612089744235,-0.7516697,0.044898596,-0.4605924,323.716,-63.41977,-9.537435
2894710746000.0,-1.2190607921765295,8.84022390782347,3.2180722207472416,-0.77518797,0.09773844,-0.4700608,323.70636,-63.252235,-9.671409
2894715749000.0,-1.2476546684052157,8.794569801594784,3.2699737065561685,-0.8173377,0.11759156,-0.47952923,323.69824,-63.08075,-9.803208
2894720715000.0,-1.2760370768304914,8.749253333169507,3.321491351674524,-0.8378017,0.1423316,-0.4831944,323.67596,-62.91149,-9.939959
2894725736000.0,-1.3047338292878636,8.703434970712136,3.373579570792377,-0.8530733,0.15851954,-0.4810564,323.65173,-62.73534,-10.076016
2894730761000.0,-1.3334534431293883,8.657580106870611,3.425709286201103,-0.850019,0.17104226,-0.47800204,323.62296,-62.561684,-10.212332
2894735753000.0,-1.361984450551655,8.612026379448345,3.4774966572101302,-0.84391034,0.1872302,-0.47586402,323.58942,-62.388306,-10.347783
2894740755000.0,-1.3905726114343029,8.566381398565696,3.5293877689463398,-0.84696466,0.1777618,-0.4810564,323.56055,-62.216133,-10.479755
2894745715000.0,-1.41892072778335,8.52111968221665,3.580843169628385,-0.82772243,0.13225232,-0.5021312,323.53928,-62.053097,-10.60984
2894750778000.0,-1.447857524774323,8.474918055225677,3.6333670998004015,-0.8371908,0.06383542,-0.51251596,323.52643,-61.885456,-10.7315445
2894755761000.0,-1.476337094082247,8.429446455917752,3.685061104154965,-0.88697636,0.027794369,-0.52473325,323.52036,-61.71276,-10.854683
2894760753000.0,-1.5048681015045136,8.383892728495486,3.736848475163992,-0.92271197,-0.010995574,-0.5290093,323.53345,-61.5441,-10.966877
2894765754000.0,-1.5334505470411233,8.338256872958876,3.7887292128274823,-0.9462303,-0.04520403,-0.5164866,323.5542,-61.369473,-11.07137
2894771247000.0,-1.5648449428284854,8.288131347171515,3.845713994268305,-0.9630291,-0.081855945,-0.49663344,323.58508,-61.19111,-11.167424
2894775715000.0,-1.5903811089267803,8.24735930107322,3.892065351173019,-0.9560041,-0.12614368,-0.4746423,323.6247,-61.018074,-11.2521515
2894780759000.0,-1.619209314343029,8.20133105565697,3.94439217396339,-0.96944314,-0.17745635,-0.4465425,323.67175,-60.841816,-11.322622
2894785752000.0,-1.6477460371113342,8.155768202888666,3.9961899190451353,-0.97494096,-0.21899518,-0.42943826,323.72574,-60.674168,-11.384118
2894790771000.0,-1.67643135887663,8.10996809112337,4.048257390017553,-0.9804387,-0.25809056,-0.40958515,323.78757,-60.509903,-11.429984
2894795787000.0,-1.7050995346038116,8.064195355396189,4.100293738771816,-1.0085385,-0.26450464,-0.39003745,323.8485,-60.34349,-11.46927
2894800738000.0,-1.7333962128385156,8.019015767161484,4.151655772799399,-1.0155635,-0.26542094,-0.3659083,323.91382,-60.187157,-11.49703
2894805764000.0,-1.7621215420260783,7.973151777973921,4.203795862280843,-1.0238101,-0.24495697,-0.37293324,323.9758,-60.025013,-11.528945
2894810754000.0,-1.7906411187562687,7.927616301243731,4.255562485144433,-1.0323622,-0.24220806,-0.36896262,324.0368,-59.868107,-11.548824
2894815763000.0,-1.8192692870611835,7.881907442938816,4.307526215389669,-1.0662653,-0.23365596,-0.36987892,324.09164,-59.70412,-11.574503
2894820764000.0,-1.8478517325977932,7.836271587402207,4.35940695305316,-1.0934488,-0.20433442,-0.3662137,324.13837,-59.54371,-11.600515
2894825717000.0,-1.876159841524574,7.791073748475426,4.410789735226179,-1.108415,-0.18784106,-0.3717115,324.1866,-59.379654,-11.627789
2894830719000.0,-1.9047480024072216,7.745428767592778,4.462680846962387,-1.1194105,-0.16249016,-0.3747658,324.22342,-59.21346,-11.657937
2894835768000.0,-1.942589640491672,7.638629749514563,4.492836796196669,-1.1230757,-0.12217305,-0.37598756,324.25186,-59.048134,-11.692509
2894840694000.0,-1.984609162002316,7.499965240776699,4.509644604800926,-1.104139,-0.053145275,-0.3921755,324.26834,-58.887135,-11.7382
2894845799000.0,-2.00489140604808,7.366703154443599,4.56183939148265,-1.0928379,-0.015577064,-0.39767328,324.2997,-58.390747,-11.947459
2894850771000.0,-1.9893526756227564,7.252752572827151,4.665431089905362,-1.0769554,-0.002443461,-0.40194935,324.3233,-57.912277,-12.158254
2894855697000.0,-1.9753629305104723,7.204104332006528,4.754005441427147,-1.0726794,0.0036651916,-0.4098906,324.30484,-57.445797,-12.385368
2894860692000.0,-1.962351021180524,7.208441589826821,4.832076942696527,-1.0668762,0.027183503,-0.41141775,324.28244,-56.997974,-12.605974
2894865745000.0,-1.9851673859343464,7.213085630521619,4.885921430521619,-1.0748174,0.049785517,-0.41386122,324.21027,-56.584354,-12.811857
2894870798000.0,-2.077704226240306,7.218226560129608,4.891062360129609,-1.0699304,0.052534413,-0.41172317,324.14426,-56.189953,-13.004873
2894875731000.0,-2.1002920907722387,7.242378364584555,4.889455122600196,-1.0616838,0.01985312,-0.44409904,324.0895,-55.860386,-13.143987
2894880691000.0,-2.044572430166178,7.288811285796676,4.880168528660802,-1.0699304,0.00580322,-0.40530908,324.0218,-55.545605,-13.260608
2894885664000.0,-2.0635959126806958,7.288698287904849,4.885087998883806,-1.0965031,0.018936822,-0.42332962,323.9748,-55.261288,-13.378816
2894895733000.0,-2.321609787440349,7.139171757873896,4.912190118996852,-1.0821478,-0.0027488936,-0.47219884,323.94025,-54.99315,-13.482606
2894900737000.0,-2.423789648542999,7.032126092324094,4.824607417199716,-1.0952814,-0.029932396,-0.5006041,323.89542,-54.76279,-13.548996
2894905691000.0,-2.485482216926989,6.966825983073012,4.675287166000727,-1.0836749,-0.054061573,-0.54733527,323.8706,-54.53341,-13.644078
2894910700000.0,-2.42885199673992,7.02345620326008,4.335505299037414,-1.0903945,0.020158553,-0.59223384,323.83273,-54.29785,-13.753002
2894915736000.0,-2.3671536839712326,7.100724237910225,4.026278104323386,-1.0812315,0.16249016,-0.64904433,323.79343,-54.075424,-13.896379
2894920768000.0,-2.223741392791601,7.526977108539308,4.273265818963379,-0.99204516,0.26633725,-0.66828656,323.7471,-53.876102,-14.042994
2894925719000.0,-2.082637606299082,7.946368595519551,4.516277777465487,-0.9138544,0.28955013,-0.6337727,323.65295,-53.779087,-14.177826
2894930765000.0,-2.08836593192082,8.288454959514572,4.789863806853676,-0.8940013,0.31337386,-0.6059783,323.5398,-53.689163,-14.330158
2894935770000.0,-2.1789564817069533,8.579298581319009,5.075939261295136,-0.9007208,0.3231477,-0.5757405,323.42096,-53.61866,-14.470144
2894940758000.0,-2.2683439248628035,8.688969131894707,5.248374488828946,-0.94959,0.34513888,-0.57604593,323.28357,-53.610825,-14.525528
2894945810000.0,-2.3583486576690538,8.693469457817878,5.356380102409078,-1.0082331,0.3484986,-0.59589905,323.14874,-53.598866,-14.574673
2894950810000.0,-2.3945484033044844,8.527289645259637,5.415511050157356,-1.0494665,0.3277292,-0.61208695,323.01276,-53.584126,-14.60692
2894955757000.0,-2.375910940833989,8.187155419994099,5.4248296840873325,-1.0882565,0.30024028,-0.6169739,322.88068,-53.552597,-14.63904
2894960717000.0,-2.3253441229058427,7.851411057934555,5.418584475088871,-1.1108584,0.26083946,-0.6230826,322.7777,-53.482536,-14.683676
2894965724000.0,-2.2335591633761736,7.51923711210464,5.39236022701668,-1.1328496,0.21319197,-0.6236934,322.68466,-53.40285,-14.720874
2894970710000.0,-2.1389118612778653,7.215867611786906,5.368517157205547,-1.1591167,0.19730948,-0.6209445,322.60797,-53.271446,-14.767522
2894975765000.0,-2.03269199898192,6.994930349675268,5.351521993435141,-1.1713341,0.15882497,-0.623388,322.54974,-53.139435,-14.802729
2894981118000.0,-1.9224971666565969,6.770965235442943,5.342743649830073,-1.1621711,0.14019357,-0.60994893,322.5024,-52.972496,-14.831135
2894985693000.0,-1.8728628220074013,6.774274189449438,5.514809396374896,-1.1615603,0.18906279,-0.6038403,322.44882,-52.80245,-14.865105
2894990670000.0,-1.8188671644513252,6.777873897447322,5.701994362616117,-1.1429288,0.312763,-0.6267477,322.39993,-52.62042,-14.896285
2894995690000.0,-1.7922946886416105,6.784507520740604,5.830899326419799,-1.0931433,0.32620203,-0.6151413,322.35794,-52.45529,-14.906746
2895000843000.0,-1.828751794856404,6.798178935571151,5.82634218814295,-1.0965031,0.23518312,-0.56046885,322.3072,-52.287235,-14.913667
2895005708000.0,-1.8747018251254224,6.822989056864953,5.821237615869765,-1.110553,0.21197024,-0.54183745,322.25198,-52.096485,-14.918135
2895010759000.0,-1.98861255426436,6.917089233408416,5.811332339572028,-1.1090258,0.22815818,-0.5290093,322.19916,-51.91824,-14.902198
2895015695000.0,-2.098902079350834,6.995907164011667,5.825662379964101,-1.1078042,0.36163223,-0.548557,322.126,-51.736805,-14.911761
2895020729000.0,-2.2070682860369457,7.021145835135742,5.941039468813103,-1.0986412,0.33505958,-0.5357288,322.0783,-51.5665,-14.886433
2895026656000.0,-2.334422498795901,7.050861688086156,6.076883728965672,-1.119716,0.2950479,-0.5195409,322.00598,-51.38958,-14.903788
2895030751000.0,-2.419726555247888,7.027103477267637,6.006659271352947,-1.1273518,0.2312125,-0.50762904,321.94394,-51.222782,-14.909308
2895035755000.0,-2.522176667270692,6.968560599776035,5.8115160577114935,-1.1557571,0.23732115,-0.50946164,321.87378,-51.048504,-14.918233
2895040754000.0,-2.653207665601278,6.975668775669197,5.832503026388334,-1.1527027,0.35338554,-0.548557,321.80704,-50.84007,-14.969798
2895045746000.0,-2.8060081386336395,7.032968778545745,6.018728309968038,-1.142318,0.30726522,-0.5510005,321.77063,-50.63457,-14.985332
2895050798000.0,-2.932002278282828,7.001709742424242,6.072227371212121,-1.1624765,0.20280726,-0.5357288,321.71906,-50.434334,-15.041985
2895055813000.0,-3.035316672268986,6.90288750701459,6.022816253507295,-1.178359,0.1423316,-0.5299256,321.6705,-50.240673,-15.098336
2895060692000.0,-3.1165146717232703,6.835813996830189,5.983478014138365,-1.1835514,0.10629055,-0.53023106,321.6515,-50.01294,-15.161875
2895065697000.0,-3.1727869045115304,6.807677838465409,5.955341897744235,-1.183246,0.105068825,-0.54153204,321.6389,-49.78691,-15.219913
2895070810000.0,-3.2267979840501506,6.777449720250754,5.937027450682431,-1.185384,0.21166481,-0.5919284,321.61542,-49.54036,-15.328424
2895075810000.0,-3.215398841056975,6.720454005284876,6.111814428939851,-1.1624765,0.16982053,-0.58093286,321.61768,-49.3117,-15.3965225
2895080759000.0,-3.20411596932233,6.664039646611649,6.284818580019044,-1.2027937,0.07086037,-0.56077427,321.6233,-49.0561,-15.496776
2895085752000.0,-3.150983051263286,6.619392517320091,6.255900932976128,-1.2287555,0.046120327,-0.5705481,321.62476,-48.813526,-15.603481
2895090757000.0,-3.0591114317302663,6.585984512963931,6.038749907579717,-1.2452488,0.03359759,-0.57604593,321.64145,-48.571278,-15.686359
2895096772000.0,-2.983335418210574,6.581711196678716,5.9276648065070034,-1.2455542,0.15118915,-0.61727935,321.64236,-48.28987,-15.789933
2895100869000.0,-2.974470495119747,6.6230809303358935,6.036998981382738,-1.2318097,0.14569137,-0.6246097,321.6682,-48.017555,-15.860031
2895105786000.0,-2.963831289154993,6.672730669264949,6.168216003072752,-1.2608259,0.056199603,-0.61361414,321.6762,-47.775925,-15.926573
2895110751000.0,-2.937618906357616,6.649157956821192,6.109647683443709,-1.2812898,-0.021380283,-0.6062838,321.68457,-47.544117,-15.9936
2895115762000.0,-2.899481678701987,6.569705299649006,5.9062488704635765,-1.2886202,-0.04428773,-0.61178154,321.70062,-47.313213,-16.052143
2895120723000.0,-2.8617249861456955,6.491045424927152,5.704879580662252,-1.2968669,-0.034208454,-0.6178902,321.72757,-47.064835,-16.09085
2895125713000.0,-2.857432333607139,6.457391826721428,5.743215045674881,-1.2959507,0.0021380284,-0.6243043,321.7534,-46.821796,-16.129677
2895130774000.0,-2.882008028161444,6.462306965632289,5.988972196511511,-1.3081679,0.18478674,-0.65301496,321.74792,-46.575333,-16.202042
2895135754000.0,-2.8714874065684466,6.422928011424869,6.115322509173999,-1.3008375,0.17348573,-0.65118235,321.7668,-46.372395,-16.240414
2895140754000.0,-2.835560457519951,6.351074283848305,6.157781754791624,-1.325883,0.1441642,-0.6227771,321.74918,-46.162323,-16.307116
2895145690000.0,-2.8000933734192754,6.280140283984721,6.199697522065343,-1.3310753,0.10903945,-0.61422503,321.74533,-45.919865,-16.375004
2895150782000.0,-2.7310795185131447,6.232408825059747,6.204724857067258,-1.3148874,0.12705997,-0.6044512,321.73004,-45.685455,-16.43834
2895155785000.0,-2.645199795220212,6.199692723728234,6.188366720996927,-1.3060299,0.1600467,-0.5882632,321.71585,-45.454918,-16.492323
2895160701000.0,-2.576386575622058,6.172364906119704,6.227304309213181,-1.2873985,0.31978795,-0.61941737,321.68726,-45.204933,-16.576336
2895165690000.0,-2.544255545166443,6.156299453799596,6.400007921654337,-1.2654073,0.3717115,-0.61483586,321.66452,-44.96977,-16.63264
2895170709000.0,-2.5119313034633493,6.140137396234028,6.573750040484196,-1.2953397,0.35185838,-0.5925393,321.62958,-44.733578,-16.688074
2895175719000.0,-2.513063242723512,6.126913366127001,6.600662787030041,-1.3020593,0.35338554,-0.5925393,321.5825,-44.512287,-16.758486
2895180842000.0,-2.517476081939198,6.113674618087786,6.613901258598669,-1.2873985,0.3622431,-0.6072,321.53705,-44.294666,-16.822187
2895185690000.0,-2.565211240732453,6.087970931237414,6.668980396024465,-1.2718215,0.3885103,-0.61300325,321.48065,-44.05411,-16.874294
2895190721000.0,-2.6334918211307525,6.055627533967331,6.744448473088685,-1.2684617,0.43127087,-0.6188065,321.42194,-43.817852,-16.931932
2895195936000.0,-2.7036844434266327,6.022947030127226,6.820847169041561,-1.2690725,0.44898596,-0.6252206,321.37317,-43.583004,-16.98953
2895200774000.0,-2.758702023494487,6.007227715674301,6.860145352586938,-1.280679,0.4709771,-0.63285637,321.3161,-43.350548,-17.05512
2895205657000.0,-2.814231342111959,5.991362190152672,6.899809062849872,-1.271516,0.49205196,-0.6389651,321.27206,-43.094017,-17.142199
2895210748000.0,-2.9060836066465257,5.959342893897281,6.964398623987915,-1.2657127,0.49388456,-0.65179324,321.23077,-42.838078,-17.229345
2895215804000.0,-3.0157972791540786,5.9191146236858,7.041198347492447,-1.2721269,0.47494772,-0.64660084,321.18738,-42.58868,-17.310673
2895220997000.0,-3.1264085120594007,5.8787028959802,7.119694458854656,-1.2702943,0.40439278,-0.63346726,321.16296,-42.333046,-17.39196
2895225778000.0,-3.1967473577024834,5.855256614099172,7.18612555004694,-1.2687671,0.3885103,-0.63132924,321.13242,-42.081154,-17.4781
2895230666000.0,-3.268660404659896,5.831285598446701,7.2540433860117775,-1.2641857,0.38056904,-0.6414085,321.13162,-41.79819,-17.578358
2895236166000.0,-3.353841851380426,5.795689329556909,7.386410394583615,-1.2568552,0.3662137,-0.6401868,321.13217,-41.52482,-17.66775
2895240805000.0,-3.4273685182125933,5.762268149085985,7.52009525605958,-1.248914,0.34055737,-0.6383542,321.13818,-41.25843,-17.751598
2895246005000.0,-3.508968731575354,5.729100463713944,7.664338739870286,-1.2538009,0.33261612,-0.6478226,321.15768,-40.971336,-17.851276
2895250790000.0,-3.571539201365421,5.764296388701144,7.711266449291688,-1.2739595,0.4465425,-0.6753115,321.15985,-40.687428,-17.97068
2895255662000.0,-3.635247316060761,5.800132239597201,7.75904738979348,-1.2889256,0.43463063,-0.67256266,321.19492,-40.372158,-18.07176
2895260782000.0,-3.706978329527559,5.8544643161417325,7.783662762598425,-1.2883148,0.2968805,-0.65240407,321.23373,-40.062748,-18.167496
2895265764000.0,-3.779224948879467,5.915873803028467,7.79449981962447,-1.3106114,0.18295415,-0.64996064,321.2725,-39.74969,-18.264013
2895270922000.0,-3.848101160949526,5.969270270938994,7.799771887482784,-1.353372,0.14630222,-0.63438356,321.3296,-39.43677,-18.346733
2895275762000.0,-3.818058653941505,5.856611163752734,7.70964444488374,-1.3264939,0.16310102,-0.6065892,321.393,-39.145782,-18.41091
2895280658000.0,-3.7876685476788463,5.74264856276432,7.618474205428178,-1.3118331,0.14844026,-0.6267477,321.47992,-38.849133,-18.476727
2895285759000.0,-3.798340896004396,5.667724102409922,7.72781836611979,-1.3457361,0.2049453,-0.64934975,321.54108,-38.557053,-18.553738
2895290775000.0,-3.843591523902975,5.63001515395243,8.003092776356073,-1.3805555,0.15668693,-0.6658431,321.62674,-38.273956,-18.605078
2895296019000.0,-3.8881836,5.58475375095057,8.288895607786412,-1.4294246,0.08246681,-0.6759224,321.72144,-37.967846,-18.671032
2895300782000.0,-3.8881836,5.456560231939164,8.518890082492975,-1.475545,0.017104227,-0.7076874,321.82962,-37.65673,-18.73228
2895305875000.0,-3.8881836,5.31948494486692,8.764819509257729,-1.5289958,-0.058337633,-0.75594574,321.97235,-37.28236,-18.777689
2895310756000.0,-3.9450374597390496,5.168842935228332,9.02910778471575,-1.6053538,-0.13927728,-0.81000733,322.13278,-36.895267,-18.811117
2895315750000.0,-4.041611669105312,5.001695004116185,9.318830761882571,-1.6633861,-0.18387043,-0.87964594,322.31033,-36.501526,-18.844427
2895321005000.0,-4.154075675048372,4.830991930756288,9.621928015058469,-1.6954565,-0.33414328,-0.9282097,322.53296,-36.034317,-18.841185
2895325768000.0,-4.411176861487339,4.750407916993354,9.871354228232525,-1.7012597,-0.36254853,-0.95814216,322.7461,-35.56533,-18.860346
2895330662000.0,-4.675349275182973,4.6676075467737865,10.12764057869942,-1.6933185,-0.46792278,-0.9972375,323.02432,-35.006535,-18.857527
2895335719000.0,-4.856707525868373,4.619140017245582,10.179926223491773,-1.6777414,-0.5516113,-0.9914343,323.2922,-34.464207,-18.845833
2895340734000.0,-4.981093621960695,4.593531122973797,10.103099655278792,-1.6319265,-0.56382865,-0.9605856,323.56122,-33.944225,-18.82506
2895346001000.0,-5.108953581413016,4.5633834642441125,10.034759366295264,-1.5766432,-0.5516113,-0.93523467,323.85727,-33.37987,-18.832432
2895351728000.0,-5.1969152642441125,4.47079237181565,10.187535200557104,-1.5167783,-0.52687126,-0.86101454,324.1255,-32.85187,-18.822554
2895355708000.0,-5.2580445636448045,4.406445846957036,10.29370733611885,-1.4489723,-0.5174029,-0.78038037,324.39603,-32.344917,-18.83967
2895360713000.0,-5.37445039073989,4.281596218772978,10.236361397518383,-1.353372,-0.61269784,-0.74128497,324.6649,-31.877316,-18.828587
2895365725000.0,-5.514153172755821,4.130864196009497,10.0672470893076,-1.20371,-0.6545421,-0.6783658,324.89014,-31.464909,-18.81232
2895370912000.0,-5.657762064446475,3.960652622290508,9.894491559671124,-1.0302242,-0.5891795,-0.6059783,325.10535,-31.063036,-18.80197
2895375793000.0,-5.778107231874429,3.584088681230795,9.766382436342496,-0.895223,-0.44898596,-0.552833,325.29788,-30.70525,-18.791237
2895380726000.0,-5.89973450311436,3.203512995664812,9.6369084954738,-0.8145888,-0.27916542,-0.5290093,325.48392,-30.365044,-18.842903
2895385706000.0,-5.92696545908567,2.9021403435267,9.60661554091433,-0.7910705,-0.13225232,-0.49296826,325.63043,-30.06012,-18.910671
2895390753000.0,-5.893542026354207,2.64960703834806,9.640038973645794,-0.78954333,-0.04550946,-0.47769663,325.75586,-29.777971,-19.001879
2895395928000.0,-5.845314162132582,2.405543927407755,9.681009343652285,-0.8026769,-0.025350908,-0.46853364,325.8855,-29.438078,-19.149992
2895400770000.0,-5.555314624140087,2.438168794996873,9.83688374046279,-0.7901542,-0.048258353,-0.4560109,326.00214,-29.114635,-19.30177
2895405759000.0,-5.2565108870387744,2.4717841325437773,9.997490383520953,-0.77366084,-0.12064589,-0.45998153,326.13455,-28.737835,-19.44553
2895410682000.0,-5.149564142347787,2.4594003008762653,10.129426860099713,-0.7464773,-0.18570304,-0.4266894,326.255,-28.380322,-19.574022
2895415755000.0,-5.274343387460341,2.3896707317419548,10.232186725336154,-0.7122689,-0.2733622,-0.42058071,326.39642,-28.033161,-19.679855
2895421996000.0,-5.429138676246335,2.301510751612903,10.343140734394638,-0.70616025,-0.37690386,-0.43035457,326.52673,-27.692326,-19.692614
2895425727000.0,-5.536915777829912,2.2206780348387096,10.226382004482614,-0.63438356,-0.4083634,-0.40622538,326.64575,-27.389414,-19.693924
2895430756000.0,-5.682188102639296,2.1117239387096776,10.069003378718056,-0.61391956,-0.3930918,-0.376293,326.78436,-27.049927,-19.701637
2895435674000.0,-5.763861676772651,1.984750716087507,9.79048002620287,-0.57757306,-0.3555236,-0.36071593,326.91827,-26.741789,-19.704256
2895440751000.0,-5.760441415869443,1.824001703545301,9.321913746482837,-0.5540548,-0.28924468,-0.3417791,327.03363,-26.446,-19.712015
2895445746000.0,-5.757076396525042,1.665848991776871,8.860915407463422,-0.5348125,-0.19883664,-0.30298916,327.15332,-26.152277,-19.769724
2895450686000.0,-5.660828200592954,1.5756185001482386,8.588773121206836,-0.5112942,-0.10476339,-0.28038713,327.26007,-25.872452,-19.842813
2895455752000.0,-5.491605600453436,1.533312850113359,8.449164798569933,-0.47616947,-0.017104227,-0.28924468,327.35138,-25.607534,-19.934027
2895460736000.0,-5.331486168497163,1.507295182317408,8.334784065257184,-0.44165558,0.033292156,-0.27000242,327.4396,-25.359922,-20.07369
2895465730000.0,-5.18703469564342,1.520427126084569,8.277878701354567,-0.3930918,0.0711658,-0.26511553,327.52332,-25.127552,-20.232883
2895470760000.0,-5.0557263568229125,1.526081740987428,8.231442824494213,-0.3539964,0.10629055,-0.24678956,327.59552,-24.910236,-20.380363
2895475812000.0,-5.0476699920239785,1.465659635917076,8.27978067679627,-0.32803464,0.13469578,-0.24007004,327.6653,-24.705597,-20.53426
2895480680000.0,-5.039907049854301,1.4074381775872116,8.32635800557822,-0.2751948,0.1414153,-0.26450464,327.73837,-24.524704,-20.67192
2895485717000.0,-4.98136672790615,1.456467023329186,8.285365281549947,-0.23671028,0.1423316,-0.27275133,327.80225,-24.352911,-20.810148
2895490711000.0,-4.900607374475649,1.554228390286171,8.20460557305368,-0.19914207,0.17195857,-0.26939157,327.865,-24.196651,-20.956842
2895495755000.0,-4.8702251542764765,1.632135729832468,8.16999909444499,-0.17348573,0.20158553,-0.25350907,327.93436,-24.032557,-21.098837
2895500773000.0,-4.9031824559909865,1.6839257472910747,8.19353998912511,-0.16371189,0.21013765,-0.25137106,328.00558,-23.876064,-21.242031
2895505705000.0,-4.9224787,1.7263138548063903,8.19870483085116,-0.14110987,0.22052236,-0.25534168,328.06702,-23.755835,-21.380104
2895510691000.0,-4.9224787,1.75648354270241,8.177155085928334,-0.13255776,0.21594086,-0.26633725,328.13083,-23.636465,-21.51488
2895515782000.0,-4.9120034334007165,1.7516061764495083,8.149836662409262,-0.118202426,0.2098322,-0.28221974,328.20468,-23.528917,-21.654749
2895520738000.0,-4.859669339382523,1.603326235808141,8.10186369355876,-0.11026118,0.21197024,-0.27855456,328.27563,-23.425285,-21.792261
2895525987000.0,-4.799109155238789,1.455361720611799,8.05471977837894,-0.10293079,0.21288654,-0.27397305,328.36288,-23.331488,-21.928118
2895530710000.0,-4.672041732285923,1.4506555761835398,8.06413236208511,-0.09254608,0.22357668,-0.27672195,328.44928,-23.242249,-22.065393
2895535747000.0,-4.545048618357487,1.434731873084886,8.070187900029577,-0.08093964,0.21410827,-0.27091873,328.54187,-23.1311,-22.194134
2895540736000.0,-4.502654169082126,1.3122586370600413,8.037214166223011,-0.067500606,0.21594086,-0.24953845,328.62762,-23.02705,-22.324871
2895545718000.0,-4.461687200763132,1.194338906233895,8.005933809563924,-0.0571159,0.20555615,-0.23945917,328.71472,-22.925299,-22.427845
2895550730000.0,-4.4426588372745295,1.1467680720218036,8.00117688012884,-0.04795292,0.21533,-0.24556783,328.79697,-22.82952,-22.53409
2895555938000.0,-4.429632158677334,1.0968716655630266,7.99800616639714,-0.03970624,0.23426682,-0.25320363,328.8793,-22.718061,-22.63695
2895561165000.0,-4.493541342778109,1.0414836615201295,8.015048748957359,-0.025961773,0.26145032,-0.23854288,328.95416,-22.614672,-22.740753
2895565751000.0,-4.549613184807217,0.9928880260617924,8.030001357264448,-0.005192355,0.28619036,-0.226631,329.03754,-22.50645,-22.847204
2895570804000.0,-4.617700172609252,0.9520526316218688,8.059722526055952,0.015882496,0.3118467,-0.23090707,329.11722,-22.403978,-22.959236
2895575763000.0,-4.687170285856646,0.9173176702066193,8.094457287986835,0.028099801,0.35369098,-0.25381452,329.19315,-22.305878,-23.080776
2895580695000.0,-4.764114064639124,0.9168441269228472,8.128179356197112,0.03726278,0.37751472,-0.26053402,329.27094,-22.201916,-23.213663
2895585686000.0,-4.84976464296665,0.9501527243583872,8.161488132503733,0.048563786,0.41416663,-0.2574797,329.3453,-22.102274,-23.359983
2895590709000.0,-4.927667367938451,0.9799771587780076,8.218872096553586,0.04520403,0.44073927,-0.26816985,329.43207,-21.989693,-23.52138
2895595801000.0,-4.997877080923243,1.006305818329884,8.30224655169621,0.054061573,0.45081854,-0.2764165,329.51477,-21.8861,-23.684631
2895600712000.0,-5.044384523561259,1.0324957428514137,8.392958955484259,0.06383542,0.4596761,-0.29657507,329.60425,-21.783184,-23.86603
2895605688000.0,-5.034828847443353,1.0611628210948465,8.512404906958091,0.06047566,0.46273044,-0.31856623,329.69617,-21.680073,-24.046646
2895610700000.0,-5.016146019195449,1.0938566029744006,8.62969722592442,0.05131268,0.46211955,-0.3222314,329.79318,-21.576391,-24.232033
2895615707000.0,-4.97328044317757,1.1367222603738318,8.738809542056075,0.04428773,0.45112398,-0.34147367,329.90176,-21.469927,-24.41658
2895620742000.0,-4.930175155530272,1.1798276298577814,8.84853203291345,0.025961773,0.4251622,-0.36041048,330.0085,-21.35751,-24.58269
2895625706000.0,-4.814200901698619,1.2416629789609617,8.945464197973577,0.01038471,0.39828414,-0.38728857,330.1241,-21.243093,-24.74562
2895631028000.0,-4.672440891228767,1.312542957762988,9.04672123502533,-0.018936822,0.3643811,-0.3894266,330.24142,-21.123898,-24.89618
2895635759000.0,-4.541034501841036,1.4693735380967496,9.08428801015744,-0.061086524,0.32070425,-0.3930918,330.36783,-20.999922,-25.014996
2895640833000.0,-4.399130969464195,1.6544651146711529,9.115136590147282,-0.089186326,0.28588495,-0.39828414,330.49695,-20.874578,-25.125189
2895647718000.0,-4.212459780870035,1.9026612436368548,9.154759402053498,-0.12522738,0.2507602,-0.41050145,330.6156,-20.7489,-25.188616
2895650730000.0,-4.196871873817887,1.9780026135368816,9.14696558416644,-0.18600847,0.22907446,-0.40866885,330.73224,-20.61405,-25.243885
2895655758000.0,-4.170850626587409,2.1037716732504728,9.133955186976491,-0.21288654,0.20891592,-0.41508293,330.8229,-20.540056,-25.23571
2895660716000.0,-4.163635353626063,2.2177429710552405,9.112094414730878,-0.25289822,0.19211712,-0.41905355,330.91214,-20.449768,-25.222296
2895665740000.0,-4.180672975835694,2.3199678859560904,9.078019454957508,-0.30970868,0.16584991,-0.4156938,331.0022,-20.350586,-25.201105
2895670806000.0,-4.197853030396601,2.423047388123229,9.043659632861193,-0.36743546,0.15485434,-0.43127087,331.08554,-20.268587,-25.173159
2895676739000.0,-4.219818199518072,2.4612393,8.99192950120482,-0.42058071,0.15760323,-0.4428773,331.16583,-20.175974,-25.141754
2895680763000.0,-4.235294923694779,2.4612393,8.953237690763054,-0.45112398,0.16401732,-0.46181414,331.2512,-20.073574,-25.111502
2895685749000.0,-4.2129033558008295,2.426680139684647,8.922818451950208,-0.46089783,0.16340645,-0.46028697,331.32922,-19.995834,-25.082636
2895690786000.0,-4.164864964290456,2.370635551626556,8.902802542572614,-0.4783075,0.15485434,-0.46700647,331.41296,-19.906652,-25.05689
2895695717000.0,-4.12187006644116,2.311601799983296,8.873352892090537,-0.48563787,0.15118915,-0.4642576,331.49228,-19.821243,-25.039865
2895700754000.0,-4.093667620312369,2.235052189158941,8.80486096675854,-0.4804455,0.14263703,-0.46853364,331.57495,-19.734795,-25.021091
2895705752000.0,-4.065683537375762,2.159095279311785,8.736899354130125,-0.47952923,0.14538592,-0.46395215,331.64493,-19.636791,-24.998816
2895710735000.0,-4.05753812020202,2.105843121414141,8.697220714141414,-0.46700647,0.14905111,-0.46028697,331.71518,-19.544632,-24.97539
2895715691000.0,-4.053850193861694,2.057901003185703,8.664030147241647,-0.47250426,0.14874569,-0.4465425,331.77927,-19.452105,-24.95039
2895720818000.0,-4.068326251579339,1.9869443131475288,8.628242668896322,-0.45875978,0.15088372,-0.43218717,331.8422,-19.35795,-24.93064
2895725798000.0,-4.135673765514679,1.855794393861018,8.589252100334448,-0.4529566,0.16065755,-0.42760566,331.90125,-19.263115,-24.912516
2895730753000.0,-4.2026831895206245,1.725302857703456,8.550457267558528,-0.44165558,0.15699236,-0.42394048,331.95844,-19.16697,-24.895123
2895735712000.0,-4.26625474946319,1.633058534611452,8.508510686349693,-0.43585235,0.16523905,-0.42424592,332.0113,-19.07324,-24.883326
2895740738000.0,-4.327774299923313,1.571538770023858,8.463396169478528,-0.4334089,0.17134771,-0.42119157,332.06116,-18.98457,-24.869192
2895746890000.0,-4.395859661865655,1.5050581683814983,8.416355706128458,-0.4288274,0.17012598,-0.41996986,332.1327,-18.858923,-24.885347
2895750761000.0,-4.430326347664058,1.4734637363911056,8.396250319361586,-0.40683624,0.17440203,-0.4175264,332.19992,-18.741953,-24.903265
2895755753000.0,-4.474774215270784,1.4327198964282946,8.370322628651119,-0.39064834,0.1777618,-0.41080686,332.26828,-18.614582,-24.93944
2895760749000.0,-4.502769371331624,1.3993721623812396,8.30656686970291,-0.38728857,0.17745635,-0.4083634,332.3355,-18.492386,-24.974722
2895765760000.0,-4.52086217211582,1.370423643341879,8.21972112366159,-0.38453966,0.18234327,-0.39736784,332.39578,-18.378996,-25.009579
2895771161000.0,-4.542604475754011,1.3343566618499538,8.13134862446442,-0.3717115,0.18967366,-0.3943135,332.4699,-18.257557,-25.060791
2895775897000.0,-4.599761307342686,1.2200432374023356,8.14277979979837,-0.355829,0.19120082,-0.38362336,332.5371,-18.142946,-25.1085
2895780766000.0,-4.658523261102244,1.1025195753171468,8.154531994203143,-0.3387248,0.19822577,-0.37110063,332.60568,-18.02996,-25.17445
2895785753000.0,-4.698026883703704,0.9960707103703704,8.144470764197532,-0.34147367,0.20708331,-0.36163223,332.67026,-17.9197,-25.238964
2895790741000.0,-4.723301528359789,0.8991844845502646,8.119196031569667,-0.33475417,0.20738874,-0.34208453,332.72708,-17.821718,-25.299313
2895795685000.0,-4.739263073251867,0.7980022248133062,8.094439478869655,-0.32742378,0.20433442,-0.32345316,332.79535,-17.694616,-25.375883
2895800784000.0,-4.735119140529532,0.6819720220468432,8.06957601234725,-0.30024028,0.21105394,-0.29840767,332.85355,-17.580645,-25.450813
2895806105000.0,-4.731346259049163,0.5620721547055645,8.043306818638573,-0.28863382,0.2125811,-0.28344148,332.92017,-17.447916,-25.531805
2895810750000.0,-4.741645884232462,0.4865412569437369,8.012407835540634,-0.27030787,0.204029,-0.27305678,332.9799,-17.329401,-25.608036
2895815717000.0,-4.75265949850274,0.405774417507139,7.979366877726326,-0.26297748,0.20189096,-0.24953845,333.03784,-17.190916,-25.688515
2895820713000.0,-4.758000863297771,0.3259152165355305,7.948293392484283,-0.24617869,0.19730948,-0.22327125,333.0919,-17.064257,-25.762892
2895825759000.0,-4.753397698104401,0.2476605286349781,7.92067416099257,-0.22388211,0.19547687,-0.20677789,333.14075,-16.945513,-25.834341
2895830671000.0,-4.743947937338629,0.1780097231569017,7.89717655672294,-0.20769419,0.19242255,-0.18661933,333.1873,-16.81712,-25.909355
2895835684000.0,-4.720110549851043,0.12556743583714,7.882874024667329,-0.19333886,0.19181168,-0.16371189,333.22708,-16.699162,-25.980995
2895840676000.0,-4.705553771913625,0.0594594663730643,7.862945969683194,-0.18203785,0.19883664,-0.15393804,333.27502,-16.570097,-26.056984
2895845783000.0,-4.719450267893167,-0.0517125776438414,7.824730678292371,-0.16157386,0.20341812,-0.13988814,333.31427,-16.453213,-26.12796
2895851459000.0,-4.734895051754511,-0.1752709332028697,7.782257603310129,-0.16065755,0.20616703,-0.12705997,333.355,-16.326244,-26.19733
2895855745000.0,-4.747071707553958,-0.2442912479352518,7.771158523165467,-0.13530666,0.19486602,-0.11362094,333.39154,-16.21515,-26.261148
2895860756000.0,-4.761868062692703,-0.2985444076258993,7.781022725590955,-0.112704635,0.20250183,-0.10354166,333.42236,-16.10728,-26.328403
2895865755000.0,-4.777320240515934,-0.3558750167931209,7.787961612797167,-0.09193522,0.20769419,-0.09132435,333.4609,-15.980609,-26.402197
2895870750000.0,-4.793451033383915,-0.4163658395548811,7.791994416287304,-0.06536258,0.21533,-0.08399397,333.49625,-15.864328,-26.47656
2895875726000.0,-4.811496915080775,-0.4746809002791169,7.79502850097268,-0.04520403,0.21533,-0.07147124,333.5293,-15.744171,-26.550886
2895880756000.0,-4.844091936226,-0.5194990298908906,7.790954043559164,-0.021380283,0.226631,-0.048258353,333.5545,-15.636437,-26.627075
2895885675000.0,-4.875967663664045,-0.5633281311951281,7.786969499619386,0.015577064,0.23365596,-0.030543262,333.58527,-15.524461,-26.705372
2895890743000.0,-4.967526036963453,-0.583539242357943,7.774036288937944,0.042455133,0.24098633,-0.02076942,333.6098,-15.420273,-26.78374
2895895708000.0,-5.0763780296051015,-0.595201954695446,7.758486108658327,0.076052725,0.2452624,0.0036651916,333.6238,-15.333481,-26.858723
2895900688000.0,-5.1640330713651945,-0.5945557553619681,7.740317767896753,0.0983493,0.24709499,0.026572637,333.64417,-15.239556,-26.943226
2895905780000.0,-5.203367667533777,-0.5650547876991329,7.715733645291389,0.11575896,0.25870144,0.04337143,333.65747,-15.157148,-27.028255
2895910742000.0,-5.242270755693215,-0.5378775512684366,7.701086379115044,0.13530666,0.27091873,0.054367006,333.6826,-15.078362,-27.139547
2895915728000.0,-5.282515066641382,-0.5137309184745048,7.705110730366624,0.15332718,0.2742785,0.06872234,333.7013,-15.007911,-27.247856
2895921228000.0,-5.32119587952939,-0.4835049342578509,7.710966999141093,0.17256944,0.28069258,0.09773844,333.71298,-14.950366,-27.366829
2895925793000.0,-5.262524418180192,-0.4013647699248457,7.7383469518117565,0.19761491,0.2706133,0.11056661,333.7267,-14.899877,-27.480202
2895930710000.0,-5.199328892341415,-0.3128909061733918,7.767838129748591,0.20922135,0.22724187,0.14630222,333.7317,-14.862466,-27.588358
2895935753000.0,-5.131027943056716,-0.2267480404411206,7.75793693201731,0.23090707,0.15057829,0.17654006,333.73883,-14.835795,-27.681906
2895940706000.0,-5.062601369971908,-0.1439160442259509,7.732727286417129,0.2761111,0.08002335,0.19883664,333.74124,-14.822448,-27.76112
2895945766000.0,-4.996354239893453,-0.0495780190202285,7.710356636380482,0.321926,0.027794369,0.23487769,333.72375,-14.838768,-27.800243
2895950794000.0,-4.9666123698811,0.1400267856585855,7.721509852192711,0.34788775,-0.015882496,0.2648101,333.70743,-14.863408,-27.8204
2895955742000.0,-4.937343719757567,0.3266148074467264,7.73248561031501,0.3707952,-0.067500606,0.28405234,333.6762,-14.922463,-27.806383
2895960681000.0,-4.940406643438241,0.4508325413382572,7.7444628321666755,0.39278635,-0.1020145,0.30604348,333.6382,-14.990906,-27.782648
2895965713000.0,-4.977592715730585,0.5119239279887561,7.75774356236565,0.41080686,-0.124311075,0.3203988,333.60114,-15.064097,-27.747719
2895970921000.0,-5.016079413762884,0.5751520563027064,7.771488801411012,0.42088616,-0.14569137,0.31948254,333.5482,-15.186525,-27.689362
2895976962000.0,-5.06991809628866,0.652782744,7.784830326762886,0.43585235,-0.15424347,0.30818152,333.49652,-15.312128,-27.629467
2895980813000.0,-5.161168335309278,0.72882459,7.777226150103092,0.4529566,-0.14049901,0.2864958,333.44977,-15.436142,-27.57228
2895985707000.0,-5.277132674381443,0.825461514,7.767562467793814,0.46273044,-0.124311075,0.2660318,333.40732,-15.578137,-27.523615
2895990931000.0,-5.337860145441328,0.8886035072955867,7.782625047417037,0.46914452,-0.10140363,0.25289822,333.36884,-15.718059,-27.483202
2895995765000.0,-5.389333439060897,0.944036281859391,7.798462971193978,0.47525316,-0.070554934,0.23762658,333.33633,-15.853825,-27.452621
2896000730000.0,-5.441252649056604,0.9672575,7.92348859471698,0.46273044,-0.043676864,0.21533,333.31277,-15.998445,-27.452085
2896005665000.0,-5.492208452830188,0.9672575,8.122216335849057,0.45723262,-0.008246681,0.20555615,333.2876,-16.142338,-27.463144
2896010604000.0,-5.540513150118032,1.050341999564191,8.230905550753585,0.44776422,0.019242255,0.20005837,333.2686,-16.287203,-27.49057
2896015593000.0,-5.588230982821863,1.1674679018885057,8.304651613401125,0.44806966,0.044898596,0.183565,333.25385,-16.426718,-27.529016
2896020704000.0,-5.61478425419013,1.2924470295462074,8.344174712156342,0.44990227,0.046120327,0.18051068,333.2368,-16.552053,-27.556913
2896025609000.0,-5.619970762305399,1.416923278469692,8.349361328585625,0.44837508,0.06078109,0.16890424,333.22443,-16.670094,-27.597431
2896030587000.0,-5.592268770648532,1.5501391434062686,8.331431217622708,0.43157628,0.06047566,0.16126843,333.1961,-16.807365,-27.630419
2896035976000.0,-5.546488615454367,1.6976527407451214,8.300910547604968,0.4111123,0.043982297,0.16126843,333.1707,-16.939152,-27.663013
2896040586000.0,-5.47875615910899,1.8183590241845664,8.32183324900557,0.39584067,0.03481932,0.16310102,333.13318,-17.086626,-27.6951
2896045617000.0,-5.392513732498012,1.9477230643396977,8.364954962609389,0.36743546,0.023518313,0.16462818,333.09952,-17.221687,-27.722013
2896050668000.0,-5.331471357135793,2.061365280170112,8.414400773019484,0.32803464,0.012217305,0.16920967,333.05417,-17.379622,-27.734875
2896055639000.0,-5.284387712788052,2.164949396063693,8.466192880130551,0.28221974,-0.013133603,0.16249016,333.01672,-17.522846,-27.74219
2896060619000.0,-5.228652581186441,2.2386841608474577,8.482478195762711,0.21960606,-0.03145956,0.16218472,332.96158,-17.674887,-27.721292
2896065626000.0,-5.167697617779661,2.295575307271186,8.478414463644068,0.16187929,-0.04062254,0.16187929,332.91263,-17.81083,-27.697914
2896070745000.0,-5.125085309655892,2.3561622155161626,8.473980183941606,0.10140363,-0.04337143,0.1554652,332.8496,-17.949282,-27.652306
2896075631000.0,-5.129964482502607,2.4195927362460896,8.46910131678832,0.042455133,-0.061391957,0.14813483,332.7923,-18.068764,-27.602043
2896080610000.0,-5.145242120746466,2.473313312681786,8.465898,0.0012217305,-0.06963864,0.13530666,332.72195,-18.192675,-27.537643
2896085614000.0,-5.179357818214177,2.5074287048103328,8.465898,-0.04062254,-0.07971791,0.12583824,332.65778,-18.296682,-27.470572
2896090605000.0,-5.207487304680432,2.526456729823009,8.464077710816126,-0.08124508,-0.08002335,0.11301007,332.59058,-18.400715,-27.40563
2896095677000.0,-5.226591937758112,2.521680521681416,8.459301452802361,-0.11209377,-0.081855945,0.10751228,332.52795,-18.492426,-27.339996
2896101163000.0,-5.246381731079646,2.522634215539824,8.422880730353983,-0.13683382,-0.08307768,0.08399397,332.47302,-18.578035,-27.283304
2896106319000.0,-5.263860662336283,2.5313736811681418,8.348594633716814,-0.16432275,-0.09285152,0.071776666,332.41974,-18.652798,-27.225037
2896110679000.0,-5.279349290994018,2.5344822394739,8.285928231418504,-0.17531833,-0.08857546,0.063224554,332.37363,-18.719309,-27.178196
2896115679000.0,-5.30289296877817,2.503090614463656,8.21529723903958,-0.18081611,-0.090713486,0.048258353,332.33652,-18.775414,-27.130402
2896120694000.0,-5.326507277595673,2.471604814578382,8.14445435368352,-0.18997909,-0.087964594,0.040317107,332.30682,-18.833971,-27.096888
2896125696000.0,-5.3342814,2.417100747067492,8.089604485705864,-0.19394971,-0.076358154,0.030848695,332.28235,-18.888138,-27.067915
2896130657000.0,-5.3342814,2.3517556676589053,8.042929463798016,-0.19792034,-0.07452556,0.024740042,332.261,-18.937536,-27.038492
2896135723000.0,-5.308717188376169,2.2990433378504678,7.997243284462616,-0.18661933,-0.07391469,0.015577064,332.24274,-18.98416,-27.02925
2896140733000.0,-5.268680708152536,2.2550031636181576,7.953203026618825,-0.172264,-0.07880162,-0.0012217305,332.22977,-19.027328,-27.02081
2896145672000.0,-5.222536111007596,2.210635056901247,7.901645083990253,-0.15790866,-0.08857546,0.0018325958,332.2196,-19.064198,-27.01667
2896150828000.0,-5.151763415436434,2.161094299326358,7.820256844345708,-0.1386664,-0.09407325,-0.0067195175,332.21832,-19.101067,-27.015493
2896155729000.0,-5.084490921062061,2.114003676193206,7.742893818259997,-0.1328632,-0.109650314,-0.005497787,332.21402,-19.132654,-27.005499
2896160723000.0,-5.022344928140775,2.080046440369712,7.6905159348738,-0.10048734,-0.13591751,-0.008857546,332.21582,-19.173107,-26.992872
2896165733000.0,-4.967764353167437,2.062989928318521,7.670048134660505,-0.07422013,-0.15332718,-0.008246681,332.21704,-19.213335,-26.978292
2896171033000.0,-4.910024423554924,2.0449461131745466,7.648395571560612,-0.049785517,-0.1777618,-0.007941248,332.2203,-19.255075,-26.95012
2896176535000.0,-4.860225279097525,2.0175111453275107,7.627392974672489,-0.026267206,-0.20250183,-0.003970624,332.22455,-19.302826,-26.917562
2896185808000.0,-4.8023722796070585,1.9655485572130251,7.618243028451882,0.0061086523,-0.24495697,0.015882496,332.22906,-19.360079,-26.873001
2896190717000.0,-4.793819930007277,1.9377532535701287,7.641762067991632,0.018936822,-0.2733622,0.0030543262,332.23737,-19.414705,-26.816988
2896195794000.0,-4.784974894578862,1.9090067152537749,7.66608599623431,0.028405234,-0.28771752,0.015577064,332.23065,-19.480179,-26.743544
2896201030000.0,-4.775852852919774,1.8793599012643256,7.69117169414226,0.026267206,-0.3136793,0.01985312,332.23514,-19.541586,-26.663565
2896205628000.0,-4.775421304396372,1.857129085943575,7.717043740564251,0.04153884,-0.30726522,0.014049901,332.23697,-19.60854,-26.590036
2896210609000.0,-4.813464951919051,1.852373623796232,7.764598362037683,0.040011674,-0.30726522,0.015271631,332.23944,-19.670725,-26.508738
2896215605000.0,-4.847391734140666,1.8460325607509251,7.815025870079323,0.059253927,-0.3118467,0.01985312,332.23758,-19.723001,-26.424446
2896220625000.0,-4.857561123246959,1.830778556731888,7.881126554161819,0.06078109,-0.2929099,0.02076942,332.23367,-19.7689,-26.348572
2896225638000.0,-4.874876022372488,1.8146642823802164,7.945615255795982,0.053145275,-0.2751948,0.020463986,332.23856,-19.812696,-26.274755
2896230581000.0,-4.911458758549073,1.7963728904173106,8.005062088678516,0.041233405,-0.25595254,0.025961773,332.23898,-19.85555,-26.20737
2896235590000.0,-4.942358598673611,1.7762019486125804,8.064262310358856,0.042455133,-0.23915374,0.0125227375,332.24628,-19.888548,-26.144033
2896240583000.0,-4.946249595752299,1.74896464402311,8.11873696016763,0.035124753,-0.21044308,0.0067195175,332.24588,-19.917284,-26.089005
2896245597000.0,-4.950156957929856,1.7216127823744811,8.173440724265603,0.028710667,-0.20066923,0.007941248,332.24872,-19.93965,-26.035976
2896250738000.0,-4.947560595849664,1.703303073258969,8.19181782795699,0.036651913,-0.18784106,0.0033597588,332.25104,-19.961655,-25.993725
2896255600000.0,-4.942881476625465,1.68926556900814,8.196496849462367,0.035430185,-0.16798794,0.006414085,332.24866,-19.980362,-25.955963
2896260594000.0,-4.944744264410058,1.660621992263056,8.207082185686653,0.04062254,-0.16279559,0.005497787,332.253,-19.98787,-25.915707
2896265597000.0,-4.948956698918587,1.6269221203182698,8.219719885088798,0.03726278,-0.15851954,0.004276057,332.2541,-19.992998,-25.880999
2896270676000.0,-4.951209,1.5888903240791046,8.23398182668695,0.043066,-0.15241088,-0.00030543262,332.25565,-19.997936,-25.84834
2896275619000.0,-4.951209,1.5477401042051504,8.249412924155166,0.051618114,-0.1414153,-0.0015271631,332.25534,-20.002802,-25.818617
2896280598000.0,-4.951209,1.5262947427798377,8.243218548151118,0.06872234,-0.13591751,-0.009468411,332.25903,-20.003513,-25.790382
2896285626000.0,-4.951209,1.5166440462370978,8.223917255837259,0.069027774,-0.13561209,-0.013133603,332.26102,-20.00235,-25.76401
2896290615000.0,-4.951209,1.5102321426105303,8.213996681979477,0.0711658,-0.13591751,-0.016798794,332.2704,-19.99575,-25.739872
2896295632000.0,-4.951209,1.5056242203318309,8.209388663469838,0.07422013,-0.121256754,-0.019547688,332.27844,-19.98907,-25.720676
2896300695000.0,-4.951209,1.498048096943053,8.221099257642368,0.077579886,-0.12614368,-0.026267206,332.29553,-19.983627,-25.698202
2896305628000.0,-4.951209,1.488388071505981,8.245249321235049,0.07269296,-0.118202426,-0.032986723,332.30978,-19.976448,-25.683798
2896310615000.0,-4.948543087943063,1.476407180316742,8.27120269504148,0.06566802,-0.112399206,-0.040317107,332.3237,-19.96562,-25.67086
2896315631000.0,-4.94401473884804,1.4628219911764706,8.298373167892157,0.06627888,-0.106595986,-0.047647487,332.33832,-19.954668,-25.66112
2896320665000.0,-4.929704876183048,1.4413616665106603,8.322210138325532,0.054367006,-0.1020145,-0.046120327,332.3554,-19.938604,-25.64887
2896325626000.0,-4.904998425429017,1.4117138740093602,8.341975711700467,0.037873644,-0.09315695,-0.055588737,332.3763,-19.919289,-25.641619
2896330629000.0,-4.876267431958567,1.378235591171719,8.355970638030978,0.037873644,-0.096516706,-0.051618114,332.39334,-19.899437,-25.627335
2896335602000.0,-4.844586543922835,1.3420289092464126,8.365022509360449,0.029321533,-0.09682214,-0.059253927,332.41467,-19.870903,-25.618742
2896340861000.0,-4.817206546910084,1.31209519728937,8.374881927682816,0.023823744,-0.09101892,-0.049480084,332.42795,-19.840471,-25.60278
2896345756000.0,-4.798240860250835,1.2931294116112066,8.3843644739557,0.02076942,-0.07574729,-0.04550946,332.44354,-19.807356,-25.59105
2896350866000.0,-4.780902879010967,1.2657906380483348,8.379282259037367,0.008552114,-0.06994407,-0.04886922,332.45877,-19.764715,-25.571299
2896355610000.0,-4.767062760002031,1.2334971876015437,8.360828927599512,0.009468411,-0.06352998,-0.047036625,332.469,-19.7266,-25.555115
2896360589000.0,-4.746397391026731,1.202978844819118,8.350976,0.004581489,-0.063224554,-0.050701816,332.48254,-19.679178,-25.535866
2896365600000.0,-4.719200303305941,1.175781662435062,8.350976,0.0018325958,-0.05009095,-0.04917465,332.4913,-19.63436,-25.521292
2896370701000.0,-4.7022123,1.155185826146789,8.343760301605505,0.00580322,-0.04184427,-0.03940081,332.50134,-19.584932,-25.505676
2896375604000.0,-4.7022123,1.1462112370030582,8.325810748470948,-0.0015271631,-0.042760566,-0.032070424,332.51068,-19.53291,-25.491385
2896380578000.0,-4.699511201324638,1.1382894506623191,8.305915253311596,-0.0012217305,-0.039095376,-0.03176499,332.52396,-19.48333,-25.473057
2896385587000.0,-4.689735331913593,1.1334015159567965,8.281475579783983,0.0036651916,-0.03970624,-0.01863139,332.53137,-19.436792,-25.451504
2896390608000.0,-4.684570279362731,1.1285516206372694,8.26176077813949,0.01038471,-0.02565634,-0.019242255,332.54483,-19.389929,-25.43794
2896395660000.0,-4.689343091200552,1.1237788087994476,8.252214955114926,0.005497787,-0.02107485,-0.016493361,332.55414,-19.344492,-25.420223
2896400761000.0,-4.700112603488259,1.127963519103295,8.251611651560538,0.006414085,-0.015271631,-0.009468411,332.55917,-19.305782,-25.406246
2896405634000.0,-4.722659586964924,1.1505105496666346,8.269649144168518,0.0106901415,-0.009162978,-0.009468411,332.56454,-19.267002,-25.394182
2896410633000.0,-4.742570053294483,1.175547474001316,8.283937,0.008857546,0.00061086525,-0.004581489,332.5654,-19.227951,-25.38599
2896415635000.0,-4.751575204812482,1.2070656688692545,8.283937,0.00580322,0.011301007,-0.002443461,332.566,-19.190153,-25.380005
2896420660000.0,-4.759673,1.2370057491294713,8.283404494776828,0.0061086523,0.01160644,0.0106901415,332.5608,-19.162386,-25.372862
2896425650000.0,-4.759673,1.2521333945868949,8.278362367521368,0.011301007,0.022296581,0.00030543262,332.55933,-19.13295,-25.373528
2896431266000.0,-4.764312464456363,1.2703244472257436,8.279000383715262,0.01160644,0.022296581,0.008857546,332.55374,-19.111088,-25.369947
2896435628000.0,-4.776533082788884,1.2866185908239884,8.291220789371039,0.006414085,0.03848451,0.017104227,332.54816,-19.088266,-25.374565
2896440678000.0,-4.789461222829779,1.3045612567042522,8.3046775704388,0.004886922,0.030543262,0.014049901,332.55078,-19.067333,-25.37378
2896445677000.0,-4.795964982271431,1.3175688434995243,8.314433124711316,-0.0021380284,0.022907447,0.0067195175,332.55032,-19.044632,-25.37682
2896450852000.0,-4.802697719841055,1.33103438894172,8.324532143187067,-0.0067195175,0.038789943,0.024129177,332.53607,-19.028551,-25.382952
2896455680000.0,-4.806487813779367,1.340753,8.330751891930541,0.003970624,0.028710667,0.027183503,332.5321,-19.012094,-25.382269
2896460683000.0,-4.801593816833504,1.340753,8.325858252706844,0.004276057,0.023518313,0.025961773,332.52206,-18.993813,-25.385628
2896465801000.0,-4.794297856507651,1.3432079708730873,8.328382555355535,-0.0012217305,0.014966198,0.027183503,332.51007,-18.97821,-25.386112
2896470871000.0,-4.781186909522953,1.351948632619262,8.350234666066607,-0.0106901415,0.015271631,0.02443461,332.49942,-18.961185,-25.388039
2896475774000.0,-4.76925,1.3612305575433523,8.369865202408478,-0.018936822,0.0106901415,0.020158553,332.49176,-18.94363,-25.385754
2896480690000.0,-4.76925,1.383908520202312,8.365329505684008,-0.0076358155,0.010079277,0.028405234,332.4808,-18.930182,-25.383587
2896486081000.0,-4.769769763648661,1.408483524228591,8.360379741229181,-0.016493361,0.004581489,0.01985312,332.47607,-18.9069,-25.376055
2896490707000.0,-4.781005402147265,1.42346450591766,8.356634437145997,-0.0106901415,0.0021380284,0.023823744,332.4651,-18.893148,-25.36717
2896495725000.0,-4.7931931310677145,1.4397149525488206,8.352571761856455,-0.015271631,0.0012217305,0.023823744,332.45764,-18.876862,-25.359137
2896501664000.0,-4.7979803,1.4533485285060104,8.336474364434268,-0.024129177,-0.005192355,0.031154128,332.4479,-18.862562,-25.347984
2896505702000.0,-4.7979803,1.4607270662850602,8.321716903644344,-0.029932396,-0.011301007,0.030543262,332.44064,-18.847008,-25.337654
2896510689000.0,-4.7898479335559685,1.4693175726073724,8.314701128762259,-0.022602014,-0.016187929,0.03176499,332.43088,-18.837461,-25.32824
2896515756000.0,-4.773437459333785,1.4775227882989517,8.318803822286101,-0.02321288,-0.0033597588,0.027488936,332.42172,-18.823744,-25.322731
2896520756000.0,-4.757387561291862,1.4815481866995466,8.319388186699546,-0.02565634,-0.0015271631,0.0290161,332.41437,-18.81439,-25.314402
2896525744000.0,-4.742187870256941,1.462548473709331,8.300388473709331,-0.01740966,0.00061086525,0.03359759,332.406,-18.807514,-25.30982
2896530718000.0,-4.727030840744571,1.443602087900724,8.281442087900725,-0.015882496,-0.0018325958,0.027183503,332.3976,-18.7987,-25.301357
2896535711000.0,-4.721366,1.436521,8.264615300511405,-0.020463986,-0.0030543262,0.032375857,332.38428,-18.79247,-25.29231
2896540725000.0,-4.721366,1.436521,8.249023425196851,-0.014049901,-0.0009162979,0.03176499,332.3746,-18.787825,-25.28494
2896545757000.0,-4.722634160835128,1.438423251184251,8.236053,-0.019547688,0.0070249503,0.032070424,332.3631,-18.776745,-25.2774
2896550812000.0,-4.730079634727776,1.4495915203322054,8.236053,-0.016798794,0.0061086523,0.035124753,332.35184,-18.769743,-25.268002
2896555760000.0,-4.737367509074131,1.460523388926484,8.236053,-0.005497787,0.007330383,0.039095376,332.33755,-18.765446,-25.26299
2896560709000.0,-4.7344483366433465,1.4773936844504627,8.240100512675845,-0.003970624,0.0143553335,0.027488936,332.32666,-18.757807,-25.260614
2896565696000.0,-4.723669806326638,1.498950670051907,8.247286324606936,-0.008857546,0.008246681,0.038789943,332.3094,-18.75488,-25.252365
2896571449000.0,-4.711995459957894,1.5235380247410526,8.255207,0.0009162979,0.007941248,0.03634648,332.29355,-18.754656,-25.252592
2896575782000.0,-4.715489956042105,1.5375157536589474,8.255207,0.0061086523,0.0061086523,0.04062254,332.27362,-18.754257,-25.248955
2896580758000.0,-4.719503021473684,1.553567722063158,8.255207,0.0021380284,0.00580322,0.04062254,332.25403,-18.759295,-25.24127
2896585711000.0,-4.727363960734597,1.5670174816113744,8.255207,-0.003970624,0.005497787,0.041233405,332.2336,-18.76538,-25.23277
2896590715000.0,-4.738719918175355,1.578373478578199,8.255207,0.007330383,0.0125227375,0.03634648,332.21445,-18.773872,-25.226889
2896596026000.0,-4.7500963,1.5895103393183916,8.254248762276506,0.0036651916,-0.00030543262,0.04062254,332.19543,-18.782532,-25.214676
2896600768000.0,-4.7500963,1.5856982696801811,8.239000563334173,0.0106901415,0.013133603,0.03940081,332.17615,-18.794998,-25.212605
2896605726000.0,-4.7500963,1.5817125587425502,8.223057802820449,0.004581489,0.008857546,0.03848451,332.16083,-18.80489,-25.205048
2896610710000.0,-4.759726443905636,1.582580635976409,8.2169,0.015577064,0.0106901415,0.03481932,332.14496,-18.819916,-25.203243
2896615737000.0,-4.775500550589777,1.5865241626474442,8.2169,0.012217305,0.01038471,0.03481932,332.12936,-18.829596,-25.19958
2896620693000.0,-4.786756138948334,1.5913972696525018,8.2169,0.010995574,0.0106901415,0.038179077,332.10876,-18.845493,-25.197521
2896625825000.0,-4.776739246866402,1.601414214032406,8.2169,0.01282817,0.01282817,0.03023783,332.09186,-18.859291,-25.19712
2896630719000.0,-4.7684176624732775,1.605574219421148,8.217732337526723,0.014966198,0.010079277,0.03268129,332.07166,-18.876215,-25.197208
2896635701000.0,-4.764494573014307,1.589882189294524,8.221655426985693,0.014966198,0.019547688,0.025350908,332.05557,-18.890226,-25.202961
2896640939000.0,-4.760369895658609,1.5733838244203258,8.225780104341391,0.012217305,0.015577064,0.026572637,332.04028,-18.907217,-25.200699
2896645747000.0,-4.769928664376707,1.5774333857870793,8.216221157142856,0.007941248,0.01863139,0.022296581,332.02737,-18.921585,-25.204193
2896651022000.0,-4.783718781528663,1.58662676522293,8.2024308,0.01160644,0.0009162979,0.028099801,332.01428,-18.938187,-25.199972
2896655695000.0,-4.793555809383753,1.5949022362838468,8.197746,0.021380283,0.013439035,0.024740042,332.00125,-18.950142,-25.20468
2896660682000.0,-4.802474437254902,1.6038209107189545,8.197746,0.008552114,0.00030543262,0.03145956,331.9888,-18.958838,-25.196318
2896665689000.0,-4.807557,1.6172622067123563,8.204015160955453,0.018325957,-0.0027488936,0.025350908,331.97906,-18.97771,-25.198713
2896675770000.0,-4.807557,1.6630580822398535,8.233268630556402,0.005192355,-0.0030543262,0.020158553,331.96863,-18.987883,-25.197676
2896680698000.0,-4.807557,1.6966621698809887,8.247670160410944,0.002443461,0.006414085,0.026267206,331.95657,-19.004976,-25.199703
2896685689000.0,-4.816013923775353,1.7024086890532328,8.253515579922384,0.01160644,0.0015271631,0.020158553,331.95102,-19.02125,-25.19815
2896690691000.0,-4.833551872666032,1.6778555239803763,8.250007916892436,0.0033597588,-0.0143553335,0.0070249503,331.94626,-19.031681,-25.196367
2896695741000.0,-4.851258118547265,1.6530667427692758,8.246466593761442,-0.0012217305,-0.003970624,0.018325957,331.93277,-19.052849,-25.196238
2896700892000.0,-4.844822405602764,1.6365920686431974,8.24563,0.0033597588,-0.007941248,0.018936822,331.92996,-19.07055,-25.190744
2896705736000.0,-4.831826834288916,1.6235964520963675,8.24563,0.014049901,-0.0033597588,0.013439035,331.92377,-19.088684,-25.189962
2896710690000.0,-4.8267107,1.613628203292318,8.243203900981044,0.009162978,-0.002443461,0.008246681,331.92017,-19.09778,-25.193022
2896715746000.0,-4.8267107,1.6055769394413038,8.239178184985034,0.008552114,-0.002443461,0.013133603,331.91504,-19.110802,-25.196625
2896720754000.0,-4.82925484676206,1.5984786481275552,8.235205018969747,0.004581489,-0.0067195175,0.01282817,331.90814,-19.119093,-25.19757
2896725869000.0,-4.841270830776778,1.5944733061815208,8.231200011610794,0.016493361,-0.0036651916,0.009468411,331.90018,-19.131096,-25.20034
2896730830000.0,-4.852925043229763,1.5905885551757972,8.22731558511856,0.021685716,0.0018325958,0.0067195175,331.8998,-19.140236,-25.201649
2896735726000.0,-4.848494087663569,1.5862764256969466,8.226477,0.007941248,0.004276057,0.0061086523,331.89993,-19.146992,-25.203203
2896740750000.0,-4.839369568035274,1.5817141420633416,8.226477,0.0030543262,-0.0061086523,-0.0012217305,331.9038,-19.155678,-25.203865
2896745787000.0,-4.832973522378781,1.5735451447575632,8.216534859510983,0.009468411,-0.0061086523,0.006414085,331.9029,-19.163343,-25.210554
2896750776000.0,-4.828023392333195,1.5636448846663904,8.201684159241609,0.01038471,-0.0067195175,0.0015271631,331.90915,-19.165567,-25.216375
2896756414000.0,-4.830684915426043,1.5570452845739564,8.193771909069053,0.013439035,-0.0015271631,-0.002443461,331.91214,-19.170177,-25.220985
2896760746000.0,-4.83467478824774,1.55305541175226,8.18978216123293,0.006414085,-0.01160644,0.0009162979,331.91626,-19.1725,-25.221159
2896765712000.0,-4.8310751669629255,1.5566550602505502,8.195988067589301,0.018936822,-0.008857546,0.0030543262,331.92105,-19.17451,-25.229572
2896770846000.0,-4.822751646648045,1.5649786240223464,8.208473456703912,0.0076358155,-0.010079277,-0.004886922,331.9294,-19.16768,-25.234938
2896775669000.0,-4.817134,1.566693554436331,8.218200946884066,0.010079277,-0.01282817,-0.0061086523,331.9367,-19.170181,-25.23982
2896780766000.0,-4.817134,1.5520453260578173,8.223083808642592,0.007941248,-0.007330383,-0.007941248,331.94562,-19.167421,-25.24747
2896785664000.0,-4.819142984065595,1.541866,8.225472481745049,0.01038471,-0.011301007,-0.01038471,331.95135,-19.165707,-25.24983
2896790745000.0,-4.826670748104889,1.541866,8.221708501469678,0.014049901,-0.011301007,-0.011301007,331.9561,-19.163633,-25.254747
2896795756000.0,-4.834094803527228,1.541866,8.217996376856437,0.025045475,-0.005192355,-0.00580322,331.96335,-19.160944,-25.259611
2896800739000.0,-4.839345058366752,1.5449235264400292,8.2169,0.028099801,-0.008857546,-0.0106901415,331.97495,-19.155684,-25.263063
2896805762000.0,-4.843729333467007,1.5493077557601167,8.2169,0.025350908,-0.014049901,-0.0070249503,331.98184,-19.153461,-25.266293
2896810712000.0,-4.847983428384588,1.5578001515376458,8.227495752562744,0.02107485,-0.01160644,-0.008246681,331.99207,-19.150387,-25.273945
2896815744000.0,-4.852241996288441,1.5705759886532344,8.248788814422058,0.036651913,-0.015882496,-0.015577064,332.00433,-19.15127,-25.278688
2896820686000.0,-4.8565195495251015,1.5769375189959296,8.269098085481684,0.029321533,-0.01160644,-0.006414085,332.00836,-19.150885,-25.284306
2896826348000.0,-4.861774925954642,1.5611717189571623,8.290119042450087,0.022907447,-0.012217305,-0.008552114,332.01892,-19.152065,-25.289455
2896830759000.0,-4.864402014238619,1.5502107477730238,8.301243107035141,0.017104227,-0.018936822,-0.004276057,332.02692,-19.15399,-25.290863
2896835711000.0,-4.861075556779126,1.5435579370554815,8.29126408199481,0.014966198,-0.013133603,-0.00030543262,332.03424,-19.154716,-25.295769
2896840724000.0,-4.857708123167567,1.536823175317388,8.281162132776883,0.01160644,-0.014049901,-0.010079277,332.04834,-19.146624,-25.298347
2896845723000.0,-4.855441,1.530731547246145,8.277475807931104,0.014966198,-0.00061086525,-0.005497787,332.05457,-19.142069,-25.30444
2896850807000.0,-4.855441,1.5258558761866614,8.287226844582415,0.008857546,-0.008246681,-0.00580322,332.0675,-19.132395,-25.306211
2896855706000.0,-4.848682622638224,1.5186571735829342,8.29081073373966,0.008246681,-0.0125227375,-0.005192355,332.07874,-19.124977,-25.312204
2896860709000.0,-4.827823793556814,1.506141876134088,8.282467463474097,0.015271631,-0.017104227,-0.005497787,332.09106,-19.117872,-25.31619
2896865899000.0,-4.806833353644159,1.4937405837084674,8.273396114683816,0.01160644,-0.0036651916,-0.010995574,332.1019,-19.10589,-25.323694
2896870782000.0,-4.796093034022355,1.490160464706783,8.259075339611085,0.009773844,-0.008552114,-0.009773844,332.11328,-19.097065,-25.324465
2896875785000.0,-4.785088770440973,1.4864923640790078,8.244402630684428,0.010995574,-0.004581489,-0.008246681,332.1209,-19.086603,-25.327942
2896880742000.0,-4.774651668285124,1.4823174950413225,8.236053,0.0033597588,-0.009773844,-0.004886922,332.12906,-19.073929,-25.3274
2896885708000.0,-4.764825503595041,1.4774044383471074,8.236053,0.005192355,-0.0061086523,0.0009162979,332.1345,-19.064608,-25.3299
2896890713000.0,-4.757558057330758,1.4621384335632817,8.229708194076528,0.018936822,-0.008857546,0.0012217305,332.14218,-19.058846,-25.327372
2896896321000.0,-4.752618199567697,1.432499029074687,8.21488867236939,0.009162978,-0.0070249503,0.005192355,332.14606,-19.048798,-25.326166
2896900727000.0,-4.754717001188243,1.4173675,8.208863265895351,0.021991149,-0.016187929,0.004581489,332.15582,-19.044983,-25.320547
2896905699000.0,-4.769606259974984,1.4173675,8.213826455805712,0.016187929,-0.015882496,0.008552114,332.16168,-19.035074,-25.317207
2896910666000.0,-4.7772286082906135,1.4173675,8.213703716457488,0.0143553335,-0.019242255,0.00580322,332.16797,-19.021261,-25.3145
2896915728000.0,-4.772943894184197,1.4173675,8.20513401979848,0.008246681,-0.021991149,0.0070249503,332.17172,-19.006111,-25.311281
2896920769000.0,-4.769786307874928,1.4173675,8.197209703325338,0.018936822,-0.025350908,0.01740966,332.17407,-18.996416,-25.308327
2896925723000.0,-4.773710782339317,1.4173675,8.193285310819753,0.008857546,-0.025045475,0.011911872,332.1805,-18.978153,-25.307203
2896930683000.0,-4.777640009901563,1.4173675,8.189356165315576,0.0076358155,-0.02565634,0.01863139,332.18137,-18.970764,-25.30137
2896935694000.0,-4.789447293867887,1.4279880384184358,8.19879014931734,0.022296581,-0.027183503,0.014049901,332.18716,-18.962778,-25.297243
2896940735000.0,-4.804687377468235,1.443228042451267,8.214030312485201,0.009773844,-0.03481932,0.018936822,332.1889,-18.949701,-25.289808
2896945736000.0,-4.817840602353727,1.4549679976462733,8.231423223854435,0.017715093,-0.028405234,0.011911872,332.1965,-18.943897,-25.288603
2896950715000.0,-4.821820436198982,1.4509881638010182,8.259282102328687,0.005192355,-0.02321288,0.022296581,332.1984,-18.9326,-25.282936
2896955765000.0,-4.825857022043235,1.446951577956765,8.287538245388532,0.010079277,-0.026572637,0.02443461,332.20456,-18.92913,-25.279444
2896960703000.0,-4.82371483636731,1.455085553463746,8.293514,0.0067195175,-0.027183503,0.022296581,332.20798,-18.921139,-25.27756
2896966013000.0,-4.819604232778272,1.4674174500767925,8.293514,0.0021380284,-0.03359759,0.026267206,332.21,-18.915102,-25.272514
2896970742000.0,-4.81281079199687,1.4748282,8.292072905586538,0.0067195175,-0.022602014,0.030543262,332.2105,-18.909903,-25.268776
2896975803000.0,-4.798584682956658,1.4748282,8.287330786713628,0.005497787,-0.02076942,0.024129177,332.21475,-18.901176,-25.2618
2896980705000.0,-4.783692844221347,1.4760058639446632,8.281581745892977,0.005497787,-0.009162978,0.022602014,332.21432,-18.896849,-25.25872
2896985682000.0,-4.765376489682006,1.4805849525794983,8.272423855509656,0.0033597588,-0.007941248,0.03176499,332.2136,-18.89216,-25.253094
2896990743000.0,-4.7500963,1.4815470589379514,8.26406949794813,0.0067195175,-0.0143553335,0.03176499,332.21844,-18.886148,-25.247816
2896995728000.0,-4.7500963,1.4658739718154958,8.260151134110309,0.004276057,-0.0106901415,0.028710667,332.22018,-18.878862,-25.24508
2897000824000.0,-4.7500963,1.4498518951904138,8.256145520847014,0.010079277,-0.009773844,0.028099801,332.21576,-18.875751,-25.237967
2897005685000.0,-4.743904265159129,1.4522899025125628,8.252110917922948,0.016493361,-0.009162978,0.029932396,332.21124,-18.872032,-25.231977
2897010691000.0,-4.735451217323459,1.460742906215287,8.247884305739223,0.017715093,-0.0009162979,0.028099801,332.2071,-18.867826,-25.22889
2897015727000.0,-4.724509831030566,1.4759728482823886,8.25635144828239,0.011301007,-0.0061086523,0.025350908,332.20572,-18.861252,-25.222546
2897020737000.0,-4.71088824458219,1.498675492363017,8.279054092363017,0.011911872,-0.013439035,0.028099801,332.2027,-18.857178,-25.217567
2897025696000.0,-4.705752310620949,1.516675392138825,8.291743966966338,0.023518313,-0.005497787,0.02076942,332.1973,-18.856377,-25.21476
2897030814000.0,-4.715999920551955,1.5269229485678444,8.286620081747857,0.014966198,0.009773844,0.021380283,332.1889,-18.851805,-25.211073
2897035659000.0,-4.726980831151832,1.53790387023831,8.282065539447554,0.0061086523,-0.004886922,0.021685716,332.1794,-18.849623,-25.19873
2897040708000.0,-4.740075187958115,1.5509983181982308,8.277701103267738,0.008246681,-0.004276057,0.014660766,332.16873,-18.847044,-25.19535
2897045802000.0,-4.755897277051118,1.5633398908204472,8.269720121441939,-0.0012217305,-0.0030543262,0.006414085,332.15726,-18.841545,-25.19075
2897050740000.0,-4.779186077602679,1.5726554110410718,8.25108869191372,-0.0027488936,0.0009162979,0.0067195175,332.1452,-18.838667,-25.187016
2897055705000.0,-4.797000831830515,1.5791936318305158,8.236053,-0.0030543262,-0.0018325958,0.0076358155,332.14084,-18.834702,-25.18548
2897060768000.0,-4.791940579440618,1.5741333794406178,8.236053,-0.002443461,0.0012217305,0.004276057,332.1367,-18.829987,-25.186998
2897065720000.0,-4.790426212668161,1.5705963,8.236053,-0.003970624,-0.0009162979,0.0106901415,332.13187,-18.827131,-25.192482
2897070787000.0,-4.797679634529148,1.5705963,8.236053,-0.004276057,0.0009162979,0.0021380284,332.13184,-18.822308,-25.201607
2897075729000.0,-4.804754118609866,1.5705963,8.236053,-0.0067195175,0.0015271631,0.0021380284,332.13208,-18.815908,-25.207672
2897081516000.0,-4.7964495364802096,1.566893799273021,8.236053,-0.006414085,-0.0012217305,0.004276057,332.13443,-18.809332,-25.213896
2897085762000.0,-4.784132406653877,1.5627880750403875,8.236053,0.0030543262,-0.003970624,0.0070249503,332.13654,-18.804588,-25.22012
2897090763000.0,-4.762468295727876,1.5501138497038234,8.222421115060133,0.008552114,-0.0030543262,0.010079277,332.1356,-18.803291,-25.226263
2897095780000.0,-4.73659499363669,1.5328649065966613,8.200860217600072,0.0033597588,-0.006414085,0.011301007,332.13528,-18.80164,-25.230398
2897100692000.0,-4.719579205428572,1.5262857518285713,8.191742995857144,0.007941248,-0.0033597588,0.013133603,332.1373,-18.803062,-25.2329
2897105692000.0,-4.715018729238095,1.5354066089714284,8.200863710142858,0.0036651916,0.002443461,0.0143553335,332.13922,-18.800825,-25.23525
2897110658000.0,-4.70941294554714,1.543054021023766,8.21088705066597,0.0076358155,-0.004886922,0.01282817,332.142,-18.796255,-25.234005
2897115776000.0,-4.700879158396448,1.547320892321755,8.223687620005224,0.012217305,-0.002443461,0.01160644,332.14258,-18.79098,-25.236765
2897121180000.0,-4.6913097872906,1.55232650539673,8.23561113421607,0.013133603,-0.004581489,0.017715093,332.13898,-18.790943,-25.232426
2897125703000.0,-4.678274572976226,1.5610166180258802,8.231266440866687,0.019547688,0.0015271631,0.020158553,332.13568,-18.792673,-25.231577
2897130972000.0,-4.663540345980491,1.5705963,8.226841634981499,0.01038471,0.0015271631,0.015577064,332.13754,-18.787884,-25.226147
2897135690000.0,-4.6574610609485365,1.5705963,8.232920602623611,0.013744468,0.005192355,0.020158553,332.13495,-18.789244,-25.222324
2897140673000.0,-4.651040315438951,1.5705963,8.239341012916245,0.017104227,0.003970624,0.01863139,332.13443,-18.787834,-25.216562
2897146025000.0,-4.645664295606398,1.5705963,8.24563,0.01985312,0.0036651916,0.012217305,332.13358,-18.786915,-25.212227
2897151720000.0,-4.656707222312209,1.5705963,8.24563,0.02321288,-0.0076358155,0.011911872,332.13287,-18.78742,-25.204342
2897155683000.0,-4.664268329708283,1.5709596278113664,8.245085015870616,0.0290161,-0.0018325958,0.01160644,332.13147,-18.789038,-25.198292
2897160756000.0,-4.67161164289601,1.5783029026602176,8.234070256952842,0.020463986,0.010995574,0.01740966,332.12885,-18.788366,-25.19082
2897165667000.0,-4.678720456431378,1.5854116790810158,8.223407240779927,0.020158553,0.010995574,0.008246681,332.1338,-18.788107,-25.185452
2897170700000.0,-4.684876898881015,1.5879317011189855,8.231445515106305,0.012217305,0.00580322,0.010079277,332.13297,-18.785694,-25.18056
2897175693000.0,-4.689335772659455,1.5834728273405447,8.267116319097353,0.018325957,0.008552114,0.018020526,332.13217,-18.786282,-25.17824
2897180731000.0,-4.698976907356276,1.583977944413766,8.299855539788975,0.016493361,0.005192355,0.015577064,332.1427,-18.78479,-25.175507
2897185755000.0,-4.722699342619071,1.5982114055714427,8.323578470466423,0.014660766,0.0067195175,0.01282817,332.15005,-18.785625,-25.174208
2897190740000.0,-4.741398298575434,1.6089035,8.33964136614382,0.011911872,0.0030543262,0.009468411,332.15753,-18.781143,-25.169281
2897195771000.0,-4.745049195051906,1.6089035,8.332339420701674,0.004886922,-0.002443461,0.004276057,332.16632,-18.774445,-25.164913
2897200737000.0,-4.748652922323255,1.6089035,8.325131815639919,0.010995574,0.004276057,0.009162978,332.17407,-18.77362,-25.163486
2897205757000.0,-4.752973106511398,1.6117803365510406,8.322245,0.0030543262,0.01038471,0.002443461,332.18726,-18.765308,-25.162296
2897210752000.0,-4.75771400011893,1.6165212796630328,8.322245,-0.0067195175,0.007941248,-0.0021380284,332.1984,-18.759,-25.160023
2897215727000.0,-4.759673,1.613610343706874,8.319809971001835,-0.009773844,-0.002443461,-0.0012217305,332.21664,-18.753517,-25.15792
2897221616000.0,-4.759673,1.6037583434972489,8.314883868023408,-0.013439035,-0.004581489,0.002443461,332.2345,-18.745207,-25.157686
2897225689000.0,-4.758323314647664,1.602026098891528,8.3072692304038,-0.01160644,0.0067195175,0.00580322,332.25497,-18.737797,-25.159103
2897235684000.0,-4.751048827078133,1.617527762975569,8.277218571288103,-0.009773844,0.01160644,0.007330383,332.2755,-18.729769,-25.15823
2897240823000.0,-4.754771288412375,1.6138052627713486,8.288385916420847,-0.0070249503,0.0067195175,-0.00061086525,332.29782,-18.720142,-25.159231
2897245713000.0,-4.758313385303683,1.6102631288934273,8.299012170108162,-0.008552114,0.00030543262,0.004276057,332.31665,-18.71484,-25.160055
2897250765000.0,-4.745255579421527,1.588719141299194,8.28579003508772,-0.004886922,-0.00061086525,0.0012217305,332.33975,-18.709547,-25.16276
2897255692000.0,-4.722882467235657,1.5573968309625414,8.258942207017544,-0.008857546,0.004276057,0.0061086523,332.35883,-18.703564,-25.16415
2897260739000.0,-4.718227118574932,1.543475508635601,8.24563,-0.007941248,0.002443461,0.0076358155,332.38144,-18.699667,-25.162472
2897265745000.0,-4.730603931780044,1.5465696715502777,8.24563,-0.01282817,-0.0018325958,0.0061086523,332.4029,-18.693485,-25.161428
2897270754000.0,-4.742988162172454,1.5496656887375757,8.24563,-0.01282817,0.0018325958,0.013744468,332.4253,-18.684225,-25.160019
2897275727000.0,-4.747175083599884,1.5499821070514683,8.241248236405932,-0.0027488936,-0.00030543262,0.0070249503,332.4531,-18.674414,-25.15772
2897280721000.0,-4.740221530357662,1.546505366734516,8.230818051759233,-0.013744468,-0.005192355,0.011911872,332.47467,-18.661806,-25.153912
2897285699000.0,-4.733290255219541,1.5430397653533003,8.220421283803432,-0.011301007,-0.004276057,0.01282817,332.5006,-18.655611,-25.1553
2897291085000.0,-4.736804915236992,1.550659292249152,8.213968831168831,-0.009773844,-0.003970624,0.010995574,332.52612,-18.646738,-25.155176
2897295746000.0,-4.744189722053106,1.561736463917611,8.210276350649352,0.004276057,0.00030543262,0.021991149,332.5466,-18.64354,-25.15515
2897300969000.0,-4.755430620417288,1.5665955736121462,8.21132368461252,-0.0015271631,0.00061086525,0.009773844,332.57507,-18.632774,-25.156153
2897305598000.0,-4.771947389120715,1.5542080402011922,8.223711088673621,-0.00580322,-0.014660766,0.017104227,332.59546,-18.629847,-25.151222
2897310605000.0,-4.7884035,1.5428516234583984,8.235724485148515,-0.0027488936,-0.014966198,0.018020526,332.61926,-18.626432,-25.155184
2897315594000.0,-4.7884035,1.5553004220253603,8.231575217821781,0.00580322,-0.0036651916,0.016187929,332.64175,-18.623892,-25.157894
2897320641000.0,-4.7884035,1.567893945049505,8.227377712871286,0.00030543262,-0.013133603,0.012217305,332.66486,-18.616768,-25.15738
2897325612000.0,-4.792210718650307,1.5629818626993863,8.241705795092024,0.004886922,-0.01038471,0.017715093,332.68283,-18.615341,-25.162462
2897330567000.0,-4.797062768139059,1.5532777637218813,8.261113891717791,0.009773844,-0.015882496,0.0125227375,332.70682,-18.610699,-25.16439
2897335591000.0,-4.7979803,1.532806159032473,8.264784,0.005192355,-0.022907447,0.0106901415,332.7274,-18.60865,-25.166044
2897340571000.0,-4.7979803,1.5100975771831255,8.264784,0.00030543262,-0.014966198,0.009773844,332.7479,-18.607088,-25.170813
2897345677000.0,-4.80139278349345,1.5137961573799128,8.261371409606987,0.011911872,-0.016187929,0.014049901,332.7669,-18.606049,-25.170801
2897350817000.0,-4.806169516923823,1.5281265073071324,8.256594526540514,0.009773844,-0.008552114,0.017104227,332.78442,-18.599981,-25.175598
2897355634000.0,-4.80105845616005,1.522541133346943,8.25845635674186,0.010995574,-0.011911872,0.014049901,332.80328,-18.595266,-25.176922
2897360632000.0,-4.791287179953047,1.5078841425130145,8.263342122384405,0.006414085,-0.021991149,0.010079277,332.82117,-18.588768,-25.17834
2897365635000.0,-4.7884035,1.5035586,8.255396801629932,0.0009162979,-0.015271631,0.0076358155,332.83752,-18.5825,-25.186071
2897370707000.0,-4.7884035,1.5035586,8.241901373587702,0.0009162979,-0.013133603,0.005497787,332.85635,-18.576012,-25.190315
2897375641000.0,-4.780699986867895,1.5086942575460605,8.24118876479812,0.008246681,-0.014966198,0.010995574,332.87167,-18.569086,-25.192352
2897380630000.0,-4.766652900970208,1.5180589488827911,8.250553651705214,0.016493361,-0.007941248,0.010079277,332.88803,-18.561401,-25.198238
2897385629000.0,-4.762133146788991,1.5153319137614678,8.26258718348624,0.002443461,-0.015882496,0.004886922,332.91196,-18.54783,-25.201595
2897390636000.0,-4.767021224159022,1.5006679878899083,8.277250905198777,0.0106901415,-0.0061086523,0.005497787,332.9314,-18.542759,-25.211103
2897395673000.0,-4.771681701253919,1.5061404840125392,8.276641921630095,0.0012217305,-0.009773844,-0.00030543262,332.94696,-18.530996,-25.21269
2897400828000.0,-4.7762334151115615,1.5288993860040567,8.262986827586207,0.00061086525,-0.0070249503,0.009773844,332.95566,-18.525747,-25.216978
2897406545000.0,-4.7788267,1.541866,8.255207,0.012217305,-0.0012217305,0.0106901415,332.96722,-18.518192,-25.221605
2897410692000.0,-4.7788267,1.541866,8.255207,0.019242255,0.0033597588,0.009162978,332.97623,-18.510376,-25.225895
2897415705000.0,-4.7788267,1.541866,8.264262321480198,0.0125227375,0.0067195175,0.0061086523,332.9832,-18.506624,-25.233698
2897420741000.0,-4.7788267,1.541866,8.282852863255275,0.004581489,0.0015271631,0.0076358155,332.9897,-18.504591,-25.240076
2897425720000.0,-4.7808564069531725,1.5459253927123453,8.289454713257653,0.004276057,-0.005497787,0.0061086523,332.99814,-18.501726,-25.24745
2897430758000.0,-4.785746729110075,1.5557059859618894,8.279674375329416,0.007941248,0.0021380284,0.007330383,333.0042,-18.498354,-25.256866
2897435699000.0,-4.790286396271187,1.5647852925423729,8.280009610169492,-0.0015271631,-0.0015271631,0.0018325958,333.01703,-18.48754,-25.26094
2897440825000.0,-4.794665582426405,1.57354366485281,8.293146985727029,0.0030543262,0.0009162979,0.004276057,333.0255,-18.482454,-25.267744
2897445740000.0,-4.797115832182104,1.5793086321821037,8.30568436734694,0.01038471,-0.0067195175,0.0015271631,333.03687,-18.4751,-25.274658
2897450805000.0,-4.792885368899355,1.5750781688993547,8.318375580498866,-0.003970624,-0.005497787,0.0036651916,333.0447,-18.464361,-25.283766
2897455774000.0,-4.7887350881388455,1.570927888138845,8.330826249433107,-0.0015271631,0.00061086525,0.0067195175,333.0531,-18.460697,-25.291494
2897460719000.0,-4.781525480418477,1.5705963,8.324943159968416,0.0021380284,-0.0021380284,0.0070249503,333.0624,-18.45366,-25.29718
2897465679000.0,-4.774024386063956,1.5705963,8.317442261429136,0.0067195175,-0.00061086525,0.010079277,333.0688,-18.448254,-25.304985
2897470804000.0,-4.763629560238569,1.5687228266003976,8.312668,0.004886922,0.003970624,0.007330383,333.07318,-18.440645,-25.31128
2897476499000.0,-4.747365127087476,1.563301367753479,8.312668,0.014049901,0.007941248,0.005192355,333.07642,-18.43746,-25.317413
2897480744000.0,-4.735031184515195,1.5555311845151951,8.301691369030392,0.0018325958,0.007941248,0.004581489,333.0773,-18.430885,-25.322027
2897485724000.0,-4.720241243436014,1.5407412434360142,8.272111486872028,0.00030543262,-0.00061086525,0.007330383,333.07843,-18.429413,-25.325253
2897490685000.0,-4.709943971716159,1.5285989049007105,8.253361913918747,0.0009162979,-0.0021380284,0.00580322,333.07678,-18.423658,-25.328737
2897495726000.0,-4.70554643621789,1.51980374206595,8.248964240663145,0.006414085,-0.003970624,0.007330383,333.0745,-18.419476,-25.329285
2897500768000.0,-4.701130876823399,1.5163796921140318,8.243467221399483,0.008552114,0.0036651916,0.01160644,333.07425,-18.413069,-25.331974
2897505983000.0,-4.696508235949648,1.5302477112736024,8.234222229266937,-0.003970624,0.0012217305,0.0061086523,333.0778,-18.403227,-25.33235
2897510693000.0,-4.693091312931816,1.5414101799288156,8.227616538279014,-0.0036651916,-0.004581489,0.01038471,333.07877,-18.393917,-25.33388
2897515753000.0,-4.699854988694256,1.534646398227371,8.244525815967618,0.008246681,-0.00061086525,0.008857546,333.08228,-18.383102,-25.338455
2897520777000.0,-4.706570543443366,1.5279307382929723,8.2613147904948,0.0036651916,-0.0009162979,0.004886922,333.0855,-18.371527,-25.33994
2897525765000.0,-4.711789,1.5235675391447638,8.273505642992504,0.004276057,0.00061086525,0.016493361,333.08392,-18.366148,-25.341585
2897530759000.0,-4.711789,1.5275080960533904,8.269565003790063,0.0067195175,0.004276057,0.008246681,333.08923,-18.35704,-25.346098
2897535686000.0,-4.711789,1.531395786059158,8.265677232594546,0.00580322,-0.00580322,0.006414085,333.0903,-18.345116,-25.346222
2897540719000.0,-4.706005888273993,1.5438553140325078,8.285024815557275,0.01038471,-0.0033597588,0.010995574,333.09012,-18.335125,-25.350803
2897546577000.0,-4.697321584636223,1.5612240573297214,8.315419764938081,0.010079277,-0.00030543262,0.0106901415,333.09296,-18.322931,-25.353514
2897550708000.0,-4.695701593242016,1.5690632533789917,8.32798838344748,0.00061086525,0.0030543262,0.0125227375,333.09354,-18.310215,-25.3574
2897555760000.0,-4.711670565467448,1.561078767266276,8.30802716816569,0.00030543262,-0.004276057,0.008857546,333.09674,-18.299126,-25.359762
2897560671000.0,-4.727193847850483,1.5533171260747587,8.288623065186897,0.005497787,-0.013133603,0.014660766,333.08826,-18.29238,-25.355999
2897565718000.0,-4.7342637009700015,1.5514427,8.28725807032513,0.0067195175,-0.0018325958,0.014660766,333.08127,-18.283354,-25.356678
2897570792000.0,-4.7386280518950965,1.5514427,8.291622512394467,0.008552114,-0.00061086525,0.013133603,333.07526,-18.276356,-25.351984
2897575772000.0,-4.750740388726855,1.5412217845917682,8.296069275544468,0.00061086525,-0.004276057,0.01038471,333.0741,-18.26547,-25.355333
2897580761000.0,-4.769076244123573,1.5228858813297514,8.300653335124245,0.0067195175,0.00030543262,0.005497787,333.0731,-18.258211,-25.361525
2897585710000.0,-4.780610019772912,1.5131354,8.29952428596918,0.0036651916,-0.006414085,0.0061086523,333.07428,-18.245655,-25.364239
2897590725000.0,-4.784505206472019,1.5131354,8.291733749878345,0.0106901415,-0.005192355,0.019547688,333.07175,-18.238384,-25.369423
2897596057000.0,-4.788150543172996,1.513388356827004,8.284695886329114,0.008552114,-0.0033597588,0.0067195175,333.0804,-18.22242,-25.378088
2897600770000.0,-4.784341643729958,1.5171972562700422,8.296122823291139,0.0033597588,0.00061086525,0.0076358155,333.08063,-18.211079,-25.38487
2897605717000.0,-4.780343632793249,1.521195267206751,8.308117106582278,-0.002443461,-0.0012217305,0.013133603,333.08444,-18.198559,-25.393097
2897610697000.0,-4.776133036104061,1.5280996403009426,8.312668,0.009468411,-0.0009162979,0.01160644,333.0894,-18.188627,-25.403389
2897616204000.0,-4.771352498857868,1.537660914467005,8.312668,0.0067195175,0.008246681,0.00580322,333.09317,-18.17382,-25.41528
2897620765000.0,-4.76925,1.5457887629739564,8.302861041363462,-0.0015271631,-0.004276057,0.0027488936,333.09177,-18.162811,-25.419014
2897625706000.0,-4.76925,1.554850180390655,8.280207379548067,0.0061086523,-0.002443461,0.003970624,333.08835,-18.155046,-25.429022
2897630747000.0,-4.772223011801185,1.562506013661607,8.269243478896705,0.0015271631,-0.0030543262,-0.0012217305,333.0865,-18.143532,-25.434687
2897635690000.0,-4.780986039429841,1.5668875503517217,8.282387905960755,-0.008552114,-0.0033597588,0.0018325958,333.08173,-18.133806,-25.439892
2897640726000.0,-4.785086657073171,1.5699329314146342,8.292187304390245,-0.00030543262,0.010079277,0.01282817,333.0692,-18.128445,-25.452862
2897645712000.0,-4.765676118536586,1.5660508237073172,8.284423332195122,0.004276057,0.004276057,0.013439035,333.06128,-18.118736,-25.461054
2897650678000.0,-4.746343440162602,1.5621842880325203,8.276690503089432,-0.0070249503,-0.003970624,0.008857546,333.04865,-18.111555,-25.470087
2897655744000.0,-4.727487605202973,1.5577615263007432,8.287392826758149,0.0030543262,0.002443461,0.018020526,333.03113,-18.112741,-25.479885
2897660705000.0,-4.709378016943015,1.5532341292357537,8.30550232046884,0.0070249503,-0.0009162979,0.013744468,333.0213,-18.107105,-25.486443
2897665695000.0,-4.6928620561445005,1.5607929764003872,8.306434352220192,0.002443461,-0.00580322,0.016187929,333.0056,-18.101221,-25.490255
2897670751000.0,-4.67724433796366,1.5764107489409742,8.296022286420815,0.00580322,-0.0033597588,0.013133603,332.9928,-18.097027,-25.495987
2897675706000.0,-4.683218567615852,1.567190998549016,8.300005203228439,0.014660766,-0.0027488936,0.008246681,332.98416,-18.092144,-25.492968
2897680791000.0,-4.696467282180104,1.5495260304253196,8.308837894803665,0.010995574,0.0015271631,0.013133603,332.9731,-18.085735,-25.490995
2897685720000.0,-4.699796594545791,1.541866,8.305420732290028,0.010995574,-0.0018325958,0.018020526,332.9633,-18.084719,-25.48567
2897690733000.0,-4.69535095157885,1.541866,8.292083524863413,0.010995574,-0.00030543262,0.014660766,332.95377,-18.082157,-25.483232
2897695705000.0,-4.699011687538127,1.545054077124183,8.288719240522875,0.00061086525,-0.00030543262,0.008552114,332.93896,-18.076176,-25.481207
2897700725000.0,-4.715770044313725,1.5534332117647058,8.301288270588236,0.002443461,-0.009468411,0.009162978,332.92432,-18.073599,-25.476841
2897705718000.0,-4.732324765328036,1.562862260184688,8.31497149833566,0.007941248,0.00030543262,0.005497787,332.90472,-18.071823,-25.478518
2897710720000.0,-4.747755771512939,1.583437006711049,8.34069046859229,0.004886922,-0.01038471,0.01038471,332.88608,-18.06933,-25.471392
2897715716000.0,-4.760742565401676,1.595048527737802,8.361622565401674,0.002443461,-0.009162978,0.014049901,332.86942,-18.072498,-25.46999
2897720723000.0,-4.76546923262691,1.5761422536717595,8.36634923262691,0.014966198,-0.006414085,0.0076358155,332.85568,-18.077715,-25.466759
2897731661000.0,-4.788979315560618,1.5807488842313788,8.36355340124802,0.013744468,-0.0021380284,0.0067195175,332.83957,-18.079239,-25.464916
2897735732000.0,-4.797244184330822,1.5868054373232878,8.356872344789638,0.008246681,-0.0070249503,0.010079277,332.82513,-18.082298,-25.461605
2897740758000.0,-4.793169605747905,1.5705071229916194,8.33649902641158,0.00580322,-0.010079277,0.01282817,332.8153,-18.079721,-25.46132
2897745744000.0,-4.789127455168035,1.5543385206721407,8.31628785143486,0.010995574,-0.006414085,0.008552114,332.805,-18.07793,-25.466354
2897750714000.0,-4.792062788997188,1.5551019889971884,8.301689903748828,0.00580322,-0.00030543262,0.010079277,332.79245,-18.073889,-25.470308
2897755748000.0,-4.79658102809747,1.5596202280974696,8.288134903373946,0.0015271631,-0.00030543262,0.014049901,332.781,-18.071043,-25.47371
2897760719000.0,-4.785458824831392,1.5409851135806254,8.268911438994481,0.009468411,-0.005497787,0.015577064,332.7756,-18.070858,-25.476265
2897765742000.0,-4.767025246351931,1.5114913495171671,8.246791452789699,0.0021380284,-0.008552114,0.015271631,332.76956,-18.065832,-25.479147
2897770796000.0,-4.748966960281665,1.4851578957661111,8.227982783670559,0.014966198,-0.004276057,0.018936822,332.76016,-18.068237,-25.485735
2897775735000.0,-4.736318867608521,1.493589986897228,8.24484687788573,0.0143553335,-0.0036651916,0.019547688,332.75275,-18.06479,-25.49077
2897780667000.0,-4.7236887009626525,1.5020101273018986,8.261687070772796,0.01282817,-0.0076358155,0.009162978,332.7475,-18.058506,-25.495165
2897785720000.0,-4.721366,1.5162218499122948,8.264784,-0.0009162979,-0.016493361,0.0106901415,332.7392,-18.050486,-25.497105
2897790678000.0,-4.721366,1.531365215340456,8.264784,0.015577064,-0.017104227,0.01282817,332.7335,-18.048523,-25.501085
2897795794000.0,-4.723039753004895,1.543539753004895,8.2597625836892,0.013439035,-0.00580322,0.010079277,332.72882,-18.03634,-25.502388
2897801665000.0,-4.728895893584002,1.5493958935840015,8.242193611602959,0.0033597588,-0.018325957,0.006414085,332.72656,-18.02647,-25.49708
2897805693000.0,-4.729140112916746,1.5568505177176606,8.236053,0.0015271631,-0.016187929,0.0125227375,332.7231,-18.021757,-25.497211
2897810713000.0,-4.724560665974471,1.570589002000381,8.236053,0.0018325958,-0.007330383,0.00030543262,332.7269,-18.012177,-25.49805
2897815678000.0,-4.720166004196642,1.5789731292565947,8.24445284532374,-0.0015271631,-0.007941248,0.005497787,332.72894,-18.007584,-25.495043
2897820759000.0,-4.7159984179513526,1.574805630044536,8.273625513874615,0.0070249503,-0.0036651916,0.004581489,332.73492,-18.003714,-25.497595
2897826075000.0,-4.71210863366588,1.5709159319970978,8.303570441320515,0.007941248,-0.0015271631,0.0009162979,332.7425,-17.99773,-25.498682
2897830695000.0,-4.720134218102666,1.5789414745329222,8.315608587520407,0.0015271631,0.0036651916,0.003970624,332.74747,-17.992737,-25.501253
2897835781000.0,-4.7289693095410845,1.587776519844005,8.328860970977688,0.010995574,0.002443461,0.013744468,332.75082,-17.990896,-25.497864
2897840702000.0,-4.7309427,1.5870824345500036,8.323818715063654,0.009773844,0.008552114,0.009468411,332.756,-17.983252,-25.499033
2897845755000.0,-4.7309427,1.5835213505555965,8.313135611818382,0.01038471,0.003970624,0.01160644,332.75772,-17.980482,-25.495537
2897850857000.0,-4.731239596025437,1.5795793079491256,8.303091,0.0106901415,-0.0030543262,0.00030543262,332.76202,-17.97581,-25.495634
2897855762000.0,-4.735388527662957,1.571281444674086,8.303091,0.008552114,-0.005192355,0.0061086523,332.76065,-17.973047,-25.494017
2897860682000.0,-4.739550147164812,1.5629582056703764,8.303091,0.008857546,0.0067195175,0.0036651916,332.76813,-17.968498,-25.496933
2897865716000.0,-4.749242981764936,1.5610195,8.291459792190551,0.0036651916,0.0030543262,-0.002443461,332.7768,-17.962204,-25.495012
2897871675000.0,-4.762613153533776,1.5610195,8.273633051620461,0.008857546,-0.0018325958,-0.0021380284,332.78308,-17.959097,-25.495642
2897875712000.0,-4.768292566200316,1.5600620861947558,8.268613635226536,0.0061086523,-0.0070249503,0.005497787,332.78726,-17.953602,-25.49538
2897880757000.0,-4.76381596423608,1.5555855777170389,8.286519575650885,0.012217305,-0.00030543262,0.0036651916,332.79337,-17.950453,-25.498
2897885835000.0,-4.7589326369435785,1.5510725204044986,8.301610273887157,0.0106901415,0.002443461,0.015271631,332.79605,-17.944,-25.503073
2897890718000.0,-4.750093534732067,1.5466529923731216,8.283932069464134,0.014660766,-0.004581489,0.009468411,332.80475,-17.938023,-25.509134
2897896205000.0,-4.740682320401855,1.541214714992272,8.26429552859351,0.008552114,-0.01038471,0.003970624,332.80762,-17.931871,-25.510902
2897900819000.0,-4.744476529160227,1.5260378007212776,8.252912664605873,0.010995574,-0.011301007,0.01282817,332.80817,-17.929941,-25.51132
2897905738000.0,-4.748521547123476,1.5098576443929246,8.240777357290057,0.012217305,-0.012217305,0.01160644,332.81525,-17.925764,-25.510708
2897910712000.0,-4.7500963,1.505766909301975,8.24046971083974,0.015577064,-0.019242255,0.01282817,332.8197,-17.9241,-25.507238
2897915711000.0,-4.7500963,1.5093757155133425,8.247687473993668,0.011911872,-0.014966198,0.01740966,332.8224,-17.921112,-25.506498
2897921185000.0,-4.74987888694205,1.51248316082615,8.254989582401638,0.014660766,-0.008552114,0.025045475,332.8288,-17.92008,-25.505148
2897925755000.0,-4.74614363252539,1.5012773975761713,8.251254249978663,0.017715093,-0.028405234,0.01863139,332.84033,-17.916857,-25.498959
2897930728000.0,-4.742078989152514,1.4890834674575404,8.247189521720577,0.01985312,-0.022907447,0.014660766,332.8466,-17.919943,-25.496622
2897935709000.0,-4.73029026593674,1.4946342340632603,8.24563,0.02107485,-0.014049901,0.01985312,332.8537,-17.923666,-25.489933
2897941182000.0,-4.7120720433437615,1.5128524566562391,8.24563,0.014660766,-0.032986723,0.0143553335,332.8675,-17.923824,-25.478983
2897945705000.0,-4.700684670243205,1.5318779944921317,8.253268148783977,0.01740966,-0.032070424,0.017104227,332.86963,-17.924297,-25.47649
2897950733000.0,-4.695764156202738,1.5614011301144493,8.277870718986307,0.01863139,-0.032986723,0.016798794,332.8765,-17.921516,-25.469505
2897955689000.0,-4.691108386302239,1.5832273273955215,8.295041145589702,0.0061086523,-0.031154128,0.014049901,332.8843,-17.919882,-25.458618
2897960692000.0,-4.686764924204515,1.591914251590971,8.299384698395432,0.004886922,-0.041233405,0.014660766,332.89252,-17.921595,-25.444387
2897965705000.0,-4.684696406343855,1.5987807959852895,8.307458266319339,0.014049901,-0.036957346,0.021380283,332.89957,-17.925943,-25.430573
2897970762000.0,-4.695827966802023,1.5950702629175606,8.33714276333129,0.014049901,-0.03145956,0.0021380284,332.91492,-17.924135,-25.417389
2897975765000.0,-4.706840661477168,1.5913993519154153,8.366510281336193,-0.0036651916,-0.034208454,0.0067195175,332.9171,-17.927557,-25.398605
2897980688000.0,-4.711789,1.5873530119011976,8.372515435815869,0.00580322,-0.028099801,0.009162978,332.924,-17.934847,-25.386257
2897985695000.0,-4.711789,1.5828665750000002,8.3590563125,0.0061086523,-0.03573562,0.008246681,332.93222,-17.935204,-25.369812
2897990705000.0,-4.711789,1.5743544318241538,8.350976,0.0009162979,-0.03359759,0.0067195175,332.93698,-17.93234,-25.358177
2897995783000.0,-4.711789,1.5596103215462356,8.350976,0.012217305,-0.027794369,0.008552114,332.94138,-17.933924,-25.345669
2898000802000.0,-4.717076792674787,1.5496801269814784,8.345688115301185,0.009468411,-0.03481932,-0.0009162979,332.94836,-17.928444,-25.334143
2898005695000.0,-4.72880533735191,1.5457706665192723,8.33395936651093,0.0076358155,-0.03359759,-0.00580322,332.95193,-17.926737,-25.32608
2898010922000.0,-4.741128514308427,1.5412569761526231,8.321940484896661,0.004886922,-0.038789943,-0.00061086525,332.95758,-17.921274,-25.314983
2898020722000.0,-4.758682456139531,1.5237027593752923,8.313163284859254,0.0061086523,-0.03726278,0.0027488936,332.9642,-17.91548,-25.306969
2898025727000.0,-4.739708627645626,1.5267050744708748,8.316660957857277,0.020463986,-0.028710667,-0.0015271631,332.97537,-17.913454,-25.30262
2898030724000.0,-4.7173002788911775,1.5311867442217644,8.321142721202474,0.0033597588,-0.02565634,0.0015271631,332.98364,-17.905003,-25.296438
2898035698000.0,-4.717766550541667,1.523322721,8.322245,-0.0018325958,-0.023823744,0.0009162979,332.993,-17.900246,-25.296219
2898040715000.0,-4.725774393283333,1.5113110196,8.322245,-0.004581489,-0.026267206,-0.0012217305,333.00195,-17.891953,-25.295628
2898045695000.0,-4.732185365594041,1.4998306032178772,8.318516925363129,-0.0009162979,-0.02565634,-0.005192355,333.01,-17.882278,-25.292616
2898050721000.0,-4.735770691240224,1.4890746262793295,8.307760723798882,0.0036651916,-0.025961773,0.0030543262,333.01526,-17.87354,-25.287884
2898060691000.0,-4.7405195,1.4695612779548473,8.30141454805777,0.0033597588,-0.015882496,0.0021380284,333.02747,-17.860695,-25.288675
2898065720000.0,-4.7405195,1.4615663033200532,8.313407260458169,0.0033597588,-0.014966198,-0.0015271631,333.03888,-17.849907,-25.286543
2898070807000.0,-4.739401343016572,1.4612653849171455,8.322245,-0.0018325958,-0.007330383,0.0018325958,333.05374,-17.83644,-25.28977
