timestamp,acc_x,acc_y,acc_z,gyro_x,gyro_y,gyro_z,ori_azimuth,ori_pitch,ori_roll
971313836000.0,-0.697271816685456,9.744546749925176,-0.1284593382075942,1.9984456,0.91751957,-6.594901,339.5295,-20.645483,-34.273937
971318829000.0,-0.7039505693813976,9.745262319941338,-0.1165329977547539,1.9984456,0.73792523,0.034513887,337.49942,-21.760128,-33.412903
971324042000.0,-0.7109235991839097,9.74600941917912,-0.1040811626294471,-1.1695015,0.75594574,0.035430185,339.1844,-20.842155,-34.419926
971329033000.0,-0.7175996766334278,9.746724702565997,-0.0921595994009019,-1.1716396,0.7620544,0.035430185,338.80737,-21.78357,-34.542862
971333799000.0,-0.7239747888603169,9.74740774015803,-0.080775473905561,-1.1896601,0.7644979,0.036957346,338.41193,-22.008429,-34.661156
971338818000.0,-0.7306883197597621,9.74812703635493,-0.0687870295368837,-1.20371,0.729984,0.03359759,338.00693,-22.241932,-34.763676
971343848000.0,-0.737416564514536,9.74884790901291,-0.056772310434583,-1.1582005,0.75411314,0.030543262,337.57666,-22.493937,-34.873154
971348833000.0,-0.7440846162247841,9.749562332511925,-0.0448650788789233,-1.1753048,0.782213,0.03634648,337.13623,-22.738169,-34.966206
971353847000.0,-0.7507914590081709,9.750280912135604,-0.0328885775709839,-1.2095132,0.7849618,0.046731193,336.68286,-22.997276,-35.050716
971358993000.0,-0.7576748680555001,9.751018409292255,-0.0205967794595646,-1.2217305,0.7516697,0.32742378,336.13443,-23.314749,-35.08687
971363822000.0,-0.7641342505447253,9.751710475706846,-0.0090621713989265,-1.1969905,0.7693848,0.05375614,335.73242,-23.54306,-35.204475
971368809000.0,-0.7708049775013968,9.752425185835143,0.0028498373810283,-1.2476922,0.7657196,0.06414085,335.15875,-23.859762,-35.222088
971374179000.0,-0.7779880141481433,9.753194785471996,0.0156766846135044,-1.2425,0.76083267,0.065973446,334.65924,-24.150553,-35.276093
971378879000.0,-0.7842748432430613,9.753868364297544,0.0269031617071053,-1.2425,0.752586,0.074830994,334.14752,-24.438557,-35.318645
971383804000.0,-0.7908626375606082,9.754574188917932,0.0386670765339106,-1.2388347,0.754724,0.07849618,333.6284,-24.734062,-35.355927
971388783000.0,-0.7975226635315861,9.755287752529082,0.0505599764166849,-1.2388347,0.7519751,0.08277224,333.10217,-25.036232,-35.38163
971393864000.0,-0.8043191270701558,9.756015934233892,0.0626965147385119,-1.2443326,0.70707655,0.09590584,332.57367,-25.345673,-35.388817
971398852000.0,-0.810991191650039,9.756730787676837,0.0746109121306143,-1.2153164,0.60903263,0.099265605,332.05222,-25.666712,-35.376587
971403791000.0,-0.8175977126925494,9.757438618702237,0.0864082675274857,-1.1212431,0.5039638,0.109650314,331.5306,-26.009102,-35.34247
971408889000.0,-0.8244169158257179,9.758169236755991,0.0985854122558213,-1.0070114,0.39950588,0.09865474,331.03024,-26.362974,-35.282
971413902000.0,-0.8311224209858931,9.758887673065027,0.1105595249516132,-0.86498517,0.29535335,0.08827003,330.54556,-26.74895,-35.18959
971418788000.0,-0.8376580479981843,9.75958790841431,0.122230283904663,-0.74464476,0.22143865,0.07422013,330.07956,-27.15526,-35.07714
971424020000.0,-0.8446564926417184,9.760337730630326,0.1347275026607738,-0.6291912,0.08827003,0.03573562,329.65683,-27.587236,-34.927383
971428865000.0,-0.8511372771023306,9.761032090079215,0.1463003285157731,-0.38637227,-0.1328632,-0.03176499,329.2809,-28.06695,-34.743023
971433809000.0,-0.8577504862608996,9.761740637677834,0.1581096269733823,0.027183503,-0.14508049,-0.04062254,328.88727,-28.614008,-34.570206
971438767000.0,-0.8643824221444321,9.762451191681466,0.1699523660010575,0.0580322,-0.100792766,-0.028405234,328.5441,-29.12221,-34.364098
971444649000.0,-0.8722503218755612,9.763294168415907,0.1840021826530917,0.005192355,-0.07544186,-0.022296581,328.21658,-29.698885,-34.150623
971448814000.0,-0.8778215225522278,9.763891073907056,0.1939507522477403,-0.03390302,-0.06505715,-0.015882496,327.8847,-30.286335,-33.939068
971453785000.0,-0.8844708475375123,9.764603491001058,0.205824543233334,-0.033292156,-0.04734206,-0.017104227,327.55148,-30.86915,-33.732594
971458884000.0,-0.8912913882938923,9.765334252369456,0.2180040765738173,-0.025045475,-0.046120327,0.00030543262,327.21802,-31.44803,-33.517815
971463817000.0,-0.8978898835971327,9.766041223506994,0.2297871002978031,-0.029626964,-0.049785517,0.0061086523,326.89056,-32.01989,-33.305775
971468794000.0,-0.9045472343216872,9.766754500488856,0.2416752229562823,-0.02443461,-0.055283304,0.019242255,326.56226,-32.59797,-33.086857
971473869000.0,-0.9113356721209868,9.767481822305804,0.2537974296052238,-0.021380283,-0.09162979,0.030543262,326.2463,-33.172756,-32.857605
971478838000.0,-0.917982321859848,9.768193952770517,0.2656664433665223,0.004276057,-0.10170906,0.04153884,325.92847,-33.75314,-32.62867
971483794000.0,-0.9246115824969572,9.76890422014486,0.2775044051699024,0.025961773,-0.110872045,0.035124753,325.62634,-34.32908,-32.39179
971488783000.0,-0.931284984700052,9.769619216902448,0.2894211911741525,0.051923547,-0.11056661,0.032375857,325.3271,-34.910828,-32.15075
971493803000.0,-0.937999853222709,9.77033865641399,0.3014120241549773,0.06688975,-0.10048734,0.02565634,325.03424,-35.497234,-31.895365
971498795000.0,-0.9446772682954389,9.771054083115509,0.3133359759956701,0.064446285,-0.08307768,0.022907447,324.74615,-36.081837,-31.640543
971503780000.0,-0.9513453200056868,9.771768506614524,0.3252432075513299,0.058337633,-0.06414085,0.015577064,324.46497,-36.66264,-31.38967
971508939000.0,-0.958246118154768,9.772507866861543,0.3375660576206676,0.043982297,-0.048563786,0.01740966,324.18564,-37.237965,-31.139776
971513869000.0,-0.9648406005883732,9.77321440805515,0.3493419155082108,0.021685716,-0.054061573,0.013744468,323.9165,-37.80339,-30.891499
971518843000.0,-0.9714939384432928,9.77392725509308,0.3612228723302472,0.009468411,-0.07238753,0.004581489,323.65408,-38.36277,-30.64406
971523992000.0,-0.978381360360257,9.774665182193669,0.3735218362781092,0.0033597588,-0.0852157,-0.0027488936,323.39856,-38.913776,-30.39673
971528927000.0,-0.9849825309099208,9.775372439960492,0.3853096372263903,-0.0021380284,-0.08460484,-0.0027488936,323.151,-39.457317,-30.148726
971533789000.0,-0.9914860549651316,9.776069235758325,0.3969230694878983,0.007941248,-0.079107046,0.0033597588,322.912,-39.997982,-29.899536
971538788000.0,-0.9981728334003432,9.77678566566235,0.4088637416136241,0.009162978,-0.07849618,0.0015271631,322.68207,-40.52922,-29.65151
971548785000.0,-1.011545052647555,9.778218382155757,0.4327426972529281,0.0021380284,-0.049785517,-0.017715093,322.45248,-41.053753,-29.412712
971553773000.0,-1.018217117227438,9.778933235598698,0.4446570946450306,0.0018325958,-0.027183503,-0.019242255,322.22693,-41.577858,-29.16993
971558873000.0,-1.0250389956070296,9.77966414028174,0.4568390165976614,-0.013133603,-0.0076358155,-0.021380283,322.00516,-42.0884,-28.936674
971563871000.0,-1.0317244364190294,9.78038042687112,0.4687773001112397,-0.0033597588,-0.0067195175,-0.017715093,321.78732,-42.599808,-28.703691
971568772000.0,-1.038280127779496,9.78108281194006,0.4804838882465032,-0.00580322,0.008552114,-0.019547688,321.56827,-43.098595,-28.479078
971573925000.0,-1.045172900189307,9.78182131229922,0.4927924066429555,-0.013744468,0.034513887,-0.015271631,321.34988,-43.59474,-28.254911
971579100000.0,-1.0520951003097752,9.78256296558054,0.5051534745066545,-0.01863139,0.054061573,-0.0143553335,321.13586,-44.08457,-28.034063
971584247000.0,-1.0589798469803162,9.78330060605184,0.5174476612302213,-0.016798794,0.060170226,-0.009773844,320.92255,-44.570114,-27.814253
971588781000.0,-1.0650446306220944,9.783950394646526,0.5282776287073249,-0.018936822,0.070554934,0.0018325958,320.707,-45.049667,-27.5974
971593812000.0,-1.0717742130000798,9.78467141061915,0.5402947364217731,-0.009773844,0.07360926,0.0036651916,320.49817,-45.525444,-27.382221
971598788000.0,-1.0784302261014227,9.78538454428637,0.5521804704681046,-0.014966198,0.074830994,0.011911872,320.289,-45.995358,-27.16514
971603777000.0,-1.0851036283045177,9.786099541043956,0.5640972564723548,-0.014966198,0.07727446,0.005192355,320.08655,-46.460117,-26.952703
971608918000.0,-1.0919803492357882,9.78683632162739,0.5763771115230361,-0.013133603,0.06811147,0.0061086523,319.88907,-46.92133,-26.735855
971613864000.0,-1.0985962336407806,9.787545155855298,0.5881911872049405,-0.01985312,0.067500606,0.012217305,319.6942,-47.374615,-26.52224
971618782000.0,-1.1051746645958458,9.78824997727318,0.5999383817467128,-0.02565634,0.058948494,0.008246681,319.51062,-47.82091,-26.30919
971623937000.0,-1.1120701122520802,9.788988764261628,0.6122516773674602,-0.013744468,0.06536258,0.0033597588,319.32733,-48.2647,-26.09856
971628935000.0,-1.11875555306408,9.789705050851008,0.6241899608810384,-0.019547688,0.07086037,0.00580322,319.15088,-48.698254,-25.887022
971633793000.0,-1.1252537266264442,9.790401273390266,0.6357938386939561,-0.014966198,0.062002823,0.005192355,318.9828,-49.129242,-25.677586
971638773000.0,-1.131915090220634,9.79111498031606,0.647689127188878,-0.013133603,0.06994407,0.0036651916,318.81323,-49.552837,-25.472782
971643816000.0,-1.1386607240771596,9.791837716064409,0.6597348982490971,-0.010079277,0.06627888,0.013133603,318.65207,-49.97381,-25.263905
971648788000.0,-1.1453113866856557,9.792550276473053,0.6716110778468385,-0.006414085,0.0720821,0.02076942,318.49142,-50.388824,-25.060104
971654066000.0,-1.1523713619969274,9.793306691162678,0.6842181727617376,-0.011911872,0.08735373,0.022907447,318.33313,-50.797436,-24.857908
971658898000.0,-1.1588347573557876,9.7939991875212,0.6957599466588185,-0.0021380284,0.08307768,0.02565634,318.18167,-51.20578,-24.653423
971663852000.0,-1.1654613427464733,9.794709168266255,0.7075931312379033,-0.0009162979,0.090713486,0.027183503,318.02713,-51.605453,-24.454498
971668777000.0,-1.1720491370640205,9.795414992886643,0.7193570460647086,0.00580322,0.09132435,0.025045475,317.88016,-52.002342,-24.255976
971673982000.0,-1.1790114658808388,9.796160945607278,0.7317897722928348,0.007330383,0.079107046,0.021991149,317.73877,-52.392666,-24.058435
971678868000.0,-1.1855470928931302,9.796861180956562,0.7434605312458846,0.00580322,0.08155051,0.02443461,317.59692,-52.77858,-23.86413
971683787000.0,-1.1878535717936414,9.79773195734853,0.7272225789643072,0.015577064,0.08399397,0.03023783,317.4625,-53.1615,-23.669958
971688773000.0,-1.188330975560888,9.798686784823037,0.6985783334880025,0.015882496,0.06780604,0.039095376,317.33566,-53.537376,-23.474165
971693814000.0,-1.188813645514897,9.799652144891022,0.6696181165914817,0.009773844,0.064751714,0.037873644,317.23434,-53.869972,-23.28942
971698790000.0,-1.189290091793641,9.80060505734853,0.6410313204643072,0.016493361,0.06780604,0.040317107,317.13742,-54.201714,-23.10311
971703787000.0,-1.1897685487982403,9.801561991341732,0.6123238807039593,0.014966198,0.063224554,0.03390302,317.04825,-54.52252,-22.9209
971708910000.0,-1.1902590701579685,9.802543054549089,0.5828925791445712,0.01282817,0.06414085,0.03726278,316.95822,-54.841084,-22.73971
971713807000.0,-1.1907279522775445,9.803480838372325,0.5547596328755249,0.004886922,0.06719518,0.035124753,316.87378,-55.150055,-22.564121
971718778000.0,-1.1912039198120377,9.804432793321336,0.5262015614229154,0.01282817,0.06872234,0.019547688,316.79404,-55.454433,-22.39384
971723833000.0,-1.19168793024995,9.805400834413115,0.4971609154376125,0.00061086525,0.06658431,0.027794369,316.7144,-55.751587,-22.220715
971729087000.0,-1.1921909947090583,9.80640698434313,0.4669770274046191,0.00030543262,0.06261369,0.027794369,316.6411,-56.04305,-22.056295
971738768000.0,-1.1931179393281344,9.80826091229754,0.4113603125116977,-0.002443461,0.064751714,0.017715093,316.56976,-56.325848,-21.89553
971743808000.0,-1.1936005135332934,9.809226080863828,0.38240584055009,-0.0018325958,0.061391957,0.018325957,316.5023,-56.606236,-21.733475
971748795000.0,-1.1940780130493902,9.810181099840031,0.3537558501388723,0.005497787,0.05100725,0.017104227,316.44046,-56.880203,-21.576448
971753775000.0,-1.1945548423235353,9.81113477830434,0.3251460742720456,-0.004276057,0.052839845,0.007941248,316.3797,-57.14438,-21.424965
971758894000.0,-1.1950449806878625,9.8121150755049,0.2957377524523096,-0.009162978,0.048563786,0.0125227375,316.32434,-57.408714,-21.270761
971763795000.0,-1.1955142458028394,9.813053625334932,0.2675818264436113,-0.0015271631,0.046731193,0.014966198,316.27173,-57.666763,-21.122482
971769675000.0,-1.1960772490421916,9.814179655328934,0.2338016091550689,-0.0036651916,0.038789943,0.004276057,316.22534,-57.91546,-20.977673
971773868000.0,-1.1964787239712058,9.81498262195561,0.2097130970647871,-0.0027488936,0.03145956,0.01160644,316.17896,-58.165794,-20.829882
971778836000.0,-1.1969544042591482,9.81593400239952,0.1811722604169167,0.00030543262,0.040927973,0.014660766,316.1342,-58.408783,-20.689465
971783794000.0,-1.1974291270585884,9.816883467826434,0.1526888731181764,0.010995574,0.04550946,0.01863139,316.09387,-58.65077,-20.547894
971788771000.0,-1.197905669086183,9.817836571785644,0.1240963320560888,0.0106901415,0.0421497,0.0143553335,316.05585,-58.885708,-20.410284
971793797000.0,-1.1983869028074383,9.818799059328134,0.0952222891832633,-0.007941248,0.038789943,0.009162978,316.0182,-59.115273,-20.274805
971798797000.0,-1.1988656470585883,9.819756567826436,0.0664976146181763,-0.0033597588,0.03970624,0.004886922,315.98267,-59.344776,-20.14266
971803774000.0,-1.1993421890861828,9.820709671785645,0.0379050735560888,-0.003970624,0.037873644,-0.0015271631,315.9516,-59.563732,-20.014044
971808878000.0,-1.1998308912177564,9.821687096460709,0.008582925760048,-0.004886922,0.04062254,-0.003970624,315.92084,-59.779495,-19.888388
971813801000.0,-1.2003022628074385,9.822629859328137,-0.0196993888167366,-0.0061086523,0.03756821,-0.0009162979,315.89407,-59.99095,-19.764303
971818780000.0,-1.2007789963327336,9.82358334629074,-0.0483034197486501,-0.008246681,0.03634648,-0.004581489,315.86884,-60.1964,-19.645296
971823837000.0,-1.2012631982683464,9.824551770385922,-0.0773555556037791,-0.009468411,0.04062254,-0.0036651916,315.8436,-60.399464,-19.526686
971828934000.0,-1.2017512301579685,9.82552785454909,-0.1066374888554289,-0.017104227,0.027794369,-0.01038471,315.82645,-60.594814,-19.41115
971833943000.0,-1.20223083614877,9.826487086562688,-0.1354138678347329,-0.013744468,0.02565634,0.00061086525,315.80444,-60.79219,-19.2944
971839674000.0,-1.202779572809438,9.82758458280344,-0.1683380898212356,-0.009773844,0.034208454,-0.008552114,315.7876,-60.979343,-19.186563
971843827000.0,-1.203177217784443,9.828379889362129,-0.1921968045149968,-0.01863139,0.032986723,-0.004886922,315.7728,-61.165604,-19.073193
971848784000.0,-1.203651844835033,9.829329163287342,-0.2206744468788242,-0.019547688,0.032375857,-0.0125227375,315.75916,-61.34696,-18.968212
971853772000.0,-1.20412944009998,9.830284373765249,-0.2493301822249549,-0.021991149,0.03604105,-0.0125227375,315.74466,-61.524952,-18.862518
971858851000.0,-1.204615748510298,9.83125701089782,-0.2785087066481703,-0.01863139,0.033292156,-0.009468411,315.734,-61.69982,-18.759193
971863838000.0,-1.2050932480263947,9.832212029874023,-0.3071586970593881,-0.016187929,0.027183503,-0.014660766,315.7254,-61.86918,-18.659958
971868834000.0,-1.2055716092821436,9.833168772365529,-0.335860391884823,-0.010079277,0.03481932,-0.014049901,315.71396,-62.038555,-18.561365
971874115000.0,-1.206077258960208,9.834180092841432,-0.3661993931604678,-0.020463986,0.035124753,-0.010079277,315.70764,-62.20151,-18.463675
971878851000.0,-1.206530725514897,9.835087044891022,-0.3934074049085182,-0.01740966,0.032986723,-0.013439035,315.70178,-62.364193,-18.370085
971883791000.0,-1.2039101120153568,9.83424139884774,-0.4062958618703757,-0.018936822,0.033292156,-0.016187929,315.69577,-62.521618,-18.277317
971888792000.0,-1.1998452933630217,9.83256764103204,-0.4122735356835179,-0.029321533,0.027183503,-0.014660766,315.69315,-62.67506,-18.185152
971893820000.0,-1.1957585290790906,9.830884846731436,-0.4182834824806542,-0.016493361,0.02107485,-0.011911872,315.63538,-62.923622,-18.101328
971898787000.0,-1.1917213456665434,9.829222468193027,-0.4242205162398778,-0.004581489,0.010995574,-0.016187929,315.58362,-63.164074,-18.018986
971903776000.0,-1.1876662806282512,9.827552726592844,-0.4301838465045781,-0.0036651916,0.008552114,-0.014966198,315.53302,-63.401855,-17.935654
971909423000.0,-1.183076392419946,9.825662762508612,-0.4369336813421733,-0.003970624,-0.006414085,-0.0125227375,315.49158,-63.63662,-17.852045
971913829000.0,-1.1794951904638995,9.82418814204551,-0.4422001542117402,0.0030543262,-0.0061086523,-0.007330383,315.44846,-63.869347,-17.769701
971918781000.0,-1.1754701990689058,9.822530783776497,-0.4481192585354115,0.0106901415,-0.0027488936,-0.0015271631,315.4108,-64.09841,-17.686407
971923897000.0,-1.171311908281994,9.820818537228783,-0.4542343913544547,0.019547688,-0.009468411,0.00030543262,315.37817,-64.32513,-17.602932
971928815000.0,-1.1673145521267885,9.819172558237062,-0.4601128556242074,0.018020526,-0.0125227375,0.00580322,315.3449,-64.548874,-17.518661
971933815000.0,-1.1632505462756235,9.81749913510599,-0.4660893341416461,0.013133603,-0.019242255,-0.004581489,315.31818,-64.76666,-17.438389
971938832000.0,-1.159172722804565,9.815820022336272,-0.472086132686044,0.009468411,-0.024740042,-0.008552114,315.29303,-64.98257,-17.355911
971943815000.0,-1.1551225345732945,9.814152288843845,-0.4780422911765234,0.0015271631,-0.022602014,-0.008552114,315.27032,-65.19124,-17.276411
971948780000.0,-1.1510869767630876,9.81249057967469,-0.4839769343443401,-0.00061086525,-0.029626964,-0.004886922,315.25385,-65.3963,-17.196844
971953772000.0,-1.147029473321285,9.810819834020627,-0.4899438504961508,-0.0018325958,-0.02565634,-0.009468411,315.2363,-65.59439,-17.12184
971958935000.0,-1.142832980879372,9.809091857295485,-0.496115162213258,-0.0015271631,-0.041233405,-0.016493361,315.22806,-65.78878,-17.04539
971963833000.0,-1.1388518807475712,9.807452571996285,-0.501969720568941,0.00030543262,-0.04337143,-0.016493361,315.2165,-65.97997,-16.970951
971968780000.0,-1.1348309533584289,9.805796887150402,-0.5078828484140947,-0.0076358155,-0.05375614,-0.005192355,315.21304,-66.16653,-16.894476
971973830000.0,-1.1307263074487524,9.80410672978802,-0.5139190917167078,0.0033597588,-0.051923547,-0.00580322,315.2094,-66.351166,-16.823284
971979346000.0,-1.1262428961937474,9.80226060938982,-0.5205123428171461,-0.008246681,-0.0693332,-0.007330383,315.21503,-66.52835,-16.748032
971983784000.0,-1.1226356846002536,9.800775279018682,-0.5258170651492247,-0.01863139,-0.0711658,-0.020158553,315.21817,-66.70197,-16.678747
971988783000.0,-1.118572491550259,9.799102190572237,-0.5317923483709599,-0.008552114,-0.084910266,-0.017104227,315.22998,-66.87692,-16.604399
971993825000.0,-1.1144743480499446,9.797414710686862,-0.537819029307945,-0.01038471,-0.082161374,-0.016798794,315.24026,-67.040985,-16.536718
971998793000.0,-1.1104363518362272,9.79575199746383,-0.543757258362872,-0.022907447,-0.09712757,-0.023518313,315.26123,-67.20087,-16.468868
972003786000.0,-1.1063780355932542,9.79408091712514,-0.5497253698103863,-0.01863139,-0.102319926,-0.022296581,315.27924,-67.3622,-16.400982
972008871000.0,-1.1022449416426197,9.79237904580084,-0.5558034484626215,-0.01160644,-0.11178834,-0.039095376,315.3059,-67.51337,-16.33964
972013848000.0,-1.09819963021837,9.790713320416172,-0.56175243517888,-0.018936822,-0.129198,-0.036957346,315.3359,-67.66381,-16.27296
972018779000.0,-1.0941917076479517,9.789062990524307,-0.5676464382927779,-0.024740042,-0.1414153,-0.030848695,315.3692,-67.81027,-16.210667
972023976000.0,-1.089967579966251,9.787323634521872,-0.5738583900638037,-0.03023783,-0.15393804,-0.03848451,315.4095,-67.950066,-16.151443
972028953000.0,-1.0859222685420016,9.785657909137203,-0.5798073767800621,-0.040927973,-0.16279559,-0.04428773,315.45255,-68.086624,-16.090633
972033781000.0,-1.0819980644921168,9.78404205176184,-0.585578264436501,-0.035124753,-0.17745635,-0.049785517,315.50226,-68.22104,-16.031712
972038778000.0,-1.0779364970444627,9.782369632684643,-0.5915511570668291,-0.03756821,-0.18081611,-0.04153884,315.55142,-68.350945,-15.971966
972043810000.0,-1.0738464815558506,9.780685499645536,-0.5975658850467794,-0.04520403,-0.17806722,-0.044898596,315.60504,-68.47479,-15.917504
972048874000.0,-1.069730456429791,9.778990656698385,-0.6036188624892413,-0.060170226,-0.17745635,-0.050396383,315.66046,-68.59558,-15.862167
972053783000.0,-1.065740415485117,9.777347689868298,-0.6094865690976625,-0.058948494,-0.16707164,-0.054367006,315.713,-68.71519,-15.80941
972058947000.0,-1.0615431102420343,9.775619378458527,-0.6156590761104732,-0.06658431,-0.15088372,-0.06047566,315.76483,-68.82635,-15.76033
972063856000.0,-1.057553069297361,9.77397641162844,-0.6215267827188945,-0.071776666,-0.15821409,-0.06841691,315.8214,-68.93471,-15.712993
972068780000.0,-1.0535508363351338,9.77232842452896,-0.6274124187628681,-0.08002335,-0.14996742,-0.0720821,315.8695,-69.03851,-15.669377
972074158000.0,-1.0491795916416211,9.77052849060918,-0.6338407190562252,-0.090713486,-0.1441642,-0.077579886,315.92163,-69.13671,-15.628709
972078913000.0,-1.0453147220771637,9.76893706521153,-0.6395243501263094,-0.09132435,-0.13775012,-0.07971791,315.97168,-69.23322,-15.589615
972083767000.0,-1.043432650772799,9.765853356927876,-0.650140063140564,-0.09285152,-0.13500121,-0.089186326,316.02246,-69.3229,-15.555049
972088771000.0,-1.0427186190959838,9.761807181568049,-0.6639446399367259,-0.10293079,-0.12858713,-0.09773844,316.07083,-69.40879,-15.522279
972094791000.0,-1.041859612162645,9.756939480595593,-0.6805520644596863,-0.11178834,-0.13652839,-0.098043874,316.11932,-69.526634,-15.468275
972098799000.0,-1.0412877018987214,9.753698659084362,-0.6916089676969,-0.10903945,-0.13683382,-0.10903945,316.16568,-69.63817,-15.421686
972103772000.0,-1.0405780936795366,9.749677549958776,-0.7053280245328937,-0.099571034,-0.129198,-0.111177474,316.21185,-69.74883,-15.373857
972108862000.0,-1.0398517904751026,9.745561836013628,-0.7193698502508121,-0.11026118,-0.13225232,-0.106595986,316.26196,-69.85309,-15.327559
972113802000.0,-1.039146891097911,9.741567410298687,-0.7329978697098527,-0.10751228,-0.12797627,-0.10720685,316.30865,-69.95775,-15.28527
972118782000.0,-1.038436284033455,9.737540641055697,-0.7467362375045941,-0.119729586,-0.12064589,-0.1001819,316.35498,-70.058304,-15.24052
972123825000.0,-1.0377166873615566,9.733462930756012,-0.7606484039280641,-0.1160644,-0.11942416,-0.10842858,316.40338,-70.15669,-15.20102
972128938000.0,-1.0369871022369452,9.72932861928223,-0.7747536799390105,-0.13408493,-0.12186762,-0.09773844,316.44937,-70.25265,-15.155442
972133966000.0,-1.0362696459477714,9.725263037805568,-0.7886244657365927,-0.14660765,-0.11362094,-0.103847094,316.494,-70.34279,-15.118487
972138773000.0,-1.0355837246307351,9.721376154321415,-0.8018855769794284,-0.1685988,-0.10567969,-0.09743301,316.53824,-70.43125,-15.075779
972143810000.0,-1.0348649841119266,9.71730329555094,-0.8157811911525434,-0.17715092,-0.09682214,-0.10323623,316.58136,-70.51406,-15.039606
972148782000.0,-1.0341555185849234,9.71328299501356,-0.8294974892801447,-0.21074851,-0.081855945,-0.109650314,316.62036,-70.58806,-15.003515
972153772000.0,-1.033443484598651,9.70924813988855,-0.8432634441588112,-0.23335053,-0.07422013,-0.109650314,316.65915,-70.661095,-14.968113
972158883000.0,-1.032714184858403,9.705115445591172,-0.8573632027529725,-0.25350907,-0.06658431,-0.11759156,316.6948,-70.72398,-14.938334
972164774000.0,-1.0318735852164929,9.700352052496696,-0.8736147538932981,-0.2657264,-0.04795292,-0.11728613,316.72476,-70.78488,-14.908015
972168777000.0,-1.031302388413477,9.697115273926476,-0.884657863588549,-0.28588495,-0.050701816,-0.122478485,316.75977,-70.83667,-14.881195
972174051000.0,-1.0305498298476254,9.692850779752266,-0.8992072916506908,-0.29779682,-0.034513887,-0.13561209,316.78458,-70.88501,-14.859315
972178807000.0,-1.0298711858318517,9.689005134266386,-0.9123277087655082,-0.3118467,-0.032070424,-0.1563815,316.81512,-70.925606,-14.840514
972183900000.0,-1.0291444545508726,9.684886994556631,-0.926377810608604,-0.32070425,-0.03176499,-0.17256944,316.84235,-70.962296,-14.825339
972188785000.0,-1.02844740324367,9.680937041192772,-0.9398541011060562,-0.32803464,-0.024129177,-0.18692477,316.86804,-70.9919,-14.816294
972193822000.0,-1.0277286627248616,9.676864182422298,-0.9537497152791712,-0.33964106,-0.021380283,-0.19975294,316.8961,-71.01536,-14.811235
972198793000.0,-1.02701933989004,9.672844690473116,-0.96746325469838,-0.3454443,-0.02107485,-0.21868975,316.924,-71.03353,-14.812278
972203775000.0,-1.0263084474412203,9.66881630405372,-0.9812071399099064,-0.36835176,-0.026267206,-0.2434298,316.95398,-71.04212,-14.818359
972208933000.0,-1.0255724411684364,9.664645606110874,-0.995436557798516,-0.3817908,-0.02443461,-0.25045475,316.98196,-71.05089,-14.825089
972213804000.0,-1.0248773875517765,9.660706972981831,-1.008874226378473,-0.38026363,-0.017104227,-0.26511553,317.01184,-71.05096,-14.84066
972218884000.0,-1.0241525112691583,9.656599344918696,-1.022888465012466,-0.38515055,-0.019547688,-0.27305678,317.04407,-71.04753,-14.855557
972224015000.0,-1.023420357685278,9.65245047885729,-1.0370433977744775,-0.3912592,-0.015271631,-0.28771752,317.07355,-71.039474,-14.876892
972228840000.0,-1.0227318679089723,9.648549040785513,-1.0503541657683788,-0.3943135,-0.009468411,-0.29077184,317.10303,-71.032104,-14.89674
972233791000.0,-1.0220253989177832,9.64454572060036,-1.064012531019737,-0.3979787,-0.013133603,-0.29229903,317.13483,-71.02085,-14.91947
972238790000.0,-1.0213120807018763,9.640503588181538,-1.0778033142739365,-0.41080686,-0.005192355,-0.28924468,317.1615,-71.00811,-14.94228
972243837000.0,-1.0205919132612518,9.63642264352905,-1.0917265155309763,-0.42577308,0.00030543262,-0.2959642,317.1906,-70.992096,-14.967401
972248785000.0,-1.019885872346607,9.6324217491085,-1.1053766046571574,-0.43066,0.0021380284,-0.29352075,317.2177,-70.978714,-14.988853
972253770000.0,-1.019174551821243,9.628390936924498,-1.1191287659938611,-0.4560109,0.01863139,-0.29840767,317.2398,-70.9564,-15.014891
972258922000.0,-1.0184394017015486,9.624225090510862,-1.133341631632116,-0.47586402,0.019242255,-0.30757064,317.26605,-70.93419,-15.040107
972263850000.0,-1.0177362146305364,9.62024036785434,-1.1469365465904462,-0.48808134,0.02321288,-0.30818152,317.28632,-70.91027,-15.06489
972268777000.0,-1.017033170251706,9.61625645378602,-1.160528702840384,-0.52198434,0.038179077,-0.3118467,317.3039,-70.877,-15.093169
972273827000.0,-1.0163125747345363,9.612173083368926,-1.1744601802226018,-0.5308419,0.053145275,-0.30787608,317.3199,-70.84824,-15.1191
972278803000.0,-1.0156025384388068,9.60814954847874,-1.1881875131837731,-0.52412236,0.07269296,-0.30695978,317.33054,-70.81557,-15.147416
972283801000.0,-1.0245222171836337,9.60127304047714,-1.169385142620431,-0.5186246,0.08002335,-0.301462,317.33987,-70.7839,-15.172851
972288778000.0,-1.0509443051422898,9.589263008476411,-1.0913198769282326,-0.50854534,0.07147124,-0.29901853,317.34833,-70.75446,-15.198443
972293843000.0,-1.0778335708667408,9.577040623086884,-1.0118743131888344,-0.5006041,0.053145275,-0.2947425,317.33893,-70.77081,-15.215511
972298789000.0,-1.1040910848397192,9.565105397393578,-0.9342952888541723,-0.5018258,0.040927973,-0.29138273,317.3307,-70.78733,-15.23156
972304255000.0,-1.1331091947014862,9.551915356220992,-0.848559957876966,-0.50793445,0.023823744,-0.28252518,317.329,-70.8062,-15.243142
972308882000.0,-1.1576731892734575,9.54074991156209,-0.7759845139634032,-0.49113566,0.016187929,-0.27550024,317.32843,-70.82876,-15.253813
972313805000.0,-1.1838085999667394,9.528870187322672,-0.6987662493456228,-0.48288897,0.002443461,-0.27091873,317.33456,-70.84985,-15.2611
972318778000.0,-1.2102094525724048,9.51686980774871,-0.6207637244737518,-0.46028697,-0.013744468,-0.27091873,317.34384,-70.8764,-15.266902
972323860000.0,-1.2371889685470665,9.50460639954544,-0.5410515122479628,-0.43066,-0.027183503,-0.25686884,317.3556,-70.909355,-15.266686
972328844000.0,-1.263648218373456,9.492579475797877,-0.4628764501201916,-0.40225476,-0.06261369,-0.24190263,317.37866,-70.94558,-15.263913
972333794000.0,-1.289926967699425,9.480634597677806,-0.3852346849652023,-0.38453966,-0.099571034,-0.21960606,317.4052,-70.989235,-15.2542925
972338775000.0,-1.3163702910110715,9.468614913250317,-0.3071066784526767,-0.37048978,-0.115453534,-0.20341812,317.4357,-71.03823,-15.241526
972343869000.0,-1.3434135130447054,9.456322547766751,-0.2272062437659058,-0.37751472,-0.1255328,-0.18325958,317.47394,-71.09171,-15.21997
972348849000.0,-1.3698515275181045,9.444305276445954,-0.1490939224584619,-0.3979787,-0.106901415,-0.1777618,317.50858,-71.144554,-15.199165
972353851000.0,-1.3964063364329522,9.432234916777956,-0.0706365266392181,-0.43004912,-0.08002335,-0.16279559,317.54218,-71.200035,-15.170496
972358869000.0,-1.4230460867597627,9.420125947402902,0.0080718324613344,-0.47342056,-0.040011674,-0.1563815,317.56693,-71.24846,-15.144976
972363969000.0,-1.4501211618228822,9.407819103279191,0.0880663783785962,-0.5180137,0.017104227,-0.1740966,317.5796,-71.28825,-15.125004
972368859000.0,-1.476081380853991,9.396019011560576,0.1647670312286766,-0.5644395,0.09285152,-0.19120082,317.57507,-71.32139,-15.106736
972374191000.0,-1.5043881063905702,9.383152326684574,0.2484005447249198,-0.6178902,0.16523905,-0.21930063,317.55685,-71.338745,-15.099725
972378876000.0,-1.5292600135809065,9.371846921837598,0.3218857305332279,-0.65240407,0.24495697,-0.26145032,317.5167,-71.34404,-15.106009
972383831000.0,-1.5555653070981137,9.359889978184071,0.3996059217136263,-0.66706485,0.3118467,-0.2864958,317.46036,-71.34131,-15.118332
972388876000.0,-1.5823483960576112,9.347715854928364,0.4787377813513882,-0.67011917,0.36346483,-0.32162055,317.3889,-71.32302,-15.148195
972394410000.0,-1.61172750692022,9.334361722500796,0.5655397062741581,-0.6469063,0.39858958,-0.33964106,317.30402,-71.30541,-15.182108
972399067000.0,-1.6364507666396215,9.323123884641165,0.6385857063401752,-0.6053675,0.41080686,-0.35460728,317.2135,-71.283585,-15.225413
972403712000.0,-1.6611103203000508,9.311915004061824,0.7114434839452106,-0.56505036,0.3839288,-0.35888332,317.12558,-71.264404,-15.269231
972408757000.0,-1.6878934092595486,9.299740880806116,0.7905753435829725,-0.52656585,0.3585779,-0.3463606,317.0346,-71.25279,-15.311867
972413732000.0,-1.7143048795417093,9.287735675018771,0.8686092388650073,-0.4972443,0.28496864,-0.33475417,316.96686,-71.24553,-15.350542
972418732000.0,-1.7408490707800617,9.275670141564156,0.9470352642740874,-0.4560109,0.20555615,-0.30298916,316.9074,-71.254395,-15.377153
972423825000.0,-1.7678869839754476,9.263380189187282,1.0269200137557764,-0.40469822,0.116675265,-0.2648101,316.87207,-71.27395,-15.3932705
972428684000.0,-1.7936826290208785,9.251654903776084,1.1031344252483206,-0.35338554,0.025350908,-0.22357668,316.8594,-71.30811,-15.394635
972433671000.0,-1.8201578053620115,9.239620740708451,1.181356542991337,-0.27977628,-0.07086037,-0.1908954,316.87308,-71.36044,-15.382513
972438666000.0,-1.8466754524091256,9.227567272787288,1.2597041423750082,-0.22724187,-0.16065755,-0.15821409,316.90967,-71.42635,-15.354561
972443707000.0,-1.8734373060156324,9.215402801958344,1.3387732611924428,-0.18967366,-0.24251351,-0.124005646,316.97046,-71.50829,-15.313019
972448674000.0,-1.899806305591812,9.203416901024529,1.416681674833823,-0.1600467,-0.2938262,-0.08979719,317.0469,-71.60331,-15.260226
972453689000.0,-1.9264301294038797,9.191315170969547,1.4953429783191303,-0.13683382,-0.3210097,-0.05100725,317.1381,-71.71044,-15.194899
972458735000.0,-1.9532185272016247,9.179138634607147,1.574490523161974,-0.12950343,-0.33444872,-0.01863139,317.2386,-71.824104,-15.1214695
972463706000.0,-1.9796087621307947,9.167143081246566,1.6524616776236816,-0.13133603,-0.3463606,0.011301007,317.3445,-71.94619,-15.038398
972468711000.0,-2.0061794975603857,9.155065482258497,1.7309661290581706,-0.13316862,-0.33261612,0.034513887,317.44534,-72.07296,-14.950782
972473819000.0,-2.033297043329487,9.14273933328126,1.811086156616087,-0.14569137,-0.29993483,0.039095376,317.54327,-72.19781,-14.862515
972478713000.0,-2.059278497713586,9.13092958913588,1.8878495502864945,-0.16768251,-0.2519819,0.04886922,317.6311,-72.325,-14.769906
972483697000.0,-2.0688983935538507,9.10419908618113,1.920446543758095,-0.19333886,-0.19028452,0.045814894,317.70563,-72.44505,-14.684027
972489118000.0,-2.069415643478131,9.066440203576766,1.9289810837929664,-0.21746802,-0.11942416,0.035430185,317.7633,-72.55999,-14.602257
972493761000.0,-2.069858659784796,9.03410032312444,1.9362907811517387,-0.23793201,-0.090713486,0.014049901,318.0381,-72.306015,-14.656282
972498718000.0,-2.070331636703198,8.99957333897579,1.944094823755106,-0.25503623,-0.05009095,-0.004581489,318.27405,-72.05397,-14.714199
972503760000.0,-2.0708127239782805,8.964454304463485,1.9520326859310555,-0.27947086,-0.0027488936,-0.031154128,318.4879,-71.79778,-14.77976
972508995000.0,-2.071312226533825,8.927990967360765,1.96027439725416,-0.29443705,0.041233405,-0.06627888,318.68066,-71.5415,-14.852335
972513800000.0,-2.071770700226163,8.894522708568298,1.9678391389747931,-0.33017266,0.05955936,-0.087659165,318.85754,-71.282326,-14.926807
972519024000.0,-2.072269153206137,8.858135989747932,1.976063532470858,-0.3494149,0.10262536,-0.13683382,319.00922,-71.01693,-15.019643
972523864000.0,-2.0727309664571085,8.824423945511606,1.983683376368437,-0.3643811,0.1685988,-0.18081611,319.14194,-70.7506,-15.116215
972528979000.0,-2.07321901909734,8.7887964442164,1.9917361659420147,-0.37751472,0.22907446,-0.22968534,319.2602,-70.477425,-15.226626
972533853000.0,-2.0736840764909834,8.754847579834612,1.9994095376686265,-0.3735441,0.2666427,-0.2742785,319.3627,-70.204414,-15.346825
972538836000.0,-2.07415953422437,8.720139497927669,2.0072545133177244,-0.37751472,0.2874121,-0.3213151,319.4512,-69.92508,-15.479781
972543817000.0,-2.074634801125834,8.685445346617515,2.0150963402709974,-0.40225476,0.30176744,-0.35369098,319.52872,-69.64497,-15.618558
972548790000.0,-2.075109304699611,8.65080691769453,2.0229255724409687,-0.4370741,0.3210097,-0.36865717,319.59735,-69.36467,-15.762584
972553832000.0,-2.0755903919746936,8.615687883182225,2.0308634346169177,-0.46028697,0.32803464,-0.37323865,319.66382,-69.086075,-15.908095
972558956000.0,-2.0760793033585734,8.579997694201454,2.03893039332171,-0.48899764,0.3115413,-0.36896262,319.72906,-68.807594,-16.0502
972563788000.0,-2.076540353281857,8.546341372352297,2.046537642435987,-0.5225952,0.2751948,-0.3576616,319.7952,-68.53308,-16.186005
972568912000.0,-2.077029264665737,8.510651183371525,2.0546046011407797,-0.54611355,0.24220806,-0.33292156,319.861,-68.267334,-16.311485
972574031000.0,-2.077517698969812,8.474995820882734,2.062663688106008,-0.5751296,0.21655174,-0.3155119,319.9319,-68.003174,-16.42964
972578822000.0,-2.0779748368386968,8.441625076267808,2.0702063889558637,-0.61727935,0.20891592,-0.29443705,320.00174,-67.74589,-16.53511
972583807000.0,-2.078450485404005,8.406903063764073,2.078054513300787,-0.66767573,0.20463985,-0.27885997,320.07376,-67.49138,-16.632212
972588771000.0,-2.078924130234133,8.372327322526651,2.085869576339544,-0.7141015,0.21166481,-0.2733622,320.1405,-67.238976,-16.723385
972593819000.0,-2.0794057900049814,8.337166496223972,2.093816884602969,-0.77121735,0.22388211,-0.26847526,320.20242,-66.98495,-16.807508
972598780000.0,-2.079879148587227,8.302611650881737,2.1016272245979875,-0.81092364,0.23426682,-0.2742785,320.26,-66.73098,-16.890558
972603771000.0,-2.0803553696483013,8.267847846587626,2.109484795030388,-0.86559606,0.23854288,-0.29168814,320.31335,-66.46838,-16.973055
972608899000.0,-2.0808446626960246,8.23212979641327,2.117558051126831,-0.9083566,0.24587326,-0.30726522,320.36017,-66.206314,-17.054811
972613841000.0,-2.0813162083750125,8.19770729174056,2.1253384785115075,-0.9428705,0.258396,-0.32284227,320.40295,-65.93844,-17.139162
972618773000.0,-2.081786799894391,8.163354440051808,2.133103162417057,-0.95264435,0.26511553,-0.3454443,320.44455,-65.669395,-17.226778
972623852000.0,-2.082271417560028,8.127977689498854,2.141099275465777,-0.9825767,0.24984388,-0.35124752,320.4862,-65.39686,-17.310087
972628851000.0,-2.0827484019487894,8.093158162817575,2.1489694406814785,-1.0082331,0.21777347,-0.36010507,320.53064,-65.12508,-17.396261
972633797000.0,-2.083220329291621,8.05870779695128,2.1567561654578062,-1.0445796,0.17012598,-0.364992,320.5816,-64.851814,-17.476992
972638775000.0,-2.0836953099452025,8.024034541536315,2.164593269367341,-1.0659598,0.13652839,-0.3585779,320.63486,-64.5839,-17.552357
972643861000.0,-2.0841805955225663,7.98860903389459,2.1726004028514496,-1.0897835,0.103847094,-0.364992,320.70032,-64.31153,-17.625353
972648793000.0,-2.0846511870419446,7.954256182205838,2.180365086756999,-1.0891727,0.06566802,-0.35338554,320.77148,-64.051506,-17.685375
972653787000.0,-2.0851276943509016,7.919471482016538,2.1882273802331373,-1.078788,0.024129177,-0.34330627,320.85052,-63.793816,-17.741508
972658902000.0,-2.0856157469911327,7.88384398072133,2.196280169806715,-1.0891727,0.011911872,-0.34147367,320.92853,-63.539127,-17.793552
972663831000.0,-2.0860860522626283,7.849512024927767,2.2040401306685267,-1.0726794,0.008246681,-0.3390302,321.01138,-63.300533,-17.837513
972668781000.0,-2.0865583612693035,7.815033797867889,2.211833152836505,-1.065349,0.005192355,-0.33414328,321.09375,-63.0648,-17.87726
972673853000.0,-2.087042311023214,7.779705804403706,2.219818245449836,-1.0516045,0.0076358155,-0.33383787,321.1726,-62.839355,-17.915968
972678809000.0,-2.0875151925256548,7.745185785553452,2.2276207137052904,-1.0274754,0.0143553335,-0.3286455,321.247,-62.62525,-17.950512
972683793000.0,-1.9875053554236373,7.666112299190502,2.222485906529952,-1.0158689,0.021380283,-0.3268129,321.31802,-62.416325,-17.984562
972688776000.0,-1.7943540924986507,7.545929313059903,2.205316921316784,-1.026559,0.03390302,-0.32345316,321.38214,-62.214268,-18.016603
972693815000.0,-1.5971862186837815,7.435619681377343,2.2207089615729423,-1.0268645,0.052839845,-0.31337386,321.4839,-62.01246,-18.020546
972698805000.0,-1.3975815926650368,7.352856952567237,2.3132086973105137,-1.03786,0.052534413,-0.30482176,321.58014,-61.81251,-18.02314
972703745000.0,-1.231549659228544,7.307896140752169,2.409118351012536,-1.0619892,0.047647487,-0.27977628,321.65558,-61.7389,-17.913624
972708929000.0,-1.126225126460945,7.341408376200579,2.5192303602700097,-1.070236,0.046120327,-0.26328292,321.72214,-61.66541,-17.810215
972713772000.0,-1.052584784488803,7.393076929913429,2.594450693510768,-1.1007792,0.04550946,-0.25686884,321.7601,-61.675335,-17.618439
972718912000.0,-1.049062944895185,7.509297710052229,2.590928890691851,-1.1395692,0.05589417,-0.24007004,321.78516,-61.680397,-17.429987
972723900000.0,-1.045645253087215,7.622081611089647,2.587511234571081,-1.1664472,0.0711658,-0.22937989,321.7824,-61.752903,-17.180073
972728847000.0,-1.113967212307374,7.790414853759437,2.5974205272520425,-1.1792754,0.110872045,-0.22296582,321.76257,-61.81274,-16.942223
972733837000.0,-1.2622398318130106,8.022708669045402,2.622132613300238,-1.2119566,0.14385876,-0.22143865,321.73438,-61.85454,-16.71429
972738830000.0,-1.582637956048274,8.358221836373842,2.657570719618299,-1.2293663,0.18967366,-0.23060162,321.6727,-61.97572,-16.446638
972743821000.0,-2.0521649386284966,8.783031625502852,2.702287539526616,-1.2492194,0.2489276,-0.24831672,321.5962,-62.075962,-16.197916
972748785000.0,-2.336741,9.040505,2.72939,-1.2528846,0.2941316,-0.2779437,321.50153,-62.24039,-15.932236
972753774000.0,-2.336741,9.040505,2.72939,-1.2571607,0.33322698,-0.31429017,321.39502,-62.382236,-15.690949
972758820000.0,-2.5411309313353567,9.036061881828529,2.72939,-1.2315043,0.34483343,-0.35705075,321.3054,-62.454144,-15.564353
972764091000.0,-2.981580370447648,9.026487198311836,2.72939,-1.1905763,0.3277292,-0.4175264,321.22064,-62.515182,-15.456976
972768823000.0,-3.248258488594214,8.928305892804154,2.8173609179803414,-1.119716,0.28191432,-0.47739118,321.15094,-62.552906,-15.378708
972773857000.0,-3.328727146643175,8.68242972292285,3.049825800454377,-1.0445796,0.2302962,-0.5326745,321.09482,-62.590916,-15.313836
972778842000.0,-3.3883823574904817,8.44131427048502,3.254492547078298,-0.94134337,0.15302174,-0.5647449,321.08414,-62.577324,-15.343161
972783786000.0,-3.380544632080781,8.210101043535838,3.3720584691441813,-0.8194757,0.0571159,-0.5671884,321.0961,-62.583168,-15.36954
972788748000.0,-3.372678371263036,7.978046020857474,3.490052422479722,-0.7150178,-0.03634648,-0.5674938,321.1391,-62.522488,-15.433292
972793802000.0,-3.354419892218672,7.799990220502634,3.5379506202953626,-0.64476824,-0.09040806,-0.5561928,321.19626,-62.48662,-15.486198
972798792000.0,-3.333784158562916,7.639031325606702,3.566840733603938,-0.6072,-0.12736541,-0.548557,321.2745,-62.469025,-15.530037
972803823000.0,-3.306197852986532,7.524614220910867,3.584147813776087,-0.58001655,-0.13225232,-0.54305923,321.36664,-62.41636,-15.5839405
972808883000.0,-3.271324688804359,7.4598499663616735,3.5891296795106404,-0.5821546,-0.13927728,-0.54519725,321.46906,-62.368027,-15.632212
972815088000.0,-3.226914584041945,7.493651264899904,3.5803527297235465,-0.5830709,-0.10354166,-0.54550266,321.56534,-62.30317,-15.690899
972818838000.0,-3.199526249914204,7.551851550886559,3.5700820910200197,-0.58551437,-0.0870483,-0.54825157,321.6688,-62.23928,-15.746595
972823836000.0,-3.1687156029050616,7.684995763162624,3.592768231865828,-0.5864306,-0.04550946,-0.5531385,321.76398,-62.164433,-15.80999
972829042000.0,-3.143829498881901,7.894039192872118,3.662449323130678,-0.59956425,-0.019242255,-0.55833083,321.85864,-62.088306,-15.872972
972833882000.0,-3.1212014024271846,8.086198605415952,3.7633003236626688,-0.60048056,-0.005497787,-0.56321776,321.95074,-62.019478,-15.932823
972838792000.0,-3.0988227665048544,8.27865579035789,3.906523892670855,-0.59620446,0.0067195175,-0.56505036,322.03586,-61.950886,-15.994648
972843812000.0,-3.082066307653165,8.461737937614492,4.054740488764502,-0.59131753,0.030543262,-0.56199604,322.11273,-61.888824,-16.047262
972848782000.0,-3.077222252086302,8.616744175147566,4.204903378852025,-0.58001655,0.03390302,-0.55833083,322.19147,-61.831078,-16.098156
972853786000.0,-3.099304595927218,8.718247349486187,4.298309760271518,-0.5674938,0.036957346,-0.5558874,322.26266,-61.770947,-16.13787
972858857000.0,-3.167981817761856,8.727404503629678,4.293731278815876,-0.56199604,0.04520403,-0.56505036,322.33176,-61.712196,-16.179892
972863830000.0,-3.246786573185229,8.72438813806879,4.263844951320277,-0.5580254,0.064446285,-0.57696223,322.3955,-61.64962,-16.214487
972868801000.0,-3.3581138207151904,8.687279039413427,4.161794821036734,-0.53878313,0.10842858,-0.5992588,322.45172,-61.590202,-16.257448
972873853000.0,-3.4781249397350997,8.637772571192052,4.064973775165563,-0.52381694,0.11789699,-0.6218608,322.51575,-61.523285,-16.313858
972878944000.0,-3.625322171036229,8.542806927395793,3.993749405970004,-0.50885075,0.13561209,-0.6582073,322.5693,-61.4564,-16.38453
972884097000.0,-3.760843212402389,8.458648257234726,3.9288179140101054,-0.5195409,0.13683382,-0.6963864,322.63632,-61.37615,-16.485655
972888784000.0,-3.835069877188792,8.425658408360128,3.8958283234910422,-0.50610185,0.14110987,-0.7312057,322.70145,-61.30105,-16.595804
972894167000.0,-3.916914,8.381453276911078,3.8638699553139615,-0.47616947,0.14385876,-0.7651087,322.7842,-61.20724,-16.743519
972898793000.0,-3.916914,8.212986769890795,3.9589020952320593,-0.45753807,0.13225232,-0.7840455,322.87213,-61.112587,-16.892384
972903782000.0,-3.916914,8.031300776911076,4.061391361563962,-0.4364632,0.108123146,-0.7816021,322.97214,-61.014435,-17.058706
972908856000.0,-3.929827538265158,8.011482397350353,4.212191800705928,-0.42088616,0.07941248,-0.77366084,323.07825,-60.91893,-17.223412
972913828000.0,-3.943641245720917,8.00687773203752,4.364142775041098,-0.40958515,0.053145275,-0.75502944,323.18866,-60.83132,-17.379128
972918817000.0,-4.001387637708831,8.072405290317082,4.434952896658711,-0.4007276,0.010079277,-0.7309003,323.31085,-60.714188,-17.537262
972923822000.0,-4.066756640692124,8.150031210663144,4.492150848926015,-0.41233405,-0.032375857,-0.71685034,323.4388,-60.599022,-17.687225
972928816000.0,-4.162186541002608,8.279622569400175,4.5366672963488845,-0.41325033,-0.06047566,-0.7079928,323.57065,-60.468483,-17.83065
972933787000.0,-4.286341023181686,8.458957168212113,4.568855445638945,-0.40408736,-0.073303826,-0.7141015,323.70932,-60.34049,-17.968546
972938828000.0,-4.397575913674561,8.645936593009932,4.617387069060352,-0.39522982,-0.09621128,-0.7370089,323.85672,-60.207153,-18.109041
972943881000.0,-4.489996789152024,8.840020141997709,4.686702918678381,-0.37843102,-0.1255328,-0.75869465,324.00916,-60.079754,-18.24604
972948838000.0,-4.559830133732969,8.994624514114442,4.738174116196185,-0.35735616,-0.1591304,-0.7761043,324.17264,-59.95358,-18.394028
972953765000.0,-4.590686847302452,9.08205177972752,4.75874524067575,-0.36651915,-0.18600847,-0.7806858,324.34256,-59.825623,-18.53902
972958882000.0,-4.6131298289612594,9.057609813724612,4.764792741907489,-0.36774087,-0.19822577,-0.7846564,324.51703,-59.70306,-18.68856
972963860000.0,-4.625925698461126,8.92538527959202,4.756262088011094,-0.38606682,-0.20341812,-0.7715228,324.69434,-59.579605,-18.829933
972968814000.0,-4.637691982939124,8.741697425746413,4.745060947266382,-0.4098906,-0.19639318,-0.7510588,324.8696,-59.460987,-18.96744
972973850000.0,-4.647042315742536,8.414436998061264,4.726360330476929,-0.43035457,-0.172264,-0.72021013,325.0374,-59.345913,-19.097908
972978808000.0,-4.658235463253428,8.083244042872645,4.785053403038374,-0.46609017,-0.118507855,-0.6713409,325.18845,-59.216957,-19.232882
972983814000.0,-4.677153027128341,7.714354337476571,5.139755145407912,-0.49754974,-0.10842858,-0.6133087,325.33868,-59.094826,-19.352676
972988864000.0,-4.695262398829511,7.3747962779238225,5.47558219113499,-0.5158757,-0.16187929,-0.56016344,325.48563,-58.94659,-19.481407
972993850000.0,-4.709006068886117,7.177804168089802,5.713805167629281,-0.537256,-0.13439035,-0.48349985,325.59613,-58.80957,-19.597044
972998925000.0,-4.723274729196526,6.988715985220471,5.94474488759801,-0.5815437,-0.17867808,-0.43554693,325.74118,-58.594242,-19.709028
973003835000.0,-4.739132360930782,6.889605310825394,6.083500055290448,-0.61483586,-0.23304509,-0.41905355,325.87408,-58.389824,-19.8086
973008851000.0,-4.755332336649524,6.788354976249894,6.225250752061378,-0.6105598,-0.31490102,-0.38362336,326.0267,-58.15326,-19.887812
973013842000.0,-4.80866825241483,6.771724638286573,6.301728004498997,-0.6356053,-0.35155296,-0.34238997,326.17636,-57.912563,-19.957563
973018836000.0,-4.8757596400100205,6.786101303436874,6.354442576823647,-0.66156703,-0.38545597,-0.3118467,326.34152,-57.682297,-20.009096
973024251000.0,-4.93501151326158,6.864980095329618,6.349820476167595,-0.68294734,-0.40622538,-0.29443705,326.50974,-57.426437,-20.054756
973028773000.0,-4.980789788621949,6.948213402267923,6.329012149433019,-0.713796,-0.41630468,-0.29840767,326.67944,-57.16975,-20.093239
973033792000.0,-5.005684911114684,7.060594692465166,6.264661582475884,-0.7257079,-0.43951756,-0.30482176,326.85593,-56.90719,-20.132189
973038806000.0,-5.015978228563773,7.184114125669883,6.177168894694534,-0.7324274,-0.45020768,-0.31245756,327.02856,-56.643642,-20.170784
973043845000.0,-4.988830239957056,7.314293271754831,6.117439175463596,-0.73823065,-0.4370741,-0.31948254,327.2004,-56.386406,-20.214224
973048860000.0,-4.951330609271911,7.44554193020691,6.06587693854187,-0.7431176,-0.43035457,-0.31887165,327.37308,-56.133587,-20.253563
973053828000.0,-4.928547150814181,7.515470066325486,6.003472621122174,-0.74281216,-0.42088616,-0.31764993,327.5337,-55.90491,-20.29242
973058830000.0,-4.91071769937657,7.564500929785056,5.936612492397879,-0.7467828,-0.4147775,-0.32436943,327.69104,-55.678215,-20.33195
973063897000.0,-4.8948338587044535,7.545205336032389,5.852282194331984,-0.74464476,-0.398895,-0.3213151,327.83295,-55.481354,-20.358534
973068833000.0,-4.880830426217043,7.479855756966525,5.758925652809322,-0.73945236,-0.37873647,-0.31764993,327.96985,-55.287968,-20.386879
973073823000.0,-4.8283477834246185,7.314584069760738,5.67110692245604,-0.73823065,-0.35918877,-0.31856623,328.091,-55.112278,-20.414516
973078862000.0,-4.7448813748919,7.068821770020179,5.587640223407322,-0.732122,-0.3371976,-0.31490102,328.2023,-54.944534,-20.442158
973083866000.0,-4.686225042184875,6.904105199266615,5.543194609167304,-0.7348709,-0.31764993,-0.30940324,328.30893,-54.7817,-20.476063
973088835000.0,-4.653506473781513,6.824126809709702,5.5395591536287245,-0.73975784,-0.3042109,-0.29993483,328.408,-54.625072,-20.509157
973093875000.0,-4.620320403193277,6.743005641795263,5.535871752559205,-0.73426,-0.2929099,-0.29352075,328.50525,-54.46302,-20.545996
973098842000.0,-4.56795035561667,6.658204514723926,5.487323701248149,-0.72112644,-0.28344148,-0.2874121,328.59595,-54.30718,-20.58103
973104214000.0,-4.510460075413023,6.566882341243926,5.428106119300291,-0.7244862,-0.30085114,-0.29565877,328.69003,-54.151283,-20.614681
973108840000.0,-4.506154613605442,6.510912551564626,5.389357772244898,-0.6805039,-0.3109304,-0.2919936,328.77557,-54.007187,-20.645187
973113811000.0,-4.501528057045675,6.450768620631681,5.347719632769679,-0.65118235,-0.29840767,-0.29779682,328.86514,-53.85601,-20.679379
973118830000.0,-4.492698148094688,6.403186521170131,5.306054169053118,-0.6282749,-0.2968805,-0.29443705,328.95636,-53.71919,-20.706482
973123833000.0,-4.483477116483834,6.357081122401848,5.264559310161663,-0.59589905,-0.28527406,-0.30268374,329.04254,-53.591637,-20.740286
973128853000.0,-4.465202087979967,6.295006910934891,5.236737734974958,-0.57726765,-0.2687807,-0.30970868,329.1275,-53.466354,-20.778008
973133805000.0,-4.445408968781302,6.230679273539232,5.211996335976628,-0.5458081,-0.2602286,-0.30451632,329.20938,-53.355194,-20.814419
973139711000.0,-4.403120007951123,6.188908288167972,5.250301292048877,-0.5198463,-0.24190263,-0.3036,329.29013,-53.243515,-20.860863
973143822000.0,-4.372629307125032,6.161805403682988,5.280791992874968,-0.49602258,-0.21563543,-0.30909783,329.36548,-53.14115,-20.909142
973148829000.0,-4.323565790438247,6.14831,5.3496196123505975,-0.4886922,-0.20189096,-0.31856623,329.44638,-53.03618,-20.960287
973153823000.0,-4.26640269565737,6.14831,5.440127953525897,-0.49327368,-0.19211712,-0.3109304,329.5186,-52.938484,-21.01089
973158835000.0,-4.26419117788731,6.14831,5.59438593770175,-0.5109888,-0.10170906,-0.29779682,329.56903,-52.834156,-21.069155
973163826000.0,-4.301147055958249,6.14831,5.793023878805451,-0.52870387,-0.076052725,-0.31490102,329.63647,-52.72752,-21.123814
973168821000.0,-4.283446966787753,6.133012909704203,5.8361964235599375,-0.56169057,-0.13316862,-0.30970868,329.69482,-52.61498,-21.157425
973173857000.0,-4.213368949143747,6.102979324234562,5.7310793448261546,-0.548557,-0.14385876,-0.3036,329.73602,-52.509068,-21.204412
973178849000.0,-4.154541505037263,6.101023383227081,5.686079790913173,-0.5467244,-0.13072516,-0.30207285,329.79297,-52.36605,-21.24491
973183834000.0,-4.1031014704229145,6.118169867468798,5.68179314747239,-0.5543602,-0.11636983,-0.2950479,329.84897,-52.22924,-21.28001
973188780000.0,-4.050611953273839,6.137293920186245,5.664398459229799,-0.56230146,-0.10751228,-0.29077184,329.8999,-52.107624,-21.310421
973193836000.0,-3.9942492503928606,6.1607786944223495,5.622126199107576,-0.56230146,-0.0983493,-0.27885997,329.9433,-51.991558,-21.338467
973198805000.0,-3.9645698040563007,6.189505405408401,5.564809187831099,-0.57787853,-0.050701816,-0.27916542,329.96927,-51.879242,-21.364426
973203674000.0,-3.9955768566108834,6.2308481421478445,5.471788030167351,-0.59559363,0.01282817,-0.2770274,329.98508,-51.77152,-21.389969
973209100000.0,-4.025772108749875,6.256273021749975,5.472833034999502,-0.6038403,0.09010262,-0.28008172,329.9827,-51.674076,-21.417042
973213675000.0,-4.047628768432605,6.260644353686521,5.56025967373042,-0.63316184,0.13897185,-0.28008172,329.96957,-51.571037,-21.447237
973218665000.0,-4.106019091611369,6.293533830939883,5.624995320293157,-0.66156703,0.17867808,-0.28252518,329.94437,-51.477413,-21.494413
973223692000.0,-4.206147352579974,6.360285938536198,5.653603665128256,-0.6808093,0.301462,-0.28191432,329.88446,-51.382065,-21.55974
973228682000.0,-4.298904288320094,6.420055752515445,5.820439158870256,-0.7519751,0.2929099,-0.2950479,329.85095,-51.252716,-21.6149
973233672000.0,-4.383261322251643,6.471607194410121,6.162553646954986,-0.7806858,0.2565634,-0.2968805,329.79144,-51.133728,-21.679573
973238649000.0,-4.49585216285941,6.500779277592703,6.419132511104501,-0.79473567,0.24312437,-0.28710666,329.73996,-50.99979,-21.75612
973243696000.0,-4.65399489888955,6.495987129575649,6.548522058794369,-0.8194757,0.25686884,-0.29352075,329.69412,-50.857204,-21.833265
973248653000.0,-4.80413607687039,6.512147851685985,6.630329294783983,-0.8481864,0.3023783,-0.30024028,329.64566,-50.67367,-21.907612
973253759000.0,-4.950129251844047,6.563674825605901,6.638917086406744,-0.88117313,0.42180246,-0.3023783,329.5747,-50.48772,-21.993944
973258848000.0,-5.09243843715415,6.642745575098814,6.717089110671936,-0.95447695,0.5525276,-0.29535335,329.50452,-50.259933,-22.10884
973263880000.0,-5.213228363925576,6.893616946543912,7.2281230804010415,-1.0375546,0.6383542,-0.2837469,329.4152,-50.028297,-22.231667
973268915000.0,-5.332132998859315,7.133810961026616,7.724514340304183,-1.1078042,0.65179324,-0.27580565,329.32208,-49.779297,-22.383684
973273857000.0,-5.426023400810051,7.243349708836171,8.037482482972392,-1.1499538,0.600786,-0.26542094,329.22235,-49.526478,-22.531096
973279787000.0,-5.538684283765911,7.374787340262854,8.413018922879814,-1.1695015,0.49327368,-0.24617869,329.13177,-49.238712,-22.646048
973283838000.0,-5.652930836045729,7.403651028244788,8.546157421654337,-1.1569787,0.36163223,-0.22174409,329.05783,-48.958954,-22.740887
973288769000.0,-5.80377839964694,7.419529627521856,8.669216876933424,-1.1264355,0.28038713,-0.21013765,328.99692,-48.687298,-22.821362
973293788000.0,-5.934765573580933,7.415303038575668,8.72203053565617,-1.0815369,0.12583824,-0.20647246,328.98285,-48.401653,-22.85571
973298787000.0,-5.998921927069972,7.351146732937686,8.561639532305925,-1.0494665,-0.005497787,-0.20433442,328.97958,-48.129013,-22.875689
973303805000.0,-6.037293730726257,7.285489122905028,8.43481279329609,-0.9975429,-0.106901415,-0.19914207,329.01443,-47.852543,-22.893812
973308913000.0,-5.944571555666401,7.212287365522745,8.47873425538707,-0.93554014,-0.20708331,-0.18875736,329.07697,-47.59418,-22.88666
973313924000.0,-5.853134968782689,7.138263923187366,8.466030454004718,-0.84879726,-0.32467487,-0.19272798,329.17273,-47.360477,-22.882687
973318786000.0,-5.762407286452671,7.0570863237616654,8.217722414829248,-0.7644979,-0.3903429,-0.19211712,329.2737,-47.14912,-22.865974
973323867000.0,-5.663449514547339,6.958436236005529,7.971965820836212,-0.6963864,-0.43463063,-0.19792034,329.3881,-46.948288,-22.824827
973328799000.0,-5.553283052211472,6.815628079820318,7.780194697823082,-0.6478226,-0.4334089,-0.22510384,329.50684,-46.76407,-22.785072
973333809000.0,-5.441374297892191,6.670561400483759,7.585390698168624,-0.59773165,-0.408058,-0.26206118,329.6314,-46.615128,-22.74803
973338775000.0,-5.309346529658792,6.474826514435696,7.363068745538057,-0.5580254,-0.35246924,-0.29718593,329.7493,-46.474743,-22.722767
973343810000.0,-5.173051631213406,6.270383963456491,7.134288175630931,-0.54458636,-0.24007004,-0.3390302,329.85208,-46.336395,-22.722237
973348812000.0,-5.081110249274522,6.130345879860708,7.119819732501451,-0.54458636,-0.17867808,-0.3753767,329.94824,-46.209747,-22.730104
973353807000.0,-4.993193079367383,5.996156543238537,7.1244469443412655,-0.53023106,-0.1695151,-0.40469822,330.03442,-46.087273,-22.755774
973358817000.0,-4.883659133381251,5.959182908594311,6.978630746585892,-0.50793445,-0.10476339,-0.41050145,330.0921,-45.971516,-22.805016
973363860000.0,-4.769601842129583,5.939346763384331,6.805065123267276,-0.49510628,-0.04795292,-0.39675698,330.14993,-45.858494,-22.855536
973368776000.0,-4.66620058143128,5.933556072208531,6.867172240606635,-0.4783075,-0.058643065,-0.37201694,330.20462,-45.738163,-22.898966
973373832000.0,-4.560639592312796,5.928966566085308,6.95437467806635,-0.43493605,-0.08368854,-0.32284227,330.2406,-45.636456,-22.939877
973378805000.0,-4.447596164367602,5.769141030869606,6.96132179230124,-0.42485678,-0.0729984,-0.25778514,330.25558,-45.56076,-22.966738
973383759000.0,-4.332624624447758,5.570151562550097,6.9480559324074935,-0.4447099,-0.053145275,-0.23243423,330.27176,-45.491684,-22.987864
973388777000.0,-4.201787352125352,5.401079573370831,6.943185,-0.39645153,-0.07941248,-0.22113322,330.2664,-45.45135,-22.969553
973393821000.0,-4.0620528668863,5.249700561205303,6.943185,-0.38148534,-0.14049901,-0.21227567,330.25943,-45.403454,-22.943048
973398796000.0,-3.950177213940198,5.11377026894581,6.935630283804469,-0.36346483,-0.15577064,-0.20372356,330.2433,-45.349308,-22.911877
973403773000.0,-3.979361968119196,5.0505364147974285,6.886988857536483,-0.35705075,-0.14049901,-0.20463985,330.23325,-45.297237,-22.87535
973408864000.0,-4.005546070221787,4.978750889758643,6.862063285388128,-0.36896262,-0.07513642,-0.19975294,330.20392,-45.23218,-22.826727
973413851000.0,-4.017229004191129,4.881393784409655,6.9321602385844745,-0.4098906,-0.021991149,-0.20311269,330.174,-45.16167,-22.780752
973418751000.0,-4.028708125195695,4.785735108610568,7.001034325342466,-0.45753807,-0.04550946,-0.2171626,330.15475,-45.07638,-22.746447
973423880000.0,-4.0380153771579215,4.7040543280210905,7.025978970745812,-0.48502702,-0.044593163,-0.21777347,330.114,-44.989647,-22.72344
973428783000.0,-4.046001525656944,4.6321781159197215,7.033965369419168,-0.5299256,-0.009773844,-0.22571471,330.07394,-44.88615,-22.706429
973433988000.0,-4.060284716278649,4.563121457088505,7.042671247685479,-0.57910025,0.026572637,-0.22540927,330.03406,-44.750816,-22.693272
973438774000.0,-4.081045004710572,4.509144750520881,7.050975276347495,-0.6337727,0.055588737,-0.22357668,329.98773,-44.605404,-22.685535
973443820000.0,-4.104752262789681,4.457892631394841,7.062025894884128,-0.68875057,0.06414085,-0.22479841,329.9446,-44.435337,-22.68662
973448788000.0,-4.135957580673371,4.431888290336685,7.082829367730652,-0.7272351,0.070554934,-0.23243423,329.89496,-44.25917,-22.692152
973453751000.0,-4.14134536339909,4.463621108080424,7.033960908368741,-0.7675522,0.07727446,-0.24556783,329.85098,-44.059692,-22.706451
973458838000.0,-4.096989811107739,4.607776768816389,6.849145991365706,-0.7877107,0.086437434,-0.23884831,329.8012,-43.862106,-22.718014
973463826000.0,-4.053497478725341,4.749126962594841,6.667927826236722,-0.7996226,0.06963864,-0.23487769,329.7602,-43.64533,-22.73606
973468788000.0,-4.090843055119715,4.8058495707081,6.698988387722873,-0.78893244,0.050701816,-0.24373524,329.7176,-43.433136,-22.754686
973473863000.0,-4.160994222550518,4.830608745440652,6.814531332407879,-0.7993172,0.036651913,-0.25167647,329.67545,-43.218548,-22.76809
973478791000.0,-4.20985436673565,4.843985657499183,6.889481304618233,-0.81183994,0.011911872,-0.26053402,329.642,-43.059193,-22.770222
973483940000.0,-4.22596741100098,4.838614680132883,6.900223315434048,-0.8151997,-0.0009162979,-0.26419923,329.60855,-42.902905,-22.771206
973488772000.0,-4.237511923007877,4.849976411961898,6.8683739585913175,-0.8042041,-0.016493361,-0.2657264,329.5932,-42.730495,-22.77375
973493816000.0,-4.24636059030958,4.876522691060634,6.797583927193625,-0.79626286,-0.035124753,-0.27366763,329.5821,-42.559208,-22.774055
973499586000.0,-4.292483594110818,4.881129160369393,6.733982178163588,-0.78954333,-0.042760566,-0.2706133,329.576,-42.38788,-22.77459
973503780000.0,-4.360308475208443,4.859933857361478,6.704308709688655,-0.7840455,-0.042455133,-0.28588495,329.5762,-42.21839,-22.77742
973508866000.0,-4.428590561672742,4.856436807960867,6.669809700537119,-0.7867944,-0.029626964,-0.30482176,329.5703,-42.061363,-22.786215
973513819000.0,-4.478636004316133,4.87918469324765,6.637962471110685,-0.7855727,-0.02321288,-0.3295618,329.569,-41.90729,-22.79709
973518764000.0,-4.532280224219896,4.900395758945515,6.615911435263621,-0.79045963,-0.01863139,-0.33750305,329.57813,-41.748894,-22.825188
973523887000.0,-4.594669424151423,4.919592451266752,6.611112262183312,-0.7797695,-0.0106901415,-0.35002577,329.59015,-41.594276,-22.859772
973528757000.0,-4.657178199365079,4.933522422539682,6.618265019047619,-0.7635816,0.0061086523,-0.35369098,329.60852,-41.44344,-22.906303
973533946000.0,-4.73112783265873,4.938452384365079,6.652774957738095,-0.75900006,0.0061086523,-0.355829,329.63025,-41.29474,-22.951647
973538775000.0,-4.790838690464548,4.9416323,6.692385146699267,-0.74097955,0.0018325958,-0.36102137,329.66193,-41.153957,-23.009033
973543820000.0,-4.831729710635697,4.9416323,6.751449932527741,-0.73792523,-0.005497787,-0.37018433,329.69482,-41.013493,-23.065296
973548798000.0,-4.87599556392179,4.929870606824592,6.812078797866141,-0.7125743,-0.016187929,-0.3717115,329.73566,-40.871723,-23.131836
973553770000.0,-4.938659683117128,4.862730378962211,6.883694994181237,-0.68936145,-0.05100725,-0.376293,329.7853,-40.73226,-23.19259
973558887000.0,-5.001035069923527,4.7979803,6.955258649941521,-0.67073005,-0.062308256,-0.37965274,329.84058,-40.587563,-23.259903
973563797000.0,-5.030648620620783,4.7979803,6.993333259298246,-0.66248333,-0.08155051,-0.38728857,329.90604,-40.44845,-23.318682
973569995000.0,-5.0721918784810125,4.793131271518988,7.047438778481013,-0.6627888,-0.09010262,-0.37201694,329.97754,-40.293705,-23.383162
973573873000.0,-5.1468129513361465,4.733434343108298,7.151908140225035,-0.63529986,-0.12034045,-0.3378085,330.05396,-40.15363,-23.435257
973578801000.0,-5.241638285794656,4.657573986427567,7.2846634302391,-0.6035349,-0.14752395,-0.34300083,330.13626,-40.0057,-23.49421
973583820000.0,-5.294592223948419,4.480638893562583,7.34402890963054,-0.59589905,-0.16065755,-0.3475823,330.21274,-39.86763,-23.54138
973588747000.0,-5.338053900583359,4.287475886296183,7.387490687114932,-0.59956425,-0.16401732,-0.3463606,330.29123,-39.738197,-23.583649
973593794000.0,-5.311760047033219,4.187853104054983,7.3804556583734255,-0.5934556,-0.18325958,-0.3549127,330.3856,-39.583057,-23.634392
973598786000.0,-5.27525196327606,4.103884347491409,7.365852333379153,-0.59223384,-0.20555615,-0.34788775,330.4756,-39.432583,-23.678879
973603777000.0,-5.254781902976582,4.028029194046837,7.352310958809368,-0.569021,-0.226631,-0.3371976,330.5853,-39.25556,-23.733501
973608829000.0,-5.281254869490041,3.975083261019917,7.341721772203983,-0.54550266,-0.23976462,-0.32650748,330.694,-39.08484,-23.782047
973613817000.0,-5.306115131771795,3.941588058820099,7.3236649764602975,-0.5174029,-0.23396139,-0.31703907,330.7972,-38.911064,-23.827408
973618780000.0,-5.329212400281854,3.9323491321216832,7.29594819636505,-0.49541172,-0.22052236,-0.31123585,330.89746,-38.7472,-23.86885
973623811000.0,-5.352743561883187,3.912274161607407,7.292589838392593,-0.47342056,-0.21319197,-0.30757064,330.9975,-38.58317,-23.916832
973628816000.0,-5.376348252024032,3.874506499635576,7.330357500364425,-0.45998153,-0.19425514,-0.30634892,331.08926,-38.427235,-23.967937
973633749000.0,-5.3839068958627445,3.8263709566862745,7.389462169470589,-0.441961,-0.1777618,-0.29810223,331.18646,-38.282093,-24.022852
973639355000.0,-5.357589583823529,3.7474185808823526,7.505258716176471,-0.43676865,-0.16340645,-0.29046643,331.27814,-38.14111,-24.07977
973643865000.0,-5.339418994794307,3.707703945369468,7.574555564924936,-0.43157628,-0.16310102,-0.2846632,331.37006,-37.98709,-24.143297
973648794000.0,-5.325614046870735,3.71230562671086,7.602165941275103,-0.41996986,-0.1685988,-0.2678644,331.45428,-37.842747,-24.203365
973653778000.0,-5.302315294731163,3.7093946529401194,7.632747920589822,-0.41630468,-0.17684549,-0.25411993,331.54523,-37.676632,-24.255096
973658849000.0,-5.249917529877719,3.683195793310556,7.672046210034167,-0.40622538,-0.19028452,-0.24129178,331.6328,-37.521538,-24.3
973664157000.0,-5.196109731382463,3.658852267735341,7.7124020064120495,-0.39858958,-0.18845193,-0.22510384,331.72037,-37.365288,-24.339554
973668789000.0,-5.1579300415707365,3.6636246978160303,7.741036586896181,-0.3903429,-0.19181168,-0.2098322,331.80695,-37.21746,-24.371689
973674038000.0,-5.112612925202078,3.6709111323325634,7.767788423267898,-0.38820487,-0.20097467,-0.18295415,331.8991,-37.06761,-24.38587
973678824000.0,-5.06409678449769,3.684142819630485,7.772198893591224,-0.3848451,-0.20372356,-0.17256944,331.98843,-36.923756,-24.40016
973683800000.0,-5.013464390562198,3.698854619740524,7.775999137725769,-0.38545597,-0.20311269,-0.15424347,332.06488,-36.78105,-24.400528
973688779000.0,-4.960901214644281,3.7231145470872553,7.771955900941236,-0.38453966,-0.21227567,-0.15088372,332.14258,-36.64252,-24.398523
973693803000.0,-4.907862974874926,3.747593734673112,7.76787612154668,-0.38698313,-0.21930063,-0.13958271,332.21802,-36.511715,-24.381996
973698873000.0,-4.849356502317881,3.75780751647351,7.770489639217715,-0.38728857,-0.22724187,-0.12339478,332.2909,-36.38621,-24.361591
973703767000.0,-4.791158415562914,3.762657357036424,7.775339378497516,-0.38973203,-0.23945917,-0.11148291,332.36176,-36.263817,-24.337355
973709169000.0,-4.758894060289911,3.775644583826054,7.732515275891664,-0.39064834,-0.24190263,-0.09254608,332.4224,-36.149406,-24.300156
973713766000.0,-4.737901999637612,3.788239820217433,7.686332830135418,-0.3866777,-0.25289822,-0.08857546,332.4853,-36.038017,-24.259308
973718811000.0,-4.724846688276236,3.7863194201030463,7.649686534014282,-0.39064834,-0.25870144,-0.07788532,332.5371,-35.91993,-24.21014
973723967000.0,-4.715919952562595,3.7773927309952096,7.618443215348458,-0.3930918,-0.2556471,-0.07513642,332.5877,-35.805424,-24.16171
973729018000.0,-4.719658954003495,3.765391873388838,7.582998364682907,-0.39187005,-0.2443461,-0.08093964,332.6352,-35.69976,-24.113781
973733789000.0,-4.733748091170727,3.7513027852605614,7.545427168773769,-0.3924809,-0.22602014,-0.08857546,332.67804,-35.59561,-24.068521
973738772000.0,-4.750473747295209,3.732088590880989,7.529858613794436,-0.38606682,-0.2144137,-0.09743301,332.73267,-35.492874,-24.027847
973743818000.0,-4.769146287017001,3.708747916228748,7.534526846213292,-0.38820487,-0.20311269,-0.1020145,332.7822,-35.389854,-23.992218
973748777000.0,-4.790294778503526,3.682885705795768,7.553002405703771,-0.38789943,-0.19364429,-0.10445796,332.8395,-35.284935,-23.968279
973753771000.0,-4.814738476346723,3.653553268383931,7.587223786875191,-0.3857614,-0.19761491,-0.09682214,332.89383,-35.183327,-23.94305
973758820000.0,-4.8267107,3.594687427508033,7.610659775972866,-0.39645153,-0.20861048,-0.0852157,332.96057,-35.075966,-23.92117
973763822000.0,-4.8267107,3.509176532077829,7.623486218314888,-0.42241332,-0.1740966,-0.0888809,333.01886,-34.966797,-23.910128
973768748000.0,-4.818578418447755,3.434871131611665,7.632715,-0.40591997,-0.1957823,-0.09682214,333.08844,-34.860657,-23.88596
973773821000.0,-4.787489447600329,3.3860171538166197,7.632715,-0.39492437,-0.21227567,-0.093462385,333.1464,-34.75061,-23.86925
973778865000.0,-4.755474842285157,3.340206601963976,7.635863633355035,-0.38026363,-0.20952678,-0.0888809,333.22543,-34.620403,-23.858805
973783790000.0,-4.714532413085938,3.3197352003255207,7.666570602213541,-0.38026363,-0.21960606,-0.08552113,333.30725,-34.492798,-23.841442
973788921000.0,-4.678378967347865,3.3028282821071757,7.691345942325159,-0.37659842,-0.22907446,-0.07880162,333.3943,-34.362274,-23.820423
973793812000.0,-4.6613614413987285,3.298573956148956,7.695600357129882,-0.37415496,-0.22235495,-0.07819075,333.4782,-34.234314,-23.801413
973798893000.0,-4.644445222891316,3.296867648798752,7.699753,-0.3747658,-0.21685717,-0.084910266,333.55997,-34.102623,-23.773056
973803774000.0,-4.639583665668227,3.335760614227769,7.699753,-0.37018433,-0.20280726,-0.087659165,333.63507,-33.976692,-23.747608
973808886000.0,-4.631143924411223,3.3750663755887773,7.702439903030924,-0.38056904,-0.20219639,-0.08735373,333.70953,-33.849056,-23.717478
973813819000.0,-4.602119336412041,3.4040909635879584,7.72178952733975,-0.37384954,-0.18142697,-0.092240654,333.77707,-33.728867,-23.696728
973818778000.0,-4.574647260442164,3.4307964796683774,7.744192479115673,-0.38698313,-0.16249016,-0.09040806,333.83505,-33.60888,-23.673937
973824534000.0,-4.55288489928938,3.447118250532965,7.787717201421239,-0.37720928,-0.15088372,-0.09865474,333.8922,-33.497147,-23.65695
973828819000.0,-4.533368967963809,3.455214758322794,7.819370097246814,-0.37995818,-0.1459968,-0.11026118,333.9421,-33.382813,-23.636465
973833785000.0,-4.491728147280864,3.441334500865843,7.8517573646463665,-0.38331795,-0.14446963,-0.1142318,333.9888,-33.27347,-23.618053
973838785000.0,-4.449120329681979,3.4258911021201413,7.885062180212015,-0.36713,-0.1423316,-0.12064589,334.02545,-33.16341,-23.599457
973843809000.0,-4.398575799761246,3.3937264187088148,7.926416738897909,-0.36774087,-0.13683382,-0.12980886,334.06128,-33.050163,-23.583164
973849124000.0,-4.346011157452602,3.3596001408128275,7.970558929810407,-0.3555236,-0.12522738,-0.13775012,334.09702,-32.94172,-23.559422
973853777000.0,-4.314554465550626,3.328143167365873,8.015497262202501,-0.3594942,-0.122783914,-0.15577064,334.1366,-32.829155,-23.538248
973859215000.0,-4.282082130434783,3.286926513043478,8.068251217391303,-0.36010507,-0.11056661,-0.16065755,334.1639,-32.71041,-23.512028
973863853000.0,-4.294956501449276,3.209679211478261,8.115457991304346,-0.3555236,-0.111177474,-0.16371189,334.19556,-32.59275,-23.486237
973869381000.0,-4.312534920299436,3.1203053787478128,8.167777700952751,-0.36377025,-0.10354166,-0.16982053,334.2217,-32.46305,-23.458572
973873996000.0,-4.364096620231383,3.090227701759673,8.146293678008943,-0.36041048,-0.10873401,-0.17837265,334.25006,-32.339775,-23.428806
973878799000.0,-4.417758775111802,3.0589247586233714,8.123934466264826,-0.36560285,-0.1160644,-0.17715092,334.28937,-32.195366,-23.400547
973883806000.0,-4.493184228142494,2.986301771857506,8.103957207633588,-0.37140608,-0.11301007,-0.17867808,334.3287,-32.0537,-23.375359
973888752000.0,-4.570321087664122,2.9091649123358776,8.084673093435114,-0.36010507,-0.112704635,-0.18478674,334.3689,-31.918129,-23.348394
973894612000.0,-4.64614892863912,2.843113590333586,8.04371882202426,-0.37384954,-0.1020145,-0.1872302,334.42322,-31.770737,-23.337545
973898763000.0,-4.698892238011751,2.7979050619219104,8.01357961950341,-0.3707952,-0.09407325,-0.18142697,334.4756,-31.634209,-23.325655
973903837000.0,-4.753198583091226,2.7680281979662986,8.009974579023822,-0.38026363,-0.10170906,-0.19333886,334.54514,-31.474035,-23.335411
973908792000.0,-4.803749084253341,2.7450507410613985,8.014570166376137,-0.36071593,-0.10048734,-0.19517145,334.606,-31.327858,-23.345934
973913793000.0,-4.844780498356647,2.714775982363298,8.005419585669568,-0.36285394,-0.09743301,-0.20280726,334.6853,-31.163834,-23.37536
973918761000.0,-4.8820122153086185,2.682198187508559,7.991457722185268,-0.33750305,-0.09315695,-0.20311269,334.7611,-31.016293,-23.403631
973923883000.0,-4.909895811047891,2.678388104419156,7.974138691161688,-0.34605515,-0.10476339,-0.20219639,334.84753,-30.855234,-23.439426
973928841000.0,-4.932409691749645,2.6873936566998577,7.956127586600284,-0.3277292,-0.10903945,-0.20708331,334.93198,-30.710373,-23.477922
973933853000.0,-4.9416323,2.678159005658669,7.940995256405613,-0.31031954,-0.112704635,-0.1966986,335.0248,-30.558874,-23.520731
973938774000.0,-4.9416323,2.656824721910367,7.928194641602535,-0.30879238,-0.10170906,-0.19730948,335.11838,-30.409536,-23.56753
973943793000.0,-4.943392626200275,2.641438373799726,7.911217277091906,-0.2996294,-0.111177474,-0.1908954,335.21243,-30.278538,-23.608974
973948800000.0,-4.948090895541839,2.6367401044581618,7.8877256850872035,-0.2932153,-0.112704635,-0.18295415,335.30154,-30.150614,-23.653807
973953765000.0,-4.943730114049273,2.635117761571388,7.863160368096643,-0.28313604,-0.118202426,-0.17440203,335.38806,-30.024029,-23.696987
973958827000.0,-4.920674011319319,2.639728933967469,7.835493141120517,-0.28008172,-0.11148291,-0.16615535,335.46933,-29.901394,-23.740614
973964218000.0,-4.901715658657318,2.65285484888464,7.81789311629488,-0.2669481,-0.10629055,-0.15118915,335.55585,-29.787552,-23.782387
973968789000.0,-4.8970656591140855,2.6807551374760994,7.827193212492033,-0.26297748,-0.106901415,-0.13713925,335.63892,-29.675976,-23.822418
973973834000.0,-4.892093417086401,2.7205180776830686,7.850376829135993,-0.25350907,-0.10476339,-0.12370021,335.7268,-29.572632,-23.859688
973978803000.0,-4.887484048702054,2.7758304501646647,7.896470512979465,-0.2611449,-0.09315695,-0.11362094,335.80902,-29.46997,-23.89681
973983818000.0,-4.8841715,2.8286271721886798,7.942642131320754,-0.25228736,-0.09254608,-0.10934488,335.89148,-29.373873,-23.930143
973988777000.0,-4.8841715,2.87343047404717,7.987445292830189,-0.24312437,-0.10323623,-0.09712757,335.96786,-29.28074,-23.960157
973993828000.0,-4.887314692621061,2.9199930715026903,8.025364,-0.23609942,-0.109650314,-0.08674286,336.03983,-29.193718,-23.98517
973998876000.0,-4.905894126287471,2.971086465584166,8.025364,-0.25167647,-0.12156218,-0.083383106,336.11194,-29.106075,-24.00508
974003818000.0,-4.921160125852632,3.020210211494737,8.020968752842105,-0.24220806,-0.12583824,-0.07788532,336.18442,-29.034855,-24.016485
974008900000.0,-4.905790873978948,3.0611950436421056,7.969737913263158,-0.25320363,-0.13530666,-0.074830994,336.2581,-28.956661,-24.02347
974013811000.0,-4.887511775826157,3.091526826647306,7.911777359503304,-0.2828306,-0.13652839,-0.0711658,336.33066,-28.88035,-24.034811
974018799000.0,-4.854026541618265,3.081959566923693,7.816105261766473,-0.28344148,-0.1328632,-0.070249505,336.4025,-28.810532,-24.044897
974024052000.0,-4.813171677671641,3.066418405714286,7.714850207044776,-0.29352075,-0.1142318,-0.07544186,336.4778,-28.741669,-24.058353
974028828000.0,-4.758558188955224,3.035210657142857,7.621226920597015,-0.3023783,-0.10781772,-0.07849618,336.55234,-28.675093,-24.069233
974034092000.0,-4.698364427522388,3.000814177142857,7.518037435701493,-0.3051272,-0.09468412,-0.07666359,336.62527,-28.61022,-24.090042
974038779000.0,-4.603702522284965,2.949031737370172,7.439495677563779,-0.2996294,-0.07391469,-0.079107046,336.6965,-28.545984,-24.11512
974043772000.0,-4.497624558182919,2.8911711898759704,7.357526597983261,-0.27030787,-0.05222898,-0.08002335,336.7633,-28.489271,-24.142788
974048826000.0,-4.369626334742351,2.8160593820450885,7.316291118276973,-0.26206118,-0.03940081,-0.081855945,336.8272,-28.433214,-24.171906
974053749000.0,-4.2415106603764094,2.7401388539653784,7.28307583150161,-0.23426682,-0.032986723,-0.092240654,336.89017,-28.38969,-24.205704
974058851000.0,-4.133510511812548,2.680374693212626,7.372319122927963,-0.20463985,-0.03848451,-0.08155051,336.94168,-28.34873,-24.226385
974063796000.0,-4.032633086367158,2.625350699554609,7.477781685670023,-0.1731803,-0.04734206,-0.052839845,336.98978,-28.317543,-24.246292
974068771000.0,-4.012682,2.558678874512662,7.592784278265622,-0.15882497,-0.05681047,-0.03390302,337.03397,-28.279417,-24.24618
974073862000.0,-4.012682,2.487619588759337,7.712696851958462,-0.1282817,-0.06658431,-0.013744468,337.0707,-28.258265,-24.239437
974078836000.0,-4.135168189068481,2.414129199532114,8.021030188855807,-0.111177474,-0.073303826,-0.0033597588,337.09042,-28.223885,-24.202574
974083861000.0,-4.334744421256912,2.337369065014887,8.450886984900043,-0.11301007,-0.09040806,0.009468411,337.10638,-28.196198,-24.158007
974088784000.0,-4.4614267130340615,2.2662808297499506,8.677960222090963,-0.09285152,-0.09682214,0.018020526,337.11816,-28.156778,-24.10548
974093820000.0,-4.565879589781453,2.1950629750147663,8.839387372711164,-0.093462385,-0.09712757,0.0290161,337.12646,-28.11467,-24.048824
974098787000.0,-4.656843573732719,2.123954826267281,8.927261034562212,-0.09254608,-0.07971791,0.023823744,337.14142,-28.028526,-24.001429
974103784000.0,-4.743138690042076,2.052042379523141,8.984790611500701,-0.0852157,-0.07086037,0.022907447,337.15244,-27.94794,-23.950405
974108904000.0,-4.809988531342111,1.975964875496168,9.032751854195324,-0.094989546,-0.06383542,0.022907447,337.1776,-27.835943,-23.912737
974113831000.0,-4.865620112251916,1.9017893213303203,9.074475479367262,-0.095294975,-0.039095376,0.028405234,337.196,-27.731527,-23.881456
974118773000.0,-4.8815252261747215,1.8267748696875783,9.083096618142225,-0.10598512,-0.015882496,0.028405234,337.23355,-27.60575,-23.865417
974124009000.0,-4.877325198969763,1.7469743089370968,9.07469682686992,-0.11453723,-0.0033597588,0.02076942,337.26825,-27.483284,-23.853275
974128801000.0,-4.8688982790015,1.6694608757660163,9.053570812513392,-0.1151481,0.00061086525,0.030848695,337.30237,-27.347143,-23.852255
974133783000.0,-4.848451903342618,1.577452078551532,8.99734317270195,-0.118202426,-0.0027488936,0.04062254,337.3367,-27.210737,-23.853352
974138762000.0,-4.828848312644564,1.502254454192367,8.921115750385505,-0.103847094,-0.00030543262,0.058643065,337.36536,-27.071777,-23.855938
974143843000.0,-4.810089746414803,1.4506684460292982,8.813254190439476,-0.09010262,-0.0033597588,0.07544186,337.39194,-26.936607,-23.85477
974149690000.0,-4.7979803,1.39451597437256,8.700207194366982,-0.06688975,-0.0061086523,0.094989546,337.4186,-26.802755,-23.85416
974153781000.0,-4.7979803,1.3580977463469046,8.631012709425544,-0.03970624,-0.022602014,0.11301007,337.44266,-26.678682,-23.846933
974158857000.0,-4.7979803,1.3178145861354065,8.547283674117267,-0.0076358155,-0.024129177,0.13041973,337.46774,-26.56599,-23.846958
974163881000.0,-4.7979803,1.2983321016520897,8.473250062196307,0.023823744,-0.020463986,0.13500121,337.49222,-26.46335,-23.843317
974168751000.0,-4.7979803,1.2794468111597022,8.401485792678978,0.06078109,-0.020463986,0.14355333,337.51364,-26.37475,-23.844513
974174066000.0,-4.78811382178466,1.283581846898774,8.346817281392644,0.09712757,-0.017715093,0.1600467,337.53003,-26.297632,-23.84541
974178792000.0,-4.775961365166026,1.295734388114204,8.306308528685223,0.11759156,0.004886922,0.15851954,337.54544,-26.226368,-23.85249
974183983000.0,-4.771738168179988,1.3372805182605194,8.296377970807328,0.1459968,0.008857546,0.15882497,337.5685,-26.173008,-23.860847
974188771000.0,-4.776353956341856,1.401902227300181,8.319457152607207,0.18173242,0.026572637,0.160963,337.58582,-26.127867,-23.878109
974193802000.0,-4.762958494183144,1.4750580374544058,8.345422583029372,0.18875736,0.040927973,0.16157386,337.60324,-26.085583,-23.89809
974198800000.0,-4.7307973860433865,1.553163517258591,8.37298978172394,0.21013765,0.043982297,0.15851954,337.6202,-26.056553,-23.919617
974203778000.0,-4.686167711865785,1.650569193950178,8.420816858261313,0.23182335,0.03940081,0.1563815,337.63388,-26.040478,-23.938784
974209084000.0,-4.61900044168785,1.784903518505338,8.503484176410778,0.23762658,0.04520403,0.15302174,337.64694,-26.025446,-23.961674
974213797000.0,-4.56923257247367,1.894471193310561,8.566588921150014,0.23640485,0.04795292,0.15393804,337.65363,-26.025764,-23.97078
974219654000.0,-4.521332160280862,2.0168832713540183,8.630456007733182,0.22510384,0.03634648,0.15943582,337.66147,-26.025017,-23.977505
974223921000.0,-4.482997374024879,2.110223958644318,8.653813193706515,0.23060162,0.04153884,0.16462818,337.65036,-26.046467,-23.965162
974228806000.0,-4.433679781783681,2.2236544722960154,8.643949726755219,0.21533,0.04184427,0.16920967,337.6405,-26.05991,-23.94837
974233837000.0,-4.3980959565845374,2.3250321626083266,8.609339637468139,0.20769419,0.045814894,0.17623462,337.60876,-26.096106,-23.915026
974238774000.0,-4.382027846219201,2.4053732597281225,8.545066776550552,0.1994475,0.044593163,0.17379116,337.57944,-26.12673,-23.88177
974243830000.0,-4.365209071471063,2.49019361784652,8.468353631001955,0.17928895,0.055283304,0.17134771,337.5409,-26.173512,-23.839104
974248792000.0,-4.345016974250021,2.5992309850089232,8.28258604138693,0.17684549,0.05009095,0.16646078,337.50668,-26.220716,-23.793743
974253766000.0,-4.32477604487125,2.7085320459250446,8.096369195206934,0.17470746,0.049785517,0.16676621,337.466,-26.284775,-23.752804
974258864000.0,-4.325682531444342,2.752051797046918,7.985634682842686,0.17134771,0.054367006,0.16493362,337.42786,-26.345203,-23.71364
974263862000.0,-4.334489310910763,2.769665401959521,7.906373621665133,0.16249016,0.05009095,0.16126843,337.39212,-26.401764,-23.673254
974268775000.0,-4.354303997389721,2.79328448097936,7.824103835694051,0.1572978,0.046731193,0.16065755,337.36008,-26.498688,-23.644524
974273930000.0,-4.384272624312019,2.823253264366653,7.734198007082153,0.16737708,0.057726767,0.15699236,337.3292,-26.593702,-23.62002
974278804000.0,-4.403865853330736,2.859069603525516,7.672714488897546,0.15485434,0.059864793,0.14996742,337.2987,-26.690475,-23.602858
974283789000.0,-4.417814143552786,2.900914377093884,7.626220188157382,0.15241088,0.062308256,0.14538592,337.26794,-26.789368,-23.589226
974289539000.0,-4.445137455237587,2.982884373539776,7.607427053988254,0.15332718,0.06169739,0.12950343,337.24844,-26.892225,-23.591396
974293804000.0,-4.471306201847304,3.0613907499946613,7.611788420672717,0.14538592,0.059253927,0.13133603,337.22647,-26.990978,-23.592142
974298779000.0,-4.511349070291777,3.1285929843501328,7.61944225265252,0.1459968,0.06505715,0.12705997,337.21445,-27.099941,-23.60282
974303778000.0,-4.556701877415688,3.183016352898825,7.628512719363395,0.1386664,0.06719518,0.11453723,337.2062,-27.200964,-23.61313
974308950000.0,-4.604132396551724,3.2399328379310344,7.661775689655172,0.13500121,0.06566802,0.10323623,337.19458,-27.31447,-23.627537
974313845000.0,-4.649412683183618,3.2942689454844007,7.711583839466821,0.12736541,0.06414085,0.089491755,337.18793,-27.41979,-23.644749
974318782000.0,-4.688538999086187,3.3317560347729893,7.74451300923432,0.11881329,0.07422013,0.074830994,337.1858,-27.531467,-23.671993
974323967000.0,-4.721973919969219,3.3508617822239324,7.758842282416314,0.1151481,0.077579886,0.065973446,337.18823,-27.637983,-23.698349
974328817000.0,-4.751784533190983,3.3670917969907634,7.772422955804945,0.094989546,0.07269296,0.038179077,337.1985,-27.737959,-23.732424
974333809000.0,-4.780272398281856,3.381335679958288,7.786666987506207,0.086437434,0.06811147,0.03176499,337.2059,-27.838173,-23.765388
974338782000.0,-4.7979803,3.386942344152312,7.792273676337261,0.07788532,0.065973446,0.017715093,337.22928,-27.925236,-23.808323
974343825000.0,-4.7979803,3.378185172366274,7.783516321668177,0.08277224,0.06414085,0.0012217305,337.2564,-28.009508,-23.851133
974348768000.0,-4.791395822651129,3.3677437656227243,7.775543956445738,0.06872234,0.054367006,-0.009468411,337.28568,-28.08264,-23.897594
974353776000.0,-4.751474439402768,3.347783100052024,7.770553881240245,0.063224554,0.03634648,-0.021380283,337.3219,-28.154318,-23.943628
974359389000.0,-4.692561966540391,3.3309286349851543,7.764990153783147,0.052839845,0.021991149,-0.031154128,337.3597,-28.220333,-23.98892
974363791000.0,-4.623501315511416,3.3266123133101257,7.760673877178253,0.043982297,0.002443461,-0.028099801,337.40137,-28.283207,-24.027967
974368783000.0,-4.554892670885717,3.319178763607146,7.751915988354287,0.04520403,-0.005192355,-0.034208454,337.44055,-28.340347,-24.062033
974373817000.0,-4.50932162333869,3.305507354173362,7.733687569335476,0.05009095,-0.018936822,-0.03634648,337.48218,-28.395262,-24.08866
974378819000.0,-4.465947598073919,3.2935041010931805,7.71707182134305,0.04886922,-0.029626964,-0.02565634,337.5044,-28.452082,-24.097425
974383802000.0,-4.431168955793858,3.288535731035919,7.707135184986986,0.040927973,-0.03604105,-0.019242255,337.53003,-28.50585,-24.105093
974388783000.0,-4.402038932834618,3.280455161834797,7.697558235083319,0.032986723,-0.035430185,-0.021685716,337.5426,-28.559607,-24.104525
974393814000.0,-4.389089448933883,3.263189123203727,7.688925035477513,0.027488936,-0.029626964,-0.015882496,337.5518,-28.612303,-24.101921
974399104000.0,-4.374857730815258,3.2434000525554723,7.684084945649464,0.028405234,-0.03848451,-0.016798794,337.55545,-28.659893,-24.093782
974403779000.0,-4.356254121366242,3.209913524466052,7.721292242250477,0.029321533,-0.029626964,-0.01160644,337.55252,-28.706284,-24.08998
974408935000.0,-4.335736429319371,3.172981644502618,7.762327712041884,0.030848695,-0.014049901,-0.0061086523,337.55026,-28.746828,-24.085897
974413904000.0,-4.3287168,3.1322956179833468,7.810651192221771,0.03940081,-0.008552114,-0.002443461,337.54767,-28.788692,-24.081343
974418778000.0,-4.3287168,3.0896375761271324,7.86278883742892,0.04337143,-0.010995574,-0.009162978,337.54553,-28.827986,-24.079626
974423835000.0,-4.3287168,3.038870421645345,7.916996516948362,0.047647487,-0.00580322,-0.009468411,337.53375,-28.855522,-24.073795
974428887000.0,-4.3287168,2.9846557957792514,7.971211048463909,0.039095376,-0.0067195175,-0.009468411,337.52542,-28.879204,-24.067097
974433938000.0,-4.339744158732612,2.939383989799073,8.020893670788254,0.03573562,0.003970624,-0.009773844,337.51556,-28.895836,-24.06006
974438776000.0,-4.359636165275631,2.903578261703589,8.064656051949168,0.025045475,0.009773844,-0.00580322,337.50577,-28.908558,-24.051226
974443841000.0,-4.3766007,2.8646542260648773,8.11222973126749,0.0290161,-0.002443461,-0.004276057,337.50024,-28.908875,-24.03783
974448783000.0,-4.3766007,2.8205089877396623,8.166185062389886,0.016798794,0.004276057,-0.0009162979,337.48917,-28.903173,-24.029728
974453752000.0,-4.373152937170264,2.759268573361311,8.211919993105516,0.015271631,0.0067195175,0.004886922,337.47858,-28.892765,-24.0182
974459020000.0,-4.358029860911271,2.638283858013589,8.232083989508393,0.010079277,0.00030543262,-0.0033597588,337.47125,-28.87713,-24.007925
974463802000.0,-4.36337335662192,2.5713178387096773,8.234897139551192,-0.0009162979,0.010995574,0.009773844,337.44528,-28.854918,-23.994934
974468781000.0,-4.425472889140453,2.6286405838709674,8.191905255259467,0.009162978,0.02107485,0.011301007,337.4258,-28.834488,-23.98344
974473800000.0,-4.46714506634607,2.660437073234555,8.164662633653931,0.007941248,0.028099801,0.018936822,337.40076,-28.790476,-23.97086
974478805000.0,-4.446379151780608,2.6147519310891605,8.185428548219392,0.013439035,0.02443461,0.023518313,337.3762,-28.751318,-23.95839
974484140000.0,-4.424346584525487,2.5660315385826773,8.207323,0.026267206,0.025045475,0.02687807,337.35864,-28.727251,-23.962166
974488779000.0,-4.413299727865727,2.521844150393701,8.207323,0.029626964,0.032986723,0.029321533,337.33963,-28.70309,-23.96611
974493825000.0,-4.401283681583092,2.473780007086614,8.207323,0.03023783,0.04184427,0.04795292,337.30856,-28.677101,-23.961382
974498768000.0,-4.40514567322982,2.449314656692545,8.216714324197923,0.04550946,0.04337143,0.047647487,337.28198,-28.653957,-23.959173
974503780000.0,-4.423104300710879,2.44482499982228,8.234672857917875,0.04734206,0.05131268,0.04886922,337.24774,-28.630611,-23.95753
974508872000.0,-4.4325741967091705,2.4584460361991294,8.260503188211041,0.056505036,0.05375614,0.0580322,337.21185,-28.605692,-23.952547
974513879000.0,-4.428912973711537,2.498719489173093,8.297115800488662,0.046120327,0.0580322,0.059253927,337.1764,-28.575876,-23.95077
974518776000.0,-4.425332185011834,2.5381081648698176,8.332924061388104,0.048258353,0.054367006,0.07880162,337.13593,-28.560415,-23.942436
974523798000.0,-4.4432623897386,2.5536896972337364,8.350788040944082,0.06291912,0.05681047,0.080634214,337.09848,-28.543621,-23.938965
974528799000.0,-4.467571793410033,2.561792789484816,8.36294299661619,0.060170226,0.057726767,0.076358154,337.0587,-28.524923,-23.932144
974533800000.0,-4.498983683056093,2.5684771907543524,8.343625803868472,0.062002823,0.049480084,0.087659165,337.00192,-28.521635,-23.913551
974538773000.0,-4.540437148974855,2.5730832756963253,8.279141768955512,0.05589417,0.044593163,0.08827003,336.94904,-28.513668,-23.898245
974544503000.0,-4.577112235004381,2.585136611574029,8.229321460040884,0.056199603,0.04734206,0.08399397,336.89923,-28.505865,-23.887306
974548783000.0,-4.593072056283462,2.6010963911905,8.217351791978974,0.057421334,0.04734206,0.08002335,336.85086,-28.496977,-23.874365
974553747000.0,-4.609188750727953,2.6199578301164728,8.188109673252912,0.056505036,0.05467244,0.07269296,336.81537,-28.489994,-23.880543
974558870000.0,-4.619392929232529,2.6403662936772045,8.11668015734193,0.059253927,0.052534413,0.07666359,336.77994,-28.485228,-23.883038
974563798000.0,-4.6205285630108985,2.6595340591280654,8.064799801089919,0.06566802,0.047647487,0.076052725,336.75757,-28.483088,-23.89192
974568784000.0,-4.606588287319968,2.6781210286882056,8.041566089139742,0.07513642,0.04734206,0.07360926,336.73462,-28.48269,-23.90076
974573776000.0,-4.601179136665345,2.7140807121854564,8.012427620021795,0.070554934,0.048258353,0.0720821,336.72388,-28.486868,-23.915674
974578880000.0,-4.615706625470576,2.791560483931048,7.968845254735487,0.07941248,0.044898596,0.06994407,336.7151,-28.496088,-23.929634
974583760000.0,-4.627907825163118,2.840846157975618,7.932241700386332,0.07788532,0.03390302,0.064446285,336.69916,-28.513105,-23.938673
974588768000.0,-4.636142777773008,2.8284935355855083,7.9075367565676515,0.09285152,0.03634648,0.06963864,336.6798,-28.537045,-23.948685
974594187000.0,-4.645352571801656,2.816332959648374,7.881260827037638,0.08399397,0.036957346,0.0571159,336.667,-28.566307,-23.963816
974598790000.0,-4.660401675078945,2.8351442110693865,7.86997414689767,0.089186326,0.038179077,0.06078109,336.64868,-28.604649,-23.976295
974603777000.0,-4.676706232550995,2.8555247695826576,7.8577458884014675,0.090713486,0.029321533,0.062002823,336.6383,-28.636902,-23.993736
974608839000.0,-4.69986952780227,2.888681541703405,7.875396037069693,0.099265605,0.02321288,0.063224554,336.62692,-28.671785,-24.011248
974613844000.0,-4.726845543560642,2.9291455653409626,7.911364058080855,0.095294975,0.019242255,0.06383542,336.61716,-28.703018,-24.026758
974618977000.0,-4.768827329395578,2.9850413667995066,7.960262743334282,0.09865474,0.032375857,0.06169739,336.6041,-28.74744,-24.047474
974623846000.0,-4.82192086611633,3.051408437849891,8.017780606698928,0.100792766,0.0143553335,0.062308256,336.59674,-28.7897,-24.05895
974628840000.0,-4.851504506743738,3.105118241425819,8.054094,0.09682214,0.016493361,0.059864793,336.5878,-28.82906,-24.081516
974633789000.0,-4.841357785324342,3.1355585646114323,8.054094,0.08735373,0.014660766,0.060170226,336.58234,-28.86669,-24.098057
974638836000.0,-4.82930230051006,3.162411458628507,8.056422440351374,0.09010262,0.004886922,0.058948494,336.5855,-28.912426,-24.115677
974643857000.0,-4.815676548125059,3.18512096689336,8.060964436856521,0.083383106,0.01038471,0.0580322,336.58682,-28.952183,-24.136232
974648960000.0,-4.8012459008012485,3.196549792944849,8.053152464724246,0.07544186,0.002443461,0.047647487,336.59433,-28.99477,-24.149254
974653826000.0,-4.786698383652445,3.191700603683663,8.028906518418314,0.06780604,-0.0061086523,0.04550946,336.59958,-29.03539,-24.16224
974658822000.0,-4.753183642672332,3.1912136195845138,7.994417804154863,0.064446285,-0.013439035,0.040927973,336.60562,-29.07192,-24.17321
974664045000.0,-4.696504130009442,3.1959369081964115,7.947184918035883,0.06261369,-0.018020526,0.03756821,336.61328,-29.105696,-24.182884
974668745000.0,-4.64646234452797,3.190725035292395,7.897819331934004,0.054061573,-0.027183503,0.03634648,336.62933,-29.136984,-24.1886
974673856000.0,-4.593897832666211,3.166832120716587,7.8309192709167235,0.047036625,-0.03176499,0.035430185,336.64633,-29.166794,-24.19489
974678759000.0,-4.544674681162285,3.145215372464914,7.781778404348685,0.040011674,-0.030848695,0.041233405,336.65128,-29.201435,-24.192043
974684443000.0,-4.490874986360941,3.123695494544376,7.765638495908282,0.021685716,-0.029626964,0.027794369,336.6625,-29.227585,-24.191614
974688778000.0,-4.45774000092548,3.111199303528391,7.750898617641955,0.028405234,-0.022907447,0.029626964,336.6667,-29.264303,-24.184837
974693833000.0,-4.439071978029499,3.1065323099874678,7.727563649937338,0.027794369,-0.020463986,0.030543262,336.6753,-29.291756,-24.179873
974698772000.0,-4.422923548747321,3.103666071551014,7.714013029306082,0.03145956,-0.009162978,0.03756821,336.68594,-29.320396,-24.168478
974703776000.0,-4.415024660103841,3.107615495253008,7.737709571518049,0.03023783,-0.006414085,0.0421497,336.69794,-29.346663,-24.156355
974708898000.0,-4.406939506700182,3.1116580508488543,7.7619649050931265,0.041233405,0.00030543262,0.04550946,336.7004,-29.37855,-24.146437
974713814000.0,-4.408717404954179,3.13278027004809,7.7904947396425,0.037873644,-0.00030543262,0.040317107,336.7048,-29.405119,-24.136442
974718800000.0,-4.413050126304328,3.1587760100172395,7.820823155720896,0.04184427,-0.0070249503,0.049785517,336.70453,-29.437828,-24.124203
974723841000.0,-4.421819747816358,3.17453087197315,7.840739771873705,0.03268129,-0.0027488936,0.05375614,336.70142,-29.46353,-24.111425
974728859000.0,-4.433767095574708,3.1824958397861938,7.852687161216541,0.032070424,-0.0036651916,0.05497787,336.69876,-29.492413,-24.095232
974733857000.0,-4.442991598438614,3.188429998438614,7.86773200573829,0.028710667,-0.0033597588,0.04520403,336.68988,-29.521746,-24.077963
974738878000.0,-4.43918046165491,3.18461886165491,7.898221060212412,0.032986723,0.0012217305,0.042455133,336.67862,-29.552979,-24.060778
974743803000.0,-4.43544219265277,3.18088059265277,7.928127173194896,0.01863139,-0.00030543262,0.037873644,336.6675,-29.57789,-24.045828
974748799000.0,-4.436907397820597,3.156732717435226,7.944864495641194,0.013133603,-0.0036651916,0.03268129,336.65726,-29.604721,-24.032478
974754249000.0,-4.441789406987185,3.117676644102516,7.954628513974371,0.0106901415,-0.0021380284,0.028405234,336.6477,-29.627382,-24.020903
974758863000.0,-4.441158271564944,3.0805651663958566,7.948406160363563,0.005192355,-0.005192355,0.022907447,336.64142,-29.641655,-24.004454
974763797000.0,-4.436359659683152,3.03737750913984,7.929211662729766,-0.0012217305,0.0033597588,0.011911872,336.63568,-29.65314,-23.993156
974768789000.0,-4.4340615,3.0035454074070853,7.926593330620594,-0.006414085,0.0021380284,0.01282817,336.6301,-29.662016,-23.97758
974773815000.0,-4.4340615,2.97840853925494,7.939161830315954,-0.007330383,0.0061086523,0.013439035,336.62527,-29.668453,-23.96741
974778764000.0,-4.4340615,2.949071166183779,7.946491262451095,-0.008552114,0.006414085,0.009773844,336.62567,-29.66388,-23.960669
974783844000.0,-4.4340615,2.902771937675796,7.936202610658771,-0.013133603,0.004886922,0.013133603,336.6237,-29.65928,-23.953407
974788747000.0,-4.438373045541838,2.8759163686968447,7.920972908916323,-0.0030543262,0.01160644,0.01282817,336.62436,-29.651646,-23.948757
974793847000.0,-4.451772730041153,2.884849507242798,7.894173539917696,-0.004886922,0.014049901,0.014966198,336.6244,-29.640804,-23.941965
974798823000.0,-4.466393547369433,2.8929160094738866,7.872135,-0.005192355,0.020158553,0.015577064,336.6265,-29.629639,-23.93886
974803840000.0,-4.489499638357219,2.897537227671444,7.872135,-0.0015271631,0.014660766,0.015577064,336.62964,-29.619457,-23.933393
974808865000.0,-4.512820584434655,2.9030592551395005,7.872135,0.004886922,0.010079277,0.009468411,336.63498,-29.610695,-23.937044
974813857000.0,-4.537892634780785,2.918102537707153,7.872135,0.0143553335,0.01038471,0.008857546,336.63895,-29.60455,-23.939638
974818847000.0,-4.562772174524983,2.933872722026741,7.874662322308234,0.004886922,0.011301007,0.004886922,336.65173,-29.598108,-23.94536
974823856000.0,-4.586885068462853,2.9531629364632552,7.88913015938474,0.011301007,0.015271631,0.004886922,336.663,-29.598532,-23.951345
974828801000.0,-4.608596027566879,2.967375317452229,7.906604360152866,-0.00061086525,0.011911872,-0.002443461,336.68256,-29.5976,-23.959187
974833877000.0,-4.620981165808917,2.9591185729936305,7.939631510420383,-0.00061086525,0.013439035,-0.0061086523,336.6996,-29.6016,-23.968565
974838777000.0,-4.632936874513801,2.9511481143949045,7.971513511269639,-0.003970624,0.01160644,-0.005192355,336.71884,-29.602571,-23.979958
974843793000.0,-4.642875233428151,2.9573573530161843,7.985180853016184,0.0036651916,0.009162978,-0.01282817,336.74115,-29.604511,-23.993357
974848764000.0,-4.652214423491907,2.9666964455615497,7.994519945561549,0.009773844,0.009468411,-0.01282817,336.76093,-29.6062,-24.005562
974853779000.0,-4.650899458678446,2.982523914688018,8.006918944965948,0.0143553335,0.0143553335,-0.0125227375,336.77975,-29.60661,-24.018053
974858833000.0,-4.646444999079698,3.0003414274986198,8.020282091201913,-0.008246681,0.0106901415,-0.01740966,336.80127,-29.60081,-24.029295
974863785000.0,-4.644751,3.0040685813616306,8.028412782307207,-0.005192355,0.0033597588,-0.01160644,336.81665,-29.59991,-24.042513
974869867000.0,-4.644751,2.997949008173986,8.034532483294809,0.006414085,0.004886922,-0.018325957,336.83557,-29.59321,-24.059446
974873808000.0,-4.635070167810505,2.9975405,8.031713977313888,-0.0030543262,-0.00030543262,-0.01740966,336.8498,-29.584896,-24.068394
974878806000.0,-4.621382812992088,2.9975405,8.0271514145458,-0.0070249503,-0.0015271631,-0.022907447,336.86642,-29.579163,-24.08054
974883819000.0,-4.6160207,2.9926950008280886,8.015672976358065,-0.0030543262,-0.00030543262,-0.020463986,336.88016,-29.574217,-24.08989
974888774000.0,-4.6160207,2.9848359342497512,7.999954802169593,-0.0061086523,0.0021380284,-0.025350908,336.89716,-29.56488,-24.101105
974893771000.0,-4.61970044580066,2.9728672861019394,7.9842968978539,-0.0076358155,0.00030543262,-0.019547688,336.9121,-29.555382,-24.108372
974898797000.0,-4.639565539671894,2.943069671223689,7.969398116343377,0.0015271631,-0.0012217305,-0.010079277,336.92673,-29.547792,-24.116385
974908834000.0,-4.671891378737026,2.903362865787176,7.987598108846639,0.005192355,0.002443461,-0.009773844,336.9457,-29.539507,-24.12665
974913818000.0,-4.6811215193685305,2.8902585193685297,8.00621,0.0076358155,-0.0021380284,-0.0036651916,336.96216,-29.535276,-24.132164
974918799000.0,-4.671245268881988,2.880382268881988,8.00621,0.016798794,-0.00030543262,-0.0061086523,336.98563,-29.524364,-24.14931
974923815000.0,-4.664936912915129,2.872010119409594,8.00621,0.017715093,0.0009162979,-0.008552114,337.01276,-29.504322,-24.166786
974928821000.0,-4.668868234112341,2.8680789213612137,8.00621,0.019242255,0.0036651916,-0.0070249503,337.03857,-29.487284,-24.184582
974933760000.0,-4.672746938745387,2.864200338228782,8.00621,0.016187929,0.007941248,-0.008857546,337.06662,-29.466412,-24.202185
974939548000.0,-4.660204277169254,2.8900201448804648,7.984081062729784,0.020463986,0.0076358155,-0.0033597588,337.09232,-29.449343,-24.21774
974943791000.0,-4.648593111058196,2.913241951728736,7.964729644585199,0.034208454,-0.00030543262,-0.009468411,337.12177,-29.432468,-24.2343
974948909000.0,-4.648136909376487,2.9141543580199905,7.94816881935269,0.03848451,0.004886922,-0.010079277,337.1435,-29.414755,-24.253899
974953793000.0,-4.652589462256068,2.905249484721561,7.9348114861589725,0.030543262,0.009773844,-0.0036651916,337.16608,-29.397833,-24.271126
974958852000.0,-4.639430125357812,2.89283374410226,7.941514237488896,0.035124753,0.008552114,-0.010995574,337.18802,-29.390554,-24.288534
974963806000.0,-4.6160151282203135,2.8787846969203432,7.960246137400059,0.026572637,0.0106901415,0.00061086525,337.20172,-29.381449,-24.303776
974968775000.0,-4.598539823567891,2.873042,7.949460040874684,0.021991149,0.007941248,-0.00061086525,337.22302,-29.369528,-24.323977
974978804000.0,-4.586495051649682,2.8774327987488646,7.907451763737262,0.03940081,0.02076942,0.01160644,337.2346,-29.364527,-24.34427
974983784000.0,-4.605743347079003,2.8870569967107254,7.921887985309253,0.036957346,0.021380283,0.020158553,337.25027,-29.35099,-24.353897
974988775000.0,-4.625491159469086,2.909242420244254,7.935278220303622,0.0421497,0.022907447,0.02076942,337.2556,-29.348385,-24.366728
974993813000.0,-4.645950925680603,2.9460697686964634,7.94755396039352,0.03940081,0.02076942,0.028710667,337.25732,-29.3453,-24.376162
974998828000.0,-4.664389766766084,2.981295439855134,7.960750068027269,0.04062254,0.0421497,0.034513887,337.24957,-29.343664,-24.39541
975003780000.0,-4.668431122028121,3.005543065044738,7.980956295756284,0.04062254,0.028710667,0.0421497,337.24573,-29.342224,-24.403965
975008793000.0,-4.672522259735833,3.0300893786706435,8.001411428956114,0.033292156,0.032375857,0.043066,337.23416,-29.340317,-24.425863
975013837000.0,-4.691212740187631,3.050032329178633,8.023940740187632,0.03145956,0.028405234,0.03940081,337.22577,-29.339998,-24.441832
975018762000.0,-4.713788721424469,3.0680931613153364,8.046516721424467,0.030848695,0.018936822,0.036957346,337.21747,-29.33827,-24.456638
975023795000.0,-4.730600348992012,3.086467540319513,8.044859747432483,0.034208454,0.022296581,0.03023783,337.21057,-29.340862,-24.470675
975028813000.0,-4.744309805572461,3.1047469271015595,8.031150434005324,0.028405234,0.010995574,0.021380283,337.20923,-29.340204,-24.479364
975033800000.0,-4.760411989581378,3.1073044552093108,8.020206047493899,0.021685716,0.003970624,0.021685716,337.2136,-29.3408,-24.490349
975038781000.0,-4.7783215224516615,3.098349688774169,8.011251094049182,0.027183503,-0.006414085,0.022296581,337.2227,-29.341824,-24.498909
975043819000.0,-4.790610035808581,3.0866890234529705,7.9819381982673265,0.018325957,-0.007941248,0.015271631,337.22992,-29.340242,-24.513445
975048829000.0,-4.795558444224422,3.0718436431930694,7.927505912376238,0.016798794,-0.004886922,0.014660766,337.2363,-29.342733,-24.525303
975053778000.0,-4.785980465796869,3.071777975702529,7.891265732637495,0.014049901,-0.009773844,0.005497787,337.25958,-29.34008,-24.54062
975058835000.0,-4.761678038257728,3.086359584484143,7.871823790606182,0.007941248,-0.013133603,0.00580322,337.27954,-29.33741,-24.555431
975068803000.0,-4.721529297197829,3.086167042516033,7.819708007656636,-0.0027488936,-0.011911872,-0.00061086525,337.3124,-29.332352,-24.578016
975073803000.0,-4.707437482841068,3.085907747219878,7.800746060121894,-0.004886922,-0.01985312,-0.004886922,337.34653,-29.328165,-24.596972
975079065000.0,-4.697987345288326,3.0906327913267697,7.791295873230192,-0.019547688,-0.011301007,-0.0015271631,337.3668,-29.321712,-24.61773
975083773000.0,-4.6910667531614365,3.0933087,7.776531486207223,-0.014660766,-0.01282817,-0.0009162979,337.3889,-29.327375,-24.631065
975088772000.0,-4.6865284629727935,3.0933087,7.749301650298606,-0.016798794,-0.02076942,0.0021380284,337.40897,-29.32821,-24.643847
975093758000.0,-4.684204961717224,3.0933087,7.729629285655527,-0.016798794,-0.015882496,0.0021380284,337.42474,-29.3321,-24.65862
975098813000.0,-4.689182928195373,3.0933087,7.734607356092545,-0.01740966,-0.021380283,-0.0030543262,337.4441,-29.334795,-24.669207
975103780000.0,-4.687001023255814,3.091900106553912,7.747920257082453,-0.01863139,-0.025045475,-0.007330383,337.4666,-29.339916,-24.682055
975108832000.0,-4.667517534883721,3.0870293234672306,7.782016094714588,-0.013744468,-0.028710667,0.005192355,337.48682,-29.347824,-24.691689
975113833000.0,-4.651343375547013,3.083732,7.806589904435246,-0.002443461,-0.03023783,0.0027488936,337.51718,-29.355253,-24.702911
975118834000.0,-4.641902447723241,3.083732,7.811310343701952,0.0015271631,-0.01985312,0.009162978,337.54028,-29.3647,-24.712868
975123810000.0,-4.639601051158032,3.0770919252639333,7.821314416957198,0.0070249503,-0.025045475,0.007330383,337.56604,-29.370173,-24.714474
975128818000.0,-4.655301596341763,3.053541291922416,7.844864845371962,-0.003970624,-0.034513887,0.002443461,337.58972,-29.372606,-24.717173
975133758000.0,-4.6707889552091,3.0303104355511907,7.868095499598986,-0.004886922,-0.025961773,0.006414085,337.60382,-29.381842,-24.71917
975138781000.0,-4.659721366563147,3.0125104461697725,7.903096057039337,-0.0012217305,-0.015577064,0.008552114,337.62085,-29.388214,-24.720604
975143843000.0,-4.642993142149758,2.9957824400966184,7.940734114371981,-0.0036651916,-0.030848695,-0.0030543262,337.6433,-29.391144,-24.719612
975148835000.0,-4.6351743,2.960616291561548,7.988408420726403,-0.0033597588,-0.03145956,0.005497787,337.65448,-29.388706,-24.725363
975153780000.0,-4.6351743,2.909118601261418,8.045055826283166,0.0030543262,-0.02565634,0.00580322,337.6722,-29.384447,-24.732084
975159113000.0,-4.6351743,2.875282585883025,8.070436386930844,-0.002443461,-0.016187929,0.014660766,337.68747,-29.371466,-24.729548
975163795000.0,-4.6351743,2.853926814498,8.07897887388074,0.0027488936,-0.016187929,0.021991149,337.7034,-29.362736,-24.726494
975168780000.0,-4.62741380116421,2.8494853838982257,8.095759209745564,0.005192355,-0.018936822,0.019242255,337.72183,-29.343925,-24.719805
975173811000.0,-4.613843043554596,2.858532587127969,8.118377217819923,0.00580322,-0.01985312,0.024740042,337.73547,-29.328472,-24.711374
975178839000.0,-4.593212277234707,2.8744916972588936,8.1285036744936,0.01038471,-0.01985312,0.028710667,337.75403,-29.308226,-24.70355
975183828000.0,-4.564322533306459,2.898566400070543,8.123688633377002,0.02321288,-0.029321533,0.03023783,337.7731,-29.291098,-24.692991
975188781000.0,-4.546938266722268,2.917483563886572,8.110908226855713,0.022602014,-0.026572637,0.027183503,337.7831,-29.270731,-24.681385
975193803000.0,-4.542481387155963,2.930854342201835,8.088623596330274,0.028405234,-0.021685716,0.032375857,337.79144,-29.256887,-24.666885
975198805000.0,-4.542393235562094,2.9535208398538964,8.053833004616477,0.02687807,-0.0125227375,0.042760566,337.79364,-29.245073,-24.64833
975203782000.0,-4.55206530992289,2.99704494724026,7.990964799005682,0.035430185,-0.015271631,0.04734206,337.79697,-29.23731,-24.628632
975209097000.0,-4.555437870943489,3.0418814800809653,7.947188443621943,0.0290161,-0.0076358155,0.04795292,337.79053,-29.229357,-24.615183
975213845000.0,-4.547924506138466,3.079448147199273,7.943431780832783,0.030543262,-0.009162978,0.051618114,337.78412,-29.226486,-24.598082
975218802000.0,-4.54008041402842,3.118668443935889,7.939509755254462,0.016798794,-0.017104227,0.04428773,337.7819,-29.22997,-24.588705
975223807000.0,-4.52194049031166,3.1438712051179927,7.917340540475953,0.008857546,-0.016798794,0.03726278,337.77768,-29.2354,-24.58063
975228818000.0,-4.502826890759733,3.167763142188589,7.893448653300807,0.014049901,-0.015577064,0.026572637,337.77765,-29.238857,-24.572851
975233796000.0,-4.480757740142696,3.165854790508825,7.834333272399549,0.01282817,-0.012217305,0.015882496,337.76807,-29.245914,-24.565115
975238749000.0,-4.458492489297784,3.1614017868381525,7.771990570033797,0.01282817,-0.007941248,0.0076358155,337.76056,-29.253014,-24.559412
975243812000.0,-4.437028917774881,3.137685784884833,7.750739167109952,0.013744468,0.00030543262,-0.005192355,337.75552,-29.261044,-24.556307
975248825000.0,-4.416164728987397,3.108475920582356,7.742393491594958,0.0030543262,0.004276057,-0.013133603,337.7516,-29.265263,-24.553904
975253769000.0,-4.383889446059679,3.080443722857689,7.7509249771423105,0.008857546,0.010079277,-0.02076942,337.741,-29.280539,-24.557293
975258830000.0,-4.337535022953328,3.052630972188217,7.778737727811783,0.007941248,0.018325957,-0.03023783,337.73218,-29.28974,-24.563671
975264618000.0,-4.304098024462534,3.0276501510958047,7.825578622250052,-0.0012217305,0.045814894,-0.03176499,337.7211,-29.294556,-24.57228
975268795000.0,-4.295748645230641,3.015125951471509,7.871500600354832,-0.008552114,0.03726278,-0.03390302,337.7176,-29.298037,-24.57562
975273801000.0,-4.299296565921511,2.9937868511177346,7.914196025683061,-0.00061086525,0.040011674,-0.03756821,337.697,-29.299128,-24.576906
975278821000.0,-4.318402591157477,2.965127813263785,7.942855013661203,-0.006414085,0.03970624,-0.03604105,337.6778,-29.295359,-24.574831
975283784000.0,-4.360626394736841,2.955287608412353,7.990235933936495,-0.015271631,0.029932396,-0.034208454,337.6585,-29.288572,-24.563982
975288774000.0,-4.431300552631579,2.967759526289691,8.060910178651588,-0.015577064,0.024129177,-0.038179077,337.63995,-29.281998,-24.554724
975293828000.0,-4.501852086550796,2.983154493792675,8.121926615559692,-0.008857546,0.015882496,-0.029626964,337.61893,-29.26741,-24.54447
975298786000.0,-4.565711290689013,3.0126279726256984,8.12683896461825,-0.011301007,0.008246681,-0.0290161,337.602,-29.249231,-24.534805
975303786000.0,-4.623538328191023,3.037518276289564,8.128203083233675,-0.013439035,0.0061086523,-0.04184427,337.59683,-29.226717,-24.533264
975308872000.0,-4.658487740420952,3.045284776297537,8.116553089930639,-0.0125227375,0.00580322,-0.026267206,337.58484,-29.208815,-24.52586
975313788000.0,-4.692268965454836,3.052791680355577,8.105292498684525,-0.016798794,0.00030543262,-0.025961773,337.5836,-29.189219,-24.532825
975318791000.0,-4.696448552720657,3.02041881632394,8.02993127937717,-0.027488936,0.004276057,-0.022907447,337.57587,-29.171146,-24.53895
975323832000.0,-4.688277841237201,2.971394547423204,7.927797556469494,-0.02321288,0.010079277,-0.020158553,337.56873,-29.156199,-24.543995
975328813000.0,-4.68138246814432,2.926669705128715,7.8625584,-0.02687807,0.004581489,-0.017715093,337.5669,-29.13502,-24.55849
975334446000.0,-4.676020620306133,2.883774474515456,7.8625584,-0.019547688,0.0027488936,-0.0070249503,337.56055,-29.119688,-24.573078
975338757000.0,-4.676531128885446,2.8527932613440496,7.880853268829282,-0.02321288,0.015577064,-0.00030543262,337.5578,-29.099468,-24.602
975343817000.0,-4.685915917304154,2.81994623239082,7.937162293328169,-0.018020526,0.022602014,0.002443461,337.5546,-29.084585,-24.627447
975348780000.0,-4.700070548005297,2.7953653487005465,7.989163686475749,-0.0067195175,0.02076942,0.017715093,337.54865,-29.069393,-24.649347
975353776000.0,-4.727791070269823,2.7914052681840755,8.032724654858466,-0.0067195175,0.025045475,0.03481932,337.5393,-29.053745,-24.673048
975359608000.0,-4.760351299030015,2.787001432942899,8.083201832357247,0.004581489,0.02107485,0.05955936,337.52844,-29.036219,-24.688074
975363796000.0,-4.793382884352123,2.7943417767203518,8.101552691800878,0.01985312,0.025350908,0.06291912,337.51672,-29.01948,-24.706303
975368836000.0,-4.83313436239019,2.8031754282576866,8.123636820644217,0.018325957,0.022907447,0.070249505,337.49304,-29.001892,-24.719946
975373774000.0,-4.8571486967387445,2.834215350762141,8.136351021623538,0.032375857,0.013744468,0.082161374,337.46793,-28.993462,-24.731226
975378804000.0,-4.874224664126197,2.876905358383552,8.144888737858915,0.035124753,0.008246681,0.0852157,337.44336,-28.981874,-24.742537
975388762000.0,-4.878107918882883,2.9320904055855856,8.143798608828828,0.030543262,-0.02107485,0.06658431,337.43326,-28.971045,-24.752102
975393760000.0,-4.868203583949347,2.956960621733759,8.123851216565427,0.026572637,-0.030848695,0.05589417,337.41815,-28.962679,-24.762978
975398869000.0,-4.832942016019768,2.997259496396582,8.033178695974467,0.029321533,-0.034513887,0.04886922,337.4174,-28.956665,-24.771687
975403835000.0,-4.792623697740113,3.0250264440677967,7.944258610169491,0.016798794,-0.03390302,0.04795292,337.42377,-28.95235,-24.775724
975408850000.0,-4.734478891192494,3.020180988710654,7.852196020883777,0.007330383,-0.02107485,0.039095376,337.43262,-28.947477,-24.784073
975413816000.0,-4.66933635063745,3.0205771960657373,7.771705636952191,-0.0021380284,-0.0076358155,0.022907447,337.4512,-28.953157,-24.791336
975418801000.0,-4.583745886693227,3.034842289940239,7.719400375498008,-0.004886922,-0.0012217305,0.022907447,337.46677,-28.958933,-24.798903
975423786000.0,-4.496022725565187,3.054235407112859,7.679497661049057,-0.0106901415,0.007941248,0.01863139,337.48828,-28.958311,-24.812828
975428817000.0,-4.401305552774551,3.0886780440085784,7.675192426968099,-0.014966198,0.004886922,0.018020526,337.50964,-28.957838,-24.824638
975433972000.0,-4.310840148207698,3.1222944323087107,7.67434299067436,-0.010079277,0.004581489,0.009162978,337.51935,-28.96733,-24.827297
975438779000.0,-4.332610543365175,3.126648556805069,7.730946109013525,-0.007330383,0.016493361,0.010995574,337.5248,-28.976385,-24.8307
975443830000.0,-4.355485988744916,3.131223693653646,7.790422362546108,0.008857546,0.0106901415,0.006414085,337.5119,-28.995943,-24.811876
975448828000.0,-4.409713049885882,3.183881801043365,7.866792602054125,0.012217305,0.01038471,0.009468411,337.49377,-29.013775,-24.796135
975453849000.0,-4.466111589448096,3.2389523536688576,7.942824248392905,0.016798794,0.009162978,0.004276057,337.4805,-29.033638,-24.781082
975458868000.0,-4.509386964616908,3.264917578770145,7.990427161078599,0.01160644,0.0012217305,0.00580322,337.4633,-29.051535,-24.761015
975463842000.0,-4.552274335824255,3.290650001494553,8.03760326940668,0.011301007,-0.007941248,0.0036651916,337.45776,-29.0724,-24.742567
975468778000.0,-4.601070934142267,3.2731660069111053,8.033889766464434,0.003970624,-0.020158553,-0.008246681,337.4565,-29.088272,-24.723297
975473758000.0,-4.651392886133825,3.248005118491164,8.021309278466543,-0.015882496,-0.018020526,-0.008857546,337.45212,-29.101435,-24.704489
975478848000.0,-4.679248303545511,3.21966162915198,7.9984880291519795,-0.022907447,-0.02076942,-0.0290161,337.45947,-29.108665,-24.692091
975483796000.0,-4.689073258760107,3.190186660916442,7.969013060916442,-0.032375857,-0.01863139,-0.022296581,337.4586,-29.113634,-24.677778
975488780000.0,-4.686369510357912,3.1450367443236598,7.936395254466209,-0.03970624,-0.011911872,-0.023518313,337.48462,-29.112171,-24.679024
975493806000.0,-4.67649713921649,3.0907383680135374,7.901841826612655,-0.04062254,-0.013439035,-0.026572637,337.51,-29.110601,-24.678242
975498822000.0,-4.64531779201164,3.027214925654745,7.88503005806815,-0.036651913,-0.0018325958,-0.028099801,337.53906,-29.10445,-24.688
975503771000.0,-4.605276233455365,2.960479381864264,7.876131892649957,-0.03268129,-0.0009162979,-0.015577064,337.5668,-29.099756,-24.693134
975508853000.0,-4.589877936830168,2.8994509257159056,7.885073319251489,-0.02687807,0.006414085,-0.010079277,337.59686,-29.091232,-24.706165
975513826000.0,-4.594378922474246,2.8454383459975428,7.907578482468575,-0.02107485,0.009468411,-0.0033597588,337.62347,-29.085642,-24.71626
975519661000.0,-4.605116960267981,2.801831114078347,7.939268869005303,-0.009773844,0.01985312,0.018020526,337.63797,-29.07963,-24.720182
975528806000.0,-4.6330352850115135,2.769184572535064,7.998957016223572,0.007941248,0.034513887,0.03481932,337.65036,-29.077208,-24.72555
975533787000.0,-4.657999979851371,2.7741775636382666,8.038900058750261,0.012217305,0.028405234,0.03481932,337.66663,-29.06399,-24.728241
975538768000.0,-4.680949990108192,2.7884760826378154,8.063671,0.02107485,0.025350908,0.048563786,337.67786,-29.052443,-24.731022
975543885000.0,-4.701147508809892,2.818772624317362,8.063671,0.026267206,0.0125227375,0.043982297,337.6964,-29.038816,-24.732752
975548780000.0,-4.715862009022338,2.8428809329852043,8.061634463591528,0.032986723,0.008246681,0.053145275,337.7134,-29.031427,-24.730618
975553795000.0,-4.725150840421622,2.8614584017986653,8.05698997514747,0.037873644,-0.008246681,0.04642576,337.7397,-29.022236,-24.725758
975558816000.0,-4.7263296635808745,2.8776550524754154,8.043330296524244,0.03940081,-0.009773844,0.037873644,337.75845,-29.018494,-24.726603
975563822000.0,-4.714137023499491,2.889847734994913,8.01488093031536,0.049785517,-0.013744468,0.038789943,337.7794,-29.018562,-24.722677
975568904000.0,-4.7006508275543,2.902292990211357,7.985148244345963,0.037873644,-0.0106901415,0.03359759,337.7991,-29.013256,-24.725698
975573774000.0,-4.659767113519042,2.9159208790786013,7.935179539855849,0.03604105,-0.01160644,0.03390302,337.8182,-29.01386,-24.72598
975579199000.0,-4.612672496765234,2.9315074592223493,7.881377179676524,0.027183503,-0.009773844,0.027183503,337.82895,-29.013426,-24.730934
975583789000.0,-4.540858231122366,2.9530517014213364,7.874195753112237,0.025350908,-0.009162978,0.028405234,337.83783,-29.015177,-24.734192
975589623000.0,-4.449580578451234,2.980434949567064,7.865067987845124,0.02687807,0.004276057,0.023823744,337.83667,-29.02423,-24.73829
975593799000.0,-4.419909726337296,2.994826100780089,7.873995774442793,0.018020526,0.01038471,0.017104227,337.83704,-29.02975,-24.740978
975598795000.0,-4.411023035661219,3.0081560208023777,7.896212385141159,0.007941248,0.013744468,0.013744468,337.8361,-29.034868,-24.746403
975603772000.0,-4.412510840955596,3.0256687777660587,7.906852488893577,0.009468411,0.010079277,0.008857546,337.81567,-29.046377,-24.734858
975608832000.0,-4.432955407773441,3.0512244195759943,7.896630232169603,0.009773844,0.005497787,0.0070249503,337.7953,-29.05466,-24.724104
975613807000.0,-4.464072559440792,3.072008705042856,7.9080077554131645,0.013744468,0.004886922,-0.002443461,337.7835,-29.064634,-24.708477
975618781000.0,-4.507676165815095,3.08786470113173,7.943683467221436,0.0061086523,0.0018325958,-0.005497787,337.77182,-29.072004,-24.690847
975623921000.0,-4.55148995764526,3.1044523464831806,7.978733470642202,0.008857546,0.0021380284,-0.00030543262,337.76584,-29.080143,-24.680656
975628809000.0,-4.580120819724771,3.1223466119266057,7.993048808256881,0.013133603,-0.0076358155,-0.0143553335,337.76807,-29.083452,-24.670973
975633756000.0,-4.609097267087155,3.1404568678899083,8.007536937385321,0.014049901,-0.02107485,-0.01160644,337.75922,-29.093313,-24.662832
975638776000.0,-4.631811253337914,3.1673394512271744,8.024071932358138,0.016798794,-0.014049901,-0.0143553335,337.75397,-29.101563,-24.660484
975643809000.0,-4.646007268113096,3.205195358865109,8.042999787355193,0.01160644,-0.013133603,-0.014660766,337.7508,-29.108265,-24.652924
975648778000.0,-4.6482431495332,3.2375252609671668,8.04598093664114,-0.00030543262,-0.01160644,-0.018936822,337.74988,-29.115753,-24.653168
975653772000.0,-4.633192261355291,3.262609934899821,8.025913260358752,-0.005192355,-0.007941248,-0.02321288,337.74875,-29.123276,-24.65429
975658804000.0,-4.62102222499049,3.2752678,7.995198202738684,-0.013744468,0.0033597588,-0.024740042,337.74445,-29.125956,-24.660156
975663800000.0,-4.611922673259794,3.2752678,7.954250101179156,-0.026572637,0.003970624,-0.027794369,337.74304,-29.125381,-24.665129
975668754000.0,-4.580207792397935,3.25252977167527,7.920850597465979,-0.033292156,0.013133603,-0.030848695,337.73746,-29.132189,-24.671543
975673772000.0,-4.512554508869076,3.1938969730455185,7.898299502956359,-0.04795292,0.015271631,-0.030848695,337.73312,-29.133545,-24.676321
975678758000.0,-4.453642145288786,3.136391151032884,7.879097759696459,-0.0421497,0.023823744,-0.021380283,337.73132,-29.13665,-24.687382
975683787000.0,-4.418109620699831,3.0805543039629004,7.868945624957842,-0.052839845,0.0067195175,-0.013133603,337.73395,-29.131666,-24.692741
975688750000.0,-4.394194862708183,3.02671126878168,7.865677274583636,-0.037873644,0.011301007,-0.00580322,337.72525,-29.128143,-24.694014
975693835000.0,-4.389787003548153,2.9738170048877626,7.874492992903693,-0.03145956,0.0009162979,0.0027488936,337.71942,-29.12129,-24.686115
975698787000.0,-4.391252000480307,2.923253702785783,7.881712,-0.038179077,-0.009162978,0.0061086523,337.70245,-29.113428,-24.674353
975703775000.0,-4.423373330931796,2.877366019404419,7.881712,-0.026267206,-0.00580322,0.015271631,337.6813,-29.11388,-24.661295
975708857000.0,-4.458490634962598,2.832097175632749,7.883470534276053,-0.013744468,-0.009468411,0.013439035,337.66483,-29.101849,-24.64621
975713802000.0,-4.516722811056461,2.802981011579055,7.902881141407931,-0.0070249503,-0.010995574,0.013439035,337.64453,-29.093071,-24.630947
975718813000.0,-4.5788616341463415,2.778295414427449,7.925126098801157,-0.0030543262,-0.0015271631,0.02107485,337.6244,-29.07925,-24.626055
975723773000.0,-4.661335546341464,2.786150012195122,7.964399292682927,0.0070249503,-0.006414085,0.031154128,337.60635,-29.069294,-24.616936
975729192000.0,-4.75144162097561,2.7947314769739564,8.007306840595287,0.0125227375,0.0030543262,0.028710667,337.59683,-29.049183,-24.625677
