timestamp,acc_x,acc_y,acc_z,gyro_x,gyro_y,gyro_z,ori_azimuth,ori_pitch,ori_roll
2959070191000.0,-2.975111021763621,12.274127073228188,-2.0972481053789425,-1.171945,0.7498371,0.035124753,52.640408,-41.394726,45.495483
2959075220000.0,-2.940582898730028,12.210003202785746,-2.067652594895534,-1.171945,0.7538077,0.033292156,52.630886,-41.391117,45.49801
2959080263000.0,-2.905958654455141,12.145700820872596,-2.037974694842277,-1.1872166,0.763887,0.03176499,52.582005,-41.726486,45.021904
2959085226000.0,-2.8718836744162224,12.082418504506352,-2.008767592331011,-1.1939361,0.7425067,0.037873644,52.546482,-42.06514,44.547382
2959090248000.0,-2.8374036120032766,12.018383889799264,-1.9792132766325268,-1.1878275,0.75777835,0.03970624,52.49762,-42.409107,44.06429
2959095169000.0,-2.803616995688242,11.955637107845147,-1.9502533428308064,-1.1844677,0.7635816,0.03756821,52.463505,-42.755535,43.582367
2959100193000.0,-2.769123201669397,11.891576991499388,-1.9206872571937723,-1.1991285,0.7706065,0.03634648,52.426067,-43.103725,43.097355
2959105294000.0,-2.734100740823433,11.82653506206473,-1.890668028922572,-1.212873,0.75900006,0.039095376,52.396244,-43.455566,42.611942
2959110255000.0,-2.700039492390413,11.763278247337158,-1.861472696349856,-1.1954633,0.72601336,0.03726278,52.375275,-43.814236,42.1245
2959115309000.0,-2.66533972428308,11.698835606411308,-1.8317300616345755,-1.1508701,0.6988298,0.028405234,52.359615,-44.178955,41.63475
2959120250000.0,-2.631415791909053,11.635833808070466,-1.802652428447357,-1.1148291,0.79504114,0.058948494,52.309135,-44.53793,41.144062
2959125907000.0,-2.592575944623105,11.563702423084804,-1.7693611572593193,-1.2641857,0.7611381,0.059864793,52.321968,-44.89454,40.657776
2959130284000.0,-2.5625243251126584,11.507892086849653,-1.7436026467431374,-1.2449434,0.7489208,0.06383542,52.290436,-45.267597,40.16717
2959135303000.0,-2.528064860108562,11.443895724600576,-1.714065985952478,-1.246776,0.7348709,0.07513642,52.27248,-45.621758,39.681454
2959140276000.0,-2.4939212220401474,11.380485900040968,-1.6848000337484632,-1.2455542,0.7134906,0.083383106,52.26297,-45.980396,39.197292
2959145247000.0,-2.459791315577632,11.317101577120036,-1.6555458514829984,-1.2406673,0.6844745,0.10048734,52.259747,-46.335987,38.720215
2959150220000.0,-2.4256476775092173,11.253691752560428,-1.6262798992789835,-1.2421945,0.64660084,0.116675265,52.267124,-46.690865,38.247875
2959155580000.0,-2.3888469736993034,11.18534736091766,-1.5947364639655874,-1.2443326,0.5858198,0.12492194,52.291836,-47.04553,37.783253
2959160156000.0,-2.357429059401884,11.126999611634576,-1.567806844563703,-1.1969905,0.4896085,0.14049901,52.33864,-47.401726,37.332603
2959165192000.0,-2.3228528757476443,11.06278648545678,-1.5381701392953704,-1.0952814,0.3707952,0.14874569,52.413406,-47.765953,36.89111
2959170053000.0,-2.289478207609586,11.000804752662845,-1.509563303650143,-0.9783007,0.31612277,0.15210545,52.49728,-48.13707,36.45578
2959175096000.0,-2.254853963334699,10.936502370749691,-1.479885403596886,-0.8396343,0.19517145,0.15210545,52.640884,-48.52458,36.041393
2959180104000.0,-2.220470022163048,10.872646267513314,-1.4504134774682504,-0.77579886,0.07788532,0.15088372,52.79959,-48.91837,35.632652
2959185076000.0,-2.186333249897583,10.809249193773043,-1.4211534102335106,-0.67347896,-0.05222898,0.14385876,53.000916,-49.338146,35.236034
2959190049000.0,-2.152189611829168,10.74583936921344,-1.3918874580294958,-0.4972443,-0.3191771,0.08002335,53.289906,-49.79193,34.84977
2959195070000.0,-2.117716415219172,10.681817505325688,-1.3623390273002864,-0.033292156,-0.3585779,0.071776666,53.537964,-50.28595,34.464928
2959200231000.0,-2.082282006196231,10.616010526730848,-1.3319667008725928,0.023823744,-0.33292156,0.07574729,53.854168,-50.762173,34.08568
2959205200000.0,-2.048165831339615,10.552651705448588,-1.3027242885456778,-0.038179077,-0.33078352,0.0711658,54.1879,-51.287437,33.70584
2959210315000.0,-2.0130472492523555,10.48743126454322,-1.272622670704629,-0.031154128,-0.3173445,0.07513642,54.50311,-51.824566,33.32346
2959215341000.0,-1.9785397236276117,10.423345646558788,-1.2430448151290454,-0.02687807,-0.29932398,0.057726767,54.81405,-52.357883,32.931755
2959220220000.0,-1.9450414710364603,10.361134399016796,-1.21433205003687,-0.005192355,-0.28252518,0.051923547,55.114105,-52.8883,32.54174
2959225215000.0,-1.9107467853031543,10.297444056431791,-1.1849366285088077,0.0021380284,-0.26389378,0.03940081,55.405243,-53.42115,32.142414
2959230943000.0,-1.871419466007784,10.224407363273247,-1.151227524502253,0.009468411,-0.24740042,0.03176499,55.68646,-53.954327,31.740917
2959235303000.0,-1.8414845651474805,10.168813790966816,-1.1255690584637443,0.036957346,-0.22815818,0.03268129,55.955948,-54.489048,31.33626
2959241294000.0,-1.800351539676362,10.092423632322818,-1.0903122075378942,0.0580322,-0.21838433,0.016493361,56.220387,-55.026962,30.924389
2959245210000.0,-1.773465055325686,10.04249142380172,-1.0672666678574354,0.07147124,-0.21502456,0.011911872,56.47413,-55.560673,30.515266
2959250207000.0,-1.739156637986481,9.97877557957804,-1.037859476390823,0.07666359,-0.21899518,0.0125227375,56.72282,-56.09502,30.103666
2959255297000.0,-1.7042097009729618,9.913873909156084,-1.0079049827816469,0.07727446,-0.2452624,0.0125227375,56.972687,-56.627785,29.693111
2959260279000.0,-1.6700042706780007,9.85034932722245,-0.978586065854158,0.077579886,-0.2489276,0.011911872,57.211323,-57.15692,29.282257
2959265255000.0,-1.6358400352007374,9.786901250204831,-0.9493024587423188,0.07666359,-0.26297748,-0.00030543262,57.457268,-57.68457,28.872377
2959270211000.0,-1.6018131157824662,9.723708189573944,-0.9201365510159772,0.061391957,-0.27672195,0.0015271631,57.69784,-58.20247,28.467962
2959275195000.0,-1.5357894766029685,9.6773227148123,-0.90380105740033,0.05131268,-0.2782491,0.00061086525,57.924698,-58.729897,28.039244
2959280229000.0,-1.4516132226889125,9.639911241730529,-0.8944481402987681,0.043066,-0.2846632,-0.005497787,58.15258,-59.251343,27.61366
2959290226000.0,-1.266920735790514,9.639735974901186,-0.8981653903557312,0.0125227375,-0.27366763,-0.0106901415,58.36962,-59.765316,27.187426
2959295198000.0,-1.181860994816105,9.663081823788549,-0.905716141691425,-0.0061086523,-0.28160888,-0.006414085,58.589493,-60.273594,26.766829
2959300194000.0,-1.1034334172728204,9.697393559471363,-0.9155195773680976,-0.00580322,-0.25961772,0.0009162979,58.796806,-60.773994,26.351757
2959305258000.0,-1.059030057492914,9.727168833683823,-0.9329457783350096,-0.013133603,-0.25595254,0.0076358155,59.016247,-61.268818,25.94547
2959311278000.0,-1.0326734439791534,9.758796813934351,-0.959302364327512,-0.010079277,-0.24862215,0.016187929,59.22213,-61.756496,25.543674
2959315182000.0,-1.0268292824250105,9.785230771229404,-0.9757014297000424,-0.003970624,-0.24098633,0.01985312,59.429287,-62.250465,25.138935
2959320142000.0,-1.0318462794676806,9.825366538022816,-0.9957694178707224,-0.0009162979,-0.22907446,0.022907447,59.62708,-62.735413,24.739988
2959325166000.0,-1.032167194716176,9.84708494972258,-1.0353553961929152,0.005497787,-0.21777347,0.028099801,59.827957,-63.239132,24.327784
2959330306000.0,-1.0279653379513445,9.851286894238156,-1.0941814347759282,0.021380283,-0.21074851,0.028405234,60.02099,-63.736874,23.919603
2959335269000.0,-1.026330301418259,9.854534,-1.1372220104968154,0.035430185,-0.21410827,0.0290161,60.21958,-64.26779,23.483261
2959340177000.0,-1.034313856373673,9.854534,-1.1252467405859874,0.0421497,-0.19730948,0.0290161,60.403545,-64.79008,23.051756
2959345153000.0,-1.0424080229299362,9.854534,-1.1131055541401274,0.043676864,-0.17440203,0.025961773,60.59621,-65.35435,22.588127
2959350210000.0,-1.0279387410790042,9.86090742335708,-1.0822297605619149,0.05222898,-0.16768251,0.038789943,60.780453,-65.90417,22.136778
2959355225000.0,-1.0087168759145122,9.868596313935804,-1.0476304353798127,0.06627888,-0.15210545,0.03940081,60.94884,-66.44712,21.687485
2959360258000.0,-0.9926639300861632,9.873688,-1.0080984417536745,0.059864793,-0.14110987,0.034513887,61.120266,-67.04249,21.187567
2959365181000.0,-0.9831055750126712,9.873688,-0.9603066414343638,0.07422013,-0.13897185,0.03756821,61.281445,-67.62462,20.700401
2959370155000.0,-0.9734529984107704,9.87875988176941,-0.9204969872001214,0.06963864,-0.13072516,0.03359759,61.445633,-68.29994,20.12253
2959375171000.0,-0.9637278787022978,9.89334735823464,-0.8961841625417553,0.076358154,-0.13347405,0.038789943,61.602566,-68.95376,19.564672
2959380262000.0,-0.9622816703426994,9.907019066428456,-0.8795325432191002,0.071776666,-0.1328632,0.04520403,61.772583,-69.74901,18.87467
2959385229000.0,-0.9738704227221048,9.918608060825076,-0.8756696257592983,0.071776666,-0.13072516,0.04337143,61.93108,-70.514465,18.209547
2959390174000.0,-0.9854078458177684,9.930145724866003,-0.8718238180607438,0.06688975,-0.1142318,0.04917465,62.106598,-71.53318,17.312824
2959395180000.0,-0.9994563778725936,9.9268004832308,-0.8627925480849374,0.054367006,-0.10262536,0.04550946,62.265938,-72.49756,16.460592
2959400182000.0,-1.0137160981345503,9.922047143877752,-0.8532860679102996,0.05497787,-0.08552113,0.04642576,62.403404,-73.4077,15.6547575
2959405435000.0,-1.0406302221371908,9.908827394960335,-0.8438395740737284,0.04917465,-0.0711658,0.04886922,62.55359,-74.486046,14.693376
2959410251000.0,-1.0664567918432104,9.895913862902471,-0.8352307324871675,0.03848451,-0.058337633,0.043676864,62.682602,-75.50032,13.78559
2959415181000.0,-1.0949696119329286,9.885385496245242,-0.8219985784631211,0.026572637,-0.022296581,0.04337143,62.793926,-76.49548,12.890954
2959420145000.0,-1.12431180010287,9.875605073243491,-0.8073274639522683,0.023823744,-0.0067195175,0.043066,62.89494,-77.43805,12.040899
2959425171000.0,-1.1442577041963795,9.863041927317608,-0.8292920923203511,0.014049901,0.023518313,0.032375857,62.983402,-78.38502,11.181614
2959430235000.0,-1.1619929544432257,9.849740246571583,-0.86032871775096,-0.0015271631,0.032986723,0.023518313,63.063065,-79.284164,10.362324
2959435337000.0,-1.17155403402229,9.835406530901723,-0.8683058659777102,-0.013133603,0.036651913,0.023518313,63.137074,-80.23481,9.491081
2959440190000.0,-1.176262869929078,9.821280219858156,-0.863597030070922,-0.018325957,0.045814894,0.025350908,63.19762,-81.138954,8.657328
2959445181000.0,-1.1631131184543635,9.822160784143904,-0.8589457698867422,-0.032070424,0.055588737,0.025045475,63.247192,-82.0112,7.8473496
2959450665000.0,-1.1381205987627296,9.832157979918149,-0.8539472763871705,-0.03481932,0.058948494,0.020158553,63.28857,-82.839325,7.0724087
2959455272000.0,-1.137905292644938,9.853679052398808,-0.8889322596384963,-0.055283304,0.046120327,0.022602014,63.329197,-83.61103,6.34191
2959460256000.0,-1.151672460571099,9.885802156715702,-0.9531790912123834,-0.06688975,0.05100725,0.019547688,63.358074,-84.34347,5.639277
2959465238000.0,-1.1489852595164556,9.902418,-0.9864111,-0.069027774,0.03848451,0.02107485,63.38595,-85.01785,4.980378
2959470177000.0,-1.1288340974331663,9.902418,-0.9864111,-0.074830994,0.03604105,0.022602014,63.40542,-94.34993,4.347035
2959475183000.0,-1.1362364012964163,9.878793093990184,-0.9129111670432448,-0.0870483,0.04428773,0.032070424,63.42339,-93.75992,3.7328794
2959480262000.0,-1.1632614879803689,9.83825562857672,-0.7867942212704879,-0.08827003,0.04886922,0.03359759,63.439133,-93.225204,3.1412628
2959485429000.0,-1.191460553111871,9.802713699853443,-0.9277160643380556,-0.074830994,0.043066,0.03634648,63.45861,-92.776505,2.5907574
2959490183000.0,-1.2181502104836346,9.776023949584758,-1.3414060322911578,-0.07086037,0.035124753,0.036957346,63.474094,-92.41148,2.0606582
2959495149000.0,-1.2222084809761682,9.73802370215423,-1.5466767049120616,-0.07238753,0.032070424,0.040927973,63.494118,-92.137054,1.5365071
2959500210000.0,-1.1869001977417004,9.682539151732753,-1.3802233169944844,-0.062308256,0.022907447,0.04184427,63.516132,-91.999565,1.0310419
2959505227000.0,-1.2043144178698335,9.647078047877317,-1.1575506936880493,-0.058337633,0.024129177,0.041233405,63.518883,-92.08114,0.49515554
2959510256000.0,-1.2808760286141765,9.63356737179727,-0.8693186892650084,-0.04337143,0.025961773,0.040317107,63.51883,-92.32301,-0.017908756
2959515156000.0,-1.342357289978054,9.629482836137528,-0.8364888932699341,-0.028710667,0.027794369,0.03481932,63.520046,-92.624725,-0.48504654
2959520451000.0,-1.379452447518027,9.645380563172743,-1.3558222055282685,-0.022296581,0.009773844,0.041233405,63.523483,-92.97805,-0.9317129
2959525148000.0,-1.396365018739841,9.658967217516016,-1.5519270410842338,-0.005192355,0.003970624,0.037873644,63.538425,-93.31712,-1.3656495
2959530258000.0,-1.39168608796252,9.673004449564967,-1.3834836765178316,-0.0012217305,0.01282817,0.033292156,63.553635,-93.67046,-1.7832761
2959535175000.0,-1.406314675603373,9.683625170398372,-1.2000582675574296,-0.00061086525,0.014660766,0.03756821,63.55177,-94.14168,-2.2349877
2959540181000.0,-1.4620767701657458,9.688272108655616,-0.9677160467587476,0.014966198,0.006414085,0.03573562,63.546326,-94.61216,-2.6707575
2959545146000.0,-1.5072331775945584,9.690504115222096,-0.8916389144429557,0.029626964,0.010079277,0.041233405,63.53643,-95.03259,-3.0709267
2959550186000.0,-1.522156522539421,9.685529563021746,-1.2846206066206327,0.029321533,0.016187929,0.028710667,63.526077,-95.446884,-3.4613755
2959555214000.0,-1.5278348034173184,9.677697710396757,-1.5247174894970557,0.035430185,0.023518313,0.030848695,63.53102,-95.813194,-3.8252351
2959560360000.0,-1.5135625147408052,9.663425123660584,-1.4390836580847572,0.042455133,0.031154128,0.025961773,63.5336,-96.17483,-4.182022
2959565182000.0,-1.4998393057695385,9.651561411139523,-1.3576741484657184,0.05375614,0.026267206,0.024129177,63.51416,-96.611244,-4.5627284
2959570180000.0,-1.4845396904906505,9.643911843135688,-1.2697013206728465,0.04520403,0.011301007,0.027488936,63.493435,-97.0296,-4.9277725
2959575148000.0,-1.4693319096372064,9.636308190906185,-1.1822565410660062,0.051923547,0.0106901415,0.021991149,63.48125,-97.418816,-5.26715
2959580242000.0,-1.455742024447769,9.643777243157617,-1.1175862728416792,0.051618114,0.0106901415,0.014966198,63.471725,-97.79163,-5.593789
2959585421000.0,-1.4426473538854176,9.65687173140896,-1.0608426548270704,0.050701816,0.00061086525,0.017104227,63.46402,-98.15231,-5.907605
2959590201000.0,-1.4323331707328386,9.675561597124304,-1.0217315466048238,0.04642576,-0.010995574,0.00030543262,63.45395,-98.48205,-6.2077837
2959595174000.0,-1.4234973307050092,9.70206934786642,-0.9952238881261596,0.056199603,-0.009773844,0.0015271631,63.44326,-98.79988,-6.492135
2959600195000.0,-1.4173675,9.725107283213182,-0.9551419934809476,0.042760566,-0.010995574,0.00061086525,63.442608,-99.08374,-6.7569675
2959605322000.0,-1.4173675,9.740277078269823,-0.8843485781256437,0.041233405,-0.007941248,-0.01282817,63.43984,-99.36583,-7.0167146
2959610468000.0,-1.4152850343386998,9.7575188626452,-0.8490062665172203,0.022296581,-0.0012217305,-0.008246681,63.439518,-99.62166,-7.258156
2959615232000.0,-1.410636081006725,9.7761146759731,-0.8629528352557571,0.026267206,0.004581489,-0.0143553335,63.437843,-99.87899,-7.4988093
2959620196000.0,-1.397800053056235,9.799485394458028,-0.847512256397718,0.023518313,0.013744468,-0.0125227375,63.435074,-100.11153,-7.726877
2959625192000.0,-1.37342882603912,9.828730520782395,-0.7890211385085574,0.009162978,0.015882496,-0.015882496,63.432735,-100.33824,-7.951142
2959630313000.0,-1.3558583899586107,9.849005294583408,-0.7504953849379161,0.003970624,0.016493361,-0.014966198,63.4311,-100.5625,-8.16833
2959636211000.0,-1.34569391876912,9.859169978045708,-0.73524867815368,0.0015271631,0.0143553335,-0.02321288,63.42958,-100.7807,-8.382307
2959640181000.0,-1.3385587311175735,9.861916685292895,-0.7377115168446199,-0.0070249503,0.021685716,-0.015577064,63.430275,-100.97294,-8.57686
2959645210000.0,-1.3285542177814706,9.851911963024513,-0.7827318581969257,-0.022907447,0.017715093,-0.026572637,63.434406,-101.1637,-8.773503
2959650196000.0,-1.3156279144794107,9.83181985905591,-0.8223886272581186,-0.013439035,0.021685716,-0.02687807,63.437355,-101.34651,-8.958301
2959655313000.0,-1.2951204705808503,9.78670391931704,-0.8510990058888517,-0.013439035,0.03023783,-0.03023783,63.440186,-101.52247,-9.141199
2959660644000.0,-1.2737553770840309,9.739701168731168,-0.8810100921660529,-0.009162978,0.036651913,-0.02565634,63.435715,-101.69322,-9.311759
2959665250000.0,-1.2504072228976912,9.72096614890913,-0.9323440183012074,-0.019242255,0.046120327,-0.029932396,63.427967,-101.859,-9.479984
2959670434000.0,-1.2253163117890384,9.701305,-0.9866685941054808,-0.011301007,0.0580322,-0.022907447,63.412846,-102.02139,-9.635288
2959675194000.0,-1.2180638150902872,9.701305,-0.9902948424548564,0.0012217305,0.057726767,-0.027794369,63.398407,-102.18163,-9.790372
2959685406000.0,-1.1987128654251011,9.711925001214574,-1.001297789716599,0.00580322,0.09040806,-0.023823744,63.370304,-102.33683,-9.93055
2959690225000.0,-1.1846995255870445,9.730609844534412,-1.0106400162753035,0.011911872,0.10445796,-0.024740042,63.34757,-102.49165,-10.069491
2959695184000.0,-1.1628807400616483,9.749657303370787,-1.022674793079447,0.0061086523,0.11362094,-0.026572637,63.314205,-102.640144,-10.201894
2959700205000.0,-1.1341931414835438,9.768782235955056,-1.037018617331212,0.007330383,0.112704635,-0.02107485,63.280426,-102.784584,-10.327866
2959705230000.0,-1.122960202557545,9.787815158567774,-1.043872,0.015271631,0.11026118,-0.021685716,63.247135,-102.92269,-10.445924
2959710229000.0,-1.1276694710210506,9.806652134074366,-1.043872,0.017715093,0.12003502,-0.018936822,63.211334,-103.053734,-10.557083
2959715186000.0,-1.1165889407745315,9.825209792584683,-1.050609129612734,0.017104227,0.12186762,-0.009162978,63.178814,-103.17793,-10.658103
2959720199000.0,-1.088630968300495,9.843848343589244,-1.0645881158497523,0.0125227375,0.13194689,-0.00580322,63.14128,-103.29882,-10.755969
2959725188000.0,-1.074534938116592,9.86419669058296,-1.0803325524663678,0.016493361,0.12217305,-0.010079277,63.111004,-103.41508,-10.849176
2959730266000.0,-1.0791748570556243,9.887396285278122,-1.098892228222498,0.00580322,0.12522738,0.0015271631,63.075256,-103.52007,-10.932865
2959735227000.0,-1.0821792,9.899274375061315,-1.112481461709016,0.008246681,0.124311075,0.003970624,63.03319,-103.61981,-11.0095215
2959740212000.0,-1.0821792,9.889907387422742,-1.11716510224664,0.013744468,0.118507855,0.0036651916,62.99253,-103.71331,-11.081157
2959745138000.0,-1.0888498704056082,9.879262514171256,-1.1204864,0.016187929,0.11911872,0.0067195175,62.946045,-103.8071,-11.151491
2959750193000.0,-1.1130915949924889,9.864717175663497,-1.1204864,0.016493361,0.12308934,0.020463986,62.901234,-103.89605,-11.21636
2959755268000.0,-1.1348703905882351,9.853332180392156,-1.121688194509804,0.021380283,0.110872045,0.02687807,62.869354,-103.98295,-11.277284
2959760228000.0,-1.1503936101960783,9.849451304575163,-1.125568989281046,0.01863139,0.12095132,0.029626964,62.830673,-104.06361,-11.33205
2959765149000.0,-1.165794772230392,9.845600943709153,-1.129419269738562,0.026572637,0.11575896,0.03023783,62.799805,-104.14829,-11.390497
2959770211000.0,-1.1962571942812985,9.837985544822256,-1.1265773632148377,0.0290161,0.113926366,0.03848451,62.765865,-104.2264,-11.443134
2959775673000.0,-1.2321895189249528,9.829002745062684,-1.122085822634381,0.029626964,0.09987647,0.040927973,62.73706,-104.304054,-11.495773
2959780233000.0,-1.2959896736993148,9.811893565358266,-1.106576013775227,0.02687807,0.105374254,0.04184427,62.711357,-104.381096,-11.546059
2959785230000.0,-1.3934546274949084,9.785312134419552,-1.0799946753564156,0.029321533,0.09773844,0.047647487,62.693916,-104.454704,-11.593309
2959790213000.0,-1.467415019691346,9.770020237839422,-1.0512851627954678,0.041233405,0.10354166,0.05681047,62.666824,-104.537994,-11.650913
2959795169000.0,-1.4998665088103145,9.774656261672202,-1.0188336252686072,0.03390302,0.10354166,0.06536258,62.644096,-104.61422,-11.705161
2959800205000.0,-1.5289039660746002,9.774824060390763,-0.9851523295737122,0.035430185,0.111177474,0.06169739,62.630646,-104.70062,-11.772738
2959805290000.0,-1.5492563451885906,9.764647684881412,-0.9495357325357852,0.042455133,0.11148291,0.062308256,62.62005,-104.780556,-11.834335
2959810241000.0,-1.5702832123076924,9.769882493461536,-0.92339202455,0.03940081,0.11942416,0.064446285,62.60878,-104.86101,-11.902967
2959815206000.0,-1.5931432180769232,9.797314595865384,-0.9096760258625,0.042455133,0.122783914,0.06658431,62.599052,-104.940254,-11.968755
2959820147000.0,-1.6118534964285716,9.814751970982142,-0.8943198579017857,0.040927973,0.13133603,0.069027774,62.58838,-105.01069,-12.032123
2959825172000.0,-1.6216188008116883,9.80986921682224,-0.8747892185450488,0.043066,0.12950343,0.06841691,62.580067,-105.07969,-12.093555
2959830277000.0,-1.6346255318821166,9.809934275954454,-0.8504178690689886,0.049785517,0.14049901,0.06994407,62.567287,-105.14766,-12.155559
2959835220000.0,-1.652743700851593,9.818993525978374,-0.8187111419529232,0.050701816,0.1469131,0.07452556,62.55694,-105.21174,-12.214652
2959840180000.0,-1.6653884403702792,9.829707818137134,-0.7890192050880642,0.051923547,0.15393804,0.07666359,62.543007,-105.26983,-12.270035
2959845263000.0,-1.6614006567707054,9.845658869255344,-0.7650924743425903,0.049480084,0.16523905,0.077579886,62.526707,-105.32439,-12.321798
2959850218000.0,-1.657513293454575,9.861208241336938,-0.741768266031785,0.04062254,0.17073683,0.07849618,62.511227,-105.37214,-12.373423
2959855406000.0,-1.6454669491542655,9.867884615953416,-0.7223199514095572,0.04642576,0.17989981,0.083383106,62.492344,-105.4189,-12.420997
2959860221000.0,-1.632680429374249,9.872146863388483,-0.705271317709585,0.049480084,0.17470746,0.0842994,62.47658,-105.462616,-12.467952
2959865189000.0,-1.6219350053882726,9.870626888767829,-0.6929848053882726,0.048563786,0.18661933,0.08002335,62.45549,-105.501595,-12.512172
2959870195000.0,-1.612437885578447,9.865878229694928,-0.6834876855784469,0.03726278,0.19364429,0.086132,62.43848,-105.53531,-12.5520935
2959875174000.0,-1.6089035,9.864111,-0.6687673242901321,0.02565634,0.19517145,0.09682214,62.418766,-105.558876,-12.584501
2959880460000.0,-1.6089035,9.864111,-0.6497913719145347,0.025045475,0.18784106,0.09743301,62.400158,-105.58237,-12.616869
2959885195000.0,-1.5975253978608597,9.85728423376373,-0.641646,0.022296581,0.1777618,0.102319926,62.381226,-105.59549,-12.641606
2959890343000.0,-1.5737725714973985,9.843032736365387,-0.641646,0.01985312,0.18478674,0.11026118,62.360374,-105.60704,-12.663848
2959895184000.0,-1.5610195,9.8333275852173,-0.645752765242077,0.01160644,0.18173242,0.1151481,62.347813,-105.61311,-12.684978
2959900234000.0,-1.5610195,9.828334930112522,-0.6557379190564674,0.009468411,0.17287487,0.11942416,62.33589,-105.61768,-12.70319
2959905533000.0,-1.5559634633288355,9.808107673670008,-0.6810239522744795,0.021685716,0.1695151,0.116980694,62.32895,-105.624825,-12.719729
2959910266000.0,-1.5472266171935234,9.777528370084813,-0.7159715192752505,0.00580322,0.16798794,0.12583824,62.325134,-105.62301,-12.7315855
2959915272000.0,-1.547384696024856,9.75508697176277,-0.7539702572256236,0.0125227375,0.16523905,0.13194689,62.320908,-105.624954,-12.741169
2959920176000.0,-1.5602599031161473,9.74650373937677,-0.7925960398300282,0.011911872,0.16249016,0.12583824,62.31726,-105.62377,-12.751402
2959925139000.0,-1.5675238288930582,9.737564636022514,-0.8317986554971857,0.01863139,0.16279559,0.14049901,62.305153,-105.620995,-12.75219
2959930355000.0,-1.5519039367938294,9.727151120908902,-0.8734519004419429,0.0125227375,0.15943582,0.14813483,62.294674,-105.61888,-12.756589
2959935168000.0,-1.5375897768337408,9.719033572432762,-0.9101976505501224,0.013439035,0.16065755,0.13988814,62.273067,-105.62916,-12.766954
2959940411000.0,-1.5222439602281987,9.713918229013856,-0.9460043280684596,0.010079277,0.15668693,0.13530666,62.25496,-105.6347,-12.77405
2959945145000.0,-1.5085314967397747,9.709347333530925,-0.9764653065204504,0.021380283,0.16187929,0.13164146,62.222977,-105.64454,-12.778967
2959950195000.0,-1.4941975192649672,9.704569241256667,-1.0051332614700652,0.016187929,0.1554652,0.13133603,62.196033,-105.651054,-12.784493
2959955280000.0,-1.478499096322489,9.704258021216408,-1.0350536738330975,0.021991149,0.16126843,0.13439035,62.164646,-105.66011,-12.783007
2959960342000.0,-1.4602142740499764,9.713400647147571,-1.06705224407355,0.02565634,0.16401732,0.12767084,62.13596,-105.670044,-12.784556
2959965241000.0,-1.4460979,9.724245379114302,-1.0974355983243569,0.027794369,0.16798794,0.122478485,62.094788,-105.681694,-12.783947
2959970193000.0,-1.4460979,9.743165812387792,-1.1258163964093355,0.03726278,0.16829337,0.118202426,62.05425,-105.69606,-12.78467
2959975212000.0,-1.4409402984218314,9.758766,-1.156584787966464,0.044593163,0.18325958,0.12797627,62.005367,-105.70395,-12.773505
2959981525000.0,-1.4061540390596745,9.758766,-1.206279347830018,0.04153884,0.19639318,0.118202426,61.95648,-105.71679,-12.768867
2959985195000.0,-1.385931391846129,9.758766,-1.23516878782673,0.05100725,0.21074851,0.10995574,61.899723,-105.734955,-12.7618
2959990180000.0,-1.3654097720877023,9.748528369876071,-1.2245093546806485,0.05497787,0.21899518,0.105374254,61.841457,-105.752495,-12.755722
2959995174000.0,-1.3471728171401336,9.73485080838894,-1.1971538508484272,0.058643065,0.23182335,0.10293079,61.778267,-105.772255,-12.750013
2960000195000.0,-1.3256628395975856,9.71997598060362,-1.1900391179798793,0.058643065,0.23671028,0.090713486,61.711487,-105.79105,-12.736914
2960005424000.0,-1.3014806610060363,9.703854668490946,-1.1940694670503018,0.06719518,0.2593123,0.08277224,61.6368,-105.81093,-12.72164
2960010253000.0,-1.272642536353294,9.689954050780846,-1.1908886982004343,0.0571159,0.2669481,0.07727446,61.568367,-105.82396,-12.706413
2960015190000.0,-1.21396351623746,9.680174001344504,-1.1566591889543902,0.056505036,0.27091873,0.077579886,61.49532,-105.83998,-12.690625
2960020234000.0,-1.1576354664501494,9.674960610062891,-1.133641540364986,0.055283304,0.28221974,0.08032878,61.413425,-105.85076,-12.669924
2960025165000.0,-1.1138155571502215,9.684698559748428,-1.148248159851531,0.043982297,0.27885997,0.07086037,61.335117,-105.862206,-12.6530485
2960031492000.0,-1.07576970094332,9.6810465015722,-1.1609301219946788,0.049480084,0.28313604,0.06688975,61.264946,-105.86331,-12.6212225
2960035230000.0,-1.0671109703781343,9.66661528396356,-1.1638163956542773,0.05100725,0.29993483,0.070249505,61.19285,-105.862495,-12.589939
2960040214000.0,-1.0555659962912198,9.647373660485368,-1.1676647605337418,0.042455133,0.30726522,0.070554934,61.115963,-105.86079,-12.556102
2960045178000.0,-1.0680094907555138,9.647484868606288,-1.1610901166119192,0.045814894,0.3136793,0.06505715,61.035316,-105.86222,-12.522644
2960050199000.0,-1.0860611520600656,9.651997406945096,-1.1520642388362272,0.04520403,0.31948254,0.06291912,60.953922,-105.86092,-12.48828
2960055287000.0,-1.1069127783197832,9.662515256910568,-1.15527954298103,0.049785517,0.3408628,0.047647487,60.8638,-105.86737,-12.45867
2960060286000.0,-1.1285362757000903,9.675489626287264,-1.1639289870912377,0.050396383,0.34483343,0.052534413,60.778996,-105.869095,-12.424884
2960065435000.0,-1.142233591105517,9.684745645269562,-1.1683705,0.052534413,0.36285394,0.051618114,60.681396,-105.87588,-12.398214
2960070208000.0,-1.1470280180406964,9.689540172330606,-1.1683705,0.060170226,0.3848451,0.05009095,60.582962,-105.88284,-12.370098
2960075192000.0,-1.1568382348874595,9.689188477491962,-1.1683705,0.059253927,0.40408736,0.038789943,60.480537,-105.88858,-12.342905
2960080524000.0,-1.1713257538963495,9.684359220446378,-1.1683705,0.06811147,0.42363504,0.034513887,60.373386,-105.896225,-12.313171
2960085398000.0,-1.1779473,9.677411642733828,-1.1565198295724586,0.0711658,0.4343252,0.03023783,60.262547,-105.901146,-12.283502
2960090222000.0,-1.1779473,9.66802818624962,-1.1330616292677973,0.063224554,0.44012842,0.023823744,60.148823,-105.90709,-12.254944
2960095152000.0,-1.1578884827640985,9.669684404289118,-1.118257645115171,0.069027774,0.4541783,0.028710667,60.03142,-105.914955,-12.2250395
2960100508000.0,-1.112054427680699,9.684962723987292,-1.113164978236696,0.073303826,0.46517387,0.024740042,59.914173,-105.924385,-12.199189
2960105292000.0,-1.0960906296866204,9.68739427978983,-1.1195788593732408,0.07574729,0.46853364,0.02321288,59.80406,-105.929276,-12.169641
2960110241000.0,-1.104984527828861,9.678500195909177,-1.137366655657722,0.07269296,0.47158796,0.018020526,59.692123,-105.935646,-12.141762
2960115226000.0,-1.1063665634473068,9.677117973302108,-1.1567885434004683,0.06658431,0.47891834,0.023518313,59.576134,-105.93104,-12.101707
2960120168000.0,-1.0930658012177985,9.690418550351287,-1.1789565267447306,0.060170226,0.4783075,0.024129177,59.462677,-105.92828,-12.065024
2960125141000.0,-1.0812608089283868,9.702223410251111,-1.2016928553580657,0.050396383,0.48930305,0.02565634,59.345295,-105.92114,-12.022606
2960130451000.0,-1.0760057910509455,9.707478537873309,-1.2279679447452725,0.04795292,0.49296826,0.023823744,59.231728,-105.91523,-11.981841
2960135186000.0,-1.073696698430612,9.719636456004231,-1.255927895732675,0.03481932,0.5131268,0.023823744,59.106815,-105.907036,-11.937317
2960140212000.0,-1.077940482313525,9.75358699294657,-1.298365778874978,0.01282817,0.5314528,0.021685716,58.98293,-105.89794,-11.894193
2960145560000.0,-1.0814262780441035,9.787497,-1.343011768488335,0.0067195175,0.5503896,0.0290161,58.852955,-105.89124,-11.847282
2960150229000.0,-1.070708617641419,9.787497,-1.3751647870006392,-0.0015271631,0.5681047,0.034513887,58.719826,-105.88132,-11.80096
2960155458000.0,-1.058705480728667,9.787497,-1.4111742395174176,-0.0070249503,0.59986967,0.042455133,58.57483,-105.87578,-11.750885
2960160208000.0,-1.0509988282861895,9.789946767054907,-1.44899401984193,-0.02443461,0.61544675,0.04337143,58.43145,-105.867165,-11.701555
2960165173000.0,-1.0460540683028283,9.794891113976703,-1.493496808059484,-0.021991149,0.6374379,0.055588737,58.280384,-105.857765,-11.6452055
2960170622000.0,-1.0533739432747944,9.797073,-1.5543105205968937,-0.025350908,0.6637051,0.07269296,58.11477,-105.845764,-11.583789
2960175165000.0,-1.066623583636179,9.797073,-1.611725674946706,-0.035124753,0.69058317,0.07788532,57.945198,-105.83363,-11.521615
2960180691000.0,-1.100451499386503,9.784695687116564,-1.6592943429447853,-0.03726278,0.7189884,0.08399397,57.76403,-105.821236,-11.450005
2960185464000.0,-1.138691934188511,9.767700027049637,-1.6890369477133296,-0.028099801,0.7351763,0.09254608,57.58185,-105.80862,-11.376287
2960190273000.0,-1.1818871867058085,9.751838027678758,-1.7162183812958691,-0.043676864,0.752586,0.09621128,57.382862,-105.798805,-11.302198
2960195171000.0,-1.231066485699308,9.737084458796394,-1.7408080051163766,-0.057421334,0.7593055,0.105374254,57.186123,-105.78919,-11.224637
2960200190000.0,-1.289105624668205,9.700426840738604,-1.7550230213502596,-0.074830994,0.75991637,0.096516706,56.97861,-105.78388,-11.156072
2960205490000.0,-1.3574456025485668,9.641849556645507,-1.759904444700904,-0.08093964,0.7733554,0.10445796,56.77028,-105.77373,-11.07981
2960210468000.0,-1.4142890452183845,9.584798043962316,-1.759800395889238,-0.10445796,0.7742717,0.108123146,56.56339,-105.76576,-11.015093
2960215177000.0,-1.4614932190884005,9.529011472261873,-1.7555091073556,-0.11575896,0.77457714,0.103847094,56.356247,-105.75978,-10.950085
2960220173000.0,-1.5205252234049274,9.47822900379027,-1.7543251603284902,-0.124005646,0.7669413,0.10323623,56.155907,-105.75135,-10.890799
2960225165000.0,-1.5960265166456096,9.442994881238157,-1.7593585763739734,-0.1337795,0.76083267,0.109650314,55.958607,-105.7405,-10.830936
2960230483000.0,-1.6638934026510002,9.404480297727714,-1.771681325917654,-0.122478485,0.7486154,0.10842858,55.772346,-105.73549,-10.77927
2960235245000.0,-1.7126069794426102,9.369052460477764,-1.7893953832685958,-0.112399206,0.74128497,0.118202426,55.590588,-105.72566,-10.723173
2960240539000.0,-1.790324649407655,9.318218079966586,-1.812276153523694,-0.105374254,0.7254025,0.11728613,55.413372,-105.726166,-10.683482
2960245167000.0,-1.8845683444866344,9.260998244304377,-1.835837059720535,-0.080634214,0.7113526,0.12064589,55.241585,-105.730225,-10.640216
2960250178000.0,-1.986611377339004,9.199043059234508,-1.86134779890644,-0.06291912,0.7086037,0.122478485,55.067528,-105.74497,-10.609289
2960255482000.0,-2.04905738679868,9.177835877887787,-1.8674773,-0.05222898,0.6771441,0.1301143,54.909122,-105.76159,-10.57794
2960260220000.0,-2.092887338372374,9.170531127505434,-1.8674773,-0.026572637,0.67103547,0.13103059,54.746765,-105.785904,-10.546297
2960265191000.0,-2.1425999104,9.165004,-1.8592029448,-0.01160644,0.6444628,0.13591751,54.5966,-105.817055,-10.531055
2960270168000.0,-2.202024825018182,9.165004,-1.829490487490909,0.009162978,0.62125,0.14630222,54.45032,-105.85296,-10.513429
2960275134000.0,-2.255197478430993,9.16184289433414,-1.806855460348668,0.042760566,0.59864795,0.15424347,54.31336,-105.89698,-10.50483
2960280283000.0,-2.298180382915254,9.152290938305084,-1.7973037037966102,0.08155051,0.56688297,0.15607607,54.188236,-105.94483,-10.496157
2960285292000.0,-2.329927743015396,9.154141171329329,-1.7770443147859556,0.09896017,0.5290093,0.160963,54.075005,-105.99241,-10.496056
2960290260000.0,-2.3388609084678933,9.180940481130303,-1.732378907275629,0.13316862,0.4868596,0.16798794,53.97427,-106.04979,-10.496032
2960295215000.0,-2.3410969284433736,9.201819295710845,-1.680923889619277,0.18142697,0.43799037,0.17837265,53.884148,-106.10888,-10.501378
2960300252000.0,-2.3085504803855423,9.192520144096386,-1.592583697060241,0.22357668,0.37782016,0.18906279,53.81132,-106.17111,-10.506976
2960305340000.0,-2.2725626769462832,9.191322200703931,-1.5082093584178329,0.2678644,0.30726522,0.18845193,53.758274,-106.23396,-10.517402
2960310468000.0,-2.2108307188468954,9.25717013835582,-1.4629392128383474,0.3222314,0.2275473,0.19394971,53.72687,-106.30324,-10.526651
2960315179000.0,-2.1541186957177576,9.317663436771976,-1.4213503563982233,0.3735441,0.14813483,0.21044308,53.714817,-106.363625,-10.5369835
2960320188000.0,-2.055675432509616,9.401348973846154,-1.3246399006057692,0.4343252,0.050701816,0.22602014,53.730965,-106.435104,-10.551506
2960325219000.0,-1.9398558623846156,9.494004513846154,-1.2041876502307691,0.4746423,-0.04428773,0.24678956,53.77,-106.50713,-10.564338
2960330373000.0,-1.7866487345037885,9.63271567880244,-0.844532399172057,0.5137377,-0.19730948,0.2773328,53.85577,-106.56917,-10.567878
2960335537000.0,-1.612995420255036,9.797229304749584,-0.3464216437774903,0.54641896,-0.48075095,0.31856623,54.005993,-106.630775,-10.577205
2960340184000.0,-1.410303861169431,9.957270219924418,0.1651923875792567,0.5155703,-0.8753699,0.38423425,54.232014,-106.64891,-10.575997
2960345175000.0,-1.1393524468822172,10.142921692840646,0.787377216812933,0.43188173,-1.0503827,0.44623706,54.47461,-106.65421,-10.569525
2960350195000.0,-0.9482453237121212,10.270149144318182,0.9313771446969696,0.33414328,-1.2889256,0.48349985,54.899017,-106.57441,-10.57694
2960355339000.0,-0.8222885408333332,10.3494558875,0.6654683916666667,0.2773328,-1.3875804,0.5439755,55.33202,-106.470894,-10.56439
2960360259000.0,-0.7732418310103173,10.380414681720849,0.3766573036091104,0.19425514,-1.361924,0.589485,55.85522,-106.25499,-10.534188
2960365183000.0,-0.8099607134319642,10.357465410161574,0.0461875439361496,0.12461651,-1.2699889,0.6056729,56.38189,-106.027626,-10.4977455
2960370153000.0,-0.8819618529449018,10.31668589740342,-0.2885071185898247,0.07849618,-1.1249083,0.605062,56.83894,-105.801895,-10.418409
2960375173000.0,-1.0138981987333755,10.245642882837238,-0.6284968927929069,0.049785517,-0.947452,0.5885687,57.25344,-105.569565,-10.333669
2960380404000.0,-1.1719066989233575,10.218078767427007,-0.9562983210328466,0.02321288,-0.7464773,0.5555819,57.57521,-105.371,-10.236249
2960385487000.0,-1.3451254140875912,10.235844687226278,-1.2494377322481751,0.0009162979,-0.5537493,0.528093,57.84255,-105.174164,-10.135588
2960390152000.0,-1.444128391017075,10.255842826280624,-1.4350777408314772,-0.019547688,-0.35521814,0.48991394,58.008812,-105.02726,-10.047095
2960395176000.0,-1.403306326323046,10.286459974228444,-1.4299750426874536,-0.0571159,-0.19150625,0.45631635,58.12556,-104.88094,-9.959886
2960400190000.0,-1.3608399272727274,10.28460260262418,-1.410546142642924,-0.111177474,-0.055588737,0.43188173,58.16431,-104.7842,-9.893635
2960405500000.0,-1.3131802636363636,10.23217643017807,-1.367652440393627,-0.16218472,0.032986723,0.4016439,58.167137,-104.690926,-9.834436
2960410211000.0,-1.276023889842462,10.176283303077486,-1.354077904460524,-0.2312125,0.09560041,0.3707952,58.142677,-104.584785,-9.768876
2960415199000.0,-1.2497723811778716,10.093153472339257,-1.402205799789339,-0.2779437,0.13164146,0.35094208,58.100266,-104.479996,-9.707638
2960420232000.0,-1.2231263190245936,10.011543620842016,-1.4549856854105878,-0.32528573,0.15241088,0.3136793,58.05629,-104.36724,-9.651032
2960425612000.0,-1.1930585552897042,9.947112794664443,-1.5537796637348895,-0.36071593,0.15943582,0.27977628,58.00639,-104.25454,-9.60008
2960430217000.0,-1.1673221143976658,9.89196336073364,-1.638342167486453,-0.36377025,0.16798794,0.24831672,57.954475,-104.15374,-9.549848
2960435232000.0,-1.099869420819502,9.866755603112033,-1.7495514615871368,-0.3484986,0.17562376,0.21685717,57.90053,-104.05977,-9.510633
2960440209000.0,-1.01581506719917,9.85686665518672,-1.868216410145228,-0.31490102,0.18661933,0.19822577,57.843765,-103.97614,-9.477468
2960445178000.0,-0.9020937682422736,9.833668580901348,-1.9622813334800495,-0.27275133,0.18753563,0.18234327,57.776684,-103.911064,-9.440112
2960450225000.0,-0.7772232325423404,9.805919497847094,-2.050153172261028,-0.25381452,0.19730948,0.18203785,57.70536,-103.85117,-9.403667
2960455486000.0,-0.6349221481770412,9.772333799919158,-2.067564390784155,-0.20433442,0.19853121,0.19211712,57.62665,-103.80448,-9.343143
2960460466000.0,-0.4951603956911883,9.738598527081647,-2.0531062873080037,-0.13408493,0.19975294,0.19394971,57.546173,-103.76992,-9.286062
2960465247000.0,-0.3865585291414872,9.699565938845668,-2.0189665388456666,-0.11636983,0.17348573,0.20005837,57.46476,-103.73777,-9.20754
2960470172000.0,-0.2841540966057536,9.6568974568482,-1.9762980568482,-0.09773844,0.13439035,0.21135938,57.388073,-103.72087,-9.129413
2960475175000.0,-0.1606579316461988,9.605254636549708,-1.944741454269006,-0.082161374,0.082161374,0.21838433,57.325752,-103.700134,-9.035007
2960480524000.0,-0.0058804928070175,9.540347701754389,-1.9247701859649125,-0.06658431,0.03634648,0.22999077,57.2739,-103.68233,-8.940187
2960485436000.0,0.1188490905263699,9.483863494911072,-1.931846846612522,-0.07666359,0.0070249503,0.2434298,57.23337,-103.65079,-8.832005
2960490182000.0,0.2216488801326205,9.432464027038142,-1.9645558472910456,-0.09193522,0.013133603,0.2489276,57.195766,-103.62298,-8.726071
2960495254000.0,0.3351108690641066,9.384465389780717,-1.974914204784388,-0.116980694,0.036651913,0.26267207,57.15497,-103.57339,-8.592851
2960500189000.0,0.4491613804742419,9.344795363025916,-1.960038061252754,-0.13500121,0.07696902,0.28588495,57.108208,-103.52236,-8.45757
2960505482000.0,0.5665040858568076,9.315894953051645,-1.882179749061033,-0.15515977,0.11575896,0.31490102,57.059696,-103.463455,-8.299212
2960510270000.0,0.6696570828638497,9.297954938967136,-1.7745418187793427,-0.17562376,0.12980886,0.35705075,57.008728,-103.39802,-8.133754
2960515236000.0,0.7777563985846706,9.297262626432772,-1.6255276413435662,-0.18448131,0.113926366,0.41233405,56.948135,-103.31519,-7.9418144
2960520180000.0,0.8862979936409847,9.311420758197947,-1.4461980730788395,-0.19517145,0.058643065,0.46944994,56.89741,-103.225204,-7.7436543
2960525175000.0,0.9797165898452612,9.349731379690525,-1.2242234236131528,-0.19425514,-0.02321288,0.5332854,56.87175,-103.10636,-7.5173674
2960530437000.0,1.0625680266441009,9.4130883532882,-0.9513010711102514,-0.2049453,-0.13469578,0.6062838,56.87361,-102.97809,-7.2825947
2960535238000.0,1.099151251967277,9.46891043971562,-0.7101647894039734,-0.22021692,-0.2602286,0.68294734,56.91865,-102.809906,-7.0237646
2960540236000.0,1.0944896970003894,9.52484880726529,-0.4677637753642384,-0.24648413,-0.37507126,0.7703011,56.99559,-102.63113,-6.7530384
2960545178000.0,1.0308285838014082,9.563549320134708,-0.2784418278828451,-0.30695978,-0.4288274,0.8060367,57.11478,-102.39637,-6.4736466
2960550200000.0,0.8786766772129808,9.578273994285132,-0.1606468044853556,-0.32650748,-0.51251596,0.86132,57.27813,-102.15766,-6.1786304
2960555463000.0,0.6435016866117801,9.573461822603058,-0.1677626721235139,-0.38759398,-0.5479461,0.9138544,57.46769,-101.85985,-5.885728
2960560259000.0,0.3527582876811023,9.548642133858268,-0.3060430648188976,-0.43249258,-0.535118,0.9560041,57.666008,-101.563705,-5.5888267
2960565500000.0,0.0350380721273737,9.52151953404354,-0.4571538942843909,-0.45875978,-0.47769663,0.9660834,57.877033,-101.24991,-5.314875
2960570178000.0,-0.0957625675183696,9.558360556448529,-0.4614606127841561,-0.5002986,-0.37598756,0.95478237,58.068707,-100.92746,-5.039461
2960575149000.0,-0.2187409683475889,9.603908081132795,-0.4523511126033295,-0.5222898,-0.27214047,0.9306532,58.239494,-100.61312,-4.7692547
2960580462000.0,-0.24899697,9.69101080849346,-0.4216485789342806,-0.5516113,-0.204029,0.9101892,58.392136,-100.347,-4.56635
2960585370000.0,-0.24899697,9.782086978685614,-0.3874949576554174,-0.5714644,-0.16920967,0.9095783,58.521694,-100.08664,-4.368281
2960590191000.0,-0.2300034299339934,9.866872609070583,-0.3595355351346748,-0.5717699,-0.16982053,0.91415983,58.646946,-99.83912,-4.201964
2960595178000.0,-0.1639037898019802,9.94314137559885,-0.3442817712104759,-0.54305923,-0.21777347,0.9294315,58.774105,-99.60063,-4.03941
2960600189000.0,-0.0989448142040587,9.964880680164594,-0.3370135012363228,-0.5164866,-0.2666427,0.94042706,58.907825,-99.35472,-3.87636
2960605444000.0,-0.0330544480079491,9.90369700953895,-0.3417199525596184,-0.4810564,-0.34208453,0.95386606,59.060955,-99.12412,-3.7174623
2960611338000.0,0.0536171688481868,9.793157185412824,-0.3936987813480844,-0.44073927,-0.40317106,0.9416488,59.216667,-98.89866,-3.554848
2960615214000.0,0.1220616125224339,9.682885739807416,-0.4697481724728539,-0.41599923,-0.44257188,0.9193522,59.384697,-98.68516,-3.3995435
2960620145000.0,0.2229815738767395,9.54975702385686,-0.5656027962127237,-0.38240165,-0.44348818,0.9080512,59.557087,-98.486946,-3.2349331
2960625171000.0,0.356950253359841,9.430142220675943,-0.6612946887176938,-0.35735616,-0.4007276,0.89766645,59.723934,-98.30153,-3.081855
2960630382000.0,0.4750773183575884,9.312797954261956,-0.7278373,-0.33292156,-0.34880406,0.9007208,59.87617,-98.13873,-2.9096422
2960635475000.0,0.5491792466240205,9.211394882616345,-0.7278373,-0.3323107,-0.2968805,0.9166033,60.013165,-97.98227,-2.7410045
2960640173000.0,0.6175340196449705,9.117856372781064,-0.7278373,-0.3436117,-0.27488935,0.9334021,60.12456,-97.837555,-2.5409784
2960645188000.0,0.685975706800598,9.01530965015885,-0.6595558059988788,-0.3323107,-0.24220806,0.9443977,60.21609,-97.70592,-2.342292
2960650195000.0,0.7531843047439731,8.912256775742852,-0.5744249692300505,-0.3408628,-0.24862215,0.97035944,60.311333,-97.5708,-2.1416895
2960655516000.0,0.8319660554827656,8.8777,-0.4474498116105623,-0.35369098,-0.28588495,1.0036516,60.40099,-97.435844,-1.9157126
2960660230000.0,0.9047659747429954,8.8777,-0.3200498994557549,-0.37323865,-0.34513888,1.0396926,60.497562,-97.304085,-1.6896765
2960665189000.0,0.9826650787374728,8.8777,-0.2038695302045666,-0.37782016,-0.40958515,1.0571023,60.60935,-97.15908,-1.4451839
2960670232000.0,1.0625011769759272,8.8777,-0.0940949244343423,-0.38606682,-0.47433686,1.067487,60.73648,-97.01694,-1.2020596
2960675186000.0,1.2087945478109412,8.928345998099914,-0.0557829488259045,-0.4025602,-0.5366451,1.0485502,60.88749,-96.852234,-0.949204
2960681466000.0,1.4230614258095162,9.014052510648405,-0.03673699803816,-0.43127087,-0.59589905,1.0760391,61.054733,-96.691864,-0.68994766
2960685214000.0,1.543759083323026,9.068674975468976,-0.0352926350814265,-0.45356745,-0.6093381,1.0845913,61.23756,-96.52029,-0.42570224
2960690204000.0,1.6816762130900844,9.152410487734487,-0.0648462932549989,-0.4560109,-0.63163465,1.1032226,61.43727,-96.359314,-0.1605694
2960695139000.0,1.7846746832875495,9.190297444749667,-0.0986160736437749,-0.47769663,-0.6646214,1.1108584,61.637726,-96.19904,0.1374867
2960700192000.0,1.7975390794949049,9.1045348033673,-0.1457855577474524,-0.47952923,-0.6826419,1.1377366,61.83789,-96.06225,0.43820697
2960705531000.0,1.8347417699675803,9.030417898614797,-0.1898877792425582,-0.48166725,-0.6969972,1.1597277,62.041245,-95.945274,0.7626097
2960710248000.0,2.1010182504175265,9.128052245112489,-0.1721360200579624,-0.47342056,-0.7079928,1.1664472,62.245487,-95.852875,1.0813259
2960715530000.0,2.391281035116413,9.229188429478546,-0.152991194300558,-0.4569272,-0.70524395,1.1948525,62.44454,-95.79685,1.4170467
2960720196000.0,2.511657236097749,9.177598917644795,-0.1486920413796421,-0.4636467,-0.6914995,1.2534955,62.64095,-95.76258,1.7545931
2960725231000.0,2.641553115210699,9.12192956657687,-0.1440528997258033,-0.48808134,-0.68630713,1.2819008,62.829483,-95.76864,2.1369767
2960730524000.0,2.7356991932609067,9.077632566287557,-0.1910370493176031,-0.5235115,-0.6722572,1.2999213,63.009663,-95.80332,2.5241325
2960735265000.0,2.816625753522322,9.039096147343406,-0.2372807802181293,-0.5534439,-0.63407815,1.3029755,63.178665,-95.861855,2.90618
2960740274000.0,2.8706932418814035,8.965336193728655,-0.2249642657652902,-0.59712076,-0.602924,1.2892311,63.3452,-95.95219,3.3120832
2960745264000.0,2.9003661583669667,8.86642647211011,-0.1656183966459691,-0.64934975,-0.54305923,1.2632693,63.489662,-96.05844,3.707039
2960751307000.0,2.9824090608488065,8.829816,-0.1045692452601237,-0.68844515,-0.4804455,1.2244794,63.622284,-96.20371,4.114835
2960755490000.0,3.053248665145889,8.829816,-0.0656074765811671,-0.8020661,-0.46578476,1.2205088,63.74964,-96.34722,4.515468
2960760234000.0,3.105471343733711,8.802664472038126,-0.0292567203344999,-0.8417723,-0.42821655,1.2266175,63.859516,-96.51898,4.9174395
2960765233000.0,3.112601312197483,8.72779933785092,-0.0043016829264278,-0.91721416,-0.4098906,1.2061534,63.96834,-96.67734,5.3007913
2960770182000.0,3.1196599667138285,8.653683004765805,0.0204037541875046,-0.95722586,-0.3885103,1.1676689,64.062874,-96.8658,5.696625
2960775224000.0,3.156668645638912,8.60472868557296,-0.0778224136949711,-0.9877691,-0.36102137,1.1523973,64.14925,-97.063995,6.083767
2960780436000.0,3.210162929299258,8.567694267436108,-0.2424203298829348,-0.9978484,-0.35124752,1.1508701,64.23306,-97.27057,6.4543233
2960785215000.0,3.257927804351252,8.537334558220977,-0.387477513335668,-0.98929626,-0.32986724,1.1459832,64.318436,-97.4968,6.8266616
2960790353000.0,3.30531557565225,8.515794723516022,-0.5253325634074593,-0.9728029,-0.30573806,1.1395692,64.3993,-97.7345,7.188829
2960795583000.0,3.3541432103602866,8.494628,-0.6630604127208999,-0.93554014,-0.2660318,1.133155,64.45281,-98.01367,7.5619807
2960800214000.0,3.411984921291164,8.494628,-0.7209021840495599,-0.9016371,-0.2144137,1.1301007,64.49552,-98.29752,7.9249682
2960805581000.0,3.479019355013042,8.494628,-0.7879366877681774,-0.88606006,-0.17837265,1.1249083,64.52448,-98.60878,8.296344
2960810231000.0,3.5051112,8.494628,-0.8320549560562789,-0.87598073,-0.13072516,1.1255192,64.53526,-98.92168,8.659313
2960815186000.0,3.5051112,8.494628,-0.8669322666610668,-0.8585711,-0.10567969,1.1203269,64.5422,-99.23045,9.009588
2960820228000.0,3.5023095404493296,8.511438015813326,-0.8838678771034616,-0.83291477,-0.062308256,1.1181889,64.5306,-99.56153,9.373858
2960825166000.0,3.497749687166136,8.538797230739563,-0.8884277589547778,-0.8155051,-0.022602014,1.1129965,64.51313,-99.88561,9.726171
2960830522000.0,3.523633880789839,8.64762697648343,-0.9018828259089106,-0.77671516,0.025045475,1.112691,64.49394,-100.21765,10.080129
2960835278000.0,3.5688287169874977,8.801289004266721,-0.9199607179152608,-0.7483099,0.070249505,1.1191051,64.46435,-100.543625,10.42508
2960840213000.0,3.608784754439371,8.99258291171994,-0.9264527993658042,-0.7153232,0.09712757,1.1297953,64.43643,-100.871864,10.768517
2960845171000.0,3.6425110274784376,9.214213058143075,-0.9216347603602232,-0.6963864,0.15027285,1.1566733,64.38825,-101.19936,11.10927
2960850183000.0,3.662826583669197,9.434879451975922,-0.9395621882229784,-0.6872234,0.17806722,1.1707232,64.351425,-101.53425,11.455087
2960855478000.0,3.6716740330280033,9.664913089112796,-0.979375733433656,-0.6627888,0.21655174,1.1771374,64.29654,-101.86697,11.796731
2960860157000.0,3.675122647365697,9.876691540730771,-1.0138637465997309,-0.63591075,0.22571471,1.1869112,64.250465,-102.204056,12.14192
2960865192000.0,3.665140411986337,10.13123916830556,-1.0488016225442502,-0.62125,0.22571471,1.1957687,64.19633,-102.53379,12.478591
2960870205000.0,3.689999571890989,10.372712512373395,-1.0409430281090113,-0.6096435,0.20708331,1.1933253,64.15286,-102.85583,12.80574
2960875151000.0,3.7889176093975143,10.585385864362536,-0.9420249906024852,-0.5849035,0.17440203,1.2055426,64.11371,-103.17549,13.129213
2960880343000.0,3.7971588545864776,10.697276941025445,-0.8203611811685988,-0.5729916,0.118202426,1.2287555,64.10667,-103.48905,13.445733
2960885224000.0,3.6771428381856377,10.653634656578232,-0.682160996039835,-0.57910025,0.039095376,1.2379184,64.114685,-103.792404,13.751299
2960891274000.0,3.5329570359891824,10.59732332556688,-0.5136092821094237,-0.5928447,-0.02443461,1.2525792,64.13878,-104.11387,14.076263
2960895177000.0,3.5174054443935927,10.523453346681922,-0.4514028832494279,-0.6020077,-0.09437868,1.255328,64.1859,-104.42413,14.389264
2960900166000.0,3.497526661285625,10.429029230705222,-0.3718877093030996,-0.6041457,-0.14202617,1.2596041,64.27047,-104.72316,14.693131
2960905376000.0,3.3926966599056603,10.274174557783018,-0.2929960798584906,-0.6041457,-0.14844026,1.2950343,64.35938,-105.02179,14.996017
2960910245000.0,3.2863873273113207,10.123874996816038,-0.2196792979669811,-0.61575216,-0.12461651,1.3319917,64.449005,-105.31226,15.290374
2960915225000.0,3.180239285846843,9.9780785559407,-0.1235444829707764,-0.61575216,-0.09407325,1.3298537,64.53886,-105.60968,15.592038
2960920215000.0,3.078301877677048,9.845560154170222,0.0089741710671928,-0.6084218,-0.059864793,1.3081679,64.61645,-105.90182,15.887913
2960925194000.0,3.0152659965790964,9.694282596106596,0.1118301693082593,-0.600786,-0.04062254,1.3023647,64.692154,-106.18853,16.178602
2960930581000.0,2.9908895924966923,9.50902161963712,0.1898347163335853,-0.5739079,-0.03848451,1.3066407,64.75926,-106.462875,16.45593
2960935215000.0,2.954328182131791,9.323317985746748,0.3020195677132823,-0.54519725,-0.03726278,1.3292428,64.81745,-106.737434,16.73347
2960940207000.0,2.89013731115472,9.081367367279489,0.4945923250113613,-0.5170974,-0.024740042,1.3591752,64.8688,-107.00656,17.004574
2960945144000.0,2.861947166030989,8.968913082240762,0.7181749066746127,-0.47403142,-0.053145275,1.3420709,64.93004,-107.284,17.283316
2960950191000.0,2.8811502290425106,9.026522471791816,0.9918187350536354,-0.42943826,-0.0888809,1.2947289,64.9872,-107.55171,17.55161
2960955297000.0,2.9313877549374268,9.05140808867814,1.1966598308760266,-0.40103304,-0.13836098,1.2657127,65.05746,-72.172195,17.827703
2960960283000.0,3.02009024514079,9.032733987974188,1.3040365680289403,-0.3463606,-0.20463985,1.2809844,65.14072,-71.9062,18.09317
2960965210000.0,3.0343449365892714,8.988780032025621,1.365864305044035,-0.30940324,-0.23396139,1.3008375,65.24055,-71.638565,18.359194
2960970168000.0,2.929801348458767,8.903244111889512,1.356360346997598,-0.2932153,-0.20463985,1.2953397,65.338486,-71.38306,18.612448
2960975134000.0,2.8732143886547963,8.863592794164258,1.3617037735247506,-0.2919936,-0.20433442,1.2247849,65.43804,-71.1144,18.877693
2960981347000.0,2.9064952061340543,8.913514570616202,1.400531519408968,-0.2846632,-0.19028452,1.2061534,65.521095,-70.842186,19.145836
2960985215000.0,2.9429464569632,8.92936615245851,1.418526469508298,-0.3051272,-0.20647246,1.2064588,65.61506,-70.58208,19.400703
2960990213000.0,3.0366928316668385,8.904696094526336,1.4234604810947324,-0.30757064,-0.22296582,1.1893547,65.70201,-70.341194,19.635902
2960995141000.0,3.1620404827217428,8.892535192013343,1.4427189721251965,-0.3100141,-0.20708331,1.1682798,65.78058,-70.093124,19.876726
2961000208000.0,3.3762923036302985,8.911579694466248,1.4998528274921508,-0.33567044,-0.24801129,1.1566733,65.87858,-69.85526,20.106655
2961005869000.0,3.675796700323027,8.963210508075681,1.5743617131518228,-0.33383787,-0.2648101,1.1517864,65.95873,-69.5935,20.359566
2961010231000.0,3.995800910973696,9.048030574342407,1.6476156153576371,-0.3408628,-0.2864958,1.2098186,66.04957,-69.32524,20.618076
2961015248000.0,4.340133637441513,9.137643049676456,1.71195167456446,-0.34666604,-0.31398472,1.2504412,66.12897,-69.032555,20.899782
2961020171000.0,4.457472031438527,9.151723956893976,1.5899195958188153,-0.3408628,-0.3652974,1.2000448,66.220085,-68.75939,21.16196
2961025230000.0,4.585695562968287,9.16614912599406,1.4729196340902555,-0.3387248,-0.3839288,1.1942415,66.304344,-68.40307,21.505602
2961030385000.0,4.80328195383731,9.180339329117562,1.449269015665421,-0.35277468,-0.43401974,1.1835514,66.41155,-68.07254,21.823582
2961035493000.0,5.009084998907691,9.188753965440055,1.4236242697376666,-0.35796702,-0.4202753,1.2061534,66.491264,-67.71076,22.174032
2961040221000.0,5.017192911451339,9.091458083624318,1.3587602074223295,-0.39187005,-0.410196,1.212873,66.58463,-67.36647,22.506231
2961045142000.0,5.025631794198227,8.990190521353748,1.2912483523771154,-0.40439278,-0.35613444,1.2202033,66.644135,-66.98334,22.877295
2961050196000.0,5.010014909268197,8.860601612429823,1.1704257636659117,-0.4382958,-0.24556783,1.2006557,66.68068,-66.616135,23.229721
2961055288000.0,4.985999857677534,8.721314122623856,1.031138073249286,-0.4801401,-0.22815818,1.1426234,66.72801,-66.26867,23.562082
2961060271000.0,5.01981748695693,8.606408026086141,0.8796769340996529,-0.47861293,-0.21594086,1.1157454,66.73514,-65.90276,23.912483
2961065242000.0,5.073423077320071,8.499196845359858,0.7233270662006193,-0.46181414,-0.19150625,1.0855075,66.73365,-65.5648,24.233416
2961070212000.0,5.275173377029465,8.301767358929647,0.6293165879735418,-0.453262,-0.14874569,1.0677924,66.73008,-65.23031,24.553108
2961075614000.0,5.601815717979555,8.021787892443376,0.5722838008618962,-0.44440445,-0.1020145,1.0598512,66.71785,-64.91289,24.855892
2961081112000.0,5.965596270010777,8.012432003928676,0.6140621895953757,-0.43768495,-0.029626964,1.0381655,66.68281,-64.58582,25.170973
2961085220000.0,6.246965091015969,8.089519406730675,0.6757320554913295,-0.441961,0.07269296,1.0067059,66.62458,-64.27453,25.46895
2961090194000.0,6.375741954370505,8.057926953408284,0.7356399887410109,-0.46120325,0.17104226,1.0094548,66.53593,-63.902218,25.828438
2961095199000.0,6.336903144231743,7.92684593750633,0.7841884684634862,-0.47952923,0.27000242,1.0528263,66.4163,-63.537605,26.178295
2961100209000.0,6.46909492515473,7.980963298762157,0.8019783909823165,-0.4972443,0.41599923,1.0778717,66.253006,-63.135437,26.561195
2961105293000.0,6.727389320733864,8.17037893412909,0.7976734926304155,-0.51068336,0.5119051,1.0036516,66.07839,-62.75968,26.915945
2961110245000.0,6.950457036254242,8.295136268744216,0.8175862716723233,-0.47433686,0.61911196,0.9972375,65.860115,-62.3516,27.299305
2961115218000.0,7.116996786279954,8.300034594466728,0.8861614405954952,-0.43493605,0.70738196,1.0183123,65.622444,-61.966904,27.656845
2961120169000.0,7.238943990494142,8.27965011319409,0.9812416741059602,-0.3943135,0.7959574,0.9957104,65.35487,-61.57502,28.021374
2961125207000.0,7.28810126815079,8.215745790830361,1.1237980564900665,-0.3463606,0.88300574,0.990518,65.063805,-61.18594,28.383148
2961130259000.0,7.373409909347235,8.187550161318745,1.196227517380131,-0.30848694,0.9071349,0.9398162,64.77612,-60.795525,28.745209
2961135275000.0,7.507444397753139,8.208713195315369,1.1715369304647918,-0.25992316,0.8900307,0.90102625,64.47979,-60.417526,29.096586
2961140258000.0,7.640597080314267,8.229736998825171,1.1470087816212644,-0.23182335,0.8417723,0.84665924,64.196945,-60.050186,29.433865
2961145939000.0,7.772319541379669,8.198531083029861,1.0937797293101654,-0.1704314,0.7281514,0.82986045,63.94713,-59.697765,29.762966
2961150191000.0,7.865530760774113,8.160399345229425,1.0471741196129436,-0.14905111,0.68966687,0.8222246,63.69537,-59.367237,30.068953
2961155302000.0,7.873890975131542,8.000240226530048,1.0447338748546109,-0.15607607,0.6414085,0.8194757,63.481606,-59.015457,30.402655
2961160268000.0,7.851940365808178,7.8114643812425,1.0579043412997322,-0.17073683,0.59681535,0.8179486,63.28364,-58.676033,30.726145
2961165198000.0,7.818951276564495,7.591337914729672,1.1180463660174542,-0.19120082,0.59986967,0.8060367,63.081856,-58.3217,31.065302
2961170218000.0,7.778018401724138,7.345741093103448,1.210145147413793,-0.20830505,0.59803706,0.7870999,62.90014,-57.979202,31.393923
2961175191000.0,7.696884398892784,7.224355062151688,1.3275567778741464,-0.21166481,0.5849035,0.7678576,62.719597,-57.62745,31.730383
2961180199000.0,7.599529211588854,7.149126242812327,1.4558884182505996,-0.20922135,0.55741453,0.7464773,62.548546,-57.29048,32.052326
2961185306000.0,7.51344280868217,7.124099188568476,1.6098260294056848,-0.2012801,0.5833763,0.7263188,62.359276,-56.94072,32.381332
2961190178000.0,7.441104561240309,7.138566787700259,1.7737928746770026,-0.19364429,0.58276546,0.71685034,62.191338,-56.60301,32.700584
2961195175000.0,7.397212356012035,7.09858974076149,1.972824182550057,-0.1957823,0.5357288,0.7110472,62.028336,-56.27509,33.00449
2961200198000.0,7.372259421890237,7.02373072995124,2.192410159155514,-0.19792034,0.45081854,0.7031059,61.88183,-55.959282,33.298504
2961205216000.0,7.346172490496401,6.948535189739805,2.306106237774497,-0.19150625,0.37659842,0.6924158,61.75067,-55.649033,33.58158
2961210233000.0,7.31957341007566,6.873171128547702,2.372604031408009,-0.18448131,0.3203988,0.6737844,61.644863,-55.351486,33.854744
2961215177000.0,7.2947365884416095,6.884834592267835,2.3271030766839376,-0.17562376,0.321926,0.657291,61.53722,-55.053173,34.12084
2961220167000.0,7.270928182702272,6.975306434635312,2.179490861658031,-0.18967366,0.35521814,0.63499445,61.43992,-54.76848,34.37345
2961225165000.0,7.25469403499582,7.049215314293675,2.0344884890498744,-0.18906279,0.3857614,0.63316184,61.343082,-54.475597,34.631714
2961230217000.0,7.245706946001672,7.10763167428253,1.8906949243800504,-0.19425514,0.46670106,0.6337727,61.21944,-54.194584,34.87345
2961235213000.0,7.269011546527274,7.1135433213953005,1.833003416230204,-0.1872302,0.5503896,0.6206391,61.09009,-53.925232,35.10801
2961240180000.0,7.34779101480178,7.029840039954456,1.9216302537729013,-0.1908954,0.59742624,0.59650993,60.94806,-53.66592,35.329884
2961245145000.0,7.437139940428912,6.971527259729944,2.016667098808578,-0.16707164,0.6753115,0.55924714,60.77975,-53.420868,35.540756
2961250483000.0,7.548802293486895,6.946149500397141,2.1283293458697377,-0.16493362,0.70371675,0.52473325,60.616604,-53.188297,35.73806
2961255204000.0,7.664588909231674,6.962932491963936,2.2343411602312817,-0.15760323,0.72387534,0.48258355,60.41438,-52.946575,35.937508
2961260251000.0,7.81142900999608,7.033984201489612,2.357497555664445,-0.13133603,0.73914695,0.4370741,60.210636,-52.72432,36.11805
2961265211000.0,7.981506388920273,7.1249861278906605,2.417697464400911,-0.1459968,0.68386364,0.40011674,60.010544,-52.490868,36.304203
2961270177000.0,8.193840512874715,7.250653122113896,2.378697418915717,-0.16676621,0.63041294,0.36102137,59.812527,-52.278957,36.469627
2961275170000.0,8.377559522441295,7.346732555910036,2.3661299144357475,-0.20616703,0.5739079,0.3323107,59.622437,-52.05674,36.639812
2961280226000.0,8.420736149410482,7.298758414623997,2.481267903616368,-0.21288654,0.52412236,0.30848694,59.45528,-51.85159,36.796562
2961285221000.0,8.454027174139428,7.237810989759907,2.592982138356957,-0.23548855,0.48991394,0.2855795,59.29849,-51.640144,36.961983
2961290185000.0,8.440275300260343,7.109462751557227,2.693827107443834,-0.25381452,0.42332962,0.2669481,59.175434,-51.440876,37.120148
2961295199000.0,8.421756822337535,6.980775182357302,2.7854781909809736,-0.2837469,0.36010507,0.23396139,59.048183,-51.236412,37.27542
2961300205000.0,8.354628345605798,6.862313455646158,2.769683294086154,-0.2941316,0.28893927,0.20861048,58.95101,-51.04183,37.425785
2961306963000.0,8.263670152584085,6.703562482143833,2.7473283949776683,-0.31123585,0.26358834,0.17806722,58.837803,-50.841835,37.571583
2961310241000.0,8.200718569319115,6.692116731583265,2.678654011129341,-0.34483343,0.22785273,0.15485434,58.757046,-50.650867,37.711655
2961315182000.0,8.105830292042658,6.674864305250205,2.575139633278644,-0.37018433,0.22602014,0.14080444,58.668648,-50.464127,37.845528
2961320158000.0,7.989745925469267,6.605131178027236,2.494569545804196,-0.3979787,0.23335053,0.13316862,58.59281,-50.284664,37.971428
2961325173000.0,7.848332431266102,6.472555583069562,2.4415394277972027,-0.40530908,0.24098633,0.122783914,58.52073,-50.114594,38.088108
2961330329000.0,7.7156952621225985,6.362876872781336,2.396834762854529,-0.40866885,0.25870144,0.10567969,58.45752,-49.955433,38.196484
2961335263000.0,7.616262748124428,6.315322366852699,2.3752190578225068,-0.41141775,0.28099802,0.10354166,58.391293,-49.79947,38.300926
2961340217000.0,7.5211595671974525,6.262975393113058,2.361069955264729,-0.40042216,0.31245756,0.10751228,58.30313,-49.650005,38.39742
2961345175000.0,7.464453626433121,6.173190789530255,2.408324856558519,-0.37812558,0.3295618,0.1020145,58.21557,-49.508846,38.486366
2961350216000.0,7.4077256183319715,6.084838186967965,2.4598200454215444,-0.37140608,0.33964106,0.105374254,58.119617,-49.366116,38.574093
2961355299000.0,7.359130680642526,6.022990084454125,2.54375689436428,-0.37812558,0.32253686,0.10751228,58.03065,-49.230083,38.657207
2961361006000.0,7.300399926526465,5.952906307670426,2.63645816229808,-0.36285394,0.29993483,0.1160644,57.929913,-49.089397,38.742065
2961365261000.0,7.19276169773443,5.890807515737071,2.681997296555928,-0.355829,0.2761111,0.11911872,57.838898,-48.95237,38.824005
2961370163000.0,7.068756386914559,5.819266204795285,2.734460947820786,-0.3399465,0.25442538,0.11759156,57.741352,-48.811543,38.90502
2961375171000.0,6.9616241638655465,5.771173201680672,2.747356459663865,-0.32070425,0.22571471,0.12003502,57.65682,-48.673626,38.987
2961380228000.0,6.855256021695951,5.724926183346066,2.756605863330787,-0.3051272,0.20830505,0.12308934,57.578484,-48.54083,39.066383
2961385225000.0,6.7705517944383855,5.72527018167939,2.762078390839694,-0.2761111,0.20616703,0.12950343,57.494823,-48.40922,39.141186
2961390157000.0,6.690948669029444,5.734635163219986,2.766760881609993,-0.26297748,0.18448131,0.13225232,57.426582,-48.28157,39.215508
2961395174000.0,6.65954950970718,5.724893657280385,2.7986671018551945,-0.24953845,0.17654006,0.13041973,57.344185,-48.165527,39.276752
2961400202000.0,6.640234567709587,5.71040745078219,2.837297137113919,-0.23396139,0.14752395,0.12339478,57.27958,-48.055008,39.33787
2961405361000.0,6.657145588743828,5.816674693949285,2.888551367068374,-0.22510384,0.13561209,0.1255328,57.21472,-47.94903,39.39267
2961410228000.0,6.680550160415097,5.9414992526989705,2.9392613198761404,-0.21197024,0.10903945,0.1255328,57.1682,-47.850643,39.445816
2961415185000.0,6.71196886820221,6.020902340080972,2.959919623919466,-0.19425514,0.10293079,0.13530666,57.114334,-47.746582,39.50144
2961420149000.0,6.753583309388336,6.036507789473684,2.939112539118065,-0.1731803,0.0888809,0.13408493,57.07539,-47.650383,39.554157
2961425144000.0,6.783838401508841,6.100323075534574,2.9435388742849207,-0.16310102,0.08093964,0.13530666,57.03728,-47.565536,39.59389
2961430261000.0,6.806519363093585,6.2001194959733406,2.9662197885031936,-0.15790866,0.061391957,0.13805555,57.009647,-47.4851,39.633507
2961435671000.0,6.83441019154944,6.31654971146935,2.946939516901119,-0.13622294,0.052839845,0.1386664,56.97417,-47.40142,39.67983
2961440213000.0,6.861208318010063,6.423742124037376,2.893343263979874,-0.0983493,0.056505036,0.13836098,56.942303,-47.322388,39.724823
2961445149000.0,6.883202241940756,6.502311203064352,2.837597130439224,-0.08735373,0.034513887,0.14996742,56.918346,-47.24814,39.766827
2961450210000.0,6.898054596833504,6.541917534473953,2.7831383924412667,-0.05375614,0.055283304,0.14508049,56.880898,-47.186764,39.798374
2961455369000.0,6.912435638382995,6.577747856168198,2.735446405931495,-0.045814894,0.058948494,0.15149458,56.856052,-47.12502,39.837826
2961460228000.0,6.9253940090968165,6.607984340155945,2.696571158479532,-0.02687807,0.07238753,0.14844026,56.822914,-47.073532,39.869156
2961465187000.0,6.924074832379742,6.600457570936639,2.6738357534329307,-0.004581489,0.083383106,0.15363261,56.78535,-47.02409,39.904053
2961470173000.0,6.898778199194744,6.52962683953168,2.6788951328989192,0.0033597588,0.08674286,0.15363261,56.747852,-46.979046,39.934906
2961475144000.0,6.8814896409145385,6.476137453120678,2.677271596699548,0.007330383,0.08032878,0.14874569,56.711517,-46.932953,39.971813
2961480367000.0,6.872266931363511,6.439246374158754,2.668048790845395,0.0012217305,0.07574729,0.13439035,56.67557,-46.890858,40.00439
2961485204000.0,6.871152703296703,6.413405724383725,2.6363865397980395,-0.003970624,0.07452556,0.12675454,56.63,-46.844597,40.039536
2961490187000.0,6.885325961538461,6.403956967775468,2.556071590644491,-0.015271631,0.07391469,0.12675454,56.587887,-46.80037,40.07215
2961495149000.0,6.893944576851942,6.38916860274506,2.5321000182030566,-0.03176499,0.06963864,0.11942416,56.5409,-46.754055,40.10536
2961500188000.0,6.889246971186606,6.360983459262143,2.644840346880171,-0.03970624,0.06688975,0.1151481,56.494812,-46.708313,40.138107
2961505867000.0,6.885724,6.339846,2.727758337517934,-0.051618114,0.056505036,0.10995574,56.461033,-46.65996,40.179604
2961510262000.0,6.885724,6.339846,2.723984044565997,-0.040011674,0.056199603,0.10323623,56.42639,-46.61633,40.217575
2961515411000.0,6.885450272866092,6.342309572787784,2.721729112803445,-0.041233405,0.06566802,0.10048734,56.37955,-46.570164,40.245728
2961520179000.0,6.88098064624119,6.382536679130775,2.753016872552858,-0.048563786,0.0580322,0.09560041,56.34138,-46.528385,40.271988
2961525555000.0,6.8770519354658655,6.426761008372692,2.787393479390296,-0.04642576,0.052534413,0.083383106,56.297615,-46.48318,40.30077
2961530197000.0,6.8961397437956204,6.442031255036496,2.798846124525548,-0.012217305,0.061391957,0.08307768,56.252113,-46.440193,40.329678
2961535238000.0,6.916868231902104,6.458614045521683,2.811283174100472,-0.009773844,0.086437434,0.07727446,56.2077,-46.403294,40.34653
2961540189000.0,6.937079541577328,6.480654844549411,2.7536017588366413,-0.017715093,0.07727446,0.0842994,56.172123,-46.36643,40.36838
2961545232000.0,6.957585082952978,6.50628683818066,2.6562002900965926,0.010079277,0.08979719,0.0852157,56.122726,-46.3375,40.38231
2961550192000.0,6.968953860787172,6.5816909764212825,2.5740827492984693,0.0106901415,0.10842858,0.09254608,56.075935,-46.300213,40.401432
2961555340000.0,6.977937345918368,6.676017757908163,2.4932312424107144,0.02687807,0.13194689,0.09101892,56.02524,-46.27033,40.416256
2961560421000.0,6.993467609325254,6.659451082890008,2.560038686546164,0.027488936,0.1441642,0.09407325,55.971695,-46.238834,40.43867
2961565252000.0,7.012473578001438,6.573923628468728,2.7168388956146656,0.02687807,0.1414153,0.082161374,55.918705,-46.214043,40.455425
2961570196000.0,7.004445496920516,6.5839490843737,2.777274,0.024740042,0.12797627,0.07941248,55.86258,-46.196938,40.47174
2961575423000.0,6.978406314377861,6.656859263160633,2.777274,0.03940081,0.14477506,0.079107046,55.79943,-46.184364,40.482887
2961580306000.0,7.004219800395741,6.684725934090267,2.816039635164421,0.03726278,0.14202617,0.07666359,55.738567,-46.163002,40.490982
2961585231000.0,7.048661185018373,6.69805842372562,2.8693694544897763,0.030543262,0.1337795,0.07238753,55.67602,-46.14385,40.497337
2961590186000.0,7.087586852341224,6.732198777870477,2.8523883516007924,0.032986723,0.13041973,0.070249505,55.60768,-46.12892,40.498535
2961595173000.0,7.122451801981437,6.78200532870998,2.78265907641047,0.027488936,0.14569137,0.07849618,55.537045,-46.111378,40.500465
2961600236000.0,7.107021594098103,6.846622294675178,2.7775100623152924,0.029626964,0.14782938,0.07849618,55.481777,-46.096474,40.50057
2961605278000.0,7.064802151184751,6.9183950346244645,2.8070636238611524,0.033292156,0.15027285,0.09437868,55.420036,-46.075314,40.50572
2961610266000.0,7.042413098203935,6.965798534334316,2.814777560866673,0.035124753,0.16065755,0.09101892,55.361065,-46.062214,40.508938
2961615241000.0,7.051468326275777,6.974853856960943,2.787611498432006,0.041233405,0.16584991,0.101098195,55.301296,-46.042633,40.52018
2961620178000.0,7.048432107126077,6.989957006264683,2.773743433046202,0.04337143,0.16279559,0.108123146,55.24346,-46.035847,40.514977
2961625173000.0,7.010972345184025,7.022734297963979,2.797155784259984,0.04734206,0.17898351,0.11453723,55.177654,-46.027534,40.510326
2961630241000.0,6.981492,7.050652155146199,2.7975391039473685,0.038179077,0.19058995,0.12522738,55.11185,-46.011223,40.515316
2961635302000.0,6.981492,7.060100045730994,2.7172312447368423,0.04062254,0.20463985,0.13713925,55.04048,-45.994873,40.520668
2961640242000.0,6.976469051513342,7.065171556352051,2.653612659538033,0.04734206,0.21868975,0.15027285,54.957546,-45.982033,40.51771
2961645178000.0,6.94823069874552,7.051052551971326,2.658319059856631,0.03848451,0.23793201,0.15302174,54.87013,-45.967873,40.513557
2961650213000.0,6.926307003237233,7.044262958378432,2.660835164508511,0.040317107,0.23426682,0.17287487,54.786884,-45.94585,40.52676
2961655381000.0,6.940916735324215,7.078352231545804,2.65109534311719,0.036651913,0.24312437,0.1731803,54.69702,-45.927452,40.532436
2961660198000.0,6.953337459027711,7.104838881944577,2.643774465039793,0.034513887,0.25259277,0.18173242,54.601673,-45.903286,40.543125
2961665243000.0,6.957970161252278,7.095573477495445,2.648407215639084,0.03604105,0.267559,0.19028452,54.503967,-45.87974,40.55246
2961670507000.0,6.961076263893943,7.086837,2.654879060176761,0.044593163,0.28130344,0.1994475,54.401276,-45.850372,40.56794
2961675171000.0,6.949465607486354,7.086837,2.674230154189412,0.044593163,0.29657507,0.20433442,54.295242,-45.82012,40.582718
2961680233000.0,6.936864161788407,7.086837,2.6952325636859893,0.044593163,0.30909783,0.21105394,54.18209,-45.783325,40.603123
2961685271000.0,6.924373702800517,7.083758825937096,2.740674959284791,0.039095376,0.32498032,0.21655174,54.065193,-45.74617,40.62232
2961691056000.0,6.910051877251185,7.078984767772512,2.8027364691943126,0.04642576,0.31337386,0.22724187,53.95554,-45.70835,40.64571
2961695173000.0,6.89883656713693,7.063164023319502,2.865432219087137,0.06078109,0.31887165,0.22571471,53.83581,-45.680336,40.65524
2961700231000.0,6.88376204813278,7.0279901456431535,2.965929012448133,0.056199603,0.31612277,0.23335053,53.72405,-45.646854,40.67176
2961705402000.0,6.856078910213277,6.992662588404927,3.0568308843496546,0.06841691,0.29626966,0.23487769,53.60578,-45.614788,40.683987
2961710524000.0,6.816785984950436,6.958281336497446,3.1354169400220284,0.07269296,0.2773328,0.23640485,53.49095,-45.58057,40.69818
2961715171000.0,6.786372400382044,6.93879812582617,3.1852769794460363,0.09132435,0.26297748,0.24801129,53.367702,-45.543777,40.709812
2961720210000.0,6.758717579083095,6.929579836017192,3.217540825329513,0.09040806,0.24465153,0.25167647,53.25709,-45.508316,40.721653
2961725252000.0,6.723461252079706,6.901698402495647,3.2481270487521767,0.09468412,0.22540927,0.26267207,53.150555,-45.470284,40.73337
2961730337000.0,6.676355401818533,6.84517138218224,3.27639055890888,0.111177474,0.21533,0.27397305,53.05003,-45.433643,40.746685
2961735195000.0,6.634239987726829,6.791013736702439,3.3215653528195124,0.113926366,0.17715092,0.28099802,52.9643,-45.39598,40.76134
2961740243000.0,6.596508182302439,6.734416200936585,3.406461681092683,0.11942416,0.14019357,0.27550024,52.884827,-45.36196,40.77608
2961745190000.0,6.564386292900071,6.667672992187022,3.476084238199043,0.11942416,0.08460484,0.29749137,52.811016,-45.31632,40.802643
2961750218000.0,6.544766337272079,6.5695733164816135,3.510419070917796,0.11301007,0.047036625,0.29718593,52.74988,-45.27926,40.822994
2961755341000.0,6.535249128041023,6.491050356256957,3.5145060270949275,0.1142318,0.020463986,0.27580565,52.7014,-45.24121,40.84128
2961761560000.0,6.549454484973763,6.448434433789156,3.4434794896485927,0.09315695,0.018325957,0.26083946,52.6583,-45.200024,40.861507
2961765153000.0,6.557661567697567,6.4238132713149945,3.402444218858324,0.077579886,0.035124753,0.25595254,52.60361,-45.163727,40.873688
2961770180000.0,6.754780604854177,6.352819081611468,2.940955469777558,0.061086524,0.11362094,0.25411993,52.530895,-45.12941,40.876095
2961775141000.0,6.999026550271873,6.27296954275828,2.377310927533366,0.050396383,0.22632557,0.25411993,52.442223,-45.09599,40.871975
2961780333000.0,7.201541210248902,6.222169415080527,2.1640077852122985,0.047647487,0.36071593,0.2574797,52.31587,-45.05918,40.866474
2961785195000.0,7.376235610907759,6.183821991764275,2.070269332833089,0.049785517,0.4569272,0.25411993,52.167873,-45.02479,40.85141
2961790194000.0,7.557025501568748,6.147358696247308,2.0848540289141804,0.06414085,0.52412236,0.2574797,51.99731,-44.974968,40.89947
2961795174000.0,7.737956821162719,6.113128127806829,2.1777647037834518,0.055283304,0.5479461,0.2510656,51.81464,-44.927776,40.93817
2961800223000.0,7.881093958984442,6.089943451136946,2.2856181967686786,0.052534413,0.54733527,0.23457226,51.617844,-44.86681,41.003056
2961805580000.0,8.008276869037442,6.072400993417679,2.4084154923918617,0.035124753,0.5164866,0.23762658,51.427,-44.801582,41.071274
2961810251000.0,8.107315246163482,6.055995906493371,2.518659209416432,0.012217305,0.46670106,0.21227567,51.23311,-44.724895,41.14686
2961815187000.0,8.18627269558409,6.036256441079445,2.642030868253471,-0.020158553,0.44257188,0.21013765,51.042774,-44.64074,41.228546
2961820153000.0,8.232461085980175,6.016627228161036,2.7629173747724054,-0.033292156,0.4071417,0.21166481,50.861767,-44.546925,41.316544
2961825172000.0,8.222737344628769,5.997179085464293,2.879606078646571,-0.07544186,0.38240165,0.21135938,50.69043,-44.450172,41.403103
2961830787000.0,8.200117168150864,5.976180182893063,2.9906813342138743,-0.12034045,0.3662137,0.21563543,50.518074,-44.33577,41.498608
2961835258000.0,8.17127933525406,5.960159127441442,3.0611740451171143,-0.16310102,0.35216382,0.21288654,50.35866,-44.22214,41.592255
2961840184000.0,8.139506764274488,5.942507658160593,3.1388405836788147,-0.17928895,0.35185838,0.2125811,50.190044,-44.105785,41.67638
2961845177000.0,8.09066112602137,5.8939315691808085,3.189471933218102,-0.1957823,0.3567453,0.2144137,50.028442,-43.988228,41.759052
2961850185000.0,8.035395280641106,5.833641775424262,3.229665146543055,-0.20433442,0.35735616,0.22602014,49.870895,-43.870525,41.84255
2961855375000.0,7.936623132467532,5.787973912704686,3.2832603039243367,-0.2098322,0.35521814,0.23273966,49.70387,-43.748394,41.916904
2961860215000.0,7.836294751515151,5.748714981027668,3.335605682806324,-0.21410827,0.36346483,0.24037547,49.5352,-43.625584,41.99124
2961865186000.0,7.71565576196497,5.719307074163126,3.3415622685770545,-0.204029,0.3747658,0.25473082,49.357666,-43.496765,42.06626
2961870181000.0,7.586757325443051,5.694518953114312,3.326689344180744,-0.183565,0.36957347,0.258396,49.18775,-43.37301,42.139122
2961875153000.0,7.488847580152373,5.667385468997851,3.3160726896659503,-0.16584991,0.3494149,0.27397305,49.017323,-43.24967,42.20522
2961880239000.0,7.398454387302207,5.638839983512405,3.306557527837468,-0.14080444,0.35246924,0.28069258,48.845516,-43.134132,42.26601
2961885237000.0,7.328366894864782,5.581866725007596,3.2547028514737164,-0.112704635,0.35460728,0.28955013,48.68165,-43.027325,42.32094
2961890214000.0,7.265607192038893,5.5142792364023085,3.187115262048009,-0.07849618,0.3753767,0.28893927,48.514626,-42.92779,42.371002
2961895183000.0,7.201134857752809,5.521341053033708,3.2218960793258424,-0.05955936,0.38728857,0.29229903,48.345978,-42.834244,42.41543
2961900532000.0,7.1310646301319,5.55637614071324,3.296971423996092,-0.049480084,0.3817908,0.30604348,48.17904,-42.743587,42.460773
2961905216000.0,7.085759181267781,5.576047982592462,3.3284794504267428,-0.029626964,0.36896262,0.30390546,48.015503,-42.660748,42.50534
2961910317000.0,7.042327803360597,5.593420497475107,3.3501949806543387,-0.011911872,0.37598756,0.30207285,47.84899,-42.577682,42.550697
2961915179000.0,6.9697939052591895,5.580429688972668,3.383461548369463,0.0009162979,0.38056904,0.2941316,47.684258,-42.50374,42.581142
2961920176000.0,6.857034221856739,5.530815271913289,3.4330758241376063,0.005192355,0.38789943,0.2846632,47.521038,-42.433987,42.608627
2961925174000.0,6.794573098724542,5.497087,3.466804,0.009773844,0.38912117,0.2874121,47.360638,-42.368782,42.63009
2961930234000.0,6.839432949783995,5.497087,3.466804,0.014660766,0.38362336,0.27672195,47.208183,-42.312096,42.64483
2961935207000.0,6.839539437702982,5.464649725243578,3.528074445507332,0.026267206,0.38545597,0.26145032,47.04425,-42.255417,42.64872
2961940189000.0,6.769105989813994,5.380129587776794,3.6877236921169176,0.021991149,0.3866777,0.25411993,46.88779,-42.20012,42.65207
2961945144000.0,6.716339078591778,5.311545774358974,3.8302471074481073,0.032070424,0.36957347,0.23579398,46.736595,-42.149086,42.65684
2961950188000.0,6.69667876959707,5.272225207692308,3.943293986813187,0.02687807,0.3463606,0.22143865,46.592403,-42.09847,42.660904
2961955226000.0,6.679987212265871,5.24654893205702,4.040426719542516,0.0143553335,0.33841935,0.20677789,46.429832,-42.03991,42.651066
2961960231000.0,6.668069828584453,5.24257645700315,4.111931519393337,0.010079277,0.3268129,0.18600847,46.284805,-41.98889,42.638638
2961965603000.0,6.654674851414586,5.238111456069029,4.186673175723886,-0.0030543262,0.3136793,0.17073683,46.1339,-41.936832,42.61417
2961970231000.0,6.632611390334357,5.230757071434498,4.216090714262009,-0.023518313,0.30085114,0.1572978,45.9947,-41.889843,42.58599
2961975200000.0,6.608922250725961,5.2228608015017,4.247675793993197,-0.054061573,0.2855795,0.14569137,45.86255,-41.841335,42.549816
2961980398000.0,6.584437777410549,5.22215635531832,4.270068211952813,-0.0693332,0.28160888,0.12583824,45.738956,-41.79924,42.508156
2961985252000.0,6.56177725913035,5.2266884116505805,4.28366461756849,-0.08735373,0.2687807,0.110872045,45.62916,-41.756252,42.46766
2961990185000.0,6.545508874046357,5.23396349970897,4.262762254090012,-0.10903945,0.24678956,0.1001819,45.523033,-41.715446,42.419273
2961995177000.0,6.535570689824342,5.243901632044486,4.208102630017669,-0.13072516,0.23090707,0.094989546,45.424946,-41.67605,42.369442
2962000232000.0,6.526410849736148,5.263003802700088,4.187550536200527,-0.13225232,0.22999077,0.07422013,45.33982,-41.64717,42.309235
2962005375000.0,6.517747133773087,5.28899504105541,4.191882326332453,-0.14660765,0.22388211,0.06505715,45.264565,-41.613434,42.253498
2962010215000.0,6.5122285,5.316675329591512,4.18510637737931,-0.13897185,0.22418754,0.046120327,45.18976,-41.592648,42.191616
2962016021000.0,6.5122285,5.357971913740053,4.149708997241379,-0.14538592,0.21930063,0.046120327,45.120544,-41.566597,42.134098
2962020156000.0,6.510227119109816,5.378592742670552,4.121169273776751,-0.13958271,0.22204952,0.038789943,45.04846,-41.555443,42.062836
2962025144000.0,6.505427653782779,5.392991138651663,4.0827736012759965,-0.14110987,0.23396139,0.02321288,44.97962,-41.5451,41.98968
2962030278000.0,6.496217898386936,5.397029798924624,4.069144357363338,-0.13347405,0.23945917,0.019547688,44.911583,-41.538174,41.919163
2962035236000.0,6.482034355302201,5.3875741035348,4.088055649407548,-0.1386664,0.22937989,0.0018325958,44.853153,-41.53713,41.842632
2962040242000.0,6.465677860789369,5.375982836731455,4.096812167096391,-0.13836098,0.22693644,-0.007330383,44.78279,-41.535255,41.769585
2962045179000.0,6.446923086880206,5.361916793018644,4.092123534817532,-0.13561209,0.22693644,-0.022907447,44.722363,-41.539215,41.69258
2962050206000.0,6.435614,5.355357715698757,4.104677704367838,-0.13439035,0.22785273,-0.03359759,44.664463,-41.535645,41.619495
2962055278000.0,6.435614,5.360114795710508,4.142733549711096,-0.1432479,0.22693644,-0.04062254,44.61216,-41.534195,41.54476
2962060198000.0,6.437343167439109,5.349178931318411,4.181472972231536,-0.1459968,0.22418754,-0.058337633,44.561546,-41.533092,41.469166
2962065184000.0,6.442051866975644,5.311510072527364,4.223850628892614,-0.13530666,0.21868975,-0.071776666,44.515476,-41.533443,41.39445
2962070150000.0,6.445191,5.280194302524655,4.256754830493096,-0.14538592,0.21838433,-0.08124508,44.462906,-41.529648,41.314793
2962075174000.0,6.445191,5.261214482721893,4.27098979443787,-0.14385876,0.226631,-0.09743301,44.415718,-41.533913,41.23088
2962080211000.0,6.449398782880435,5.241077304122939,4.283638169059221,-0.15607607,0.22571471,-0.10720685,44.370674,-41.52617,41.15165
2962086288000.0,6.465758793478261,5.213810524887556,4.294544766866567,-0.16065755,0.20189096,-0.12583824,44.337814,-41.52605,41.069313
2962090217000.0,6.476562600481706,5.204608467469509,4.303508133975607,-0.14844026,0.19914207,-0.13347405,44.29335,-41.526726,40.982845
2962095198000.0,6.491229621328277,5.229053502213795,4.323064161771036,-0.15027285,0.17928895,-0.13988814,44.268124,-41.529076,40.898933
2962100223000.0,6.5096199530000005,5.25680061852381,4.343519787476191,-0.13255776,0.15149458,-0.14294247,44.243828,-41.532146,40.81958
2962105267000.0,6.540289995,5.295138181031746,4.366522308968254,-0.12461651,0.12583824,-0.14660765,44.228714,-41.535236,40.742172
2962110642000.0,6.5729726825,5.335991551071428,4.391034313928572,-0.119729586,0.08979719,-0.14446963,44.214737,-41.53826,40.66939
2962115180000.0,6.562953868131868,5.392794527472527,4.402279186813187,-0.10903945,0.0720821,-0.1469131,44.20628,-41.54507,40.596794
2962120228000.0,6.5394472618885535,5.463314248021006,4.411681878401245,-0.102319926,0.03756821,-0.14996742,44.216103,-41.551437,40.533035
2962125164000.0,6.5261795742624615,5.50051613224822,4.422711652187182,-0.09254608,0.0018325958,-0.14874569,44.23125,-41.558556,40.47278
2962130288000.0,6.517859590030519,5.521316201424212,4.435191650254323,-0.06994407,-0.03145956,-0.14752395,44.257965,-41.56896,40.41722
2962135225000.0,6.50650792697977,5.539684459632002,4.450789016275287,-0.05955936,-0.06811147,-0.1423316,44.295883,-41.579685,40.36402
2962140177000.0,6.48722387143438,5.554147601972146,4.4748940857070245,-0.030848695,-0.09773844,-0.13927728,44.342228,-41.596096,40.315125
2962145139000.0,6.470976643516308,5.574430866945108,4.482688330548926,-0.02687807,-0.12889257,-0.14294247,44.39004,-41.616283,40.262825
2962150185000.0,6.461365559029435,5.60806956229117,4.453855077088305,-0.004276057,-0.14110987,-0.14446963,44.43967,-41.641285,40.214195
2962155710000.0,6.463792750205761,5.638382190946502,4.41240139835391,0.0036651916,-0.14996742,-0.13591751,44.494267,-41.659153,40.169933
2962160255000.0,6.483695153497942,5.654304446090535,4.364635672016461,0.012217305,-0.14049901,-0.13683382,44.54777,-41.68237,40.1228
2962165275000.0,6.505431023309535,5.672249323309534,4.3130254771104575,0.027488936,-0.14202617,-0.14172074,44.59858,-41.713005,40.075516
2962170169000.0,6.52511555048299,5.69193385048299,4.2697194351112975,0.040011674,-0.13622294,-0.1414153,44.64225,-41.742474,40.02787
2962175137000.0,6.545097718647627,5.711916018647627,4.225758581688367,0.04917465,-0.13530666,-0.1386664,44.693,-41.7746,39.989532
2962180229000.0,6.583102843298781,5.727123976359338,4.151917553555192,0.069027774,-0.12583824,-0.13439035,44.737514,-41.808502,39.95051
2962185268000.0,6.626981408828878,5.740287321513002,4.068548448572468,0.07360926,-0.12858713,-0.13530666,44.78495,-41.84098,39.913345
2962190180000.0,6.675276026654411,5.75135174121732,4.005497443954249,0.08582657,-0.12950343,-0.1386664,44.830784,-41.87997,39.880802
2962195169000.0,6.728949045955882,5.761110657271242,3.9567038826797374,0.08857546,-0.13500121,-0.13408493,44.876354,-41.91518,39.85191
2962200188000.0,6.777707283790104,5.765238,3.9204326297259375,0.09773844,-0.14935656,-0.13775012,44.93084,-41.95755,39.834583
2962205332000.0,6.823786284070714,5.765238,3.892785229557572,0.09712757,-0.16157386,-0.13164146,44.982048,-41.993923,39.821896
2962210240000.0,6.862746417245895,5.776187600080588,3.856707554104966,0.10170906,-0.1740966,-0.13530666,45.042595,-42.03763,39.815628
2962215236000.0,6.896484641281353,5.800286367482623,3.808509918646117,0.103847094,-0.18692477,-0.13133603,45.102535,-42.07597,39.81486
2962220199000.0,6.932467632366459,5.819876821775099,3.778335322786232,0.10598512,-0.19242255,-0.13041973,45.157204,-42.119026,39.815712
2962225535000.0,6.974221791492187,5.835534393013993,3.767896796629558,0.10934488,-0.18845193,-0.12797627,45.20977,-42.159554,39.81866
2962230267000.0,6.995714595655037,5.834883630772125,3.7590393558356063,0.10415252,-0.1957823,-0.12003502,45.26499,-42.19895,39.830997
2962235218000.0,7.00463291441738,5.821506199191197,3.7501209439480863,0.105068825,-0.18997909,-0.12889257,45.315006,-42.241455,39.837597
2962240188000.0,7.01749878034388,5.805845581666497,3.73725501965612,0.110872045,-0.18142697,-0.12370021,45.36111,-42.277847,39.853474
2962245174000.0,7.036931041937125,5.786413218618375,3.717822758062875,0.1160644,-0.1731803,-0.12064589,45.405262,-42.315266,39.866005
2962250190000.0,7.054154901468471,5.787940264267204,3.702473999021019,0.122783914,-0.16157386,-0.122478485,45.43551,-42.35237,39.87709
2962255226000.0,7.068041675093579,5.820342639389577,3.693216149937614,0.124005646,-0.15363261,-0.118202426,45.461025,-42.38553,39.890125
2962260202000.0,7.0853188878182,5.864416683932805,3.688682360733794,0.1282817,-0.15424347,-0.115453534,45.48199,-42.41532,39.90861
2962265185000.0,7.1099100929609405,5.933271442069463,3.6936005504070906,0.1469131,-0.1563815,-0.1001819,45.496655,-42.441734,39.93063
2962270144000.0,7.130436067886659,6.000621279102715,3.710758198583235,0.15118915,-0.15515977,-0.089186326,45.514034,-42.47391,39.947865
2962275172000.0,7.144648676505313,6.06694650566706,3.748658356316411,0.16218472,-0.15943582,-0.076052725,45.52954,-42.503742,39.97075
2962280233000.0,7.152432066403958,6.131646127274252,3.776147606925464,0.17715092,-0.14813483,-0.07086037,45.54151,-42.529503,39.99615
2962285220000.0,7.148427664710321,6.191711107361449,3.78415624306196,0.17470746,-0.1518,-0.052534413,45.55409,-42.54672,40.030537
2962290550000.0,7.143154924774323,6.254634771213641,3.7935584718154463,0.1777618,-0.15241088,-0.038789943,45.566925,-42.57289,40.054302
2962295175000.0,7.114883679219477,6.278867080641926,3.821829633026352,0.17654006,-0.15668693,-0.029626964,45.578762,-42.593624,40.082348
2962300192000.0,7.084216254581928,6.305153242026078,3.8524969661712407,0.17531833,-0.1518,-0.021685716,45.58153,-42.613503,40.10722
2962305231000.0,7.042607280586217,6.338837839347,3.876779559706892,0.17165314,-0.15088372,-0.017715093,45.58538,-42.630703,40.13428
2962310243000.0,6.998085509321956,6.374455209869215,3.8990404453390224,0.15821409,-0.15027285,-0.016493361,45.58619,-42.644306,40.16179
2962315231000.0,6.94811630605976,6.393292649539236,3.929587681988272,0.1414153,-0.15577064,-0.01160644,45.59787,-42.657692,40.184944
2962320233000.0,6.894608222377362,6.402210717806944,3.965259768816904,0.112399206,-0.15974127,-0.009162978,45.6083,-42.66722,40.20727
2962325237000.0,6.839232329246171,6.404930993907761,3.9839516,0.102319926,-0.15760323,-0.009468411,45.621,-42.69023,40.21239
2962330531000.0,6.778498684273124,6.40059292170788,3.9839516,0.07147124,-0.16126843,-0.011911872,45.636154,-42.705574,40.21899
2962335256000.0,6.720500447702842,6.3880382680945935,3.976863746189984,0.057421334,-0.15943582,-0.013133603,45.652843,-42.72085,40.2181
2962341207000.0,6.620666369352655,6.310893899466518,3.9178709937096894,0.057726767,-0.15943582,-0.01740966,45.67161,-42.73477,40.216656
2962345213000.0,6.553461644454176,6.25896307427343,3.878159186209093,0.034208454,-0.16187929,-0.018936822,45.69294,-42.751263,40.204807
2962350235000.0,6.5218053,6.2345014,3.853164946151429,0.03390302,-0.15515977,-0.0290161,45.712715,-42.773457,40.188942
2962355128000.0,6.5218053,6.2345014,3.843350456173421,0.023518313,-0.14721853,-0.032070424,45.73129,-42.789063,40.175037
2962360071000.0,6.52517580986321,6.21090765498303,3.8402996,0.015577064,-0.14966199,-0.03756821,45.752953,-42.80923,40.15764
2962365067000.0,6.530096636069114,6.176461614625116,3.8402996,0.02076942,-0.1518,-0.043066,45.771835,-42.829796,40.138954
2962370052000.0,6.524353893508824,6.135837062119853,3.7981306675042377,0.024129177,-0.1459968,-0.05100725,45.788895,-42.84689,40.12182
2962375061000.0,6.51478764747233,6.092788330641141,3.740732791724001,0.023823744,-0.1554652,-0.052534413,45.811,-42.86334,40.107643
2962380087000.0,6.5122285,6.088233891154719,3.6870875985603,0.021380283,-0.15851954,-0.06169739,45.83155,-42.877865,40.093655
2962385169000.0,6.5122285,6.097832461650724,3.6342957364559703,0.032986723,-0.15760323,-0.063224554,45.852177,-42.892155,40.0823
2962390061000.0,6.529006733197252,6.113848461754456,3.616677353360549,0.032375857,-0.15454891,-0.06688975,45.878815,-42.906292,40.075405
2962395051000.0,6.552798544409041,6.13288215915563,3.611918991118192,0.040011674,-0.15424347,-0.07788532,45.906704,-42.92481,40.06668
2962400059000.0,6.596106910053262,6.158114943142476,3.613224991877496,0.03970624,-0.15210545,-0.076358154,45.93426,-42.93495,40.069588
2962405281000.0,6.650212497070573,6.187248627163782,3.617386946737683,0.035124753,-0.14660765,-0.07696902,45.961823,-42.948322,40.06872
2962411273000.0,6.70231137256917,6.223471046166008,3.6301473120948615,0.034513887,-0.13255776,-0.07788532,45.989395,-42.96542,40.066174
2962415238000.0,6.728576637440711,6.249736271857707,3.6451560124901183,0.030543262,-0.13164146,-0.08399397,46.019444,-42.98229,40.06325
2962420143000.0,6.761139027376804,6.275520012125436,3.6624073606570433,0.022296581,-0.13225232,-0.07971791,46.054287,-42.998425,40.06432
2962425196000.0,6.794861325783972,6.2851548682926826,3.676859795818816,0.015577064,-0.12797627,-0.07696902,46.0872,-43.01534,40.062893
2962430256000.0,6.829904606918239,6.302058307940252,3.697166896226416,0.0067195175,-0.14172074,-0.07360926,46.12863,-43.026276,40.068336
2962435246000.0,6.8674739716981135,6.335870775471698,3.730979324528302,0.00030543262,-0.12308934,-0.08460484,46.15863,-43.039112,40.06599
2962440194000.0,6.904727121383647,6.36939864908805,3.7645071592452832,-0.008552114,-0.12461651,-0.0852157,46.19774,-43.043095,40.07528
2962445296000.0,6.917847118131101,6.371368063737797,3.7732618,-0.030848695,-0.14385876,-0.07391469,46.23532,-43.043873,40.084522
2962450222000.0,6.9222334795258025,6.362595340948396,3.7732618,-0.03573562,-0.17012598,-0.06811147,46.27577,-43.04714,40.093124
2962455211000.0,6.931710321598272,6.3692384221922245,3.7860602227861775,-0.045814894,-0.16798794,-0.081855945,46.318398,-43.05629,40.0909
2962460250000.0,6.944738803023758,6.386609776106911,3.807774449190065,-0.07422013,-0.17684549,-0.079107046,46.368263,-43.056515,40.09884
2962465176000.0,6.956353966512346,6.382937840174897,3.8013883935185184,-0.08368854,-0.2012801,-0.065973446,46.429005,-43.06046,40.107624
2962470169000.0,6.966192796296296,6.343582264197531,3.747274444444445,-0.087659165,-0.18173242,-0.08093964,46.48065,-43.067577,40.10502
2962475138000.0,6.9589582140864845,6.337351506739049,3.700992994009734,-0.109650314,-0.17379116,-0.08277224,46.552517,-43.072845,40.10715
2962481155000.0,6.921204129707975,6.385892544777237,3.657845404642456,-0.1142318,-0.19639318,-0.064446285,46.625225,-43.078274,40.111786
2962485212000.0,6.906241128962818,6.391885995645793,3.6241888529354207,-0.1142318,-0.19883664,-0.06994407,46.691048,-43.0876,40.11213
2962490219000.0,6.910933011311155,6.340275338806262,3.572578049119374,-0.1142318,-0.17440203,-0.08277224,46.75161,-43.093445,40.11417
2962495152000.0,6.902783734395625,6.28031937078069,3.524292791778239,-0.115453534,-0.18387043,-0.07086037,46.835728,-43.104843,40.120754
2962500201000.0,6.852634206279464,6.189138172543843,3.4832613596831985,-0.118507855,-0.1685988,-0.07941248,46.906708,-43.123787,40.112347
2962505289000.0,6.8091097,6.0993734147277845,3.447090974151912,-0.11728613,-0.1337795,-0.09621128,46.97442,-43.143036,40.10869
2962510243000.0,6.8091097,6.024789153483369,3.443165484560649,-0.11789699,-0.12492194,-0.09040806,47.041126,-43.15748,40.109783
2962515194000.0,6.8091097,5.950250058323681,3.4392423721330467,-0.12980886,-0.14508049,-0.07513642,47.109196,-43.164764,40.116913
2962520182000.0,6.8091097,5.954508685752994,3.4498359628703783,-0.11789699,-0.16401732,-0.076052725,47.173862,-43.17739,40.119884
2962525174000.0,6.8091097,5.992116060213268,3.4665503709116336,-0.109650314,-0.13836098,-0.09010262,47.228107,-43.187176,40.119865
2962530231000.0,6.818620137681431,6.008528217529731,3.4763808,-0.10293079,-0.1518,-0.0720821,47.30312,-43.18398,40.143047
2962535229000.0,6.841030872019852,5.995081730124543,3.4763808,-0.09132435,-0.13439035,-0.090713486,47.365646,-43.195206,40.1455
2962540152000.0,6.848924574294252,5.966676035338965,3.4804153698743043,-0.08979719,-0.12889257,-0.10048734,47.432426,-43.20393,40.151474
2962545175000.0,6.819187803626623,5.897290219864002,3.4952837810838657,-0.09743301,-0.15241088,-0.09040806,47.500965,-43.212215,40.15901
2962550658000.0,6.816375635558768,5.823357875598519,3.4976255668262715,-0.08827003,-0.17989981,-0.07880162,47.571655,-43.217793,40.172127
2962555210000.0,6.851820701237691,5.764282629054115,3.481872167747764,-0.06658431,-0.18570304,-0.083383106,47.641884,-43.225376,40.183357
2962560241000.0,6.889013455183494,5.71216292497886,3.4700934437341453,-0.062308256,-0.17562376,-0.09743301,47.709854,-43.225636,40.197388
2962565235000.0,6.913278653390834,5.744516409978014,3.494358557483511,-0.058643065,-0.15515977,-0.10873401,47.77445,-43.229145,40.209614
2962570144000.0,6.937130847623879,5.776319224928124,3.518210668696093,-0.064446285,-0.183565,-0.089186326,47.847256,-43.2246,40.23802
2962575197000.0,6.953232388517361,5.757598177438912,3.4874241189785047,-0.051923547,-0.20005837,-0.086132,47.91204,-43.229843,40.25467
2962580189000.0,6.966407214752893,5.722465062906485,3.439116086496417,-0.040011674,-0.20463985,-0.09285152,47.978863,-43.23175,40.275146
2962585246000.0,6.974730790576124,5.704961350623639,3.4076576670956245,-0.04337143,-0.204029,-0.09560041,48.048183,-43.22997,40.29833
2962590228000.0,6.9794537778657695,5.70023826470006,3.388765767254009,-0.01985312,-0.18600847,-0.105068825,48.11329,-43.236607,40.315674
2962595208000.0,6.978602316238405,5.72709683761595,3.3777231860646126,-0.022296581,-0.17562376,-0.10629055,48.17639,-43.23692,40.341454
2962600196000.0,6.973509120972385,5.7780287902761485,3.3726299376159505,-0.0143553335,-0.17592919,-0.113926366,48.237698,-43.245438,40.3616
2962605263000.0,6.9814000194350285,5.774998427156309,3.3330966562335216,-0.016493361,-0.23823744,-0.07269296,48.310406,-43.239056,40.40355
2962610254000.0,6.994902225310735,5.747994109397363,3.27908773873823,0.013133603,-0.24312437,-0.07147124,48.369778,-43.249657,40.425503
2962615225000.0,7.017236066180049,5.755862943876723,3.253349122303325,0.021685716,-0.21868975,-0.09560041,48.437275,-43.256832,40.451572
2962620344000.0,7.047055798053528,5.790652631062449,3.248379166991078,0.02443461,-0.19639318,-0.09773844,48.500977,-43.260952,40.483524
2962625188000.0,7.041989813191206,5.830405978014657,3.2465374,0.014660766,-0.20922135,-0.098043874,48.578594,-43.267914,40.520386
2962630272000.0,7.014186376701247,5.876745038831255,3.2465374,0.0143553335,-0.21410827,-0.087659165,48.642357,-43.273846,40.554916
2962635260000.0,7.013886727382809,5.910347272819008,3.2332962956609483,0.012217305,-0.25717425,-0.053145275,48.71594,-43.27125,40.603146
2962640217000.0,7.040015815136226,5.932121512613522,3.207167253380424,0.040011674,-0.25686884,-0.052839845,48.77809,-43.27828,40.6395
2962645190000.0,7.0549527094988775,5.96611932412651,3.2064221624105143,0.05100725,-0.22235495,-0.07452556,48.835907,-43.286407,40.670387
2962650193000.0,7.0447139596110695,6.027552411475585,3.2627358213591195,0.044593163,-0.18600847,-0.0870483,48.88909,-43.293114,40.70247
2962655333000.0,6.99520398732685,6.206490401709402,3.399419121780136,0.03390302,-0.19058995,-0.08277224,48.949223,-43.30047,40.739563
2962660266000.0,6.902380813341193,6.5128072150997145,3.622194933195795,0.036957346,-0.18570304,-0.074830994,48.99316,-43.310303,40.768326
2962665199000.0,6.874795351771034,6.600319184492032,3.6837065781589367,0.029932396,-0.19639318,-0.05681047,49.034447,-43.312775,40.7961
2962670197000.0,6.942805790216178,6.367140089109916,3.508822231259515,0.041233405,-0.23060162,-0.046120327,49.080532,-43.31731,40.825882
2962675149000.0,6.989382366539702,6.232528798066217,3.3994802109288016,0.05100725,-0.20525073,-0.047036625,49.121662,-43.347176,40.79885
2962680216000.0,7.008339449164957,6.227789502666276,3.3757837834163493,0.05222898,-0.1572978,-0.07147124,49.167038,-43.379745,40.77033
2962685199000.0,7.010619996805112,6.215745558466454,3.355951875079872,0.03756821,-0.15699236,-0.07452556,49.204105,-43.38488,40.78813
2962690182000.0,6.986797615075878,6.191923077236422,3.341658386341853,0.028099801,-0.17562376,-0.07666359,49.23405,-43.396374,40.79629
2962695146000.0,6.949087446835066,6.2683518143536405,3.3836524495096585,0.022602014,-0.17104226,-0.07513642,49.26129,-43.41135,40.80147
2962700339000.0,6.885043944843982,6.5245263881723625,3.526519004130758,0.017715093,-0.1740966,-0.07086037,49.296173,-43.42448,40.809895
2962705217000.0,6.851860431651571,6.612826193955812,3.546766744916617,0.021991149,-0.17287487,-0.0693332,49.326458,-43.437523,40.81728
2962710281000.0,6.864176544340981,6.440399887547617,3.3702350533226104,0.02687807,-0.22602014,-0.04337143,49.370747,-43.442036,40.838978
2962715455000.0,6.876783900791349,6.27195979894487,3.199502298839356,0.046731193,-0.20799962,-0.04550946,49.409084,-43.485928,40.802525
2962720178000.0,6.888715113241889,6.256051515677482,3.215410540578563,0.04550946,-0.15760323,-0.064446285,49.4513,-43.524208,40.771576
2962725141000.0,6.90125261216038,6.239334850452827,3.2321271621647765,0.03268129,-0.15699236,-0.06780604,49.504753,-43.548378,40.78013
2962730246000.0,6.898706139069359,6.231415635645303,3.230789071290606,0.03023783,-0.18051068,-0.07086037,49.55051,-43.57726,40.78108
2962736489000.0,6.888207758990342,6.226166473011413,3.220290746022827,0.03604105,-0.18661933,-0.06352998,49.58746,-43.602573,40.782104
2962740181000.0,6.892632919498426,6.222621682944306,3.20859516344588,0.03268129,-0.18112154,-0.06383542,49.63089,-43.630157,40.779774
2962745172000.0,6.908200602214743,6.217432581804364,3.187838379589621,0.0290161,-0.17562376,-0.06719518,49.67402,-43.656273,40.779484
2962750200000.0,6.900970258546809,6.226135336842105,3.147137636031672,0.04062254,-0.1695151,-0.061391957,49.71799,-43.676727,40.785915
2962755257000.0,6.878413259198882,6.244180842105263,3.0930006962738705,0.050396383,-0.1518,-0.06047566,49.755634,-43.6977,40.788315
2962760197000.0,6.8583507655648415,6.290643783500799,3.0727977988074,0.04734206,-0.16249016,-0.058948494,49.80729,-43.713406,40.8016
2962765200000.0,6.840353683998497,6.37163060356841,3.090795021316556,0.0580322,-0.21166481,-0.01985312,49.858585,-43.721188,40.827354
2962770291000.0,6.857065828394823,6.394034488815916,3.083683769847402,0.08307768,-0.20799962,-0.017715093,49.902,-43.74477,40.83788
2962775171000.0,6.938312266872706,6.303760663048098,3.029519351844698,0.07849618,-0.14844026,-0.04642576,49.939663,-43.763226,40.849323
2962780197000.0,6.991004889532784,6.247998398680801,2.9860355458264625,0.065973446,-0.13439035,-0.05222898,49.99701,-43.787758,40.86038
2962785262000.0,6.952915811126816,6.301323124358068,2.9784176824185318,0.059864793,-0.13805555,-0.04734206,50.04088,-43.81594,40.862183
2962790186000.0,6.915887060471142,6.353163390742049,2.9710118858892813,0.05497787,-0.1301143,-0.05009095,50.080112,-43.835186,40.87773
2962795179000.0,6.915322660203977,6.396429860513032,2.989700029473576,0.059864793,-0.110872045,-0.05375614,50.114326,-43.85297,40.893284
2962800198000.0,6.930177648944062,6.436043353404759,3.0194101620686102,0.04917465,-0.103847094,-0.05100725,50.14786,-43.8665,40.91019
2962806209000.0,6.941864374591329,6.494728945806681,3.0469117718194743,0.05589417,-0.09254608,-0.04642576,50.185425,-43.890938,40.916576
2962810267000.0,6.948769644189765,6.536160311034115,3.06417489173774,0.045814894,-0.09101892,-0.04886922,50.222992,-43.912197,40.922295
2962815294000.0,6.933860861457567,6.5601125,3.060654392985593,0.05131268,-0.09987647,-0.041233405,50.27182,-43.934814,40.929417
2962820201000.0,6.899266898485645,6.5601125,3.035944404690293,0.05467244,-0.08460484,-0.042760566,50.311756,-43.9581,40.930668
2962825155000.0,6.893756040418472,6.562789837487326,3.0343029124619783,0.0580322,-0.06841691,-0.043066,50.360733,-43.980125,40.933613
2962830213000.0,6.907150719098534,6.567254714840078,3.0476975445202323,0.055283304,-0.05222898,-0.031154128,50.401047,-43.9982,40.937706
2962835254000.0,6.925513573717754,6.576324758088012,3.0660604430045524,0.0421497,-0.04917465,-0.029321533,50.45565,-44.022057,40.937855
2962840558000.0,6.951206664825493,6.591740644946889,3.09175369508346,0.043066,-0.053450707,-0.032070424,50.504387,-44.044495,40.939034
2962845153000.0,6.938528818587032,6.607077828229854,3.109379028367608,0.055588737,-0.047036625,-0.025045475,50.54933,-44.06429,40.940796
2962850194000.0,6.886276271829185,6.626078970766506,3.1236297364656105,0.045814894,-0.043676864,-0.02076942,50.59596,-44.082226,40.942013
2962855234000.0,6.863112701394231,6.618370146730769,3.1091794408653843,0.04520403,-0.09621128,0.004886922,50.661346,-44.093792,40.95721
2962860256000.0,6.876986121259615,6.576749549115385,3.0583099610576925,0.06841691,-0.058643065,-0.002443461,50.696674,-44.113903,40.954353
2962865176000.0,6.880529604332167,6.547072739421692,3.021076486252315,0.053450707,-0.013439035,-0.01038471,50.750134,-44.133743,40.950253
2962870217000.0,6.865626389442272,6.537137176373739,3.006173219489607,0.04917465,-0.0033597588,-0.007330383,50.80036,-44.1557,40.947014
2962875853000.0,6.845421094198256,6.529067503007652,3.0044840634810464,0.048563786,0.0018325958,-0.013744468,50.843555,-44.174866,40.946316
2962880223000.0,6.826800958942872,6.525343514842499,3.0156561446342764,0.04795292,0.008552114,-0.010079277,50.879402,-44.189453,40.947872
2962885239000.0,6.8091097,6.525132877897531,3.0276019311590123,0.044593163,-0.0033597588,-0.015271631,50.913086,-44.20104,40.95154
2962890186000.0,6.8091097,6.544185572178879,3.035223008871552,0.04337143,0.00061086525,-0.020158553,50.937366,-44.21134,40.953777
2962895266000.0,6.8091097,6.563750497780101,3.0430489791120405,0.037873644,-0.004581489,-0.013744468,50.977283,-44.224545,40.954277
2962900281000.0,6.799333749849364,6.559913324329488,3.062532463803365,0.035124753,0.011301007,-0.009162978,51.008076,-44.238956,40.950493
2962905467000.0,6.784735973436696,6.545315509809685,3.0880786487398044,0.041233405,0.014966198,-0.005497787,51.042866,-44.25171,40.95022
2962910838000.0,6.770064748536139,6.533226388289112,3.1113556708783165,0.03848451,0.02076942,-0.0030543262,51.06956,-44.258976,40.950375
2962915293000.0,6.762257901097896,6.552743608783166,3.0996453793412626,0.03268129,0.015271631,-0.0036651916,51.09791,-44.266037,40.951607
2962920295000.0,6.753492502470265,6.5746572197621225,3.0864972585178405,0.030848695,0.027488936,0.0030543262,51.113945,-44.271866,40.94763
2962925252000.0,6.748174946586159,6.582740053413841,3.1045758489085,0.025350908,0.03848451,0.0009162979,51.132946,-44.2787,40.94206
2962930283000.0,6.743699155875523,6.5872158441244775,3.131429985620065,0.03145956,0.034513887,0.002443461,51.15084,-44.28364,40.939693
2962935274000.0,6.754799506840391,6.569751723127036,3.157102042019544,0.03726278,0.035430185,0.005497787,51.158512,-44.288452,40.934853
2962940304000.0,6.77504598356625,6.539381981611852,3.1824100718608808,0.037873644,0.04550946,0.004886922,51.164337,-44.29363,40.9291
2962945438000.0,6.776707261425408,6.527709999768471,3.1927487385745925,0.033292156,0.03573562,0.0036651916,51.17458,-44.299995,40.921474
2962950192000.0,6.7721242025166095,6.523126988715522,3.19733179748339,0.036651913,0.028099801,0.010079277,51.179417,-44.305153,40.914734
2962955362000.0,6.76397851552096,6.518393289946544,3.219125524692863,0.035430185,0.022907447,0.009468411,51.189415,-44.307335,40.909607
2962960266000.0,6.755169665853887,6.513988842117603,3.2455521656757007,0.03604105,0.03176499,0.01160644,51.19553,-44.30756,40.906322
2962965177000.0,6.743205248829797,6.517857618464296,3.2561142,0.038789943,0.028099801,0.01282817,51.206066,-44.305626,40.905994
2962970169000.0,6.72892154640972,6.527380003884075,3.2561142,0.03634648,0.02687807,0.014966198,51.21206,-44.302322,40.905304
2962975167000.0,6.720512685724185,6.521758793139293,3.263331642827443,0.028099801,0.022602014,0.023518313,51.21401,-44.294,40.905952
2962980195000.0,6.716341501524601,6.505074143451144,3.275845195426196,0.027183503,0.027794369,0.013744468,51.21541,-44.290558,40.901432
2962985189000.0,6.712029901530815,6.485204099602385,3.2848446,0.03756821,0.02076942,0.019547688,51.218704,-44.28321,40.902557
2962990184000.0,6.707274870069583,6.45667351361829,3.2848446,0.03756821,0.010995574,0.020463986,51.223316,-44.278442,40.899628
2962995156000.0,6.703765,6.433625452896502,3.28782746737497,0.040317107,0.017104227,0.025350908,51.220757,-44.277378,40.892433
2963000216000.0,6.703765,6.425795065080392,3.299573233069403,0.043066,0.02076942,0.023518313,51.223248,-44.277718,40.885235
2963005269000.0,6.703765,6.417975509816595,3.31130274968086,0.038789943,0.017104227,0.024129177,51.22432,-44.27154,40.88367
2963010264000.0,6.72362576006541,6.389979405929942,3.3268158297529906,0.04428773,0.014049901,0.01985312,51.22495,-44.268612,40.879948
2963015189000.0,6.7479818963508045,6.357504458645322,3.3430532822015664,0.03481932,0.0027488936,0.025045475,51.228313,-44.260857,40.880253
2963020201000.0,6.756610302952716,6.335230651145984,3.342651754098699,0.036957346,-0.00030543262,0.02687807,51.226982,-44.255768,40.87734
2963025304000.0,6.746519312750362,6.325139766312203,3.3224698790625644,0.036957346,-0.004886922,0.022602014,51.230297,-44.249683,40.875595
2963030234000.0,6.746386853348458,6.31853508458953,3.315732692882951,0.042455133,0.006414085,0.01985312,51.221733,-44.238426,40.876717
2963035259000.0,6.754474185715486,6.314491439517687,3.319776295731451,0.028710667,0.00061086525,0.024129177,51.22048,-44.224434,40.880867
2963040247000.0,6.764932396038396,6.312351265346132,3.3250053544700235,0.01985312,0.00030543262,0.022907447,51.208454,-44.211636,40.883156
2963045175000.0,6.787967198153421,6.320029532717808,3.336522795615391,0.013744468,-0.00061086525,0.016187929,51.19921,-44.198215,40.885696
2963050320000.0,6.812016316838851,6.32804590561295,3.348547396811193,0.024740042,-0.004886922,0.021991149,51.188473,-44.179993,40.89408
2963055119000.0,6.828282304873217,6.323872119017433,3.326293675871632,0.015882496,-0.0030543262,0.026572637,51.177456,-44.16123,40.8996
2963060483000.0,6.843546805863708,6.313695820443741,3.285588322187005,0.015271631,-0.011911872,0.023823744,51.172188,-44.14553,40.906166
2963065057000.0,6.8608902652659225,6.3111157,3.258426165659882,0.011911872,-0.016187929,0.017104227,51.170044,-44.131508,40.910492
2963070052000.0,6.881829580761655,6.3111157,3.232251939297439,0.008246681,-0.019547688,0.006414085,51.171753,-44.119484,40.9137
2963075050000.0,6.885724,6.307480663404851,3.238289085699627,0.0067195175,-0.027488936,0.008857546,51.176804,-44.100494,40.92848
2963080069000.0,6.885724,6.302996945373135,3.251740333432836,0.003970624,-0.025961773,0.012217305,51.181015,-44.08387,40.939644
2963085147000.0,6.892477673406323,6.291408542781132,3.2392301398956307,-0.00061086525,-0.0290161,0.009162978,51.186455,-44.06732,40.953945
2963090080000.0,6.902145656840275,6.276906643343907,3.215060357976056,-0.0015271631,-0.032070424,0.003970624,51.191055,-44.05101,40.967964
2963095130000.0,6.9113765920278425,6.256561369930394,3.2049808539860787,0.0009162979,-0.029321533,-0.003970624,51.19739,-44.042072,40.97395
2963100180000.0,6.920353453280742,6.234119216798144,3.200492423359629,-0.0036651916,-0.032070424,-0.0015271631,51.205696,-44.031013,40.982067
2963105170000.0,6.926591104236823,6.232604092898975,3.1986535,-0.009162978,-0.039095376,-0.0027488936,51.221397,-44.02198,40.99191
2963110251000.0,6.931043814037336,6.245962361786237,3.1986535,-0.0125227375,-0.036651913,-0.0009162979,51.233494,-44.011383,41.00218
2963115246000.0,6.93572519339673,6.253655,3.1859506049043698,-0.010079277,-0.03176499,0.0030543262,51.246086,-43.998768,41.015617
2963120149000.0,6.940742399401645,6.253655,3.1558479975317875,-0.017715093,-0.033292156,-0.0018325958,51.260647,-43.98666,41.02729
2963125141000.0,6.943185,6.249268615120879,3.1368062922197804,-0.017104227,-0.03604105,-0.0033597588,51.271378,-43.97473,41.03954
2963130877000.0,6.943185,6.239610149221978,3.127147775894505,-0.019242255,-0.042455133,-0.01038471,51.28511,-43.964535,41.049328
2963135152000.0,6.943185,6.233236116405834,3.1182431624294686,-0.01282817,-0.039095376,-0.007330383,51.291832,-43.951237,41.064377
2963140183000.0,6.943185,6.2281066709890345,3.102854879740232,-0.015271631,-0.037873644,-0.010995574,51.303154,-43.940456,41.07642
2963145102000.0,6.951178262649707,6.2249246,3.109295225299415,-0.0125227375,-0.034513887,-0.009162978,51.309143,-43.93288,41.086926
2963150147000.0,6.973606521864265,6.2249246,3.1541517437285305,-0.009468411,-0.043676864,-0.004276057,51.318836,-43.925255,41.098385
2963155258000.0,6.992077736336925,6.227950872210845,3.18201538764135,-0.018936822,-0.03756821,-0.004581489,51.32199,-43.91071,41.113876
2963160264000.0,6.996346319686582,6.240756889698157,3.152134635597899,-0.008246681,-0.04062254,-0.007330383,51.330856,-43.898537,41.131622
2963165599000.0,7.000883962419301,6.253655,3.1218006400696567,-0.002443461,-0.04184427,-0.009162978,51.337284,-43.880272,41.14937
2963170210000.0,7.004635119809718,6.253655,3.118049521848454,-0.011301007,-0.03756821,0.002443461,51.34097,-43.85916,41.169186
2963175136000.0,7.008642537138974,6.253655,3.114042146364254,-0.011301007,-0.03604105,-0.013744468,51.35127,-43.853497,41.179424
2963180322000.0,6.998696842886292,6.250773550547208,3.109580910721573,-0.0070249503,-0.03268129,-0.0009162979,51.353104,-43.83696,41.199284
2963185262000.0,6.98114559376739,6.246385646633278,3.1051930984418474,0.0036651916,-0.03848451,-0.011301007,51.36315,-43.83161,41.209354
2963190215000.0,6.969513606559472,6.244078,3.098082338196145,-0.004886922,-0.03390302,-0.003970624,51.36692,-43.814568,41.228775
2963195211000.0,6.964418761196891,6.244078,3.087892700670855,-0.0033597588,-0.034513887,-0.0015271631,51.376373,-43.8041,41.245056
2963200643000.0,6.9623384,6.244078,3.080720487623992,-0.0070249503,-0.03268129,0.004886922,51.384247,-43.792637,41.26028
2963205350000.0,6.9623384,6.244078,3.076541481505516,0.013133603,-0.02321288,0.0076358155,51.389423,-43.78459,41.274082
2963210237000.0,6.964442234485515,6.250389547392608,3.0720511215784216,0.0067195175,-0.02565634,0.00580322,51.402164,-43.773426,41.28999
2963215215000.0,6.969204802957043,6.264677352267732,3.067288453646354,0.01038471,-0.028099801,0.01038471,51.409817,-43.763508,41.30694
2963220198000.0,6.9719152,6.274973451750605,3.0624131482493957,0.0076358155,-0.022296581,0.009162978,51.416397,-43.76289,41.313683
2963225197000.0,6.9719152,6.280006983797708,3.057379616202292,0.0076358155,-0.015577064,0.0067195175,51.422543,-43.761982,41.321415
2963230249000.0,6.964719944623406,6.2799868898892095,3.05979819535425,0.00580322,-0.013439035,0.0067195175,51.4348,-43.757015,41.33379
2963235242000.0,6.951364587710641,6.275535119746765,3.068701875095429,0.0143553335,-0.01160644,0.0143553335,51.443523,-43.751846,41.346645
2963240215000.0,6.952595699917898,6.2728086,3.070390700379721,0.02107485,-0.016798794,0.0027488936,51.447697,-43.755615,41.349762
2963245216000.0,6.977171632183908,6.2728086,3.0605602761494253,0.017715093,-0.011911872,0.010079277,51.443565,-43.752083,41.358578
2963250193000.0,6.9870874255948925,6.278780899245502,3.056992045627781,0.022296581,-0.007330383,0.0076358155,51.454887,-43.75624,41.362305
2963255331000.0,6.977567961056297,6.293059946952989,3.061751678496808,0.027488936,-0.013744468,0.008246681,51.466335,-43.757145,41.369442
2963260238000.0,6.964824528493069,6.296220996369802,3.0734413949137327,0.019242255,-0.005192355,0.0027488936,51.475784,-43.757694,41.376007
2963265185000.0,6.945924985419368,6.282046339064526,3.097065971766231,0.02565634,-0.015577064,0.006414085,51.492085,-43.757744,41.38789
2963270492000.0,6.933608,6.267716203829136,3.1158572071477195,0.023518313,-0.004276057,0.0070249503,51.499958,-43.761597,41.39014
2963275164000.0,6.933608,6.25629437237917,3.1234717084411163,0.026267206,-0.0033597588,0.0067195175,51.51409,-43.765694,41.395466
2963280363000.0,6.933442757546767,6.245234710976339,3.1322768749893224,0.03268129,-0.0018325958,0.011911872,51.529495,-43.765472,41.401833
2963285219000.0,6.929470394413599,6.2730415847441705,3.1481664519603654,0.028710667,0.0027488936,0.008552114,51.544197,-43.766495,41.405396
2963290151000.0,6.925435860852482,6.301283656701119,3.164304712590757,0.025350908,-0.00580322,0.003970624,51.565437,-43.766315,41.411873
2963295167000.0,6.9240313,6.317192027185307,3.1759993589095106,0.032375857,-0.0067195175,0.010995574,51.580536,-43.764545,41.41913
2963300178000.0,6.9240313,6.326421634801424,3.185229014712953,0.034208454,-0.003970624,0.01160644,51.598267,-43.764492,41.423973
2963305310000.0,6.913383774068323,6.335593076863354,3.1731054527950318,0.028405234,-0.0021380284,0.013133603,51.619957,-43.76507,41.427235
2963310308000.0,6.895895658850932,6.344337157298137,3.146873348447205,0.026267206,-0.004886922,0.002443461,51.643257,-43.769093,41.427628
2963315173000.0,6.88379645285773,6.357133228824013,3.1277607654605264,0.03940081,-0.0009162979,0.013133603,51.65602,-43.772747,41.427414
2963320179000.0,6.878868311389803,6.376845897615132,3.117904379605263,0.046120327,-0.0033597588,0.016798794,51.67399,-43.77963,41.423782
2963325174000.0,6.86795721027312,6.385682504293245,3.120652368346909,0.030543262,0.0009162979,0.012217305,51.69603,-43.787163,41.420464
2963330302000.0,6.849132118332535,6.380976292735985,3.1394774111451844,0.036957346,-0.004886922,0.0106901415,51.720623,-43.795773,41.420452
2963335247000.0,6.839658676386914,6.372697403769559,3.158044053627312,0.035430185,-0.004581489,0.019242255,51.733566,-43.799583,41.420464
2963340196000.0,6.844474422475106,6.358250517496444,3.177306635704125,0.035430185,-0.0036651916,0.016798794,51.749557,-43.80717,41.41793
2963345150000.0,6.843747125980343,6.351257908269631,3.190911627429763,0.03970624,-0.01160644,0.01160644,51.76907,-43.812386,41.41662
2963350324000.0,6.833908821225057,6.356176983599722,3.1958307541248883,0.036957346,-0.012217305,0.005497787,51.785603,-43.81739,41.41364
2963355502000.0,6.82435544903482,6.36290755096518,3.192791703149533,0.042760566,-0.0036651916,0.015271631,51.801155,-43.820652,41.412533
2963360227000.0,6.815996646042302,6.371266353957698,3.180253455019858,0.032986723,-0.0012217305,0.014049901,51.820896,-43.82593,41.407833
2963365163000.0,6.810144145153272,6.3781533,3.173026346261392,0.032375857,-0.0027488936,0.011301007,51.835415,-43.82947,41.404636
2963370210000.0,6.815149748881525,6.3781533,3.1880432097141678,0.03145956,-0.005497787,0.01038471,51.84898,-43.831486,41.4016
2963375148000.0,6.817415522093248,6.37052743255949,3.199924477906752,0.036651913,-0.006414085,0.014660766,51.863422,-43.83298,41.400597
2963380464000.0,6.812490945888953,6.34097997533372,3.2048490541110466,0.034208454,-0.00061086525,0.007330383,51.87779,-43.836567,41.39595
2963386204000.0,6.815994406939548,6.329298361209046,3.2116726444836186,0.02107485,-0.002443461,0.009773844,51.89623,-43.832912,41.398087
2963390180000.0,6.829091820715453,6.345670085690945,3.218221334276378,0.023823744,-0.002443461,0.008246681,51.913097,-43.833626,41.396442
2963395145000.0,6.84544711734457,6.366114153108607,3.226398961243443,0.029932396,-0.012217305,0.00580322,51.92854,-43.837307,41.391163
2963400184000.0,6.85178623409698,6.359837986182453,3.218645340558866,0.029932396,-0.008246681,0.012217305,51.937706,-43.838417,41.386524
2963405425000.0,6.856942540312308,6.349525319909595,3.208332620443805,0.015577064,-0.00061086525,0.0125227375,51.94979,-43.840538,41.380493
2963410289000.0,6.865917704957398,6.353884955886909,3.203768297521301,0.022296581,-0.0030543262,0.010995574,51.952087,-43.837437,41.37997
2963415149000.0,6.874930727420605,6.358391420061968,3.1992617862896977,0.02076942,-0.01038471,0.01038471,51.951363,-43.834984,41.377155
2963420312000.0,6.8761473,6.376237220077876,3.1857253486920927,0.013744468,-0.011911872,0.004276057,51.950554,-43.834396,41.372295
2963425142000.0,6.8761473,6.39471008938698,3.1718706846545524,0.005497787,-0.01038471,0.009468411,51.94963,-43.83059,41.37087
2963430318000.0,6.8676385832954665,6.401561313928677,3.174177402775857,0.005497787,-0.01038471,0.009773844,51.944275,-43.827625,41.36842
2963435170000.0,6.858458175590241,6.406151469850834,3.1787676545589254,0.016493361,-0.01038471,0.008552114,51.938046,-43.824047,41.366863
2963440207000.0,6.86468581463024,6.41842183178521,3.17180778536976,0.0061086523,-0.006414085,0.005497787,51.92429,-43.823868,41.359657
2963445153000.0,6.873610327640132,6.431808554705605,3.1628832723598683,-0.00030543262,-0.007941248,-0.00061086525,51.913437,-43.82631,41.352264
2963450199000.0,6.87039394928206,6.43273735467899,3.14883956852616,0.0018325958,-0.01160644,0.0030543262,51.89644,-43.833748,41.338673
2963456104000.0,6.861060560273973,6.42807070890411,3.130172741780822,-0.0070249503,-0.0021380284,0.004886922,51.87698,-43.8408,41.32234
2963460256000.0,6.849057430870158,6.422862792348063,3.131562539529757,-0.002443461,-0.005192355,0.0030543262,51.857113,-43.851624,41.306225
2963465220000.0,6.824107690553165,6.412882896221266,3.161502280014695,0.009162978,-0.002443461,0.0067195175,51.831505,-43.859863,41.291046
2963470185000.0,6.810889403639775,6.412222792335835,3.1794999,-0.005192355,-0.005192355,-0.0076358155,51.81359,-43.87504,41.26954
2963475192000.0,6.815387624803002,6.425717408855535,3.1794999,-0.0036651916,-0.0012217305,-0.01038471,51.79065,-43.888752,41.251793
2963480202000.0,6.820006689408613,6.431653445559448,3.1742191423655477,-0.004581489,-0.0021380284,-0.007941248,51.772205,-43.896214,41.23515
2963485254000.0,6.824991440449207,6.416699244487946,3.1542801382031733,-0.01160644,-0.0076358155,-0.0012217305,51.754326,-43.90229,41.219654
2963490247000.0,6.837352317317487,6.405747584698641,3.1423288271646856,-0.009773844,-0.004886922,0.0018325958,51.728004,-43.91427,41.198082
2963495217000.0,6.864288761007357,6.402380564395869,3.14569588262592,-0.01985312,-0.0070249503,-0.0036651916,51.706326,-43.924026,41.177933
2963500148000.0,6.891013832201471,6.399039965379173,3.149036516525184,-0.013439035,0.0143553335,0.0009162979,51.681923,-43.9332,41.161354
2963505398000.0,6.9048777,6.394804448650747,3.153271999087556,-0.011301007,0.0070249503,-0.0015271631,51.670605,-43.94348,41.14555
2963510240000.0,6.9048777,6.390303202873229,3.15777315086391,-0.013133603,-0.005497787,-0.0030543262,51.653435,-43.952145,41.130085
2963515240000.0,6.902663112929963,6.385515412929963,3.162560887070037,-0.0106901415,0.0012217305,-0.0009162979,51.626804,-43.953583,41.12101
2963520211000.0,6.8977308941462905,6.380583194146291,3.167493105853709,-0.017104227,0.0070249503,0.0018325958,51.60555,-43.95378,41.11359
2963525950000.0,6.895301,6.366177718757126,3.1609413687761307,-0.021991149,0.005192355,0.0018325958,51.586414,-43.95408,41.106617
