timestamp,acc_x,acc_y,acc_z,gyro_x,gyro_y,gyro_z,ori_azimuth,ori_pitch,ori_roll
3608882230000.0,2.9045248861905306,9.47557186692006,-0.5240099015343743,-1.1704178,0.7516697,0.040927973,327.98914,-5.6300173,-24.233263
3608887220000.0,2.905238121028124,9.475809616003424,-0.5249608790008308,-1.1704178,0.75716746,0.03634648,327.9914,-5.628649,-24.238674
3608892295000.0,2.905963505156537,9.476051414920876,-0.5259280554822469,-1.1890492,0.7651087,0.029321533,327.9455,-5.8475924,-24.415117
3608897207000.0,2.9066655912331414,9.476285447685903,-0.5268641679702696,-1.1905763,0.745561,0.03634648,327.87485,-6.0812063,-24.575054
3608902180000.0,2.90737639621257,9.47652238680245,-0.527811905633734,-1.1713341,0.7305948,0.035430185,327.78717,-6.3227735,-24.729445
3608907196000.0,2.9080933473038253,9.476761374658595,-0.5287678380930017,-1.1597277,0.73761976,0.032375857,327.6778,-6.571809,-24.87511
3608912260000.0,2.9088171591710736,9.47700264947987,-0.5297329182313053,-1.1652255,0.7657196,0.035430185,327.5476,-6.8313375,-25.01333
3608917201000.0,2.9095233902998405,9.477238063952996,-0.530674557442079,-1.1869112,0.7816021,0.035430185,327.40143,-7.0982265,-25.141487
3608922174000.0,2.910234195279269,9.477475003069546,-0.5316222951055435,-1.2183707,0.7119634,0.042760566,327.23727,-7.3716087,-25.244242
3608927250000.0,2.9109597223405155,9.477716849632104,-0.5325896621636061,-1.2263119,0.73548174,0.028405234,327.05835,-7.6519537,-25.37027
3608932211000.0,2.911668812125946,9.47795321700737,-0.5335351129073116,-1.1554517,0.7651087,0.043066,326.85574,-7.9580846,-25.468578
3608937404000.0,2.912411062328675,9.478200638047433,-0.5345247774330246,-1.2223413,0.7641924,0.056505036,326.64383,-8.233623,-25.557503
3608942571000.0,2.9131495962777416,9.478446820314716,-0.5355094869659265,-1.2431108,0.75136423,0.062002823,326.41464,-8.548963,-25.642952
3608947246000.0,2.9138178072728813,9.478669561189411,-0.5364004327887089,-1.2412782,0.7483099,0.06047566,326.16956,-8.8623,-25.722658
3608953066000.0,2.9146496763620173,9.478946855711492,-0.5375095888718303,-1.2449434,0.73456544,0.0693332,325.9082,-9.179318,-25.787134
3608957185000.0,2.915238416701906,9.47914310590676,-0.5382945740791116,-1.2409728,0.7189884,0.07941248,325.63525,-9.507027,-25.84252
3608962250000.0,2.915962371501988,9.479384428373145,-0.5392598447940619,-1.2437216,0.70432764,0.09682214,325.34686,-9.8421955,-25.885817
3608967223000.0,2.916673176481416,9.47962136748969,-0.5402075824575263,-1.2498302,0.6582073,0.10170906,325.05164,-10.18508,-25.908531
3608972177000.0,2.9173812657370144,9.479857401349207,-0.5411516991647056,-1.2046263,0.59773165,0.10170906,324.74472,-10.549671,-25.91502
3608977332000.0,2.9181180844920824,9.48010301187521,-0.5421341217778485,-1.1090258,0.5296202,0.09896017,324.43198,-10.933319,-25.899172
3608982206000.0,2.918814739121026,9.480335234126176,-0.5430629923533011,-0.98715824,0.45906523,0.093767814,324.11658,-11.342163,-25.858887
3608987211000.0,2.9195301179511164,9.480573697886143,-0.5440168284694562,-0.8533788,0.38728857,0.09010262,323.79965,-11.78533,-25.79243
3608992239000.0,2.92024878423637,9.480813257483572,-0.5449750478484828,-0.72021013,0.33383787,0.076358154,323.48538,-12.264269,-25.705616
3608997297000.0,2.920971738506619,9.481054246434203,-0.545938984526907,-0.6087272,0.12003502,0.042455133,323.19144,-12.775198,-25.549248
3609002246000.0,2.9216791130980515,9.481290042068188,-0.5468821483508535,-0.19914207,-0.028405234,-0.0030543262,322.90097,-13.399769,-25.391613
3609007183000.0,2.922384772495485,9.481525265960888,-0.5478230252550409,0.06505715,-0.017715093,0.01038471,322.60034,-14.026502,-25.19822
3609012359000.0,2.9231245928400504,9.481771877034134,-0.5488094499777619,0.019242255,-0.00030543262,0.01038471,322.32898,-14.6767235,-24.963873
3609017258000.0,2.9238248207898234,9.482005290412772,-0.5497430849693792,-0.010995574,0.0070249503,0.004886922,322.05515,-15.404796,-24.72262
3609023203000.0,2.924674556483108,9.482288540573215,-0.5508760631333237,-0.0076358155,0.0018325958,0.003970624,321.7798,-16.134771,-24.47601
3609032225000.0,2.925964096504102,9.482718394727549,-0.5525954456388086,0.0021380284,0.008246681,0.010079277,321.50278,-16.862911,-24.228212
3609037184000.0,2.926672900423866,9.4829546668126,-0.5535405152292209,-0.00580322,0.015577064,0.01160644,321.2288,-17.590412,-23.973663
3609042216000.0,2.9273921384404527,9.483194416990454,-0.5544994969148338,-0.0070249503,0.014660766,0.010995574,320.9551,-18.32604,-23.712292
3609047296000.0,2.928118237233032,9.48343645413344,-0.5554676262794828,0.0033597588,0.016187929,0.0070249503,320.68256,-19.065405,-23.44793
3609052213000.0,2.928821037973802,9.483670725124002,-0.5564046916507386,-0.006414085,0.006414085,0.009468411,320.41162,-19.802544,-23.174053
3609057178000.0,2.929530699490565,9.483907283079692,-0.5573509047010303,-0.0015271631,-0.0018325958,0.016798794,320.1424,-20.548561,-22.895369
3609062215000.0,2.9302506521713174,9.484147271483083,-0.5583108392698761,0.009773844,0.006414085,0.008246681,319.87878,-21.29403,-22.61466
3609067187000.0,2.930961314217913,9.484384162954523,-0.559258386356694,-0.003970624,0.01038471,0.004886922,319.616,-22.037273,-22.324198
3609072187000.0,2.9316759783838373,9.484622388488958,-0.5602112695896163,-0.00030543262,0.00580322,0.011301007,319.3561,-22.789331,-22.028568
3609077212000.0,2.932394215870592,9.484861805151064,-0.5611689172387031,-0.0030543262,-0.002443461,0.0036651916,319.10446,-23.534943,-21.73042
3609082197000.0,2.9331067360440186,9.485099316008895,-0.5621189418219266,-0.008246681,0.00061086525,0.009773844,318.8499,-24.283691,-21.427048
3609087177000.0,2.933818541553279,9.485336588641191,-0.5630680135219172,-0.0036651916,0.0033597588,0.010079277,318.60413,-25.032911,-21.118885
3609092844000.0,2.934628541918938,9.485606593461918,-0.5641480113781112,-0.008246681,-0.005192355,0.007941248,318.36255,-25.778606,-20.804148
3609097263000.0,2.9352601621087824,9.485817137189253,-0.5649901695793679,-0.016798794,-0.009162978,0.006414085,318.12396,-26.524057,-20.487339
3609102246000.0,2.9359723964165427,9.486054552756867,-0.5659398130092982,-0.01985312,-0.0125227375,0.013133603,317.88937,-27.26961,-20.164114
3609107245000.0,2.9366869176496344,9.486292730646197,-0.5668925056655738,-0.009162978,-0.002443461,0.015882496,317.65942,-28.01479,-19.840664
3609112266000.0,2.937404583405056,9.486531956727877,-0.5678493910080744,-0.004886922,-0.002443461,0.0076358155,317.4374,-28.75557,-19.511438
3609117263000.0,2.9381188187724807,9.486770039326988,-0.5688017025110569,-0.002443461,0.0018325958,0.0033597588,317.21625,-29.497677,-19.181904
3609122245000.0,2.938830910147408,9.487007407249498,-0.5697511553643406,-0.0018325958,0.0021380284,0.016798794,316.99826,-30.239382,-18.847239
3609127261000.0,2.939547861238664,9.487246395105643,-0.5707070878236081,-0.003970624,0.0033597588,0.013439035,316.7899,-30.976387,-18.51453
3609132254000.0,2.940261524874756,9.487484287124328,-0.5716586370200043,-0.0027488936,0.0009162979,0.008857546,316.58408,-31.713118,-18.176907
3609137242000.0,2.940974473846682,9.48772194091748,-0.5726092333331675,-0.0012217305,0.010995574,0.01038471,316.38043,-32.446716,-17.840065
3609142244000.0,2.941689423878273,9.487960261742128,-0.573562497719383,-0.012217305,0.007330383,0.017715093,316.1845,-33.174232,-17.497341
3609147241000.0,2.942403659245698,9.488198344341242,-0.5745148092223654,0.00030543262,0.008246681,0.012217305,315.9941,-33.90384,-17.15829
3609152400000.0,2.943141049732099,9.488444145447671,-0.5754979941420946,-0.0036651916,0.02107485,0.01160644,315.8046,-34.623657,-16.81773
3609157244000.0,2.9438334163760467,9.488674938345431,-0.5764211474181496,0.0067195175,0.018936822,0.011911872,315.62396,-35.346275,-16.473478
3609162549000.0,2.9445916750560928,9.488927695637464,-0.5774321565282802,-0.007941248,0.016493361,0.011301007,315.44684,-36.05677,-16.131348
3609167189000.0,2.945254883402071,9.48914876893342,-0.578316432168432,0.00061086525,0.02443461,0.0070249503,315.27423,-36.771557,-15.790837
3609172184000.0,2.945968832903829,9.48938675624232,-0.5792683625181213,-0.004276057,0.019242255,0.011911872,315.10788,-37.47501,-15.444702
3609177221000.0,2.946688785584582,9.489626744645708,-0.5802282970869672,-0.0033597588,0.025045475,0.0125227375,314.94525,-38.176674,-15.1038685
3609182198000.0,2.947400162295343,9.489863874342683,-0.581176797057018,0.0021380284,0.024129177,0.006414085,314.79053,-38.873077,-14.760544
3609187194000.0,2.948114254729935,9.49010190929669,-0.5821289179833539,-0.008246681,0.013133603,0.01038471,314.63953,-39.561226,-14.414291
3609192234000.0,2.948834636209187,9.4903420406354,-0.5830894242821395,0.004276057,0.012217305,0.009773844,314.4944,-40.250664,-14.072176
3609198297000.0,2.949776826287796,9.490585917799832,-0.5846515046164963,0.002443461,0.014049901,0.018936822,314.35303,-40.929096,-13.726029
3609202364000.0,2.951340299171074,9.490195041416198,-0.5907099653043243,0.007330383,0.015577064,0.013133603,314.22052,-41.6056,-13.383179
3609207183000.0,2.9531928626882897,9.489731890864752,-0.5978886528023925,0.009773844,0.022296581,0.017715093,314.08478,-42.288895,-13.02843
3609212245000.0,2.955138842460887,9.489245385761738,-0.6054293284851526,0.0015271631,0.016493361,0.013744468,313.95966,-42.96324,-12.675046
3609217205000.0,2.9570456104719662,9.488768683803826,-0.6128180585101408,-0.0030543262,0.011301007,0.019547688,313.8353,-43.634224,-12.321279
3609222180000.0,2.9589581449185625,9.488290540206927,-0.6202291334848014,0.0036651916,0.019547688,0.021991149,313.7161,-44.29903,-11.971655
3609227207000.0,2.960890669674953,9.487807398928217,-0.6277176709516594,0.004886922,0.02321288,0.022296581,313.6033,-44.95484,-11.620651
3609232255000.0,2.962831267441067,9.487322239354922,-0.6352374913480587,-0.00580322,0.011911872,0.008857546,313.4993,-45.60164,-11.272172
3609237264000.0,2.9647568724748363,9.486840828042991,-0.6426992148753099,-0.0015271631,0.009773844,0.016493361,313.39328,-46.24779,-10.923384
3609242425000.0,2.9667409107218483,9.486344808122672,-0.6503873672259075,-0.0012217305,0.01985312,0.015882496,313.29623,-46.8813,-10.5810585
3609247243000.0,2.968593089810029,9.485881753680491,-0.6575645650606642,-0.0015271631,0.018936822,0.017715093,313.20486,-47.5096,-10.236
3609257188000.0,2.97241623655805,9.484925947033028,-0.6723792666934278,0.009468411,0.0021380284,0.017104227,313.12015,-48.133774,-9.8925705
3609262231000.0,2.974354912178992,9.48444126800606,-0.6798916387732696,-0.0012217305,-0.007330383,0.013133603,313.03894,-48.744545,-9.552891
3609267205000.0,2.976267062196554,9.48396322051843,-0.6873012240846188,-0.005192355,-0.013133603,0.019242255,312.9635,-49.353573,-9.211049
3609272178000.0,2.9781788277850816,9.483485269140065,-0.6947093197326564,0.0012217305,-0.026267206,0.005192355,312.90076,-49.953465,-8.873977
3609278145000.0,2.9804727158338937,9.482911785151584,-0.7035981407123145,-0.004581489,-0.030848695,0.0070249503,312.8378,-50.542934,-8.535239
3609282209000.0,2.9820350354300684,9.482521197095748,-0.7096521324102081,-0.0067195175,-0.025961773,0.00580322,312.7831,-51.12654,-8.202411
3609287310000.0,2.9839960079350107,9.482030943731372,-0.7172509049621163,-0.00030543262,-0.03573562,0.008246681,312.73602,-51.703728,-7.8678637
3609292388000.0,2.98594813857216,9.481542900880108,-0.7248154152578603,0.00580322,-0.029321533,0.0030543262,312.6898,-52.2721,-7.541999
3609297249000.0,2.987816848108824,9.4810757137395,-0.732056668615011,-0.005497787,-0.036957346,0.00061086525,312.6522,-52.830055,-7.213937
3609302238000.0,2.9897347645619035,9.480596224612883,-0.7394885988760325,-0.00061086525,-0.042760566,-0.0067195175,312.61832,-53.385952,-6.8927755
3609307188000.0,2.991637688282638,9.48012048374763,-0.7468624322679057,-0.004886922,-0.046120327,-0.004276057,312.5882,-53.928844,-6.572279
3609312263000.0,2.993588665632684,9.47963272922416,-0.7544224735737153,0.0021380284,-0.04184427,-0.005192355,312.56317,-54.46795,-6.2578626
3609317203000.0,2.995487745063073,9.479157949451563,-0.7617814103324736,-0.00061086525,-0.043066,0.0015271631,312.54214,-54.995895,-5.9429865
3609322181000.0,2.9974014327967726,9.47867951752687,-0.7691969542970687,-0.008246681,-0.04520403,0.0012217305,312.52515,-55.516235,-5.6339436
3609327283000.0,2.9993627897307498,9.478189168053229,-0.7767972165122884,-0.0018325958,-0.04153884,0.0033597588,312.50897,-56.03241,-5.3269362
3609332207000.0,3.001255718296587,9.477715926028882,-0.784132318658063,0.0027488936,-0.03604105,0.0033597588,312.49655,-56.53801,-5.023967
3609337283000.0,3.003207080075667,9.477228075396148,-0.7916938496271839,-0.0018325958,-0.042455133,0.0030543262,312.48907,-57.035084,-4.7228312
3609342231000.0,3.0051092349383324,9.476752526749426,-0.7990647036924343,-0.014660766,-0.03970624,0.007330383,312.4805,-57.523464,-4.4264145
3609348517000.0,3.0075257558491475,9.476148383905183,-0.8084287272684577,-0.0070249503,-0.03390302,0.007941248,312.47635,-58.008347,-4.134023
3609352196000.0,3.008940070267043,9.475794797916649,-0.8139091985914277,-0.00580322,-0.038789943,0.005497787,312.4769,-58.480053,-3.843779
3609357175000.0,3.010854142429777,9.475316269882686,-0.8213262322193342,-0.0061086523,-0.041233405,0.0012217305,312.47845,-58.94567,-3.558723
3609367191000.0,3.0147045836392468,9.474353639477355,-0.8362466999472137,-0.007941248,-0.02565634,0.005497787,312.4786,-59.403618,-3.277721
3609372190000.0,3.016626344382671,9.473873189258082,-0.8436935268413499,-0.0067195175,-0.022296581,0.00061086525,312.48697,-59.85417,-3.0015302
3609377220000.0,3.0185600224261644,9.473389759651573,-0.8511865332981425,0.00030543262,-0.017715093,0.006414085,312.49155,-60.298573,-2.7276788
3609382197000.0,3.02047332573083,9.472911423836145,-0.858600587599426,-0.0018325958,-0.014049901,-0.0036651916,312.50095,-60.732468,-2.4629288
3609397491000.0,3.0262709,9.47212246551724,-0.8835429603448276,0.003970624,-0.007941248,0.0009162979,312.50806,-61.163475,-2.1976418
3609407174000.0,3.0262709,9.502147289946576,-0.9961367181803464,-0.0061086523,0.004276057,0.008552114,312.516,-61.581505,-1.9389672
3609412359000.0,3.0225578220729368,9.496773343570055,-1.0228617610364683,-0.0036651916,-0.0036651916,0.017104227,312.52335,-62.03299,-1.6687727
3609422163000.0,3.009208714629985,9.450051885689913,-1.0161872073149925,-0.008246681,-0.0036651916,0.01160644,312.529,-62.471317,-1.4063354
3609427208000.0,2.983530120776096,9.449470982953976,-0.9376407225238144,-0.011911872,-0.0061086523,0.027488936,312.5325,-62.924355,-1.1343653
3609437193000.0,2.9311425378478666,9.458906194805197,-0.7918959159492888,-0.0076358155,-0.0021380284,0.015271631,312.54144,-63.369263,-0.8751657
3609442219000.0,2.9183853163265305,9.454654142857144,-0.7876435087755103,-0.0036651916,-0.0076358155,0.0125227375,312.5561,-63.80387,-0.6054017
3609447209000.0,2.9113493,9.456711669084878,-0.774291136394445,0.003970624,0.0125227375,0.017104227,312.57513,-64.21313,-0.33878958
3609452190000.0,2.9113493,9.466598817286766,-0.7495724554254326,-0.0033597588,-0.0036651916,0.0143553335,312.60864,-64.61063,-0.073421136
3609457178000.0,2.9134972024920467,9.471462,-0.7202307006362672,0.0067195175,-0.0009162979,0.008552114,312.6393,-65.0082,0.19137882
3609462225000.0,2.9177684648550724,9.471462,-0.6860602449275363,0.0061086523,-0.0021380284,0.007941248,312.67725,-65.391815,0.4551242
3609467166000.0,2.929689806485158,9.471462,-0.6597042256192097,0.004886922,-0.005497787,0.011911872,312.72873,-65.7661,0.7308466
3609472190000.0,2.9660777104367555,9.471462,-0.65515574356211,0.008246681,0.005497787,0.0033597588,312.7805,-66.13242,0.9967797
3609477276000.0,3.000966447255926,9.472604006267575,-0.6409450492888711,0.0012217305,0.0106901415,-0.00030543262,312.85165,-66.47896,1.2845333
3609482286000.0,3.024098517002812,9.48031485721173,-0.5715487796625152,0.009468411,0.010079277,0.0036651916,312.92337,-66.82121,1.5656213
3609487604000.0,3.0486526780634797,9.48849974849337,-0.497886232382483,0.004581489,0.02321288,0.014049901,313.01797,-67.144325,1.8818778
3609492222000.0,3.0582509848488018,9.510114380558752,-0.4463431316396359,-0.00030543262,0.01282817,0.01282817,313.12097,-67.45947,2.1910203
3609497266000.0,3.063305382128283,9.540441186460184,-0.3957985835638798,-0.004276057,0.018020526,0.008857546,313.21655,-67.76305,2.4914322
3609502203000.0,3.076144373198847,9.56831781342116,-0.3570481120312886,-0.014049901,0.017715093,0.015577064,313.3623,-68.03131,2.8523564
3609507187000.0,3.091864799711816,9.595828098147386,-0.3216774129650062,-0.01740966,0.0061086523,0.017104227,313.50986,-68.28964,3.2000701
3609512233000.0,3.076383891141141,9.627667343843845,-0.3010654805705706,-0.028405234,-0.0015271631,0.019547688,313.70996,-68.525566,3.6190472
3609517210000.0,2.991397739536412,9.66792378218844,-0.3144843338307057,-0.021991149,-0.003970624,0.018936822,313.90817,-68.753365,4.0208383
3609522220000.0,2.920926,9.701305,-0.3278901574041138,-0.036957346,-0.012217305,0.016493361,314.19684,-68.95628,4.5446563
3609527429000.0,2.920926,9.701305,-0.3413327836306476,-0.054367006,-0.016493361,0.025045475,314.47366,-69.145424,5.0413156
3609533567000.0,2.9158450401499274,9.699611396824118,-0.3602696603449943,-0.058948494,-0.028710667,0.016798794,314.89954,-69.34676,5.7326093
3609537196000.0,2.8990366506367886,9.694008766080929,-0.3798794939384169,-0.07086037,-0.018020526,0.020463986,315.29303,-69.520805,6.3695064
3609542226000.0,2.8757392686442045,9.68624320183782,-0.4070598364501048,-0.07971791,-0.021380283,0.014966198,315.9214,-69.728424,7.3727503
3609547208000.0,2.8590226706783373,9.684373361050328,-0.4524779284463895,-0.089491755,-0.032986723,0.003970624,316.48895,-69.89896,8.249222
3609552204000.0,2.8495049279291824,9.689132331808237,-0.5191021773821365,-0.10720685,-0.028710667,0.004581489,317.00308,-70.03649,9.022863
3609557237000.0,2.850788427086845,9.688490577281057,-0.5684082254312935,-0.12003502,-0.0290161,0.0033597588,317.51303,-70.22032,9.834095
3609562209000.0,2.8647469390399416,9.681511193770612,-0.5963251873924514,-0.11636983,-0.027183503,0.0036651916,317.98517,-70.36689,10.554894
3609567183000.0,2.878711065840968,9.674529002784904,-0.6242533790245511,-0.12797627,-0.021685716,0.0036651916,318.43387,-70.48082,11.198327
3609572177000.0,2.899923923046052,9.672575,-0.6666791013895856,-0.14172074,-0.022296581,-0.00580322,318.85815,-70.57265,11.774995
3609577230000.0,2.9241998187017155,9.672575,-0.7152309281890238,-0.1600467,-0.02443461,0.007330383,319.25647,-70.63737,12.302152
3609582201000.0,2.927212030522164,9.669284030522164,-0.7837826677535688,-0.15974127,-0.016493361,-0.0018325958,319.63278,-70.69653,12.773936
3609587190000.0,2.9227248354620587,9.66479683546206,-0.8600634657099926,-0.18203785,-0.019547688,-0.003970624,319.99344,-70.73025,13.210346
3609592229000.0,2.945827165576576,9.690665929651107,-0.9266113801026714,-0.20891592,-0.019242255,-0.004276057,320.3432,-70.75164,13.610171
3609597213000.0,2.9866654048768893,9.736041698450425,-0.9855998984941534,-0.21105394,-0.026572637,-0.007330383,320.68137,-70.766624,13.976455
3609602221000.0,3.000442238512764,9.783241271920089,-1.055191915390307,-0.22296582,-0.024740042,-0.014049901,321.00015,-70.77782,14.299798
3609607185000.0,2.987251551720311,9.831607215316314,-1.1343361279689237,-0.24281894,-0.020463986,-0.01740966,321.30945,-70.78214,14.599561
3609612218000.0,2.9700114126468766,9.869136232941662,-1.2160008339620698,-0.25870144,-0.018325957,-0.0125227375,321.61115,-70.78411,14.882462
3609617230000.0,2.9452748524737165,9.883977993403422,-1.3001053658524016,-0.26725355,-0.021380283,-0.0125227375,321.90454,-70.78229,15.143302
3609622188000.0,2.92687778130418,9.883778000577925,-1.352142399884415,-0.2837469,-0.002443461,-0.004886922,322.17615,-70.78549,15.368603
3609627218000.0,2.917597959400886,9.860578566942786,-1.3567822866114427,-0.29871312,-0.004276057,-0.0076358155,322.44873,-70.78777,15.57777
3609632340000.0,2.914688830650186,9.826589816802333,-1.3565670867852475,-0.3155119,0.0012217305,-0.015882496,322.70898,-70.79504,15.759482
3609637187000.0,2.924018343653904,9.77527815284896,-1.347237622490202,-0.33475417,0.015271631,-0.02321288,322.96222,-70.79872,15.929245
3609642191000.0,2.938475525840122,9.728982863798372,-1.3221503934572305,-0.34391713,0.027183503,-0.020463986,323.20587,-70.80156,16.081821
3609647229000.0,2.963041632985404,9.69622774075017,-1.2648293342752883,-0.3567453,0.052839845,-0.024740042,323.4377,-70.80396,16.220135
3609652584000.0,2.990441250733345,9.662172155504503,-1.2046130758261178,-0.3817908,0.05375614,-0.017104227,323.6631,-70.79683,16.354677
3609657177000.0,3.0370780971196325,9.64662664825941,-1.165749064225128,-0.39522982,0.064446285,-0.017715093,323.87482,-70.79283,16.476574
3609662176000.0,3.087837425463863,9.629706989927548,-1.1234496533839902,-0.42180246,0.051618114,-0.02107485,324.09412,-70.76757,16.609644
3609667266000.0,3.126222330325032,9.627608164710848,-1.0846556354242296,-0.45081854,0.04337143,-0.016798794,324.30417,-70.73969,16.736471
3609673237000.0,3.1648432321739133,9.63243587826087,-1.0412070704347829,-0.46639562,0.03940081,-0.008552114,324.5125,-70.71144,16.856813
3609677201000.0,3.1906969957111944,9.631068758213654,-1.0167203625614794,-0.49174652,0.028099801,-0.01740966,324.71515,-70.67288,16.976233
3609682204000.0,3.223688202921503,9.62164248809758,-0.993155179401928,-0.5170974,0.016493361,-0.016493361,324.914,-70.630066,17.094164
3609687260000.0,3.2580210624940045,9.616157988146623,-0.9643066929633436,-0.535118,-0.00061086525,-0.022296581,325.1143,-70.582184,17.211323
3609692221000.0,3.29382901323741,9.619413315107916,-0.9252435512230216,-0.55863625,-0.020158553,-0.025961773,325.31427,-70.532486,17.32337
3609697255000.0,3.3301638699280574,9.622716543473793,-0.8856056041315519,-0.5748242,-0.029932396,-0.016798794,325.5114,-70.47486,17.435661
3609702194000.0,3.35569699334434,9.63804187607058,-0.8333037306366732,-0.5928447,-0.03940081,-0.01282817,325.71045,-70.419624,17.540346
3609707263000.0,3.3657154735321435,9.673106949024868,-0.7581646846249097,-0.61178154,-0.04642576,-0.01282817,325.90735,-70.36433,17.641056
3609712207000.0,3.373008307160494,9.709479537905809,-0.7202327865660723,-0.6267477,-0.03970624,-0.006414085,326.09512,-70.29713,17.7498
3609717208000.0,3.377388195308642,9.74889802816644,-0.7246126289803384,-0.65484756,-0.037873644,-0.00061086525,326.28223,-70.23002,17.853014
3609722179000.0,3.37312381,9.776671794438826,-0.7128591382467139,-0.68752885,-0.024129177,0.009773844,326.46017,-70.1541,17.953434
3609727222000.0,3.34382398,9.771788395955513,-0.6542595496339737,-0.70524395,-0.02076942,0.020463986,326.63623,-70.07921,18.050573
3609732195000.0,3.3161668306185565,9.752975662371131,-0.6101215839175258,-0.7357872,-0.012217305,0.020463986,326.80927,-70.00185,18.142794
3609737184000.0,3.291538554969072,9.698793579381444,-0.6002703148041237,-0.7489208,-0.013439035,0.025350908,326.97952,-69.92473,18.234583
3609743045000.0,3.263587920398044,9.641306832359732,-0.5870878061594892,-0.7693848,-0.0036651916,0.022296581,327.13852,-69.848564,18.314861
3609747219000.0,3.244581363883983,9.60600900244532,-0.5762268891808179,-0.7877107,0.0009162979,0.022907447,327.29547,-69.7731,18.393335
3609752197000.0,3.22191374569352,9.563912069691618,-0.563273931653308,-0.8206975,-0.0015271631,0.02321288,327.44418,-69.69935,18.461166
3609757178000.0,3.213003786319684,9.481217765408225,-0.5474989518069453,-0.84391034,0.0021380284,0.02565634,327.5866,-69.627686,18.525715
3609762219000.0,3.2251814910451526,9.335084291431937,-0.5272026811889347,-0.8750645,0.003970624,0.033292156,327.72726,-69.55355,18.588562
3609767416000.0,3.23752347701181,9.189793866794837,-0.5084150572809668,-0.8903361,-0.0018325958,0.03940081,327.8634,-69.481964,18.6442
3609772188000.0,3.24589123121853,9.13121967472306,-0.5209667148036254,-0.91232723,-0.0009162979,0.053145275,327.99387,-69.405594,18.700825
3609777201000.0,3.254681581561842,9.069687314107846,-0.5341522678549849,-0.93309665,-0.007941248,0.0693332,328.11832,-69.31576,18.7648
3609782200000.0,3.2807215974896864,9.017474869042394,-0.560908538758887,-0.95569867,-0.0009162979,0.095294975,328.23495,-69.220764,18.831955
3609787202000.0,3.310153974879312,8.967019339857808,-0.5903408459018696,-0.9804387,0.017104227,0.1133155,328.3478,-69.12479,18.898367
3609792221000.0,3.3534290674030887,8.919964911424772,-0.611596219144932,-1.0100657,0.016493361,0.124311075,328.46185,-69.01756,18.969017
3609797267000.0,3.407798491643653,8.875480940267977,-0.6264242387767209,-1.0384709,0.023518313,0.14844026,328.56485,-68.903336,19.044653
3609802289000.0,3.4970600600043977,8.852016206299473,-0.6500262683613677,-1.0876455,0.024740042,0.16737708,328.66663,-68.77833,19.122269
3609807207000.0,3.605797277902375,8.841660345151716,-0.6785050541276385,-1.1392636,0.028710667,0.17654006,328.7632,-68.64981,19.200926
3609813296000.0,3.740425362445031,8.828838702506596,-0.7137647789204046,-1.1743884,0.055283304,0.20189096,328.84653,-68.50227,19.291256
3609817631000.0,3.835306661174676,8.816571906273838,-0.7429147381960335,-1.2705997,0.09407325,0.22510384,328.92328,-68.343094,19.3802
3609822262000.0,3.919879812967201,8.748913296529366,-0.8444026086575134,-1.3494014,0.11178834,0.23426682,328.99667,-68.18298,19.46942
3609827240000.0,4.010790015865752,8.67618503928299,-0.9534949470633104,-1.3833044,0.17989981,0.2406809,329.03333,-67.99091,19.579168
3609832268000.0,4.064249707822621,8.625019048330842,-1.055438586198306,-1.4358387,0.24373524,0.24678956,329.065,-67.78875,19.687937
3609837357000.0,4.112816010074738,8.576452695366218,-1.1574280288490284,-1.4544702,0.2947425,0.25289822,329.0796,-67.58945,19.793081
3609842248000.0,4.1423915191969884,8.525993667921371,-1.171851152112087,-1.4327844,0.33383787,0.25717425,329.08035,-67.379944,19.90576
3609847269000.0,4.170547044441656,8.473705549309912,-1.1758733280050189,-1.3729197,0.3494149,0.26297748,329.07306,-67.17559,20.016903
3609852520000.0,4.165860760497175,8.425619450847458,-1.1568227709001884,-1.2965615,0.3378085,0.26297748,329.06622,-66.976135,20.12881
3609857246000.0,4.131766381875706,8.388115837288135,-1.1193191929416195,-1.2198979,0.30665436,0.2556471,329.06152,-66.7895,20.238663
3609862182000.0,4.096157018169492,8.348945749152541,-1.0801491419887006,-1.1527027,0.23701571,0.23365596,329.0708,-66.60973,20.351727
3609867282000.0,4.085562589870325,8.363801338752115,-0.982993278913738,-1.1050552,0.16554448,0.20830505,329.0912,-66.444595,20.46185
3609872184000.0,4.081151250498027,8.390269467111446,-0.8771210418530352,-1.0754282,0.087964594,0.18020524,329.136,-66.29642,20.567562
3609877222000.0,4.017865102125973,8.548737924906314,-0.6167522939932257,-1.0754282,0.008246681,0.17256944,329.20132,-66.14979,20.670952
3609882306000.0,3.926635697196599,8.76979373292015,-0.2834137116496108,-1.0937542,-0.08002335,0.17470746,329.29324,-66.013016,20.772438
3609887259000.0,3.837757010608245,8.985153571057943,0.0413356979388873,-1.1071932,-0.15668693,0.17623462,329.3969,-65.87595,20.871767
3609892244000.0,3.733143063043259,9.135261151356255,0.1646173637995361,-1.1178834,-0.21624629,0.17684549,329.52072,-65.74054,20.973238
3609898056000.0,3.605200735778264,9.291479675153395,0.2810234584864941,-1.1148291,-0.23609942,0.20463985,329.65244,-65.60229,21.082233
3609902267000.0,3.4772116688976653,9.308545228577474,0.3094654713689259,-1.0952814,-0.21838433,0.21685717,329.77045,-65.47553,21.158958
3609907210000.0,3.326974205684463,9.328577294731646,0.3428515719810988,-1.0552697,-0.17256944,0.2312125,329.88727,-65.35836,21.22141
3609912237000.0,3.173530042371404,9.34082712380122,0.3837235234873583,-1.0439687,-0.09773844,0.24953845,329.9864,-65.24056,21.282078
3609917257000.0,3.01425612136007,9.27795545335658,0.4885089902353967,-1.0296134,-0.021685716,0.2660318,330.0683,-65.13008,21.340128
3609922222000.0,2.856727233347864,9.215772615954664,0.5921464090409765,-1.0436633,0.054061573,0.29993483,330.13306,-65.02826,21.370975
3609927202000.0,2.6363119180614176,8.8533903307015,0.862858992612429,-1.0784826,0.06963864,0.35002577,330.18994,-64.92066,21.408363
3609932189000.0,2.399981827565129,8.41548458972493,1.175648829369815,-1.1545353,-0.01282817,0.39522982,330.251,-64.80097,21.454004
3609937300000.0,2.1828690424028268,7.982116016784452,1.4899040575971731,-1.2534955,-0.19822577,0.39492437,330.33667,-64.674194,21.487133
3609942252000.0,2.312606249378776,7.771293210674798,1.7088355732018692,-1.3509285,-0.4550946,0.4016439,330.46408,-64.52781,21.543692
3609947233000.0,2.4431032259432346,7.559235779892853,1.9290491998632169,-1.452943,-0.72265357,0.37201694,330.61057,-64.33589,21.597725
3609952214000.0,2.573600202507694,7.347178349110909,2.149262826524564,-1.536937,-0.92485,0.37110063,330.8093,-64.13,21.67224
3609957187000.0,2.6763506770721204,7.277290932009003,2.2530630531363145,-1.6264287,-1.0143417,0.39828414,331.0507,-63.91569,21.753622
3609962251000.0,2.7570285371367063,7.329494186182601,2.2578088125256874,-1.7046194,-0.9691377,0.42394048,331.30792,-63.69914,21.834602
3609967221000.0,2.7917943264983207,7.413674324593129,2.2137947939938,-1.7721201,-0.7644979,0.42638394,331.4809,-63.387848,21.9631
3609972208000.0,2.7825409679669337,7.530883253526221,2.121261466339447,-1.8133535,-0.40042216,0.4071417,331.5874,-63.07734,22.071327
3609977263000.0,2.773161435707828,7.64969037920434,2.027466404921209,-1.8383989,0.06047566,0.37384954,331.60522,-62.749634,22.157902
3609982297000.0,2.841626076731805,7.896837308643367,1.9778343345859952,-1.8084666,0.5580254,0.3136793,331.507,-62.442894,22.195814
3609987314000.0,3.019176185857447,8.324161084930477,1.989871615207316,-1.7507398,1.042747,0.2751948,331.27945,-62.145306,22.191557
3609992242000.0,3.1935766119629214,8.743904272003007,2.0016953582613053,-1.6490307,1.4660766,0.24709499,330.96402,-61.89017,22.12718
3609997949000.0,3.393699340350877,9.154363366471737,2.0495672914230023,-1.5332718,1.6184875,0.21930063,330.5982,-61.658394,22.03604
3610002146000.0,3.537864375929825,9.333002740038989,2.1404539563820664,-1.4205672,1.8396207,0.21899518,330.09943,-61.444443,21.904972
3610007068000.0,3.706932830807018,9.542500713996102,2.2470406051617937,-1.3756685,1.9422461,0.21991149,329.63055,-61.247704,21.766685
3610012107000.0,3.81284696617533,9.710458779674166,2.5164712160589606,-1.2938126,1.9263636,0.21777347,329.14456,-61.078304,21.623774
3610017080000.0,3.876185779363848,9.847692746314973,2.880669088762053,-1.2412782,1.7788396,0.21655174,328.67908,-60.910984,21.490402
3610022107000.0,3.708024933529297,9.869854760239075,3.19881208127572,-1.2290609,1.4990633,0.17928895,328.27036,-60.730648,21.38172
3610027137000.0,3.4861894152067414,9.86513476121889,3.505605856995885,-1.2305881,1.1688906,0.15974127,327.92667,-60.554893,21.302574
3610032101000.0,3.1628907625482245,9.680655928281729,3.5317888075971906,-1.2486086,0.87109387,0.1328632,327.64972,-60.34997,21.242184
3610037097000.0,2.8079169810070232,9.444006938272826,3.4797259309526165,-1.2718215,0.67073005,0.099265605,327.4484,-60.15281,21.201155
3610042146000.0,2.5509996276979123,9.137438467506891,3.3482755034954708,-1.2938126,0.5326745,0.054061573,327.31915,-59.942974,21.151222
3610047088000.0,2.3319721438656957,8.815887305632138,3.194490302727452,-1.2947289,0.45723262,0.018020526,327.2355,-59.743015,21.11048
3610052149000.0,2.232455490769231,8.578345287397708,3.0648133498199672,-1.2996159,0.43951756,-0.009468411,327.1989,-59.558796,21.039385
3610057157000.0,2.181433601538461,8.378181838625204,2.94707035198036,-1.2938126,0.5128214,-0.029321533,327.1637,-59.387302,20.960287
3610062187000.0,2.1513583323452488,8.143750111203138,2.9157703570619007,-1.3014483,0.64568454,-0.03756821,327.12976,-59.216377,20.859413
3610067823000.0,2.174887035396687,7.790819933958152,3.1157644558413256,-1.3084733,0.7425067,-0.06841691,327.09338,-59.0596,20.745056
3610072128000.0,2.25874870505623,7.626720935906433,3.272030028412056,-1.2825116,0.8011498,-0.09590584,327.04086,-58.900166,20.624096
3610077164000.0,2.427972486504723,7.54861758245614,3.458610181106613,-1.2437216,0.8527679,-0.08460484,326.96625,-58.744385,20.497879
3610082102000.0,2.5995062921747354,7.498105311841087,3.6026878661449824,-1.2052372,0.9282097,-0.06627888,326.8454,-58.55256,20.370882
3610087157000.0,2.7951642206294607,7.539734534388168,3.611013728041964,-1.1979067,1.0644327,-0.040011674,326.69592,-58.362873,20.238571
3610092992000.0,3.042778599698256,7.577698538029232,3.628137842225365,-1.1972959,1.1392636,-0.05131268,326.51602,-58.149155,20.128115
3610097173000.0,3.4580986388024515,7.494634506553512,3.722528776331919,-1.1924089,1.1517864,-0.050701816,326.31656,-57.935196,20.022007
3610102106000.0,3.948118670589345,7.396630472286657,3.8338969844035833,-1.1939361,1.1963795,-0.047036625,326.0819,-57.710037,19.927702
3610107155000.0,4.0896352394523845,7.348301750990184,3.9175918138109176,-1.1930199,1.2345587,-0.053450707,325.8523,-57.492832,19.833273
3610112124000.0,4.126511688479422,7.315522780265197,3.991344883003272,-1.2024882,1.2238685,-0.06994407,325.63016,-57.278603,19.741083
3610117234000.0,4.083923306987533,7.307448074891273,4.096322845781386,-1.2003502,1.1655309,-0.08552113,325.37833,-56.972202,19.703022
3610122249000.0,3.9516349062916793,7.328335644404175,4.232092592881995,-1.1951579,1.1255192,-0.08368854,325.12936,-56.671185,19.666245
3610127210000.0,3.82077094699913,7.348998302899392,4.366400412496376,-1.1798862,1.069625,-0.106595986,324.90045,-56.360176,19.630322
3610132312000.0,3.5410305675434337,7.491217559584587,4.500692085509075,-1.1606439,0.97127575,-0.1563815,324.70154,-56.063046,19.600872
3610137235000.0,3.216134021750946,7.674257977443463,4.628820530913326,-1.1426234,0.9126327,-0.18600847,324.5109,-55.77677,19.574684
3610142233000.0,2.834520063686864,7.883559186503446,4.641148678633885,-1.1340714,0.9074403,-0.24617869,324.35004,-55.501205,19.50669
3610147444000.0,2.408422474220759,8.114575719370434,4.5898114033021296,-1.1432343,0.91751957,-0.29138273,324.20602,-55.235085,19.44301
3610152198000.0,2.228412156101832,8.116708640153556,4.579987732004311,-1.1377366,0.8961393,-0.35338554,324.10928,-55.00691,19.306578
3610157180000.0,2.11594535153556,8.042801871363146,4.5832010683189655,-1.1652255,0.8396343,-0.39828414,324.02756,-54.779274,19.170885
3610162252000.0,2.001446830307112,7.967559974272629,4.586472453663793,-1.2024882,0.75533485,-0.43951756,324.01382,-54.601276,18.965952
3610167207000.0,2.046245006483932,7.811916113260869,4.5405667053780725,-1.255328,0.6786713,-0.47891834,324.02347,-54.42427,18.763191
3610172248000.0,2.146631328015123,7.624832548695652,4.476684513761815,-1.3011429,0.6627888,-0.4972443,324.04565,-54.24774,18.564219
3610177228000.0,2.216403104932432,7.472607528108108,4.549358465540541,-1.3267993,0.7761043,-0.46883908,324.05493,-54.057262,18.336946
3610182196000.0,2.2686419186486484,7.340001202162162,4.702056910810812,-1.3127494,0.906524,-0.45234573,324.07175,-53.875156,18.107319
3610187178000.0,2.2888655462437524,7.212716309619377,4.856335210503652,-1.2528846,0.9596693,-0.41722095,324.05597,-53.66684,17.898933
3610192220000.0,2.2108947478277585,7.101329283044983,5.015989898193003,-1.1820242,1.0290025,-0.36896262,324.00217,-53.465736,17.681652
3610197200000.0,2.1338827335255672,6.99131195017301,5.173681358861977,-1.1172725,1.0824533,-0.34116822,323.90253,-53.240788,17.46615
3610202244000.0,1.9527713046502784,6.948758401957679,5.583226936023822,-1.0858129,1.1511755,-0.32284227,323.78046,-53.024914,17.25312
3610207404000.0,1.7117007729726303,6.942496802109732,6.137375956297516,-0.9963212,1.2156218,-0.27947086,323.64258,-52.837227,17.051273
3610212217000.0,1.4868417673593513,6.936656282716675,6.654259528890016,-0.947452,1.1884383,-0.2660318,323.49713,-52.620716,16.836931
3610217265000.0,1.2700379674613285,6.891620008735214,7.043365837506824,-0.93492925,1.1172725,-0.22785273,323.3414,-52.412926,16.642565
3610222248000.0,1.0746371037625115,6.809117579526842,7.27784691021838,-0.9599747,1.0167851,-0.21533,323.20718,-52.214226,16.460957
3610227305000.0,0.935926227260274,6.752949397791095,7.452882675171232,-1.0393872,0.92149025,-0.20433442,323.03122,-51.94298,16.223602
3610232214000.0,0.9278761397260274,6.756974399529109,7.489107985017124,-1.1322387,0.90010995,-0.13500121,322.85553,-51.6565,16.012335
3610237603000.0,0.9254635380984734,6.758883354096395,7.500355002829511,-1.1976013,0.82527894,-0.11453723,322.71402,-51.342037,15.785458
3610242235000.0,1.0637443619814564,6.70569832357925,6.886955655311327,-1.2721269,0.7281514,-0.1142318,322.57962,-50.99985,15.581976
3610247200000.0,1.2119663590840062,6.648689757837103,6.229458297706019,-1.3225232,0.63316184,-0.10995574,322.46146,-50.639675,15.393312
3610252259000.0,1.3760092852989487,6.580622079237845,5.748643513608738,-1.3518448,0.61819565,-0.12308934,322.35425,-50.274094,15.207619
3610257259000.0,1.552978815522339,6.501968991195795,5.489088199876806,-1.3451253,0.61727935,-0.1591304,322.2729,-49.913944,15.035208
3610262390000.0,1.739153212301521,6.429200221076383,5.229268028229985,-1.3356569,0.63224554,-0.19333886,322.24,-49.60605,14.901024
3610267250000.0,1.984199724753468,6.479765340915929,5.081462130854087,-1.2825116,0.65057147,-0.25381452,322.21924,-49.326683,14.756217
3610272205000.0,2.2340362410496404,6.531318873591844,4.930767023550059,-1.2382239,0.7501425,-0.2724459,322.178,-49.057236,14.631644
3610277266000.0,2.256489272269238,6.475822439893722,5.361240771534475,-1.1695015,0.8622363,-0.2678644,322.13693,-48.820618,14.496781
3610282276000.0,2.1463211372564457,6.359359019504035,6.119827211605327,-1.0946705,0.9388999,-0.28252518,322.0894,-48.60886,14.346226
3610287238000.0,2.037208505333596,6.244011416315686,6.871145757639572,-1.0482447,0.9392053,-0.3203988,322.0229,-48.40633,14.208352
3610292219000.0,1.9276841510884355,6.298584349489796,7.482632986632653,-1.0396926,0.890947,-0.398895,321.96265,-48.224934,14.058254
3610297262000.0,1.816800845527211,6.475176186862245,8.000088398290817,-1.0809261,0.7657196,-0.40194935,321.915,-48.043575,13.935567
3610302386000.0,1.679873014117227,6.667220041895996,8.390421937365977,-1.1010846,0.6899723,-0.42394048,321.80502,-47.75808,13.744217
3610307244000.0,1.4844982482130094,6.883379295487848,8.394578930396714,-1.1407908,0.5543602,-0.4474588,321.74115,-47.46366,13.591599
3610312525000.0,1.2735483873263302,7.109418713710606,8.372696580630295,-1.2076806,0.41050145,-0.45204028,321.68213,-47.124374,13.416629
3610317255000.0,1.107766776008133,7.167749375045747,7.927541999268045,-1.328021,0.2519819,-0.43799037,321.66016,-46.768234,13.274207
3610323123000.0,0.9020994408675026,7.240113924879702,7.375286801924771,-1.4462235,0.15302174,-0.38698313,321.68146,-46.42393,13.114681
3610327284000.0,0.7677962808125819,7.264589115072084,6.953589964980341,-1.5293012,0.15974127,-0.31337386,321.70776,-46.06203,12.977509
3610332264000.0,0.7969660270773263,6.852045828047182,5.953485261441678,-1.5491543,0.17195857,-0.25137106,321.74646,-45.69149,12.870257
3610337164000.0,0.8256671830406291,6.446129742420271,4.969446496915683,-1.5567901,0.22113322,-0.2003638,321.83008,-45.37767,12.740266
3610342231000.0,1.0733158815563677,6.1582064776484575,4.613272555177979,-1.5393804,0.28160888,-0.1853976,321.90222,-45.072865,12.614818
3610347242000.0,1.3913153208478466,5.917668516098887,4.482811163792372,-1.4984524,0.3304781,-0.20372356,321.96204,-44.78054,12.489342
3610352182000.0,1.728411613379694,5.766094694946685,4.443698600445063,-1.4388931,0.42271876,-0.21991149,322.01727,-44.55033,12.371637
3610357205000.0,2.107536894798331,5.74379322698192,4.541825106063978,-1.3692545,0.4886922,-0.31337386,322.08685,-44.35032,12.232667
3610362188000.0,2.4121116141013736,5.700592555904196,4.777209224925733,-1.3405437,0.65576386,-0.32895094,322.06174,-44.10922,12.1118965
3610367205000.0,2.487937384014111,5.589083722799852,5.459641992480505,-1.2611313,0.9257663,-0.30909783,322.01385,-43.913162,11.94859
3610372210000.0,2.5570073,5.496446247074883,6.134889440035102,-1.1856894,1.0458013,-0.33017266,321.94037,-43.68485,11.809613
3610377238000.0,2.5570073,5.599736937402496,6.75463309175117,-1.1307116,1.0506883,-0.32528573,321.82864,-43.47545,11.654431
3610382492000.0,2.5506965848314134,5.724927766753552,7.367312915025646,-1.0977248,0.95081174,-0.32834008,321.66464,-43.199856,11.492102
3610387252000.0,2.4855360551080468,6.000902104599344,7.593458501841419,-1.10139,0.7806858,-0.36254853,321.5246,-42.93885,11.345072
3610392241000.0,2.417240701580761,6.2901533591188095,7.830483781804423,-1.16492,0.7648033,-0.3115413,321.34003,-42.615498,11.193874
3610397221000.0,2.206671036162468,6.54501386033145,7.934639865954593,-1.1749994,0.70402217,-0.2874121,321.215,-42.31962,11.080299
3610402203000.0,1.923298799147428,6.782680888590861,7.971203947054316,-1.2070698,0.6441574,-0.25228736,321.08255,-42.004623,10.987138
3610407178000.0,1.684836317109777,6.740063756389365,7.922318870283019,-1.2608259,0.47647488,-0.21319197,321.0008,-41.6832,10.905862
3610412234000.0,1.4772019640394511,6.478444505343052,7.806043748773585,-1.3524556,0.27947086,-0.15515977,320.92654,-41.348167,10.85847
3610417189000.0,1.188390383748541,6.1395928992276,7.63936431567113,-1.4465289,0.1469131,-0.09010262,320.9001,-41.01837,10.787906
3610422267000.0,0.6082571208626846,5.517723421421215,7.292953763165122,-1.5253305,0.044898596,-0.09315695,320.90732,-40.67867,10.753532
3610427207000.0,0.0438895906035017,4.912753901853758,6.9559572823892895,-1.6022996,0.013439035,-0.04734206,320.9051,-40.28623,10.724152
3610432219000.0,0.0497790974096107,4.777821842304061,6.750529356111636,-1.638646,0.09682214,-0.025961773,320.9035,-39.89744,10.688445
3610437534000.0,0.1245270567661097,4.683264394689737,6.563860947016706,-1.6062702,0.16554448,-0.03970624,320.90558,-39.51825,10.665988
3610442281000.0,0.2635414577073389,4.547640501678102,6.618110575029833,-1.5577064,0.22021692,-0.03756821,320.90033,-39.096737,10.562589
3610447421000.0,0.4140647399567422,4.400788424559964,6.6768514825477325,-1.5329664,0.32284227,-0.047036625,320.87875,-38.681293,10.436058
3610452098000.0,0.4896093136240126,4.210775143991574,6.894452732880463,-1.5155567,0.44073927,-0.089491755,320.85095,-38.29005,10.291809
3610457098000.0,0.4290923783949447,3.877931963370195,7.504665107814639,-1.4886786,0.49938235,-0.12003502,320.81525,-37.918514,10.142338
3610462279000.0,0.4813585400265604,3.77211718313413,7.887905581009297,-1.4666874,0.4896085,-0.15424347,320.7548,-37.515175,9.999198
3610467102000.0,0.6785224689243028,3.982425283067729,7.922956969123506,-1.4746287,0.56016344,-0.08093964,320.6535,-37.11694,9.843373
3610472074000.0,0.866183357658821,4.192531724817746,7.957265047958758,-1.4676038,0.56169057,-0.06658431,320.54666,-36.651646,9.682508
3610477137000.0,1.017674856004999,4.389470771797543,7.987563164132472,-1.4892895,0.52595496,-0.09437868,320.4296,-36.18456,9.524044
3610482068000.0,1.194348418149321,4.503574810182821,7.963603009396384,-1.4993688,0.48716503,-0.08032878,320.30966,-35.736294,9.3970995
3610487104000.0,1.4258624061382903,4.483871453753447,7.845383282300071,-1.534188,0.45448375,-0.11881329,320.21582,-35.291443,9.267831
3610492111000.0,1.5227442662242925,4.374940823949728,7.77462725380559,-1.5482379,0.36132678,-0.101098195,320.13495,-34.859898,9.186336
3610497109000.0,1.4301948620583582,4.139360502469678,7.7704205525575665,-1.5919148,0.31337386,-0.076358154,320.0601,-34.425106,9.1011095
3610502093000.0,1.3353370135727327,3.926941564374112,7.743323410407791,-1.6093245,0.21868975,-0.06169739,320.0055,-33.990192,9.077549
3610507096000.0,1.2235502617163725,3.858897516331913,7.568352696652465,-1.6514742,0.17623462,-0.050396383,319.9436,-33.548588,9.059269
3610512132000.0,1.1026351965462926,3.783184622742989,7.4094865091048785,-1.6994271,0.17715092,-0.0720821,319.881,-33.0672,9.034478
3610517102000.0,0.9426385097330005,3.673472588743757,7.3363453122166735,-1.7321084,0.20250183,-0.10445796,319.81903,-32.59273,9.016435
3610522091000.0,0.7844764612317913,3.55777458908276,7.275218997038578,-1.7403551,0.25167647,-0.14019357,319.7727,-32.11575,8.971544
3610527227000.0,0.6506249799447734,3.372744577877381,7.357891825084041,-1.7437148,0.3408628,-0.16829337,319.7205,-31.646927,8.910042
3610532298000.0,0.5184674913142309,3.190056262686089,7.439518365391388,-1.707063,0.36010507,-0.23579398,319.69672,-31.182735,8.818499
3610537184000.0,0.4168945927077063,3.2241583989238487,7.71604329621523,-1.6994271,0.4382958,-0.20677789,319.6336,-30.719547,8.70553
3610542184000.0,0.3295548207058824,3.394470938823529,8.126540788235294,-1.6927075,0.50732356,-0.16798794,319.5837,-30.282587,8.585555
3610547200000.0,0.1133724165443252,3.419820340513834,8.658212728119706,-1.7241671,0.4578435,-0.1908954,319.54425,-29.803175,8.452892
3610552238000.0,-0.2907371035384905,3.233657611528326,9.36653912356484,-1.7898352,0.42149702,-0.20280726,319.48206,-29.325754,8.312281
3610557182000.0,-0.5677454988472916,3.174259714985209,9.681557743343872,-1.8594738,0.38973203,-0.22052236,319.44437,-28.834846,8.158154
3610562233000.0,-0.5430732470876263,3.4308512878608592,9.025275537386516,-1.9214766,0.36163223,-0.24281894,319.417,-28.341448,8.014722
3610567160000.0,-0.5143756297606094,3.595734062948857,8.519390559303591,-1.9391917,0.45112398,-0.2098322,319.3619,-27.771708,7.7994776
3610572253000.0,-0.4745703849319913,3.5791484923150163,8.29051036343852,-1.9062049,0.47983465,-0.2302962,319.3407,-27.216015,7.600954
3610577273000.0,-0.4353356845511425,3.562800649279108,8.064910798694234,-1.8839084,0.49174652,-0.25259277,319.35034,-26.725979,7.3921413
3610582205000.0,-0.3488751611046277,3.50672501610664,7.93329759693159,-1.8487836,0.52687126,-0.2996294,319.36658,-26.263733,7.1700935
3610587361000.0,-0.179976521112676,3.382534975422536,7.943232752464788,-1.7931949,0.51923543,-0.28588495,319.3787,-25.824684,6.966764
3610592221000.0,-0.0601840477162897,3.220496833710278,8.004870388312339,-1.7779233,0.49846604,-0.2855795,319.41785,-25.402975,6.7621856
3610597273000.0,0.0056088598737474,2.985027423747495,8.146844713677353,-1.7672331,0.4016439,-0.3359759,319.4784,-25.008966,6.5806355
3610602175000.0,0.0694482963358145,2.756549385814486,8.284603649334382,-1.7898352,0.45570546,-0.36041048,319.50336,-24.589537,6.392265
3610607216000.0,-0.0012312282191168,2.4979923590646544,8.627008170858952,-1.7699821,0.5665775,-0.36102137,319.54083,-24.198263,6.2155714
3610612279000.0,-0.1638495780553382,2.2224445508011925,9.105829108626793,-1.7654005,0.6169739,-0.39706242,319.59552,-23.810196,6.0384316
3610617246000.0,-0.24899697,2.180954257791913,9.23964539836438,-1.7321084,0.6658431,-0.45265114,319.61484,-23.373762,5.8447986
3610622247000.0,-0.24899697,2.402905499681963,8.987229636801453,-1.7394388,0.59406644,-0.48838675,319.64838,-22.939894,5.6736584
3610627240000.0,-0.2724239460599839,2.5732774513523164,8.837898860126753,-1.7574593,0.7134906,-0.44898596,319.63046,-22.43864,5.418484
3610632188000.0,-0.3612489863241989,2.5986561465946623,8.977481220208873,-1.7321084,0.8081747,-0.4269948,319.6406,-21.962103,5.188345
3610637466000.0,-0.4571400144824554,2.6230408054751817,9.133439854847731,-1.7110336,0.83108217,-0.4392121,319.68683,-21.530542,4.9505873
3610642751000.0,-0.5704143940244585,2.606858803756694,9.39639849164735,-1.7082846,0.84574294,-0.4447099,319.719,-21.111965,4.699973
3610647262000.0,-0.6670994888426185,2.5930466921668933,9.620846251458715,-1.6865989,0.84665924,-0.46883908,319.7714,-20.699759,4.430677
3610652194000.0,-0.7231927990994637,2.620264042193666,9.710019102398055,-1.6673567,0.8686504,-0.47250426,319.81906,-20.298853,4.160735
3610657174000.0,-0.7328442134473337,2.6878238418496405,9.652110414752606,-1.6404786,0.9285152,-0.46761733,319.86975,-19.91789,3.8859415
3610662271000.0,-0.6831788701953891,2.65201899813915,9.662655584410214,-1.606881,0.93218035,-0.47647488,319.93796,-19.521654,3.600073
3610667237000.0,-0.5848465769461387,2.5291036957510595,9.731488051069988,-1.57084,0.9294315,-0.46914452,319.99838,-19.144567,3.3099113
3610672194000.0,-0.5510712248185776,2.3998979610849056,9.7405898758164,-1.5479325,0.9483683,-0.45112398,320.07574,-18.786678,3.0173576
3610677260000.0,-0.5598731240928883,2.263468430424528,9.709783504082004,-1.539075,0.89766645,-0.4428773,320.16287,-18.445335,2.7517557
3610682189000.0,-0.5555553522617124,2.100121045234249,9.598861730210016,-1.5470163,0.8604037,-0.42394048,320.229,-18.081524,2.4929388
3610687267000.0,-0.5310041349071082,1.884070398142165,9.358259691437803,-1.5515977,0.8249735,-0.4007276,320.298,-17.73141,2.2554662
3610692192000.0,-0.5207295005758401,1.7657143680563123,9.143661964577657,-1.5570955,0.8393288,-0.3894266,320.36307,-17.355772,2.0149815
3610697266000.0,-0.529556536982743,1.774541422897366,8.949467403269756,-1.5250251,0.8863655,-0.34208453,320.41376,-16.999418,1.7864463
3610702202000.0,-0.5080536636601998,1.780312037658471,8.816669855071073,-1.5015068,1.0021244,-0.28680122,320.451,-16.612995,1.5397152
3610707179000.0,-0.3752982449980792,1.7757342205916251,8.889914258932002,-1.4834863,1.0629056,-0.21868975,320.47433,-16.244173,1.3061842
3610712227000.0,-0.1526215808292683,1.7710551746341463,9.007290136585366,-1.4752395,1.0965031,-0.16890424,320.49963,-15.886742,1.0534515
3610717229000.0,0.6360284939207317,1.7661869679674798,9.401615486585364,-1.4569136,1.0940597,-0.15577064,320.51675,-15.5470085,0.80332005
3610722232000.0,1.160480843301219,1.751100053745576,9.944378764844672,-1.4462235,1.0574077,-0.19822577,320.53625,-15.2044525,0.57505345
3610727241000.0,0.3682081110381439,1.6850773268777035,11.227106254817144,-1.4159856,1.4483615,-0.10476339,320.48474,-14.881901,0.24708284
3610732211000.0,-0.40666948245804,1.6666961785056849,12.384538613968598,-1.2812898,1.7211128,0.022907447,320.4333,-14.594167,0.08646681
3610737252000.0,-1.1161265347111144,1.969148965380153,12.772872627968134,-1.2382239,1.5088371,-0.00580322,320.4061,-14.298572,-0.046571646
3610742224000.0,-1.8158727088436848,2.2674618509861557,13.155891219042465,-1.2742649,1.2089024,-0.038789943,320.33328,-13.933622,-0.35449797
3610747238000.0,-2.2112965742050874,2.406387859300477,13.954528463235294,-1.2144,1.2092078,-0.067500606,320.26636,-13.618882,-0.679294
3610752200000.0,-2.348228545468998,2.4111096480127183,15.083036852941175,-1.1417072,1.0564915,-0.17195857,320.2639,-13.307204,-0.87857395
3610757183000.0,-2.465171384177052,2.454376392170176,15.365010053373442,-1.1826351,0.48349985,-0.19394971,320.34357,-13.015583,-1.0733155
3610762217000.0,-2.564615404134078,2.53310291698324,14.876076908379888,-1.0876455,0.1518,-0.14935656,320.42902,-12.791509,-1.286614
3610767207000.0,-2.7146124765216517,2.2979203816553952,14.435904043908348,-0.79045963,0.35827246,-0.16462818,320.53305,-12.579338,-1.5109081
3610772185000.0,-3.0658948673564144,0.8350459580195821,14.171238953568183,-0.5335908,0.7134906,-0.20922135,320.64307,-12.391148,-1.680971
3610777263000.0,-3.255258241863793,-0.3207145905732805,14.015399743917838,-0.4334089,0.92057395,-0.19486602,320.7611,-12.264673,-1.8847208
3610782199000.0,-2.885175336299352,-0.3406115197289334,14.23824566293459,-0.42058071,0.9288206,-0.16523905,320.87848,-12.1894455,-2.1279979
3610787580000.0,-2.4817279872632376,-0.3623022360552235,14.4811820264332,-0.41263947,0.6918049,-0.13805555,320.92926,-11.960769,-2.4073749
3610792301000.0,-2.398594473319651,-0.1941010913596716,14.693868493586454,-0.38973203,0.59712076,-0.16646078,320.9827,-11.745813,-2.7226822
3610797280000.0,-2.337431115717462,0.0016215184227809,14.91813382589362,-0.3659083,0.47403142,-0.10629055,321.02228,-11.540813,-2.95069
3610802198000.0,-2.4449611040680157,0.0801660736562634,14.84051953960396,-0.3585779,0.3857614,-0.08002335,321.055,-11.323588,-3.1092079
3610807182000.0,-2.7154972941096283,0.0493454950303486,14.474096846534652,-0.33383787,0.32345316,-0.027183503,321.0697,-11.125293,-3.231787
3610812217000.0,-2.9888018119385853,0.0182095372892811,14.103924643564357,-0.2855795,0.2742785,0.012217305,321.0918,-10.957086,-3.322806
3610817210000.0,-3.1546506978500872,-0.1138560444099361,13.620984363160954,-0.26083946,0.23090707,0.018936822,321.1111,-10.794586,-3.3943944
3610822259000.0,-3.281083016850668,-0.2871150009761766,13.08715945090064,-0.22693644,0.15974127,0.02565634,321.12314,-10.653575,-3.4402122
3610827270000.0,-3.12245174283375,-0.4162473296664656,12.648349920623977,-0.18784106,0.09193522,-0.01863139,321.17322,-10.525025,-3.533271
3610832204000.0,-2.8251671229423425,-0.5221295323726622,12.261472952253728,-0.14874569,-0.01985312,0.06078109,321.19232,-10.4120245,-3.584918
3610837196000.0,-2.6069122946902654,-0.5828593599056047,11.843986357522123,-0.14966199,-0.116980694,0.10354166,321.24118,-10.285834,-3.6499524
3610842865000.0,-2.5481904849557524,-0.5454909841769912,11.310152179646018,-0.15057829,-0.17562376,0.14569137,321.271,-10.175026,-3.6891448
3610847208000.0,-2.5172719807017545,-0.5538586815789474,10.946374096491228,-0.14202617,-0.20097467,0.19822577,321.26178,-10.0544195,-3.6747108
3610852197000.0,-2.512509355582137,-0.6443486085825358,10.62727851186204,-0.1518,-0.21533,0.2302962,321.2473,-9.930919,-3.6460018
3610857669000.0,-2.5182549641211924,-0.728469022587303,10.32735930562206,-0.16126843,-0.19303341,0.2501493,321.22693,-9.819518,-3.6219308
3610862242000.0,-2.5399480030958475,-0.77547072658301,10.153814087756956,-0.18387043,-0.17745635,0.28099802,321.19412,-9.704096,-3.590329
3610867218000.0,-2.5635527618839267,-0.826614500709981,9.964975031536364,-0.23548855,-0.17440203,0.31703907,321.14972,-9.571187,-3.5665414
3610872182000.0,-2.48152513094074,-0.9992498078134168,9.774657857422255,-0.29871312,-0.21013765,0.3399465,321.1004,-9.430674,-3.5355558
3610877189000.0,-2.3830535107373363,-1.191504261529435,9.58240394230393,-0.34208453,-0.27275133,0.3662137,321.04007,-9.28392,-3.4961185
3610882207000.0,-2.2305453910590534,-1.3029318650366033,9.40158543533431,-0.36193767,-0.32620203,0.3857614,320.97427,-9.122512,-3.4577103
3610887185000.0,-2.0676788361347,-1.395998453967789,9.224758323572477,-0.3659083,-0.4098906,0.4016439,320.90485,-8.956154,-3.3925288
3610892238000.0,-1.9672808841591651,-1.1307077923361657,8.881746936064609,-0.35277468,-0.45234573,0.43127087,320.8054,-8.7652445,-3.3138986
3610897179000.0,-1.8876661899470009,-0.7684608318330949,8.499596520232187,-0.34880406,-0.41874814,0.4456262,320.7038,-8.572948,-3.234325
3610902202000.0,-2.0079572506669137,-0.4683232495025935,8.21366838819007,-0.3378085,-0.37201694,0.45937067,320.57645,-8.373703,-3.1278257
3610907181000.0,-2.431962452463876,-0.2739875158706928,8.085583520952206,-0.34391713,-0.31031954,0.46914452,320.44177,-8.172981,-3.0359733
3610912206000.0,-2.709190849440553,-0.0766101004384608,8.041191439243155,-0.30634892,-0.21288654,0.45570546,320.33374,-8.057455,-2.9649334
3610917214000.0,-2.5041375537069044,0.1240803220922405,8.268059032657145,-0.2489276,-0.017104227,0.3567453,320.24,-7.946323,-2.9433002
3610922332000.0,-2.3022539980001597,0.3267964142028523,8.490557040952913,-0.109650314,0.06566802,0.4098906,320.15842,-7.9107466,-2.9829245
3610927294000.0,-2.2151723805513504,0.4896013618691738,8.57385269707593,-0.06383542,0.07086037,0.44990227,320.10538,-7.865039,-3.059568
3610932252000.0,-2.128160961907417,0.6522750681427775,8.65708120635806,-0.09010262,0.03756821,0.44593164,320.04547,-7.865417,-3.1121309
3610937404000.0,-2.034501537244988,0.7254171915025723,8.753823553397197,-0.14172074,0.00030543262,0.44348818,319.97598,-7.8722205,-3.1622124
3610942242000.0,-1.9440883976139791,0.7213075091892851,8.852455843090297,-0.21899518,-0.07452556,0.4269948,319.9165,-7.8639083,-3.1919258
3610947225000.0,-1.8389444653861815,0.7010204305823265,8.931935544183522,-0.26206118,-0.1386664,0.39736784,319.86868,-7.882195,-3.194712
3610952224000.0,-1.702475938570653,0.6392846805687525,8.954680078118637,-0.26083946,-0.11362094,0.27214047,319.85345,-7.889136,-3.2061133
3610957176000.0,-1.567290472519343,0.5781293626917334,8.977210770666485,-0.16035213,-0.087659165,0.27122417,319.80417,-7.9113054,-3.1771715
3610962200000.0,-1.4392403337840505,0.4867876307066719,9.00499947956968,-0.105068825,-0.12736541,0.37293324,319.76318,-7.9207625,-3.1383352
3610967264000.0,-1.3291505631563365,0.333619203766285,9.043291856198184,-0.15577064,-0.19730948,0.42730024,319.73666,-7.92742,-3.100815
3610973161000.0,-1.256920508310028,0.2557902711146624,9.03385387534958,-0.1591304,-0.22999077,0.4269948,319.6721,-7.9457717,-3.0291314
3610977286000.0,-1.2608662034758291,0.2991929508989213,8.974668447862566,-0.11789699,-0.20647246,0.45356745,319.58533,-7.9627023,-2.9520395
3610982253000.0,-1.2669685320484232,0.3408482883364129,8.930300703663587,-0.07544186,-0.1826487,0.47525316,319.47745,-7.9498253,-2.8506067
3610987243000.0,-1.2761029821917809,0.3591171377534247,8.945524734246575,-0.069027774,-0.14660765,0.5305365,319.35126,-7.938455,-2.7587087
3610992252000.0,-1.2852722128066263,0.3774555479197196,8.96080673208028,-0.07360926,-0.099571034,0.5653558,319.2274,-7.947104,-2.6795542
3610997232000.0,-1.3035044214697409,0.4159651933748456,8.995556968711405,-0.084910266,-0.07696902,0.56169057,319.0993,-7.9544177,-2.6043167
3611002359000.0,-1.369200573126801,0.5599913539445245,9.132002923631124,-0.067500606,-0.046731193,0.52626044,318.9694,-7.9673133,-2.5453546
3611007221000.0,-1.4315010781700288,0.6965732132559695,9.261396376492383,-0.026572637,-0.008246681,0.5103779,318.83786,-7.9856987,-2.499048
3611012350000.0,-1.4972228573487032,0.840655557231371,9.397895557842734,-0.0009162979,-0.027488936,0.50640726,318.71545,-8.003144,-2.4463623
3611017158000.0,-1.575787047654717,0.9238279238398432,9.529059817014446,0.012217305,-0.024740042,0.54183745,318.58542,-8.027609,-2.4101007
3611022294000.0,-1.7073720180131975,0.8668077486445515,9.67818930658106,-0.029321533,-0.049480084,0.4841107,318.48627,-8.040996,-2.3648643
3611027516000.0,-1.8310017070290152,0.8204391889047814,9.85514869718022,-0.028710667,-0.07238753,0.39614612,318.41766,-8.111661,-2.3409796
3611032340000.0,-1.8498813487127093,0.8865179791540662,10.25634157580711,0.028405234,-0.1001819,0.37720928,318.34857,-8.1844845,-2.3087587
3611037238000.0,-1.8666793987357515,0.9469069981036268,10.637836053678756,0.049785517,-0.11178834,0.34605515,318.3136,-8.235159,-2.299386
3611042278000.0,-1.8566758604974087,0.931901690746114,10.732869562487046,0.044898596,-0.12034045,0.34116822,318.27173,-8.300729,-2.2814217
3611047261000.0,-1.8396055796495687,0.9288180835405246,10.812941524569304,0.024129177,-0.093767814,0.3191771,318.24365,-8.364935,-2.2726097
3611052299000.0,-1.7829321727779952,0.9902142948658966,10.817664402995302,0.020158553,-0.105068825,0.29993483,318.21906,-8.430282,-2.2512808
3611057237000.0,-1.7290620145411766,1.0593030515764703,10.81118313882353,0.032375857,-0.06841691,0.2275473,318.20688,-8.487837,-2.2523062
3611062218000.0,-1.6886555331011766,1.2029704682164706,10.71241166682353,0.01985312,-0.023518313,0.17256944,318.19608,-8.53543,-2.252955
3611067585000.0,-1.6413934681723057,1.358086110603418,10.59968298029299,-0.013133603,-0.009468411,0.16432275,318.19016,-8.591189,-2.2458005
3611072186000.0,-1.5376528339117543,1.4964069830310427,10.396043795517963,-0.050396383,-0.016798794,0.16279559,318.1973,-8.639788,-2.2474966
3611078058000.0,-1.405254441306243,1.6729382073072898,10.1361504477677,-0.11575896,-0.024740042,0.1337795,318.2225,-8.69507,-2.252611
3611082218000.0,-1.3293339550251255,1.7511032332763818,9.91573799557789,-0.17684549,-0.024740042,0.12736541,318.242,-8.739177,-2.2572868
3611087197000.0,-1.2430734055276382,1.83257153280402,9.64257954713568,-0.19761491,-0.048258353,0.119729586,318.27148,-8.77449,-2.2546613
3611092263000.0,-1.1955681055873926,1.7786027207531725,9.364580249488334,-0.24373524,-0.06658431,0.103847094,318.3078,-8.819493,-2.236833
3611097227000.0,-1.1663790032951291,1.6667112550961931,9.092149000614,-0.26847526,-0.04795292,0.10598512,318.34048,-8.862965,-2.2236602
3611102134000.0,-1.1326606044511505,1.5396351325820443,8.890687022255753,-0.28130344,-0.005192355,0.10995574,318.37503,-8.915163,-2.204913
3611107089000.0,-1.096860495812901,1.405384678460958,8.711686479064504,-0.2959642,0.03359759,0.06566802,318.42194,-8.9572935,-2.194175
3611112122000.0,-1.0501497708124372,1.186979747932687,8.56781519558676,-0.27947086,0.07422013,0.042455133,318.44745,-8.98989,-2.1961539
3611117116000.0,-0.9968492145436308,0.9151469721832164,8.450553871614845,-0.2770274,0.11484267,0.032070424,318.48007,-9.013231,-2.211107
3611122087000.0,-0.9677263534300792,0.6227479258487247,8.420116343301085,-0.25625798,0.16249016,0.03359759,318.49887,-9.026459,-2.2344992
3611127147000.0,-0.9440487131486368,0.3196742340867781,8.410645593765269,-0.2275473,0.21655174,0.05222898,318.5137,-9.042769,-2.2706244
3611132098000.0,-0.9238718391356396,0.029168592794968,8.456066294714416,-0.20799962,0.27916542,0.059253927,318.50397,-9.022557,-2.3131864
3611137099000.0,-0.9044364878938824,-0.2623619599502891,8.519230999797099,-0.19425514,0.35705075,0.077579886,318.483,-9.009923,-2.3728042
3611142116000.0,-0.956238923223247,-0.5011378074223941,8.615096368640286,-0.17073683,0.41447207,0.09896017,318.42242,-8.956441,-2.4357204
3611147136000.0,-1.027758683493008,-0.7252330171020529,8.71999211395418,-0.1441642,0.44837508,0.12186762,318.3547,-8.909399,-2.5108235
3611152178000.0,-1.0205265142578883,-0.9245487687650956,8.799070395325282,-0.115453534,0.46731192,0.14721853,318.24548,-8.825858,-2.584898
3611157178000.0,-0.9906805851577716,-1.114816435301909,8.86995430650565,-0.11056661,0.50701815,0.15607607,318.13336,-8.744851,-2.6714127
3611162142000.0,-0.966267649870801,-1.3116513372093024,8.95527950387597,-0.07880162,0.535118,0.16707164,317.99762,-8.646838,-2.7613552
3611167175000.0,-0.9614773463128604,-1.5415860580500895,9.098988610614192,-0.05100725,0.5510005,0.18325958,317.85834,-8.551227,-2.855378
3611172131000.0,-0.971919020692774,-1.7045615839920414,9.251415214524735,-0.01985312,0.54733527,0.17989981,317.68805,-8.431304,-2.934469
3611177211000.0,-1.0467180580446778,-1.603362856669983,9.45381257728136,-0.0067195175,0.4914411,0.17684549,317.51648,-8.316389,-2.9994133
3611182598000.0,-1.141756814582879,-1.4854393586588115,9.664450107716924,0.011911872,0.34055737,0.17470746,317.32813,-8.175854,-3.0238798
3611187186000.0,-1.4006126822387084,-1.2649325170848789,9.798671715688414,0.004276057,0.2742785,0.172264,317.14108,-8.033751,-3.0540829
3611192188000.0,-1.6828265117972214,-1.0245281531893229,9.94500486369918,0.003970624,0.13805555,0.16768251,316.9775,-7.915477,-3.0344584
3611197142000.0,-1.9113329528251035,-0.8632861248050824,10.054566603041678,-0.004581489,-0.002443461,0.15668693,316.81998,-7.794219,-2.9939764
3611202181000.0,-1.9763637966695544,-0.9515422526999712,10.049921449225142,-0.010995574,-0.16523905,0.16249016,316.66537,-7.6751275,-2.9077904
3611207211000.0,-2.0321713206665124,-1.0442309666049523,10.047958327239066,-0.01160644,-0.3371976,0.15149458,316.59558,-7.6122766,-2.8517232
3611212235000.0,-2.043306206850266,-1.1592915734397902,10.05909325217928,0.007330383,-0.45234573,0.13988814,316.5281,-7.554062,-2.7661276
3611217280000.0,-2.05448763614904,-1.2748331262824963,10.070274720396514,0.013133603,-0.4868596,0.12339478,316.46844,-7.4790955,-2.6662219
3611222250000.0,-2.0479420860527093,-1.401866455019248,10.105246526650872,0.023823744,-0.4266894,0.106901415,316.41193,-7.411535,-2.5633974
3611227242000.0,-2.0290664032573287,-1.5387152045602606,10.157154506514658,0.06352998,-0.3005457,0.09040806,316.35794,-7.3544436,-2.4727824
3611232288000.0,-2.0207062,-1.6259635882893329,10.223732998572958,0.12064589,-0.14172074,0.089491755,316.2847,-7.2835865,-2.4088728
3611237226000.0,-2.0207062,-1.6723596921245094,10.299654528362469,0.18387043,-0.01038471,0.089186326,316.2118,-7.226575,-2.374794
3611242226000.0,-2.0524167069716466,-1.6486496907374673,10.363099165311462,0.24312437,0.08460484,0.10293079,316.1132,-7.1625147,-2.3667924
3611247214000.0,-2.15374406685286,-1.4696379781163826,10.396874940182425,0.30634892,0.14080444,0.10293079,316.01556,-7.118316,-2.3849099
3611252225000.0,-2.255538653934809,-1.2898008305734283,10.43080645739942,0.3387248,0.16371189,0.11148291,315.90067,-7.0751295,-2.4148507
3611257187000.0,-2.360728912475897,-1.0543213341014268,10.371415527670653,0.35124752,0.15851954,0.124005646,315.78458,-7.044668,-2.4509814
3611262227000.0,-2.4724152541650595,-0.7518375122734284,10.208539268511377,0.35185838,0.16401732,0.14630222,315.6631,-7.020338,-2.4942474
3611267203000.0,-2.588751491686996,-0.5600661751595046,10.11129018511916,0.33475417,0.20647246,0.11484267,315.59344,-7.0367284,-2.5798652
3611272186000.0,-2.71412158361794,-0.5242461522330644,10.10681259166823,0.37659842,0.15943582,0.18295415,315.4931,-7.0709105,-2.6350787
3611277319000.0,-2.7956288495245065,-0.4683497856641238,10.115388595778033,0.34116822,0.09254608,0.19792034,315.4646,-7.1353827,-2.7263887
3611282200000.0,-2.761433998902707,-0.3706501461479778,10.15446822102623,0.24587326,0.08827003,0.19364429,315.4228,-7.19322,-2.8180003
3611287203000.0,-2.7257590852565445,-0.2896481000139616,10.163335317626526,0.2125811,0.09254608,0.18997909,315.39734,-7.267685,-2.9156823
3611292217000.0,-2.688886601780105,-0.24271940513089,10.116406727748693,0.19700404,0.098043874,0.19058995,315.37274,-7.3186545,-3.0101511
3611297179000.0,-2.652396521403141,-0.1962774059267015,10.069964832460734,0.1966986,0.08827003,0.19547687,315.34894,-7.3796325,-3.0952222
3611302245000.0,-2.5638061556568585,-0.1396118228727725,9.944908397223374,0.23243423,0.07880162,0.1966986,315.3265,-7.445108,-3.1797206
3611307180000.0,-2.4267026173228343,-0.0752571112440945,9.74624842519685,0.26175576,0.08155051,0.1881465,315.3061,-7.5072937,-3.2629023
3611315591000.0,-2.1930292919069325,0.0344262685955834,9.40766098351193,0.29932398,0.10048734,0.18112154,315.28098,-7.5910196,-3.3430483
3611317255000.0,-2.146265525676526,0.0597872373316551,9.349452999370673,0.36987892,0.10903945,0.1740966,315.2595,-7.690489,-3.41942
3611322241000.0,-2.003526488687854,0.1536944869893014,9.217982745988042,0.39187005,0.15210545,0.1554652,315.24225,-7.7843657,-3.50971
3611327261000.0,-1.859814100865324,0.2482420989590938,9.085615984660164,0.4071417,0.16890424,0.16768251,315.20618,-7.914519,-3.5595148
3611333086000.0,-1.6015934550295858,0.921555126627219,8.708660893491125,0.42638394,0.15271631,0.16218472,315.1815,-8.048268,-3.6122692
3611337246000.0,-1.381065494731819,1.6249632457339187,8.351253449322389,0.44837508,0.1255328,0.16218472,315.15298,-8.184248,-3.6645527
3611342235000.0,-1.2847364621441493,1.8403799235075693,8.148376248214795,0.528093,0.043676864,0.16615535,315.12137,-8.358389,-3.6682951
3611347229000.0,-1.3667014916023992,1.389572499228792,8.18480491773779,0.48197266,0.07391469,0.15515977,315.0922,-8.498486,-3.696482
3611352356000.0,-1.4009009096272709,1.1840943994006368,8.280507952238247,0.43493605,0.08124508,0.124311075,315.13507,-8.836611,-3.6440978
3611357240000.0,-1.3614779550290317,1.3593074191421617,8.45572133789099,0.3652974,0.054367006,0.11026118,315.18146,-9.142823,-3.5962446
3611362248000.0,-1.3118511431157598,1.5362553721814345,8.631461693854973,0.3155119,-0.0067195175,0.096516706,315.2037,-9.3326,-3.5733235
3611367437000.0,-1.2318848590867948,1.7111816608971135,8.801389832143217,0.2751948,-0.043676864,0.071776666,315.2348,-9.499855,-3.552343
3611372153000.0,-1.1613849476444444,1.8478027328888889,8.964658943822222,0.22815818,-0.04520403,0.06688975,315.26727,-9.679487,-3.5151215
3611377302000.0,-1.0912537368888888,1.926700287777778,9.170669518444443,0.20891592,-0.07360926,0.05589417,315.313,-9.84969,-3.4643972
3611382282000.0,-1.023770242850763,2.003448714439896,9.366049783773724,0.17959438,-0.09162979,0.05009095,315.36368,-10.023598,-3.401142
3611387241000.0,-0.974281659660588,2.102425888202456,9.362514996762188,0.15088372,-0.086437434,0.04428773,315.41885,-10.186169,-3.3412194
3611392241000.0,-0.9243839149639004,2.2022213850390773,9.358950984852996,0.16218472,-0.08460484,0.048258353,315.4677,-10.351998,-3.263084
3611397209000.0,-0.9165840950783132,2.2056135071686747,9.326022002108434,0.17256944,-0.08093964,0.049785517,315.51923,-10.50347,-3.1922567
3611403263000.0,-1.0155425237891569,1.961128066084337,9.209599813554217,0.22388211,-0.10751228,0.048258353,315.57263,-10.664373,-3.1179116
3611407164000.0,-1.0374978322645485,1.9138800945826957,9.140352478943338,0.24678956,-0.08979719,0.042455133,315.6239,-10.834615,-3.0573158
3611412233000.0,-0.98638818912232,2.062562626655819,9.061364767036752,0.23243423,-0.06994407,0.027488936,315.68027,-11.002324,-2.99505
3611417230000.0,-0.9439111620758848,2.1881903594308647,8.972849178402043,0.21410827,-0.0580322,0.024129177,315.7229,-11.143546,-2.9504638
3611422215000.0,-0.9264940376577891,2.2474086675665816,8.850929282013864,0.18845193,-0.03756821,0.006414085,315.77267,-11.273739,-2.9181104
3611427250000.0,-0.908902217909522,2.3072209406785844,8.727786518059101,0.14844026,0.020158553,-0.012217305,315.82846,-11.41394,-2.904357
3611432184000.0,-0.8789199110898083,2.334374292330979,8.624410250454087,0.1133155,0.094989546,-0.0290161,315.88687,-11.543381,-2.9043994
3611437233000.0,-0.8350067048637739,2.329494950958628,8.53658414369324,0.09254608,0.14782938,-0.04917465,315.94946,-11.661198,-2.9172754
3611442294000.0,-0.7887171283319728,2.3593785550748296,8.611980982585035,0.0729984,0.21868975,-0.06352998,316.01584,-11.786994,-2.957634
3611447229000.0,-0.7415627624272109,2.419393213170068,8.830605734965987,0.058948494,0.2556471,-0.082161374,316.0879,-11.904396,-3.0049326
3611452168000.0,-0.6973329727507692,2.4536721678153843,9.047365761846155,0.03481932,0.2938262,-0.08582657,316.15164,-12.011595,-3.0646834
3611457244000.0,-0.6588708288808791,2.4280308040175824,9.26531782268132,0.004886922,0.29046643,-0.112399206,316.22714,-12.109401,-3.1248958
3611462354000.0,-0.6203345532343387,2.3998551869539275,9.477543287968182,-0.028710667,0.25992316,-0.1255328,316.28174,-12.194448,-3.1843586
3611467258000.0,-0.5860878617819025,2.337588463400729,9.574056673715612,-0.079107046,0.24678956,-0.13836098,316.34265,-12.263241,-3.2480571
3611472877000.0,-0.546848025062645,2.266243292184289,9.68464164812728,-0.11728613,0.19547687,-0.1459968,316.3916,-12.31039,-3.2794073
3611477407000.0,-0.5144037630805033,2.203553770461989,9.774516492458195,-0.15393804,0.17715092,-0.1518,316.44202,-12.342173,-3.3163154
3611482353000.0,-0.4654119918031373,2.048413114523358,9.884747877650405,-0.17837265,0.15699236,-0.1572978,316.49722,-12.365642,-3.3386035
3611487166000.0,-0.4177376296604033,1.8974442554387172,9.992015094983625,-0.21746802,0.12980886,-0.1600467,316.52707,-12.352655,-3.3432276
3611492265000.0,-0.4139812355337444,1.5897058291583428,10.056304873490836,-0.24648413,0.106595986,-0.16279559,316.55908,-12.335888,-3.343893
3611497279000.0,-0.4306643243099105,1.2226778064014592,10.098012573655868,-0.25137106,0.06291912,-0.14813483,316.58948,-12.315861,-3.330758
3611502230000.0,-0.4942689745877697,0.9518288254122304,10.088651747008386,-0.2574797,0.02443461,-0.14049901,316.5891,-12.259223,-3.2942946
3611507238000.0,-0.6298403901724301,0.81625740982757,10.00278976867992,-0.23090707,-0.0070249503,-0.129198,316.58566,-12.212552,-3.2478495
3611512255000.0,-0.7768336435283039,0.6804633296860939,9.9197265858533,-0.21594086,-0.03390302,-0.13255776,316.54547,-12.096059,-3.1848123
3611517278000.0,-0.9530030304593492,0.5445612634822643,9.844225487600712,-0.18173242,-0.062308256,-0.118507855,316.49918,-11.996138,-3.1123557
3611522174000.0,-1.104994335435033,0.4225605454992334,9.780931191644308,-0.1591304,-0.0870483,-0.116675265,316.46426,-11.8879175,-3.0535407
3611527269000.0,-1.2265581256803373,0.315023359580299,9.73417592525872,-0.13897185,-0.10751228,-0.10415252,316.42365,-11.791648,-2.9877684
3611532184000.0,-1.3336942461753545,0.2202981238158578,9.69365629019373,-0.12217305,-0.12492194,-0.102319926,316.39526,-11.689191,-2.9437213
3611537241000.0,-1.4159099361294187,0.1477548093948472,9.664639391851408,-0.0870483,-0.12767084,-0.08124508,316.35794,-11.600317,-2.897127
3611542219000.0,-1.4844535854880614,0.0949659489056043,9.643845,-0.05375614,-0.13164146,-0.0711658,316.33087,-11.509204,-2.859789
3611547237000.0,-1.520125804379562,0.0919932653430656,9.643845,-0.040317107,-0.14477506,-0.05131268,316.2954,-11.42455,-2.8181264
3611552187000.0,-1.5553146213410862,0.0890608652564641,9.643845,-0.01160644,-0.14874569,-0.036957346,316.26566,-11.347674,-2.7869003
3611557335000.0,-1.5951823332586952,0.093579368051948,9.648842825347067,-0.008246681,-0.14660765,-0.014966198,316.2282,-11.269092,-2.752907
3611562179000.0,-1.6817438684729065,0.2113030371428571,9.728479226600983,-0.0012217305,-0.1432479,0.010079277,316.1858,-11.201104,-2.7179456
3611567219000.0,-1.7718078935512764,0.3337900916883117,9.811337909986564,-0.014660766,-0.15332718,0.021685716,316.1449,-11.132175,-2.6892064
3611572247000.0,-1.8648267464014043,0.4219902952837916,9.867506940315971,-0.025045475,-0.16340645,0.032986723,316.09677,-11.0673065,-2.6606147
3611577231000.0,-1.9625785206943631,0.4499193792081138,9.87681682289838,-0.041233405,-0.17623462,0.053450707,316.04333,-10.998037,-2.6279879
3611582212000.0,-2.053528077983927,0.4649050705327909,9.86292546195059,-0.06536258,-0.1872302,0.064751714,316.01236,-10.951919,-2.618881
3611587248000.0,-2.130089368191289,0.4505498373628336,9.795934020736183,-0.08857546,-0.19883664,0.07727446,315.97586,-10.902417,-2.605008
3611592234000.0,-2.192364547519512,0.4417977536072486,9.709984966627792,-0.10903945,-0.21105394,0.08460484,315.95215,-10.854012,-2.606373
3611597235000.0,-2.222440356041984,0.4460943111411142,9.576792459226697,-0.084910266,-0.22907446,0.106595986,315.92145,-10.813012,-2.6012802
3611602292000.0,-2.2486572967841787,0.4532637709982803,9.443478198968185,-0.07941248,-0.23671028,0.10781772,315.90265,-10.764758,-2.609084
3611607127000.0,-2.224768821461737,0.4930779256371453,9.331997982287188,-0.048258353,-0.24251351,0.11759156,315.87585,-10.731892,-2.610632
3611612099000.0,-2.20020346483233,0.5340202166122098,9.217358967325882,-0.01863139,-0.24220806,0.12003502,315.86246,-10.705213,-2.619687
3611617078000.0,-2.097658825666017,0.556889142040286,9.09239748299762,0.009162978,-0.24740042,0.12308934,315.8466,-10.687446,-2.625041
3611622060000.0,-1.963318014100065,0.5723899924626381,8.963223729478017,0.03390302,-0.2452624,0.13164146,315.82794,-10.677576,-2.6321514
3611627105000.0,-1.8202261755573248,0.595252669303344,8.9488659375,0.055588737,-0.25167647,0.13927728,315.81537,-10.683332,-2.636271
3611632067000.0,-1.678346852269108,0.6188992215386147,8.95359534375,0.065973446,-0.26725355,0.15454891,315.79874,-10.692893,-2.6376033
3611637073000.0,-1.5665564383713415,0.6676080186658665,8.96935244187979,0.06841691,-0.29993483,0.14110987,315.77377,-10.7094345,-2.6172695
3611642113000.0,-1.4596032270335149,0.7210846336413996,8.987177876281045,0.06719518,-0.30573806,0.16890424,315.73264,-10.727987,-2.5975945
3611647084000.0,-1.3936539,0.7873496826192646,9.072518154664236,0.052534413,-0.3042109,0.16737708,315.69824,-10.739743,-2.5475483
3611652136000.0,-1.3446495,0.8608562570343361,9.190129001215436,0.026267206,-0.28313604,0.17165314,315.65396,-10.747513,-2.5008285
3611657734000.0,-1.3127315584881487,0.929022106149904,9.27779888601629,0.0009162979,-0.26206118,0.1740966,315.6003,-10.758397,-2.4379058
3611662212000.0,-1.2931081076233184,0.9800429062780268,9.336669197629725,-0.033292156,-0.25045475,0.18509217,315.5428,-10.758638,-2.3789525
3611667178000.0,-1.325736848233254,0.9914164468025148,9.428369784522005,-0.057421334,-0.2171626,0.1966986,315.48663,-10.760224,-2.3234985
3611672158000.0,-1.4032773266637764,0.9655696746368958,9.54209552807284,-0.058337633,-0.18295415,0.20005837,315.4294,-10.758228,-2.2727606
3611677181000.0,-1.4524945563690024,0.9608744862147752,9.557644216012948,-0.06994407,-0.13194689,0.20433442,315.375,-10.752897,-2.2303867
3611682165000.0,-1.4888469622334348,0.9654185428789032,9.530379781130998,-0.053450707,-0.09712757,0.19700404,315.3224,-10.754845,-2.1944828
3611687150000.0,-1.5201468648769576,0.8760221442174886,9.475110790584576,0.02107485,-0.05375614,0.1966986,315.26746,-10.768876,-2.18087
3611692164000.0,-1.5481703015659956,0.7218934131212917,9.400381902441396,0.0571159,0.03359759,0.20280726,315.209,-10.7762785,-2.1896133
3611697199000.0,-1.5286311862223068,0.6960682371265571,9.326254809879243,0.06505715,0.10170906,0.18234327,315.16492,-10.797806,-2.21329
3611702144000.0,-1.470093097176001,0.777120938914139,9.254207659788912,0.07941248,0.1600467,0.16982053,315.11353,-10.830555,-2.2570214
3611707198000.0,-1.4003278548845135,0.8497448574271109,9.186748395494131,0.09712757,0.18753563,0.14782938,315.0581,-10.84423,-2.3089225
3611712232000.0,-1.3181834488829989,0.9090713813441876,9.127421628549792,0.10140363,0.22296582,0.13775012,315.00018,-10.857652,-2.3776479
3611717193000.0,-1.2231199147402598,0.9758517266883115,9.111311233766234,0.08857546,0.21471913,0.13072516,314.95053,-10.885966,-2.4358313
3611722185000.0,-1.098944791867838,1.059852575947288,9.180703466004584,0.07696902,0.21930063,0.11362094,314.9049,-10.914629,-2.506533
3611727284000.0,-0.9721080627960276,1.1456539241787624,9.251583071810542,0.067500606,0.20555615,0.09896017,314.8587,-10.948758,-2.5582502
3611732190000.0,-0.8830786359208889,1.2075105109184945,9.342105885355808,0.0421497,0.17989981,0.081855945,314.81934,-10.973745,-2.6071618
3611737251000.0,-0.8041628812374294,1.2632156839383202,9.44423231864764,0.02107485,0.14813483,0.0729984,314.78363,-10.996268,-2.6491952
3611742238000.0,-0.745953858696934,1.2684082759728774,9.507829697032234,0.004276057,0.11759156,0.049480084,314.75012,-11.0251665,-2.655375
3611747221000.0,-0.6990579818985849,1.2449604110259431,9.550035844143082,-0.013133603,0.07422013,0.032375857,314.7204,-11.046722,-2.6488733
3611752241000.0,-0.6682856796512102,1.200405265756662,9.569563569391248,-0.02076942,0.046731193,0.0290161,314.69153,-11.069066,-2.6230812
3611757238000.0,-0.6487863154763263,1.1419072180262406,9.573463517969197,-0.033292156,0.028405234,0.013744468,314.673,-11.083696,-2.5902052
3611762291000.0,-0.6291828661836175,1.0845400810405643,9.575363787575936,-0.0421497,0.03176499,-0.0061086523,314.65018,-11.091701,-2.5439138
3611767201000.0,-0.6107536771869488,1.0384670484126983,9.566148998236333,-0.029321533,0.018325957,-0.012217305,314.6298,-11.101656,-2.489523
3611772273000.0,-0.5914143608168406,0.9973965063332134,9.555774868028069,-0.035430185,0.027794369,-0.027183503,314.60953,-11.0907135,-2.43601
3611777308000.0,-0.5697252512990284,1.010409961173084,9.53842368549838,-0.01863139,0.022907447,-0.04642576,314.59366,-11.089657,-2.3770838
3611783038000.0,-0.5454066105175913,1.0234612631850473,9.520917294993234,-0.002443461,0.010995574,-0.061391957,314.56912,-11.081685,-2.3156068
3611787187000.0,-0.5353251931850473,0.9965775222302096,9.55452194925575,0.02687807,0.013744468,-0.06719518,314.54688,-11.082036,-2.2591558
3611792253000.0,-0.52301561010318,0.963752014474797,9.595553807171854,0.029321533,-0.00580322,-0.073303826,314.5325,-11.080563,-2.1915424
3611798187000.0,-0.5745307,0.9143490655498798,9.61848954717548,0.03756821,-0.033292156,-0.08032878,314.5202,-11.088554,-2.1247213
3611802255000.0,-0.6408662199999999,0.8753281894080529,9.622391714242788,0.027183503,-0.06719518,-0.08002335,314.50885,-11.091419,-2.0525165
3611807217000.0,-0.733806736412556,0.8376485026457399,9.622243067264574,0.02107485,-0.10995574,-0.07880162,314.50015,-11.087372,-1.966166
3611812491000.0,-0.8445369600538117,0.8074493579103139,9.617209773991032,0.0076358155,-0.14660765,-0.0870483,314.49518,-11.077969,-1.8750682
3611817260000.0,-0.9693605904946414,0.779639312692704,9.589721268755152,-0.00030543262,-0.18967366,-0.081855945,314.4862,-11.066863,-1.7838537
3611822245000.0,-1.1218700695136028,0.7501213369146743,9.540524702390767,-0.0027488936,-0.2275473,-0.077579886,314.4811,-11.053459,-1.6868892
3611827260000.0,-1.2454545429096104,0.7374141,9.506265053730532,-0.00580322,-0.23701571,-0.0720821,314.4884,-11.03412,-1.6043619
3611832265000.0,-1.3465147962252602,0.7374141,9.48344520846086,-0.004886922,-0.24465153,-0.06688975,314.49585,-11.015588,-1.5140928
3611837386000.0,-1.4499173051622118,0.7374141,9.460096471672449,0.0036651916,-0.23640485,-0.06383542,314.51468,-11.002132,-1.4514961
3611843911000.0,-1.6234414857282156,0.7823964936973673,9.444130219927311,0.005192355,-0.22907446,-0.057726767,314.53104,-10.987353,-1.3879713
3611847199000.0,-1.718345360562007,0.8131006893537807,9.4385475276128,0.027488936,-0.19639318,-0.04642576,314.54266,-10.981313,-1.3352606
3611852195000.0,-1.838951923853211,0.853419422996942,9.424017470948012,0.025045475,-0.16126843,-0.03756821,314.56912,-10.975629,-1.3116275
3611857182000.0,-1.918238164927916,0.8826301534836173,9.398979637221494,0.032070424,-0.13500121,-0.023518313,314.58926,-10.9791765,-1.2946706
3611862237000.0,-1.9962823878224805,0.9101279351082538,9.380663131812526,0.020158553,-0.112399206,-0.020158553,314.6343,-10.990257,-1.3161118
3611867254000.0,-2.048095699825798,0.9141135639286604,9.440447626545,0.02107485,-0.08124508,-0.002443461,314.66913,-11.007,-1.3456416
3611872155000.0,-2.0987110161758604,0.9180070394815428,9.498849820821237,0.01038471,-0.062002823,0.0015271631,314.72156,-11.026657,-1.3944442
3611877305000.0,-2.11342553940969,0.876689376266939,9.540688151475775,-0.0021380284,-0.05131268,0.012217305,314.7656,-11.045904,-1.4474417
3611882213000.0,-2.109062913235567,0.8156125733859291,9.571226716911085,-0.017715093,-0.04642576,0.025961773,314.80667,-11.061018,-1.5028621
3611887201000.0,-2.092561841665852,0.7733517288385962,9.598330423697332,-0.038789943,-0.06780604,0.03573562,314.8544,-11.071026,-1.5612855
3611892367000.0,-2.0635420424674944,0.7491686116599863,9.622513505523512,-0.03756821,-0.08399397,0.042760566,314.89822,-11.082853,-1.6207954
3611897221000.0,-2.029223810329296,0.7441516965569012,9.609563432389152,-0.045814894,-0.09621128,0.052534413,314.93118,-11.072674,-1.6704443
3611902247000.0,-1.985865090361325,0.7586046032128916,9.556569340706636,-0.04184427,-0.12370021,0.064446285,314.96304,-11.066742,-1.7098387
3611907156000.0,-1.932128488397424,0.743325447376397,9.520625206004926,-0.038789943,-0.13347405,0.059253927,314.99078,-11.054215,-1.7423941
3611912232000.0,-1.8630644554745217,0.6926785251562796,9.502208239534005,-0.043066,-0.13958271,0.07819075,315.00946,-11.041438,-1.7658243
3611917212000.0,-1.797278305413499,0.6647376378023497,9.48536544367657,-0.02321288,-0.13652839,0.08857546,315.03198,-11.037165,-1.7843033
3611922189000.0,-1.735058849919373,0.6757175349689012,9.470725657221838,-0.016493361,-0.081855945,0.07880162,315.05212,-11.02813,-1.8155807
3611927376000.0,-1.6702141009444826,0.6871607189357292,9.455468158258466,-0.004276057,-0.049480084,0.06841691,315.0593,-11.016336,-1.8251956
3611932207000.0,-1.6028999885612656,0.6996340139567537,9.43546914340541,-0.015577064,-0.021685716,0.07666359,315.06125,-11.000173,-1.8481128
3611937282000.0,-1.5301079661892727,0.7132825003369839,9.412721666105028,-0.023823744,-0.01038471,0.0720821,315.0689,-10.988451,-1.8762312
3611942253000.0,-1.4759632965623397,0.7274589451513597,9.407490892252437,-0.018020526,0.008552114,0.0711658,315.0652,-10.978575,-1.8989824
3611947530000.0,-1.4292900862288351,0.7430166999794766,9.412676377321704,-0.022602014,0.03390302,0.081855945,315.05862,-10.963792,-1.9258204
3611952242000.0,-1.4013026638176922,0.7437779394734217,9.430065802632893,-0.033292156,0.042760566,0.08124508,315.04727,-10.948041,-1.9437898
3611957219000.0,-1.37753492015558,0.7390244006681959,9.45383349665902,-0.03940081,0.03634648,0.081855945,315.03223,-10.932734,-1.9632735
3611962219000.0,-1.3513757623441194,0.7400009053794115,9.464471859401744,-0.043066,0.03970624,0.082161374,315.0155,-10.914274,-1.9810274
3611967280000.0,-1.3237225474447796,0.7439513646507457,9.46842240117369,-0.051923547,0.030848695,0.07849618,315.00098,-10.892992,-1.9932196
3611972206000.0,-1.2898650747585174,0.7418106077349308,9.472202057207038,-0.049785517,0.021991149,0.07819075,314.97827,-10.875288,-1.9996586
3611977376000.0,-1.2268395422987646,0.7158589497791089,9.4759095143392,-0.048258353,0.011911872,0.06994407,314.95963,-10.855181,-2.0035837
3611982174000.0,-1.1683489224260577,0.6917746064769749,9.479350206664172,-0.034208454,-0.004276057,0.064751714,314.93982,-10.838515,-1.9967984
3611987187000.0,-1.1220743512618296,0.692500191955836,9.481039,-0.022602014,-0.007330383,0.058948494,314.92245,-10.821894,-1.9913703
3611992264000.0,-1.0885225082807573,0.7164657940851735,9.481039,-0.0143553335,-0.015271631,0.044898596,314.91013,-10.808475,-1.98089
3611997221000.0,-1.0460643819104587,0.7388948210077941,9.474404593619722,-0.00580322,-0.009468411,0.04153884,314.8836,-10.788129,-1.9597678
3612002193000.0,-0.9942798348377742,0.7604717419068334,9.461458648359615,-0.0015271631,-0.015882496,0.036651913,314.8626,-10.769104,-1.9343281
3612007197000.0,-0.9436138162263408,0.7799414548501578,9.456529001971608,0.008246681,-0.0106901415,0.01985312,314.8429,-10.758387,-1.9094956
3612012381000.0,-0.8946723897279181,0.7946238470268139,9.471211210173502,0.014660766,-0.011911872,0.0036651916,314.82516,-10.748,-1.8819361
3612017270000.0,-0.8516632651470711,0.80445176,9.485594236151847,0.009468411,-0.008857546,-0.014966198,314.81348,-10.735516,-1.8511896
3612022241000.0,-0.8157580899857538,0.80445176,9.501552008463923,0.008246681,-0.008552114,-0.023823744,314.80374,-10.726017,-1.8204954
3612027196000.0,-0.7799684816726724,0.80445176,9.517458418000505,0.015882496,-0.020463986,-0.034208454,314.7952,-10.716598,-1.7828329
3612032200000.0,-0.7498736527859835,0.80445176,9.519346,0.011301007,-0.02687807,-0.0421497,314.788,-10.70343,-1.7480766
3612037185000.0,-0.7206954327085667,0.80445176,9.519346,0.0067195175,-0.034208454,-0.051923547,314.78476,-10.692454,-1.7113669
3612042219000.0,-0.7397459558880684,0.80445176,9.506454905946368,0.0143553335,-0.03145956,-0.055588737,314.772,-10.683934,-1.6694857
3612047167000.0,-0.7627667518460941,0.80445176,9.492642620676254,0.010079277,-0.020158553,-0.048258353,314.75867,-10.670821,-1.6291242
3612052902000.0,-0.8101135621957429,0.7995663194144006,9.51015768072105,0.014049901,-0.015882496,-0.053145275,314.74686,-10.661455,-1.5843229
3612057187000.0,-0.8477273436908035,0.7953870195722579,9.526874810265811,0.017715093,-0.005497787,-0.061391957,314.73288,-10.650882,-1.5454235
3612062285000.0,-0.8856873354450262,0.8157196791089957,9.524753973726796,0.027183503,0.01038471,-0.056505036,314.7188,-10.64427,-1.5145626
3612067202000.0,-0.9215477115183246,0.8381324135697288,9.52027133603046,0.014966198,0.024740042,-0.05131268,314.70648,-10.632491,-1.4874893
3612072187000.0,-0.961295392499291,0.8463529026373003,9.515752022308348,0.010995574,0.03481932,-0.050396383,314.6991,-10.626035,-1.470008
3612077247000.0,-1.002521191251536,0.8509335442858493,9.511171284998582,0.018020526,0.037873644,-0.046731193,314.68912,-10.619408,-1.45461
3612082203000.0,-1.024532732226806,0.8711182186913556,9.52229086088458,0.022907447,0.043982297,-0.04642576,314.6867,-10.616469,-1.4506801
3612087265000.0,-1.038485892641274,0.8990244715283507,9.540895398541686,0.003970624,0.037873644,-0.03970624,314.68198,-10.608793,-1.4437957
3612092296000.0,-1.043872,0.8939594093532784,9.53223971076675,0.0012217305,0.021685716,-0.031154128,314.67688,-10.612051,-1.4440633
3612097206000.0,-1.043872,0.8686877484252956,9.506967988265854,-0.00580322,0.00030543262,-0.04184427,314.676,-10.608552,-1.4417301
3612102192000.0,-1.0467510080930618,0.8408197676277523,9.48917646589115,-0.0070249503,-0.01863139,-0.03726278,314.6729,-10.611814,-1.4368454
3612107180000.0,-1.0546893676111342,0.8090663295554632,9.485207203240549,-0.010995574,-0.029321533,-0.04062254,314.67575,-10.612002,-1.4294988
3612112604000.0,-1.0639990461643556,0.7748696333356103,9.480308912835577,-0.020463986,-0.040011674,-0.03604105,314.67126,-10.60709,-1.4164449
3612117203000.0,-1.0880682876152743,0.7538090156499762,9.462256918915228,-0.033292156,-0.03604105,-0.032070424,314.66763,-10.600058,-1.4050988
3612123045000.0,-1.1186428709064826,0.7270562153630713,9.439325901632625,-0.03634648,-0.044898596,-0.027183503,314.6614,-10.587445,-1.386985
3612127246000.0,-1.1402693532423505,0.7077396726008345,9.42326333405772,-0.034208454,-0.039095376,-0.019547688,314.65225,-10.573008,-1.3741282
3612132277000.0,-1.15702213716968,0.6826105623087622,9.414887226356049,-0.03359759,-0.03176499,-0.0125227375,314.64224,-10.557603,-1.3594075
3612137236000.0,-1.1735351674808765,0.6578410815020863,9.406630991394298,-0.025045475,-0.01863139,-0.0143553335,314.63202,-10.541358,-1.3552911
3612142306000.0,-1.195492117532531,0.6617497905195187,9.404425,-0.03023783,-0.018325957,-0.0012217305,314.61594,-10.521876,-1.3485725
3612147379000.0,-1.219258435113981,0.6760095810683886,9.404425,-0.016187929,-0.005192355,-0.002443461,314.6031,-10.510551,-1.3500134
3612152246000.0,-1.2313857638258685,0.7049483872164085,9.429420029217246,-0.008246681,-0.004276057,0.00061086525,314.58826,-10.489262,-1.3510143
3612157229000.0,-1.2393759177647552,0.7409040799413981,9.465375638509837,0.0009162979,0.0030543262,0.008857546,314.5714,-10.472787,-1.3571094
3612162254000.0,-1.240645501305638,0.764698033768546,9.50942000059347,-0.010995574,0.0106901415,0.024129177,314.5584,-10.455159,-1.3670423
3612167247000.0,-1.2264564916913947,0.7599683638971315,9.570905511374876,-0.0125227375,0.015577064,0.027488936,314.54633,-10.443346,-1.378129
3612172211000.0,-1.2107683531582238,0.7538246265791119,9.630200932457786,-0.015271631,0.0018325958,0.03023783,314.53598,-10.434488,-1.3874019
3612177315000.0,-1.1903889547008548,0.7436349273504274,9.686244384615383,-0.018325957,-0.007330383,0.03268129,314.52448,-10.425251,-1.3987776
3612182195000.0,-1.1676505741974808,0.7328377827305973,9.722747206420154,-0.037873644,-0.008552114,0.043066,314.50653,-10.406328,-1.4056629
3612187225000.0,-1.1382897290803196,0.7197885333739672,9.729271967357445,-0.038789943,-0.017104227,0.040927973,314.49243,-10.391959,-1.4083191
3612192328000.0,-1.1085027722944605,0.7065499012731952,9.735891421644318,-0.04153884,-0.0070249503,0.04184427,314.46573,-10.371537,-1.4094276
3612197269000.0,-1.0838274695435022,0.6852319572130656,9.723755814903608,-0.041233405,0.004581489,0.037873644,314.4416,-10.352038,-1.4088793
3612202254000.0,-1.0647523130156826,0.651850398432724,9.685605203076616,-0.04062254,0.009162978,0.03023783,314.4183,-10.332194,-1.409211
3612207206000.0,-1.051698324618059,0.6250673303000641,9.64724375811911,-0.03145956,0.036957346,0.03634648,314.3836,-10.310713,-1.4101583
3612212207000.0,-1.0473168794803769,0.6075415543243985,9.607810843381207,-0.022296581,0.044898596,0.025045475,314.35696,-10.289676,-1.4080498
3612217217000.0,-1.0414419114162417,0.5929520132914868,9.566276686622205,-0.0106901415,0.05375614,0.017715093,314.32236,-10.266178,-1.4098254
3612222226000.0,-1.0301503402510788,0.5891881693369949,9.517346872420555,0.0021380284,0.0720821,0.029626964,314.28497,-10.246052,-1.4159756
3612227266000.0,-1.0187888871322086,0.5854010314790115,9.46811423844645,0.008246681,0.07238753,0.021685716,314.25555,-10.224146,-1.4202265
3612232187000.0,-1.008899335145535,0.5873063224272324,9.446066704785396,0.024740042,0.086132,0.022907447,314.219,-10.20926,-1.4320292
3612237225000.0,-0.9993782856339418,0.5920668471830292,9.436545456438084,0.027794369,0.08857546,0.02107485,314.1865,-10.192371,-1.4409834
3612242228000.0,-0.9932857148949266,0.59376204,9.44126144245142,0.03145956,0.0852157,0.018325957,314.1588,-10.177844,-1.4498154
3612247444000.0,-0.9888935062604414,0.59376204,9.45443788490284,0.030848695,0.071776666,0.010995574,314.1337,-10.16316,-1.4563555
3612252186000.0,-0.9913466872450444,0.5974637291453605,9.460651206262568,0.034208454,0.05589417,0.017104227,314.10648,-10.148719,-1.4616904
3612257175000.0,-1.005072241740879,0.6077578914342143,9.45722010428038,0.032070424,0.06841691,0.016187929,314.08282,-10.132711,-1.4716262
3612262356000.0,-1.0193260196207985,0.6184482211232404,9.45365695748348,0.03573562,0.062002823,0.017104227,314.06183,-10.118355,-1.4686176
3612267194000.0,-1.0369009767857142,0.6346750991531117,9.449872418847242,0.03481932,0.048563786,0.018936822,314.04077,-10.102361,-1.4669617
3612272200000.0,-1.0580915535714286,0.6558656626626591,9.445634223833098,0.040317107,0.06169739,0.01740966,314.01956,-10.08948,-1.4709793
3612277231000.0,-1.0863521773667713,0.6717514763009405,9.45510675799373,0.036957346,0.06780604,0.022296581,314.0014,-10.0757675,-1.473998
3612282220000.0,-1.12914546450515,0.6760308005463502,9.493620586833856,0.04337143,0.058948494,0.024740042,313.98468,-10.066584,-1.4764595
3612287218000.0,-1.1706413610749489,0.6814672073832992,9.531193868978985,0.043676864,0.062308256,0.022907447,313.97202,-10.0590315,-1.489902
3612292262000.0,-1.197592474632695,0.6994346164217965,9.558145076343688,0.045814894,0.0693332,0.01740966,313.96017,-10.0539,-1.5016015
3612297634000.0,-1.226155924639601,0.7184552747837606,9.586384,0.039095376,0.06963864,0.022907447,313.9518,-10.048074,-1.5184267
3612302277000.0,-1.2434804327047455,0.7288499796228474,9.586384,0.045814894,0.06352998,0.017715093,313.94815,-10.046537,-1.5358044
3612307159000.0,-1.261696725699369,0.7397797554196213,9.586384,0.047647487,0.06169739,0.0125227375,313.9477,-10.041812,-1.5624143
3612312239000.0,-1.2755291650331126,0.7524325708609272,9.590011654304636,0.035124753,0.06169739,0.01863139,313.9458,-10.034954,-1.5869329
3612317273000.0,-1.2804409437187978,0.7671681120733571,9.599835006520632,0.03359759,0.049785517,0.009162978,313.9506,-10.031605,-1.6080656
3612322160000.0,-1.294361692647059,0.7812562193529412,9.603692211764706,0.042760566,0.032070424,0.008552114,313.95474,-10.0322695,-1.6303223
3612327317000.0,-1.3234132982352942,0.7957819513647059,9.59885069882353,0.04184427,0.033292156,0.0061086523,313.96173,-10.0295315,-1.654618
3612332276000.0,-1.3532366991683993,0.8067215213305613,9.577802885654886,0.03848451,0.017104227,0.0012217305,313.97064,-10.033164,-1.6692098
3612337192000.0,-1.3858628900837902,0.8126535504113903,9.530346591066593,0.03481932,0.008246681,-0.004276057,313.97998,-10.036231,-1.6860278
3612342304000.0,-1.4197898811251812,0.8188220883815284,9.480998222894224,0.03848451,-0.0036651916,-0.008857546,313.9919,-10.044352,-1.7049772
3612347252000.0,-1.4493774822092296,0.8222935243766966,9.438796479432032,0.034513887,-0.0009162979,-0.011911872,314.00464,-10.048987,-1.7254469
3612352189000.0,-1.4658320527041135,0.8157116824333541,9.41905088487506,0.029932396,0.0021380284,-0.01740966,314.01987,-10.054207,-1.7427919
3612357170000.0,-1.4824332711839632,0.8090711811735226,9.399129311756107,0.022602014,0.007941248,-0.023823744,314.0417,-10.064873,-1.7717196
3612362169000.0,-1.4954010649212637,0.8058710249212636,9.378174675393682,0.017715093,0.010995574,-0.018020526,314.0615,-10.074801,-1.7998393
3612367206000.0,-1.5000613239880205,0.8105312839880204,9.354873380059898,0.01863139,0.02565634,-0.019242255,314.0841,-10.08406,-1.8329378
3612372157000.0,-1.5069055258257065,0.81402856,9.33069300855551,0.014966198,0.042455133,-0.017104227,314.108,-10.092603,-1.867312
3612377880000.0,-1.5232628755272584,0.81402856,9.297977625945084,0.02321288,0.051923547,-0.017104227,314.13235,-10.104685,-1.9032135
3612382229000.0,-1.5314348762318406,0.8157368111037892,9.283341611015429,0.028405234,0.064751714,-0.016493361,314.15714,-10.115311,-1.9459201
3612387183000.0,-1.5278821229594128,0.8228423324876442,9.297553106372623,0.029932396,0.06872234,-0.011911872,314.18073,-10.127159,-1.9876841
3612392267000.0,-1.524236140392392,0.8301343128500823,9.312137531563575,0.025350908,0.057421334,-0.006414085,314.20285,-10.140138,-2.032456
3612397219000.0,-1.5389401684615385,0.8277728752967033,9.339870781868132,0.034208454,0.051618114,-0.008552114,314.2254,-10.157162,-2.078907
3612402254000.0,-1.567842828951049,0.8181386517802198,9.378407645754246,0.029626964,0.040011674,0.00061086525,314.24408,-10.169024,-2.118656
3612407180000.0,-1.5879039263463774,0.8037208023014336,9.425771143936458,0.02443461,0.01985312,0.0015271631,314.26416,-10.184722,-2.1535685
3612412445000.0,-1.6025557624564124,0.7841850412204572,9.484378182390548,0.019547688,0.0061086523,0.015577064,314.27823,-10.199144,-2.1850593
3612417196000.0,-1.605547509931191,0.7622974222033057,9.518158975172025,0.026572637,-0.0033597588,0.01740966,314.2943,-10.214096,-2.2172906
3612422188000.0,-1.598764877371072,0.7351668565510392,9.53511555657232,0.033292156,-0.02076942,0.019547688,314.30743,-10.227466,-2.2420344
3612427259000.0,-1.591874907476768,0.7076069410016316,9.55234048130808,0.03023783,-0.025961773,0.021991149,314.31613,-10.2349825,-2.2694035
3612432205000.0,-1.5773818856420048,0.6991069,9.548377118377088,0.025350908,-0.035124753,0.013744468,314.32837,-10.243452,-2.2907758
3612437335000.0,-1.558621414424821,0.6991069,9.534306960859189,0.015882496,-0.04428773,0.023823744,314.33502,-10.249657,-2.309269
3612442246000.0,-1.55994814478811,0.7019420482627033,9.52325258505724,0.021380283,-0.040011674,0.019547688,314.34247,-10.251324,-2.3256047
3612447220000.0,-1.5742989189997991,0.7067256396665997,9.513685202450292,0.013744468,-0.038789943,0.02076942,314.3461,-10.246637,-2.337577
3612452206000.0,-1.592037521300185,0.7300396756845288,9.5002775125147,0.01038471,-0.04428773,0.011301007,314.35208,-10.2442045,-2.3465564
3612457183000.0,-1.6120542076768016,0.7660697404241559,9.484264247018311,0.005192355,-0.03970624,0.007330383,314.35556,-10.239097,-2.3582783
3612462208000.0,-1.6245734161884888,0.802713261304121,9.46884927351765,0.004581489,-0.036651913,0.002443461,314.36758,-10.236223,-2.3689756
3612467307000.0,-1.6075912902277865,0.8409230580151278,9.456112856372805,0.003970624,-0.01740966,-0.009773844,314.38165,-10.231762,-2.386027
3612472157000.0,-1.5914384541992697,0.8772669517292645,9.443998398017737,0.0143553335,-0.0067195175,-0.013439035,314.40326,-10.239058,-2.4067514
3612477228000.0,-1.5282627949758842,0.8810662,9.442732,0.0143553335,0.01863139,-0.027183503,314.42923,-10.242832,-2.4378374
3612482183000.0,-1.4615080611032958,0.8810662,9.442732,0.013133603,0.028710667,-0.039095376,314.4558,-10.249032,-2.4673247
3612487207000.0,-1.3320284513316791,0.910159431555004,9.46091524598842,0.012217305,0.038789943,-0.04795292,314.488,-10.260701,-2.503009
3612492222000.0,-1.196963011215881,0.9419395570719604,9.480777798511166,0.027794369,0.044898596,-0.050701816,314.52133,-10.27644,-2.5400949
3612497220000.0,-1.0803570383244594,0.9759934813104424,9.51939328240791,0.03573562,0.056505036,-0.057726767,314.54895,-10.289968,-2.5675163
3612502189000.0,-0.9821112478050636,1.0121892690318377,9.576272485385202,0.04428773,0.04337143,-0.055588737,314.57556,-10.307863,-2.5889452
3612507195000.0,-0.8870575077206595,0.994195136828322,9.568489912512124,0.040011674,0.048258353,-0.061391957,314.58603,-10.323987,-2.5942614
3612512246000.0,-0.793221514156159,0.9472771522938894,9.526263356547044,0.039095376,0.039095376,-0.063224554,314.59616,-10.343004,-2.5918074
3612517802000.0,-0.7396243490223188,0.912006881330239,9.536878573869249,0.055588737,0.015577064,-0.06078109,314.5986,-10.366839,-2.571255
3612522199000.0,-0.7188317410823623,0.8912142516788465,9.570147007110409,0.04734206,-0.0015271631,-0.06536258,314.6037,-10.382541,-2.5510793
3612527258000.0,-0.7113777819314341,0.8810662,9.583689861805892,0.04184427,-0.016798794,-0.061086524,314.59424,-10.391273,-2.5082214
3612532199000.0,-0.7159474554031868,0.8810662,9.57912009290198,0.037873644,-0.01740966,-0.062002823,314.58752,-10.397453,-2.4666307
3612537295000.0,-0.7426532823413937,0.892153833599536,9.572371858570536,0.040011674,-0.007941248,-0.061391957,314.5741,-10.394798,-2.4214447
3612542418000.0,-0.7908090526438832,0.9140428304898724,9.563616086106896,0.040011674,0.002443461,-0.06047566,314.56073,-10.39014,-2.377978
3612552234000.0,-0.8610389199958813,0.9227113276771004,9.513980934616969,0.04428773,0.024740042,-0.05222898,314.54373,-10.385321,-2.3452246
3612557153000.0,-0.8925210384990254,0.9179415985516568,9.470570088693956,0.034513887,0.03970624,-0.055283304,314.5295,-10.376191,-2.3150678
3612562221000.0,-0.9303653158869396,0.9132110749922028,9.404342788499026,0.042455133,0.04520403,-0.05131268,314.5158,-10.383174,-2.2967896
3612567169000.0,-0.9620966536745784,0.9089134692650844,9.350358535744924,0.044898596,0.055588737,-0.05131268,314.50793,-10.385205,-2.290929
3612572348000.0,-0.979825509551044,0.9053676980897912,9.325537619173575,0.05100725,0.06963864,-0.04886922,314.49786,-10.39039,-2.287583
3612577290000.0,-0.996743062310552,0.9019841875378896,9.301852550686304,0.05681047,0.07269296,-0.03848451,314.49277,-10.398508,-2.2901604
3612582216000.0,-1.007599055507325,0.9063229243977212,9.285433416440586,0.054367006,0.07666359,-0.03940081,314.4895,-10.40564,-2.2972686
3612587378000.0,-1.012069614523422,0.9197345967778984,9.276492578495208,0.05222898,0.07971791,-0.047036625,314.48532,-10.414229,-2.3046265
3612592356000.0,-1.0171360278416532,0.9299475139208266,9.273340750109154,0.045814894,0.08093964,-0.040011674,314.48303,-10.420599,-2.3155384
3612597273000.0,-1.0239893425847766,0.9333741712923884,9.283620579100567,0.035430185,0.08277224,-0.03970624,314.4847,-10.424858,-2.3279216
3612602337000.0,-1.0310475459321786,0.9369032729660892,9.294207736719546,0.02321288,0.089186326,-0.03268129,314.47852,-10.434421,-2.3412905
3612607202000.0,-1.03018693721127,0.9282566451730264,9.31551177984601,0.0076358155,0.10293079,-0.034513887,314.47446,-10.439646,-2.357347
3612612232000.0,-1.022035434715289,0.9078778931889332,9.348118045181486,0.014049901,0.10934488,-0.02687807,314.46597,-10.447657,-2.3718998
3612617267000.0,-1.013470481054513,0.8884150312496277,9.37847903157581,0.0067195175,0.10873401,-0.025350908,314.4593,-10.447357,-2.3912873
3612622198000.0,-1.0029201680965147,0.8743479252725648,9.396062886505808,0.0033597588,0.105068825,-0.018020526,314.44888,-10.450054,-2.4102957
3612627292000.0,-0.992021102144772,0.8598158145755138,9.414227996425378,0.004886922,0.10262536,-0.009773844,314.42676,-10.449917,-2.426645
3612632221000.0,-0.9797496896683416,0.8434539102834171,9.436900867035176,-0.0027488936,0.10170906,0.006414085,314.40076,-10.446299,-2.441037
3612637240000.0,-0.9652574406633166,0.8241308914331659,9.465885465929649,-0.00580322,0.09162979,0.01160644,314.3766,-10.444283,-2.4517794
3612642376000.0,-0.9576807,0.81402856,9.492502319165158,-0.0143553335,0.07666359,0.022296581,314.34198,-10.432971,-2.457793
3612647226000.0,-0.9576807,0.81402856,9.514634921852664,-0.007941248,0.06688975,0.026572637,314.30844,-10.425108,-2.4620998
3612652244000.0,-0.9808968281860226,0.8047421054933196,9.542852634892087,-0.004581489,0.05222898,0.038179077,314.26346,-10.407631,-2.4607122
3612657241000.0,-1.042375891538198,0.7801504715930113,9.579739961630697,-0.006414085,0.03390302,0.06566802,314.21402,-10.39083,-2.454345
3612662315000.0,-1.1037728618178533,0.7570557144018792,9.614381992410554,0.0018325958,0.01863139,0.07238753,314.1649,-10.374945,-2.4489777
3612667381000.0,-1.1476074475243947,0.7658226681604626,9.601231813516444,0.009468411,0.0076358155,0.0842994,314.1079,-10.358796,-2.4379668
3612672174000.0,-1.1890798457264184,0.7741171824448861,9.58879028026744,0.020463986,-0.0070249503,0.0870483,314.0585,-10.341239,-2.4325945
3612677262000.0,-1.2153802875229358,0.7903448947486239,9.593695525963303,0.03756821,-0.0290161,0.09621128,314.00543,-10.32795,-2.420993
3612682190000.0,-1.2370291271559632,0.8076639483706423,9.60235479055046,0.04917465,-0.03176499,0.10140363,313.95306,-10.31624,-2.4107459
3612687231000.0,-1.2601197533800863,0.8215959840561038,9.592924644132758,0.06261369,-0.03848451,0.106595986,313.90823,-10.313552,-2.4004004
3612692442000.0,-1.2845370044524178,0.8338046053429015,9.572576970317217,0.07880162,-0.04428773,0.10354166,313.8649,-10.31462,-2.3897977
3612697238000.0,-1.3037230563604,0.8440362563603999,9.55701442516774,0.084910266,-0.04428773,0.100792766,313.82407,-10.318003,-2.3861933
3612703239000.0,-1.311592476708202,0.8519056767082022,9.553080043680678,0.08552113,-0.04886922,0.093767814,313.78638,-10.323843,-2.3800461
3612707210000.0,-1.3167998535122551,0.8571130535122553,9.55047657277831,0.08032878,-0.05955936,0.08246681,313.75296,-10.3366585,-2.3771477
3612712173000.0,-1.3155099033866875,0.8789631676263908,9.529808548311536,0.07941248,-0.05497787,0.08246681,313.71832,-10.350154,-2.377093
3612717250000.0,-1.291782831778255,0.9453988789381222,9.458627482139372,0.06536258,-0.053145275,0.07574729,313.6899,-10.357493,-2.3743148
3612722159000.0,-1.2757440711079515,0.9929447592261604,9.39732429582614,0.06780604,-0.057726767,0.05681047,313.66476,-10.373974,-2.3720386
3612727254000.0,-1.2856545109881183,0.9780791770183812,9.362637730374733,0.04642576,-0.06352998,0.06627888,313.6339,-10.379208,-2.3688817
3612732231000.0,-1.2954339614306838,0.9681124871435612,9.333966980004224,0.01863139,-0.07819075,0.06383542,313.62073,-10.394697,-2.361869
3612737448000.0,-1.305987118988946,0.9716302063296488,9.319895809406464,0.006414085,-0.09132435,0.06811147,313.60352,-10.408055,-2.352968
3612742379000.0,-1.315961744237133,0.9749550814123776,9.30659603133141,0.0018325958,-0.09315695,0.06291912,313.58832,-10.416352,-2.34457
3612747194000.0,-1.335210959150981,0.97488979154986,9.29324555586704,-0.013133603,-0.09865474,0.06658431,313.57053,-10.417982,-2.3310647
3612752255000.0,-1.369179450700841,0.97003714989988,9.27868783360032,-0.021380283,-0.105374254,0.06688975,313.55545,-10.419828,-2.317454
3612757219000.0,-1.3963733887041565,0.9633893056479218,9.285821858190708,-0.029932396,-0.106595986,0.067500606,313.54013,-10.420058,-2.307077
3612762274000.0,-1.4153116186797066,0.9539201906601468,9.32369851589242,-0.026572637,-0.08674286,0.06627888,313.52466,-10.421151,-2.301128
3612767173000.0,-1.425730024842745,0.93596109208778,9.354249676302212,-0.031154128,-0.080634214,0.062002823,313.51627,-10.414184,-2.2999253
3612773041000.0,-1.421758248575871,0.8962433086825924,9.378080416849247,-0.047036625,-0.060170226,0.05955936,313.506,-10.404989,-2.3082361
3612777228000.0,-1.4189242630221215,0.8679034383489999,9.395084389356136,-0.04184427,-0.048258353,0.04642576,313.49966,-10.398397,-2.319155
3612782244000.0,-1.4148238727752789,0.8396179188499902,9.41714287052611,-0.040317107,-0.03604105,0.04795292,313.48883,-10.386607,-2.334907
3612787261000.0,-1.4101252800704087,0.816125426313319,9.440635343438297,-0.05131268,-0.019242255,0.043982297,313.48248,-10.372737,-2.3558002
3612792391000.0,-1.4101982175135857,0.8020440952817237,9.459531901134522,-0.050701816,-0.004886922,0.03176499,313.47354,-10.353339,-2.375007
3612797264000.0,-1.4146475187815806,0.7975948915759367,9.472879340356563,-0.05222898,-0.0027488936,0.035430185,313.46106,-10.330781,-2.3943758
3612802227000.0,-1.4226767061753405,0.78956574026336,9.48767552504366,-0.052839845,-0.015577064,0.035430185,313.44675,-10.306461,-2.4111307
3612807209000.0,-1.436008593859588,0.7762337934146,9.504340428152288,-0.060170226,-0.004886922,0.035430185,313.4302,-10.280279,-2.4343753
3612812227000.0,-1.4494368179462105,0.7628055097359413,9.52112575207824,-0.057726767,-0.015577064,0.025045475,313.4237,-10.254355,-2.4462209
3612817435000.0,-1.450063673699216,0.7369294579472558,9.54295031575196,-0.05375614,-0.02107485,0.039095376,313.40952,-10.2276745,-2.460852
3612822234000.0,-1.440704328785256,0.7041717507483963,9.56634867803686,-0.051923547,-0.020463986,0.02565634,313.40625,-10.2012,-2.475781
3612827249000.0,-1.4524008744342802,0.6710035604814637,9.56622047231584,-0.048563786,-0.027183503,0.02565634,313.39334,-10.176266,-2.4864361
3612832505000.0,-1.4814826235724603,0.6370748177255657,9.546832740779973,-0.035430185,-0.013133603,0.021991149,313.38422,-10.154956,-2.5036664
3612837211000.0,-1.5007567145995953,0.6089425937265105,9.529466827695869,-0.032986723,-0.021685716,0.018325957,313.37384,-10.127819,-2.5048878
3612842452000.0,-1.5152672693263949,0.5799214691211333,9.51011952240532,-0.032986723,-0.015577064,0.014966198,313.363,-10.104225,-2.5141368
3612847220000.0,-1.520821395897436,0.5631407958974359,9.496411312820513,-0.026267206,-0.00030543262,0.01282817,313.35388,-10.082804,-2.5233378
3612852260000.0,-1.5162376283760683,0.5585570283760684,9.487243586324787,-0.018325957,-0.002443461,0.0061086523,313.34756,-10.062061,-2.5296535
3612857171000.0,-1.5173542839941263,0.5512359453744493,9.488070424375918,-0.021380283,0.0015271631,0.004276057,313.3385,-10.038296,-2.5415642
3612862254000.0,-1.5316506755555557,0.5369396533333334,9.51189757777778,-0.025045475,-0.0061086523,0.009773844,313.33002,-10.016996,-2.549387
3612867184000.0,-1.545248181153637,0.5255969952947578,9.539069555233086,-0.014966198,-0.007941248,0.007941248,313.3239,-9.998609,-2.5583644
3612872198000.0,-1.5583130935606748,0.5212419820497006,9.578264337928532,-0.007330383,-0.0076358155,0.019242255,313.3128,-9.97911,-2.5647664
3612877304000.0,-1.569660739474996,0.5177712511413856,9.620103680013292,0.0076358155,-0.013133603,0.020463986,313.3072,-9.962765,-2.5687985
3612882224000.0,-1.5579185002325968,0.5255994624057152,9.682729255690314,0.014049901,-0.03268129,0.029321533,313.2969,-9.946685,-2.5679708
3612887166000.0,-1.546123755042366,0.5334626778667553,9.745634864429308,0.02565634,-0.04337143,0.02321288,313.29266,-9.932543,-2.5711555
3612892334000.0,-1.5145728173825164,0.5526771038706417,9.749237678120265,0.040927973,-0.03970624,0.030543262,313.28238,-9.921893,-2.5717611
3612897232000.0,-1.4750686777665487,0.5763795793902644,9.72158464426478,0.06078109,-0.043066,0.027183503,313.2777,-9.915881,-2.5682836
3612902229000.0,-1.4378626890853452,0.6010822247194831,9.687579664399864,0.07788532,-0.029932396,0.0290161,313.26764,-9.910337,-2.5681133
3612907256000.0,-1.4083976319551172,0.6272733767371642,9.63847129282557,0.08827003,-0.028710667,0.029626964,313.25964,-9.908555,-2.5639586
3612912467000.0,-1.377854084569874,0.6544231863978239,9.587565439578375,0.093767814,-0.015882496,0.0290161,313.24786,-9.91391,-2.5616517
3612917220000.0,-1.3401796938571304,0.6901034002575481,9.535108098929785,0.1020145,-0.0036651916,0.02076942,313.2382,-9.922623,-2.5600116
3612922195000.0,-1.2821422260506394,0.7481408507491516,9.468779960062648,0.10934488,0.00580322,0.013439035,313.22812,-9.932311,-2.5612435
3612927365000.0,-1.2228194386429942,0.8115707051296157,9.40086548512128,0.10995574,0.017104227,0.015271631,313.22055,-9.946557,-2.5629258
3612932279000.0,-1.179669914712011,0.9135604904559472,9.349869986246562,0.09560041,0.015271631,0.004581489,313.21893,-9.95773,-2.5646758
3612937202000.0,-1.136441362348921,1.0157370702608983,9.298781089022256,0.095294975,0.010995574,-0.0018325958,313.2204,-9.983623,-2.5588558
3612942396000.0,-1.1121238279606964,1.0729614680917083,9.282712582227203,0.10293079,-0.0018325958,-0.0070249503,313.22507,-10.006876,-2.5508502
3612947208000.0,-1.100207719979314,1.1007657200482677,9.286684701172211,0.0870483,0.0021380284,-0.007941248,313.22977,-10.022642,-2.5467873
3612952362000.0,-1.0886395123738315,1.136068854401869,9.300409934485982,0.06658431,-0.015882496,-0.008552114,313.2437,-10.064791,-2.5262928
3612957186000.0,-1.0800042818691589,1.1792450520093458,9.330633872429908,0.05681047,-0.029626964,-0.013744468,313.25882,-10.104053,-2.509136
3612962236000.0,-1.07540648704,1.2197596088,9.3579429996,0.065973446,-0.037873644,-0.02321288,313.27808,-10.146748,-2.4879768
3612967216000.0,-1.09066807552,1.2388365944,9.3655735548,0.052534413,-0.038789943,-0.018020526,313.29486,-10.179148,-2.4655755
3612972230000.0,-1.106033859584,1.25804382448,9.37325620616,0.03390302,-0.05222898,-0.019242255,313.31763,-10.217285,-2.4414556
3612977244000.0,-1.1109096,1.2512008623016813,9.375694,0.03145956,-0.05467244,-0.013744468,313.33636,-10.255102,-2.4206254
3612982666000.0,-1.1109096,1.2307077651353695,9.375694,0.013744468,-0.055588737,-0.016493361,313.35822,-10.282061,-2.3980289
3612987228000.0,-1.1114807255272727,1.209400987709091,9.377407412363636,0.014966198,-0.048258353,-0.02107485,313.38336,-10.31872,-2.3799481
3612992329000.0,-1.1154283018343436,1.1620300308040403,9.38925038860606,-0.00030543262,-0.049785517,-0.025045475,313.40933,-10.344611,-2.3602598
3612997205000.0,-1.1192017545050506,1.1167485593535351,9.400570983030304,-0.009468411,-0.050701816,-0.027488936,313.4325,-10.365878,-2.3452923
3613002094000.0,-1.133426451135056,1.091627761648708,9.42060006391882,-0.014966198,-0.04795292,-0.018936822,313.45328,-10.383318,-2.3313808
3613007117000.0,-1.1535558648394184,1.0765307013704364,9.445761831049271,-0.02107485,-0.05497787,-0.016493361,313.47668,-10.397367,-2.315691
3613012347000.0,-1.1625604115801085,1.053768499428514,9.463609159414478,-0.02687807,-0.05955936,-0.021991149,313.49756,-10.397964,-2.2995
3613017110000.0,-1.1671337798074994,1.0309018493082014,9.477328929817526,-0.030848695,-0.05955936,-0.013744468,313.51364,-10.397492,-2.2825344
3613022083000.0,-1.1773617122292994,0.9977446476645436,9.481039,-0.043676864,-0.067500606,-0.005497787,313.53348,-10.387238,-2.2672794
3613027098000.0,-1.189598056687898,0.9610355929936306,9.481039,-0.043676864,-0.06566802,-0.008246681,313.55316,-10.379667,-2.2555747
3613032116000.0,-1.2013602596215474,0.93000832334427,9.486718116511522,-0.03604105,-0.0693332,-0.0018325958,313.56693,-10.365721,-2.2399514
3613037093000.0,-1.2122706213490004,0.908187580901877,9.501265189531512,-0.043066,-0.06505715,0.006414085,313.58002,-10.347973,-2.2277527
3613042115000.0,-1.2232796301083473,0.8861695442240196,9.515943791240652,-0.03940081,-0.061086524,0.012217305,313.59442,-10.326993,-2.2139144
3613047148000.0,-1.2360762693640552,0.8639912510599078,9.536420948940092,-0.040011674,-0.056199603,0.01282817,313.6072,-10.303427,-2.2019804
3613052087000.0,-1.249154559281106,0.8421941011981566,9.558218098801843,-0.041233405,-0.047647487,0.022296581,313.6151,-10.281455,-2.1919932
3613057061000.0,-1.257518647935973,0.8213543989932603,9.587928759056446,-0.041233405,-0.04917465,0.01863139,313.62003,-10.2578745,-2.18316
3613062101000.0,-1.2626015325189557,0.8010228447388373,9.623509163437236,-0.04184427,-0.042455133,0.020158553,313.61975,-10.234464,-2.1786191
3613067069000.0,-1.26962549500915,0.7592092961786724,9.6452419900183,-0.034513887,-0.05681047,0.030543262,313.61823,-10.208468,-2.169571
3613072062000.0,-1.2775803632091167,0.7075023538471137,9.661151726418234,-0.030543262,-0.06566802,0.03023783,313.61853,-10.181943,-2.1645675
3613077189000.0,-1.2742488892222903,0.6703765,9.659010341702388,-0.019547688,-0.0580322,0.030543262,313.6136,-10.156244,-2.159108
3613082088000.0,-1.2455185392222905,0.6703765,9.615914841702388,-0.018020526,-0.05009095,0.029932396,313.60928,-10.129681,-2.1515586
3613087089000.0,-1.217682941030949,0.6752655153814305,9.581494882517338,-0.0009162979,-0.05497787,0.040011674,313.5959,-10.10129,-2.1407785
3613092096000.0,-1.1928661324190042,0.6901556005485975,9.566604486388574,0.025350908,-0.046731193,0.045814894,313.58276,-10.076749,-2.1362867
3613097565000.0,-1.1648217678959591,0.7144199941384115,9.55327796730144,0.03634648,-0.043676864,0.04886922,313.56796,-10.051941,-2.1249828
3613102082000.0,-1.1407111422294474,0.7425490084626103,9.54524135782629,0.05375614,-0.03940081,0.03756821,313.55515,-10.036727,-2.1170733
3613107168000.0,-1.1064923457300586,0.7731415285962145,9.531502980171249,0.06414085,-0.041233405,0.044898596,313.53674,-10.021184,-2.1076047
3613112124000.0,-1.0530193056669672,0.7998780542113565,9.504766488057683,0.07849618,-0.030848695,0.032986723,313.52618,-10.011584,-2.104557
3613117094000.0,-1.0091513262185092,0.831541414393559,9.482832558826075,0.08093964,-0.02687807,0.025350908,313.5173,-10.003926,-2.095514
3613122084000.0,-0.9760540960652756,0.8687758172158254,9.466284040948835,0.0729984,-0.021380283,0.014660766,313.5121,-9.997156,-2.0908875
3613127088000.0,-0.945221964455766,0.9031017455442338,9.450147540139032,0.052534413,-0.016493361,0.010079277,313.51114,-9.985823,-2.0811636
3613132079000.0,-0.9270150141377012,0.9213086958622988,9.436492038662983,0.04428773,-0.003970624,0.0021380284,313.51334,-9.975655,-2.076265
3613137134000.0,-0.9104586276725471,0.9401819717734448,9.422254070875889,0.047647487,-0.012217305,-0.007941248,313.52167,-9.965954,-2.0648065
3613142101000.0,-0.9202735334323738,0.9647192746053852,9.402624351593934,0.025350908,-0.008552114,-0.0036651916,313.52667,-9.94702,-2.060175
3613147078000.0,-0.9361451373397436,0.9894089658119658,9.382872719871797,0.010079277,-0.027183503,-0.004581489,313.54013,-9.92779,-2.0505385
3613152084000.0,-0.9976086288461538,1.0150187205128205,9.362385023076923,0.011911872,-0.029932396,-0.009162978,313.55206,-9.907787,-2.0465517
3613157068000.0,-1.0554733038453874,1.0319748392309225,9.34232338155011,0.01160644,-0.03940081,-0.007941248,313.57358,-9.883439,-2.0389256
3613162078000.0,-1.103271438932058,1.0224152122135883,9.323203728232714,0.014049901,-0.029321533,-0.01160644,313.5963,-9.861161,-2.0367918
3613167182000.0,-1.1433203297640293,1.0102344107277414,9.304975606186792,0.015577064,-0.014660766,-0.009162978,313.62357,-9.848565,-2.0429564
3613172057000.0,-1.1572070229526077,0.9917188842554036,9.291088671326593,0.014049901,0.00061086525,-0.014049901,313.65286,-9.8362465,-2.052713
3613177089000.0,-1.1683705,0.9661859588111888,9.288443841958042,0.008246681,0.012217305,-0.009773844,313.67813,-9.825193,-2.075393
3613182065000.0,-1.1683705,0.9185793588511488,9.32652987752248,0.0015271631,0.0106901415,-0.008857546,313.70526,-9.813892,-2.0985157
3613187063000.0,-1.171438684511651,0.8759525591472485,9.3657455321765,-0.005497787,0.017104227,-0.0033597588,313.72314,-9.805075,-2.1259272
3613192102000.0,-1.1857939136241944,0.8520271772930095,9.40881111958354,-0.014966198,0.013439035,-0.0076358155,313.7439,-9.793983,-2.1498451
3613197074000.0,-1.198043265388011,0.8284703701079171,9.452155653880114,-0.023823744,0.0076358155,0.003970624,313.74905,-9.779525,-2.166276
3613207113000.0,-1.2114543786644472,0.7813175986272398,9.543276695290317,-0.04184427,-0.008552114,-0.004886922,313.76178,-9.759981,-2.1794646
3613217128000.0,-1.2641385,0.7343426167011528,9.595961,-0.040011674,-0.013133603,0.007941248,313.759,-9.740377,-2.195517
3613222107000.0,-1.2641385,0.7108511952803231,9.595961,-0.03848451,-0.02107485,0.004276057,313.76224,-9.713408,-2.202512
3613227234000.0,-1.26360906788507,0.69058896422986,9.59754927423168,-0.04428773,-0.021991149,0.009162978,313.75812,-9.682535,-2.2127447
3613232134000.0,-1.2593422630114566,0.6991225739770868,9.6103495106383,-0.04734206,-0.016493361,0.009468411,313.7563,-9.653596,-2.222665
3613237112000.0,-1.2550075375704677,0.7077920248590653,9.623353505910163,-0.03940081,-0.032375857,0.0076358155,313.74997,-9.628222,-2.221235
3613242200000.0,-1.283101923423423,0.6991703087485076,9.634204589927275,-0.028099801,-0.025961773,0.013133603,313.74008,-9.603741,-2.227113
3613247440000.0,-1.312593177057603,0.687818368827191,9.641562644106314,-0.026572637,-0.021685716,0.02107485,313.73083,-9.579334,-2.2278838
3613252117000.0,-1.3170186976188123,0.6745418071435629,9.623860192174687,-0.023823744,-0.015882496,0.018936822,313.72107,-9.561504,-2.2300568
3613257333000.0,-1.3222113621709124,0.6601877346340632,9.604313082048224,-0.02107485,-0.0143553335,0.01863139,313.71655,-9.540996,-2.234073
3613262163000.0,-1.3300934349322655,0.6523056207207975,9.588549018829344,-0.02321288,0.0012217305,0.025045475,313.7098,-9.520421,-2.24334
3613267110000.0,-1.3381664398909432,0.6442325736133595,9.572403093209507,-0.01985312,0.006414085,0.02565634,313.70084,-9.503688,-2.2508063
3613272125000.0,-1.3672037030699546,0.621808012400604,9.557311137393055,-0.0125227375,0.022907447,0.026267206,313.6888,-9.487898,-2.2653015
3613277135000.0,-1.4058386950176145,0.5928318264318068,9.542823236034224,-0.013744468,0.024129177,0.03848451,313.6739,-9.471073,-2.2760756
3613282137000.0,-1.4237941479621123,0.5906119215154995,9.51921988834673,-0.002443461,0.047036625,0.05009095,313.66006,-9.461412,-2.2949023
3613287169000.0,-1.4330153890642938,0.5998332107615768,9.491555924320703,0.015271631,0.06414085,0.057726767,313.64423,-9.453475,-2.3117678
3613292252000.0,-1.397149826110451,0.6230244475002702,9.47119634356425,0.03359759,0.07238753,0.059864793,313.62564,-9.448696,-2.3360496
3613297170000.0,-1.336068616902626,0.6535650839943802,9.45592625386361,0.03176499,0.07696902,0.056199603,313.6062,-9.443113,-2.3633635
