timestamp,acc_x,acc_y,acc_z,gyro_x,gyro_y,gyro_z,ori_azimuth,ori_pitch,ori_roll
6893190967000.0,0.5603129947809912,9.892781684318775,0.0527023507510876,-1.1658363,0.74372846,0.033292156,306.0218,-7.071139,0.3604259
6893195910000.0,0.5619834362940147,9.891349873605517,0.053418253964773,-1.1658363,0.7528914,0.03604105,305.99585,-7.07305,0.35660514
6893200884000.0,0.5636643539727076,9.889909083298466,0.0541386469619148,-1.1896601,0.7620544,0.032986723,306.57736,-7.57897,-0.031377677
6893205918000.0,0.5653655481010833,9.888450913132464,0.0548677298625202,-1.1942415,0.7528914,0.035124753,307.1091,-8.078746,-0.4073683
6893210961000.0,0.5670697836969113,9.886990135987618,0.0555981162486452,-1.1844677,0.7440339,0.03726278,307.59695,-8.565861,-0.77709997
6893215945000.0,0.5687540807838847,9.88554644903741,0.0563199575630308,-1.1753048,0.7296785,0.030543262,308.04626,-9.043077,-1.1340997
6893220978000.0,0.5704549369714323,9.884088568535724,0.0570488956319119,-1.1630874,0.7657196,0.034513887,308.45178,-9.517009,-1.4935632
6893225997000.0,0.5721510619873873,9.882634743334458,0.0577758060566514,-1.2067643,0.77213365,0.03604105,308.8264,-9.971698,-1.8325136
6893230896000.0,0.5738066341039769,9.881215677851095,0.0584853366744635,-1.207986,0.75777835,0.035430185,309.1662,-10.43705,-2.1672468
6893235903000.0,0.5754987038299954,9.879765328621623,0.0592105091185102,-1.187522,0.71959925,0.029626964,309.47668,-10.891945,-2.488925
6893240960000.0,0.577207670597416,9.878300496176356,0.0599429231487767,-1.1365148,0.8237518,0.05955936,309.74075,-11.352408,-2.8363733
6893245948000.0,0.5788933194477015,9.876855650568883,0.06066534379006,-1.2699889,0.7812967,0.058337633,309.99844,-11.7629175,-3.1261148
6893250934000.0,0.580578292416331,9.87541138429004,0.0613874747678945,-1.2473868,0.7770206,0.064751714,310.21066,-12.230851,-3.4455056
6893256030000.0,0.5823004388760454,9.873935254936455,0.0621255372354124,-1.2556335,0.77304995,0.073303826,310.40082,-12.650251,-3.745093
6893260905000.0,0.5839479004127619,9.872523141396677,0.062831591891839,-1.2547172,0.7593055,0.07788532,310.56815,-13.077624,-4.0328336
6893265872000.0,0.5856264525056586,9.871084378739836,0.0635509710669099,-1.2596041,0.75441855,0.09040806,310.70886,-13.500545,-4.3132243
6893270989000.0,0.5873556957227619,9.869602166435618,0.0642920750006402,-1.2705997,0.74036866,0.09865474,310.83072,-13.92156,-4.579752
6893275950000.0,0.5890322201706902,9.868165141764672,0.0650105851853648,-1.2709051,0.68966687,0.10873401,310.9324,-14.344381,-4.826437
6893280938000.0,0.5907178690209759,9.8667202961572,0.065733005826648,-1.2177598,0.6411031,0.1020145,311.01944,-14.779159,-5.0633316
6893285901000.0,0.5923950693505603,9.865282692157622,0.0664518056748214,-1.1129965,0.5742133,0.098043874,311.09155,-15.229179,-5.2733884
6893290941000.0,0.5940982911239042,9.863822784005729,0.0671817575657732,-0.99173975,0.49480084,0.09162979,311.1556,-15.699194,-5.4608
6893295887000.0,0.5957697464594119,9.86239010429952,0.0678980952746318,-0.8604037,0.42485678,0.08002335,311.21265,-16.202057,-5.6270256
6893300910000.0,0.5974672232386791,9.860935120440992,0.0686255850262689,-0.73945236,0.3747658,0.074830994,311.25513,-16.735796,-5.776483
6893306041000.0,0.599201197627375,9.859448852836351,0.0693687166041407,-0.6081163,0.11453723,0.023518313,311.3258,-17.30801,-5.8486347
6893310958000.0,0.6008628526788694,9.858024573395303,0.0700808541929919,-0.13408493,0.046120327,0.006414085,311.36615,-18.012745,-5.9520864
6893315933000.0,0.6025441082983903,9.856583493423935,0.070801392021858,0.015271631,0.03268129,-0.0021380284,311.42773,-18.66071,-5.99924
6893320966000.0,0.604244964485938,9.85512561292225,0.071530330090739,-0.0036651916,0.051618114,0.0033597588,311.48572,-19.39426,-6.033281
6893326025000.0,0.6059546071350147,9.853660201148353,0.0722630337844543,-0.04886922,0.053145275,0.0009162979,311.544,-20.160444,-6.0571027
6893330950000.0,0.6076189657131335,9.85223360439278,0.0729763300271007,-0.03848451,0.03390302,0.00030543262,311.5939,-20.93516,-6.0763116
6893335900000.0,0.6092917728119533,9.850799766029308,0.0736932470628569,-0.03940081,0.03634648,-0.0012217305,311.63614,-21.69139,-6.098657
6893340895000.0,0.6109797872480353,9.849352892771623,0.0744166815262109,-0.04153884,0.02565634,-0.004886922,311.67688,-22.44761,-6.109387
6893346926000.0,0.6130179083819711,9.847605927282718,0.0752901616560384,-0.044898596,0.020158553,-0.0012217305,311.71,-23.200638,-6.118262
6893350882000.0,0.6143548022977149,9.846460015249203,0.0758631159577458,-0.027794369,0.025045475,-0.015271631,311.74396,-23.955187,-6.126353
6893355959000.0,0.6160705278816964,9.84498938951762,0.0765984266225002,-0.03176499,0.02687807,-0.013439035,311.7693,-24.700216,-6.1268997
6893360885000.0,0.6177352244006432,9.843562503097733,0.077311867696871,-0.038179077,0.018936822,-0.006414085,311.7935,-25.445635,-6.1241913
6893365875000.0,0.6194215491325848,9.842117078161628,0.078034578001603,-0.040317107,0.014049901,-0.007941248,311.81506,-26.187206,-6.1206493
6893370933000.0,0.6211308538408336,9.840651956052044,0.0787671368635939,-0.028099801,0.009468411,-0.009468411,311.83237,-26.92737,-6.1114507
6893376158000.0,0.6228965946673657,9.839138460001712,0.0795238826235588,-0.03848451,0.009773844,-0.003970624,311.84518,-27.65659,-6.098785
6893380967000.0,0.6245217521094313,9.837745464306778,0.0802203783861754,-0.032375857,-0.0027488936,-0.003970624,311.85938,-28.389395,-6.080015
6893385934000.0,0.626200304202328,9.83630670164994,0.0809397575612463,-0.034513887,0.005497787,-0.0033597588,311.86667,-29.112608,-6.0631785
6893390900000.0,0.6278785183543966,9.834868228657411,0.0816589919045929,-0.046120327,0.0018325958,-0.002443461,311.8751,-29.830166,-6.0377574
6893395892000.0,0.6295655189679943,9.833422224392676,0.0823819918727737,-0.034208454,-0.008246681,-0.01160644,311.88373,-30.548582,-6.011855
6893400937000.0,0.6312704304454784,9.831960867919202,0.0831126679223475,-0.03145956,0.007941248,-0.004581489,311.88303,-31.25665,-5.9867506
6893405984000.0,0.6329760178046187,9.830498932117091,0.08384363363537,-0.0421497,-0.0027488936,0.0033597588,311.88846,-31.958769,-5.951646
6893410997000.0,0.6346701151756053,9.829046844901724,0.0845696750697632,-0.03756821,-0.007941248,-0.005497787,311.89166,-32.660248,-5.9212613
6893415892000.0,0.6363243355288828,9.827628938075623,0.0852786263606777,-0.034513887,-0.004276057,-0.00061086525,311.8888,-33.35349,-5.8851185
6893420992000.0,0.6380478337519093,9.826151650064777,0.0860172681550932,-0.032986723,-0.006414085,-0.008246681,311.89194,-34.041157,-5.8478694
6893425936000.0,0.639718613205761,9.824719549687202,0.086733316200503,-0.03481932,-0.008857546,-0.0061086523,311.8903,-34.72342,-5.8073187
6893430999000.0,0.6414296076181498,9.82325297925604,0.0874665992211159,-0.031154128,-0.0070249503,0.004276057,311.8876,-35.40173,-5.765446
6893440885000.0,0.644770490644197,9.82038935782952,0.0888984056484869,-0.042760566,-0.005497787,-0.004581489,311.88895,-36.068485,-5.724212
6893445874000.0,0.6464564774353107,9.818944222557732,0.0896209711214945,-0.039095376,-0.004276057,0.0012217305,311.8839,-36.7353,-5.6776304
6893450916000.0,0.6481603750903105,9.817483735077204,0.0903512126758951,-0.029321533,-0.006414085,-0.00580322,311.88406,-37.393494,-5.632936
6893455915000.0,0.6498497412897046,9.816035703162257,0.0910752264661467,-0.029321533,-0.010995574,-0.0125227375,311.883,-38.043766,-5.585636
6893460915000.0,0.6515394454299267,9.814587381582992,0.0917993850881227,-0.035430185,-0.00061086525,-0.0070249503,311.87848,-38.68875,-5.5390387
6893466052000.0,0.6532754474635909,9.813099375992458,0.0925433856563409,-0.020158553,-0.004581489,-0.0036651916,311.87955,-39.332905,-5.488626
6893470968000.0,0.6549367645742573,9.811675386215729,0.0932553784134676,-0.021685716,0.0015271631,-0.0036651916,311.87665,-39.96397,-5.4412684
6893476100000.0,0.6566710769037813,9.810188828946773,0.0939986548230638,-0.028099801,-0.0021380284,-0.0018325958,311.8755,-40.591373,-5.38894
6893480933000.0,0.65830434492572,9.808788881308256,0.0946986265470658,-0.029321533,-0.0036651916,-0.004886922,311.87427,-41.21281,-5.3383837
6893486765000.0,0.660275215834875,9.807099559018203,0.0955432851637386,-0.028099801,-0.0036651916,-0.008246681,311.8736,-41.826294,-5.286245
6893490897000.0,0.6586943477118942,9.807021540173425,0.096139596750639,-0.026572637,-0.01038471,-0.009162978,311.87524,-42.43258,-5.2317195
6893495909000.0,0.654604415282442,9.807743307363038,0.0968613495204851,-0.017104227,-0.013133603,-0.0009162979,311.87555,-43.03471,-5.176204
6893501045000.0,0.6504132953786778,9.80848293152223,0.0976009589031527,-0.023518313,-0.013133603,-0.0009162979,311.87518,-43.630814,-5.1065392
6893505819000.0,0.6465175776176633,9.809170424850883,0.0982884384967771,-0.027794369,-0.009468411,0.0076358155,311.87225,-44.22377,-5.0334864
6893510813000.0,0.6424423336925468,9.809889599899751,0.0990075991776652,-0.021380283,-0.013744468,0.004581489,311.87448,-44.810505,-4.9609647
6893515797000.0,0.6383752500476166,9.810607334870433,0.0997253198091323,-0.026572637,-0.025350908,-0.006414085,311.8785,-45.385677,-4.887564
6893520862000.0,0.6342420681331763,9.811336734474462,0.1004547048409102,-0.016187929,-0.025045475,0.00030543262,311.8793,-45.960514,-4.812677
6893525801000.0,0.6302117057490852,9.812047989093278,0.1011659452499824,-0.022296581,-0.025350908,0.008246681,311.88586,-46.52178,-4.737332
6893530793000.0,0.626138093880006,9.81276687612651,0.1018848179209864,-0.018020526,-0.018936822,0.00580322,311.893,-47.081722,-4.6641946
6893535786000.0,0.6220636659829081,9.81348590716756,0.1026038345969324,-0.02565634,-0.02565634,0.009773844,311.90155,-47.62992,-4.5855875
6893540821000.0,0.6179549649090271,9.814210986537017,0.1033288994804471,-0.022296581,-0.025961773,0.0036651916,311.9112,-48.17493,-4.512272
6893545797000.0,0.6138944094882463,9.81492756944514,0.1040454680723773,-0.02565634,-0.028405234,0.003970624,311.92215,-48.709133,-4.4352865
6893550795000.0,0.6098159014510551,9.815647320525288,0.1047652047730339,-0.02321288,-0.03268129,0.004581489,311.93613,-49.23867,-4.3594093
6893555922000.0,0.6056321257994587,9.816385648614103,0.1055035181112225,-0.023518313,-0.032070424,0.0030543262,311.95135,-49.75936,-4.2847075
6893560855000.0,0.6016066595834795,9.817096039186003,0.106213894490642,-0.018936822,-0.032986723,-0.0018325958,311.96982,-50.27503,-4.2099075
6893565835000.0,0.597542840050624,9.817813198125409,0.1069310391023407,-0.019242255,-0.040011674,-0.0036651916,311.9907,-50.782234,-4.1342144
6893570885000.0,0.5934218985564633,9.81854043761215,0.1076582640599869,-0.021685716,-0.038179077,0.0027488936,312.01062,-51.283237,-4.059655
6893575941000.0,0.5892960608941907,9.819268541145806,0.1083863530472858,-0.021685716,-0.04550946,0.002443461,312.03717,-51.77759,-3.9846358
6893580844000.0,0.585295075518771,9.819974611483133,0.1090924092784421,-0.018325957,-0.03481932,0.01038471,312.0581,-52.265713,-3.9103847
6893585835000.0,0.5812222796777105,9.820693354508546,0.109811137944504,-0.02443461,-0.043676864,-0.00030543262,312.08987,-52.74363,-3.836376
6893590875000.0,0.5771094984637362,9.821419153917097,0.1105369228527291,-0.0106901415,-0.04795292,0.0015271631,312.1161,-53.221905,-3.7610393
6893595845000.0,0.5730538392110671,9.822134872778308,0.1112526274150067,-0.018020526,-0.057726767,0.004886922,312.14862,-53.68532,-3.686049
6893600885000.0,0.5689410579970928,9.822860672186858,0.1119784123232319,-0.02107485,-0.053145275,0.00061086525,312.18118,-54.146843,-3.614857
6893605941000.0,0.5648152203348203,9.823588775720514,0.1127065013105308,-0.018020526,-0.051923547,-0.0018325958,312.21732,-54.60141,-3.5410955
6893610912000.0,0.5607587450541326,9.824304638589544,0.1134223498777504,-0.01740966,-0.06078109,0.004276057,312.25543,-55.04783,-3.4662693
6893615873000.0,0.5567104300536314,9.82501906138038,0.1141367583955491,-0.017715093,-0.06261369,0.0076358155,312.29385,-55.488018,-3.394864
6893620979000.0,0.5525437909904265,9.825754365304997,0.1148720476299533,-0.016798794,-0.056199603,0.006414085,312.3335,-55.92215,-3.3239038
6893626115000.0,0.5483526710866623,9.826493989464186,0.1156116570126209,-0.023823744,-0.059253927,0.0036651916,312.37683,-56.34742,-3.25166
6893631032000.0,0.5443402613189815,9.827202075910982,0.1163197293129667,-0.028099801,-0.062308256,-0.0030543262,312.4208,-56.76706,-3.1826487
6893635869000.0,0.5403931337927923,9.827898641732244,0.1170162812179439,-0.01740966,-0.06688975,0.0033597588,312.46555,-57.182827,-3.1113975
6893640904000.0,0.5362844327189114,9.8286237211017,0.1177413461014585,-0.025045475,-0.06352998,0.007941248,312.51166,-57.585567,-3.0439136
6893645882000.0,0.5322222452420932,9.829340592025462,0.118458202703273,-0.019547688,-0.061086524,0.0033597588,312.56076,-57.988678,-2.9772735
6893650885000.0,0.5281396570648088,9.830061063144704,0.1191786594286401,-0.01863139,-0.06047566,0.004276057,312.60916,-58.38234,-2.909456
6893655938000.0,0.5240162674865921,9.830788734654904,0.1199063164011127,-0.029321533,-0.069027774,0.004581489,312.6612,-58.767918,-2.8429244
6893660930000.0,0.519942655617513,9.831507621688136,0.1206251890721167,-0.023823744,-0.06811147,0.008246681,312.7113,-59.15234,-2.777876
6893665876000.0,0.5159065810372914,9.832219884361686,0.1213374375157836,-0.02321288,-0.067500606,0.005192355,312.76563,-59.52611,-2.7141643
6893671834000.0,0.5110446861022004,9.833077882948222,0.1221954189608641,-0.018020526,-0.06291912,0.004886922,312.81894,-59.89695,-2.6506543
6893676106000.0,0.507558614406546,9.833693084351662,0.1228106080735502,-0.021991149,-0.07422013,0.00061086525,312.8781,-60.259228,-2.5877917
6893680887000.0,0.5036571844494011,9.83438158573505,0.1234990957017693,-0.02076942,-0.06963864,0.0036651916,312.93228,-60.61878,-2.5271456
6893685872000.0,0.4995892847764523,9.835099464713547,0.1242169603381785,-0.023518313,-0.07727446,0.0021380284,312.9946,-60.970028,-2.4664938
6893690904000.0,0.5003360483619709,9.835820136898995,0.1309392589287115,-0.01282817,-0.070554934,-0.0030543262,313.05298,-61.319855,-2.409819
6893695920000.0,0.5041540416618234,9.836535999975162,0.1414387379493216,-0.01985312,-0.06536258,-0.0015271631,313.11414,-61.658203,-2.351551
6893700884000.0,0.5079324544888704,9.837244441823266,0.1518293706961934,-0.021380283,-0.0693332,0.0070249503,313.16998,-62.001495,-2.3075867
6893705946000.0,0.5117854612838969,9.83796686983195,0.1624251368051105,-0.01740966,-0.07147124,-0.0009162979,313.2273,-62.338158,-2.2690473
6893710906000.0,0.5155608294591896,9.838674740816357,0.1728073967616947,-0.012217305,-0.065973446,-0.0027488936,313.28284,-62.66935,-2.2280467
6893715878000.0,0.5193453315897452,9.839384324391856,0.1832147750891415,-0.008857546,-0.070249505,0.002443461,313.34265,-62.995445,-2.1864626
6893720994000.0,0.5232394411834543,9.84011445906045,0.1939235738669408,-0.015882496,-0.0693332,0.004276057,313.4015,-63.314323,-2.148292
6893726017000.0,0.5270627626238767,9.840831321148086,0.2044377052705542,-0.01038471,-0.06414085,-0.0030543262,313.46194,-63.632095,-2.1118822
6893730881000.0,0.5307650591570671,9.841525491403765,0.2146190182602367,-0.0070249503,-0.064751714,0.0009162979,313.523,-63.94215,-2.072224
6893735875000.0,0.534566306872271,9.842238214729594,0.2250724469342652,-0.013133603,-0.063224554,0.0076358155,313.58377,-64.24559,-2.0353634
6893741856000.0,0.5391188224078407,9.843091798672686,0.237591861611751,-0.01160644,-0.06352998,-0.0106901415,313.64874,-64.546364,-2.0043862
6893745961000.0,0.5422433962706585,9.843677647541838,0.2461844376443676,-0.011911872,-0.062308256,0.0018325958,313.70926,-64.84055,-1.9648209
6893750883000.0,0.5459898402542858,9.844380095321124,0.2564871560932198,-0.0106901415,-0.06261369,-0.004276057,313.77567,-65.12965,-1.9352801
6893755900000.0,0.5498085947170768,9.845096101113214,0.2669887283114018,-0.008857546,-0.051618114,-0.0067195175,313.8377,-65.414154,-1.9037617
6893760893000.0,0.5536090812693422,9.845808681723122,0.2774400637878584,-0.0030543262,-0.047647487,0.0021380284,313.90192,-65.6953,-1.8706995
6893771115000.0,0.5613896888273748,9.847267523901069,0.2988367293677381,0.004581489,-0.059253927,-0.004276057,313.97025,-65.9722,-1.8423908
6893775952000.0,0.5650714339612238,9.847957840826789,0.3089615260229795,0.00030543262,-0.058337633,0.0021380284,314.0325,-66.24298,-1.8110204
6893780955000.0,0.5688795321428749,9.84867184859594,0.3194337934751551,0.002443461,-0.053145275,0.0021380284,314.09897,-66.51267,-1.782839
6893785878000.0,0.5726267372894407,9.849374439091148,0.3297386051215792,-0.0018325958,-0.04428773,0.009773844,314.16336,-66.774925,-1.7521721
6893790903000.0,0.5764515810557402,9.850091586610633,0.3402569229203364,0.0061086523,-0.03940081,0.009773844,314.22903,-67.03644,-1.7243414
6893795885000.0,0.5802436948156814,9.850802597345377,0.3506852332235021,0.0070249503,-0.04642576,-0.0009162979,314.29657,-67.29011,-1.6976749
6893800873000.0,0.5840403755532539,9.85151446437566,0.3611261027120993,-0.013439035,-0.04184427,0.004581489,314.35864,-67.53576,-1.6692287
6893805912000.0,0.5878758756006935,9.852233609918086,0.3716737252768629,-0.0012217305,-0.03390302,-0.0027488936,314.42493,-67.78604,-1.6472247
6893810916000.0,0.5916847349452832,9.85294776040316,0.3821480859266103,0.007330383,-0.034208454,0.0012217305,314.49097,-68.02552,-1.6210063
6893815879000.0,0.5954623866093915,9.85365605953534,0.3925366254759101,0.0018325958,-0.03145956,0.006414085,314.55536,-68.26007,-1.5981572
6893820974000.0,0.5993405117813908,9.854383197169524,0.4032014671046997,0.005192355,-0.032375857,0.005192355,314.62167,-68.49529,-1.5761316
6893825958000.0,0.6031341478672092,9.855094493336114,0.4136339638030092,0.01282817,-0.022296581,0.016798794,314.68304,-68.7264,-1.5513355
6893830941000.0,0.6069270227900889,9.85580564678678,0.4240643673037469,0.014049901,-0.028405234,0.014660766,314.75107,-68.952225,-1.5293466
6893835908000.0,0.6107077191059516,9.856514516782656,0.4344612796433343,0.008552114,-0.020463986,0.01282817,314.812,-69.17448,-1.5072756
6893840972000.0,0.6145622482268552,9.85723723022319,0.4450612321473952,0.0067195175,-0.025350908,-0.0012217305,314.88,-69.393814,-1.4877346
6893845956000.0,0.6183558843126736,9.857948526389778,0.4554937288457048,-0.004276057,-0.025350908,-0.0009162979,314.9438,-69.605316,-1.4667127
6893850939000.0,0.6221487592355534,9.858659679840445,0.4659241323464425,-0.003970624,-0.019242255,0.0070249503,315.00836,-69.815544,-1.4480348
6893855942000.0,0.6259568574172044,9.859373687609594,0.476396399798618,0.0027488936,-0.01985312,0.01038471,315.07565,-70.020676,-1.4303372
6893865920000.0,0.6335517412182268,9.860797707102018,0.497282325170956,-0.0021380284,-0.024129177,0.00580322,315.1427,-70.21892,-1.4134189
6893871099000.0,0.6374938040770657,9.86153683287384,0.5081229953957845,0.003970624,-0.016493361,0.006414085,315.2063,-70.41876,-1.3958224
6893875946000.0,0.6411831608403002,9.862228576958804,0.5182687240267448,-0.0067195175,-0.020463986,0.0030543262,315.27542,-70.60869,-1.3795257
6893880864000.0,0.6449265601721732,9.862930453874393,0.5285630696853095,-0.004886922,-0.016187929,0.00061086525,315.34048,-70.80045,-1.3648213
6893885937000.0,0.648787939759524,9.863654451758242,0.5391818609675175,-0.004581489,-0.0143553335,0.0018325958,315.40762,-70.985344,-1.349907
6893890939000.0,0.6512229,9.864541346640614,0.5437262651792221,-0.003970624,-0.009773844,0.00580322,315.47318,-71.16753,-1.3360003
6893895964000.0,0.6512229,9.865740732036668,0.5377293336903652,0.0015271631,-0.011911872,0.004886922,315.5407,-71.3478,-1.323086
6893900938000.0,0.6512229,9.866927944566012,0.5317932665807982,0.0018325958,-0.01038471,0.0012217305,315.62115,-71.48594,-1.2857699
6893906018000.0,0.6512229,9.868140457563417,0.5257306970358444,-0.00061086525,-0.010995574,0.005192355,315.70187,-71.62225,-1.2475437
6893910896000.0,0.6512229,9.869304756461316,0.5199091981696466,-0.002443461,-0.007941248,0.0012217305,315.78198,-71.755905,-1.2142012
6893916138000.0,0.6512229,9.870555936211789,0.5136532947140072,-0.0030543262,-0.014660766,0.004276057,315.8637,-71.886795,-1.1781782
6893920992000.0,0.6512229,9.871714506701824,0.5078604379086518,0.002443461,-0.010995574,0.01160644,315.9415,-72.01636,-1.1444365
6893925910000.0,0.6512229,9.87288835294616,0.5019912022743835,-0.00030543262,-0.012217305,0.008857546,316.02295,-72.1408,-1.1126547
6893930889000.0,0.6512229,9.874076758893812,0.4960491680688077,-0.0027488936,-0.0143553335,0.009468411,316.10257,-72.26466,-1.0792935
6893935878000.0,0.6512229,9.875267551678071,0.4900951996712143,-0.0030543262,-0.0070249503,0.012217305,316.1799,-72.38595,-1.0478505
6893940901000.0,0.6512229,9.876466459706805,0.4841006550207609,0.004581489,-0.008246681,0.0106901415,316.2603,-72.506424,-1.017499
6893945958000.0,0.6512229,9.877673482980006,0.4780655341174477,0.0027488936,-0.004581489,0.0061086523,316.33728,-72.621864,-0.98926544
6893950987000.0,0.6512229,9.878873823110704,0.4720638289517837,-0.009773844,-0.01282817,0.0018325958,316.4178,-72.73414,-0.96120626
6893955957000.0,0.6512229,9.880060080905404,0.4661325355190238,-0.0061086523,-0.013439035,0.015577064,316.49393,-72.84854,-0.9313269
6893960964000.0,0.6512229,9.881255169995564,0.4601570855757986,0.0015271631,-0.004581489,0.016798794,316.57098,-72.95812,-0.9069982
6893965947000.0,0.6512229,9.88244453067786,0.4542102776934158,0.0018325958,-0.013133603,0.0067195175,316.6526,-73.064674,-0.8814364
6893971021000.0,0.6512229,9.883655611573296,0.4481548686636725,0.0015271631,-0.006414085,0.01282817,316.72592,-73.171425,-0.85396916
6893976193000.0,0.6512229,9.884890083467502,0.4419825045521566,0.0027488936,-0.0070249503,0.007330383,316.80527,-73.27636,-0.83196664
6893980933000.0,0.6512229,9.886021444020198,0.436325697535802,0.0027488936,-0.01985312,0.0027488936,316.8853,-73.37898,-0.80841726
6893985953000.0,0.6512229,9.887219635997946,0.4303347331429539,0.008552114,-0.024129177,0.0021380284,316.96313,-73.48166,-0.7867054
6893990996000.0,0.6512229,9.888423317699894,0.4243163201084654,-0.0012217305,-0.022296581,0.009773844,317.04224,-73.57802,-0.7641825
6893996895000.0,0.6512229,9.88983131261558,0.417276340237268,0.015882496,-0.02443461,0.009162978,317.1241,-73.68172,-0.7441666
6894001020000.0,0.6512229,9.89081588271682,0.4123534860299974,0.008246681,-0.020158553,0.013133603,317.2025,-73.7739,-0.72220576
6894005832000.0,0.6512229,9.8919644284931,0.406610752831116,0.008552114,-0.021991149,0.011301007,317.28342,-73.8713,-0.70208585
6894010779000.0,0.6512229,9.8931451965636,0.4007069080399966,0.009162978,-0.032070424,0.008246681,317.36496,-73.96486,-0.681628
6894015771000.0,0.6512229,9.894336705398844,0.3947493593847979,0.007941248,-0.027794369,0.0125227375,317.44238,-74.05631,-0.66134596
6894020807000.0,0.6512229,9.895538716315167,0.3887393002847216,0.006414085,-0.020158553,0.007941248,317.5223,-74.14597,-0.64450175
6894025788000.0,0.6512229,9.89672759963014,0.3827948792407423,0.0027488936,-0.02443461,-0.002443461,317.60416,-74.232994,-0.62816626
6894030769000.0,0.6512229,9.897916482945114,0.376850458196763,0.0009162979,-0.020158553,0.0027488936,317.68042,-74.31858,-0.6106817
6894035769000.0,0.6512229,9.899109901249645,0.3708833621879501,0.008246681,-0.015577064,0.0036651916,317.75864,-74.404,-0.5974832
6894040781000.0,0.6512229,9.900306183758106,0.3649019451487162,0.012217305,-0.015577064,0.0027488936,317.8364,-74.486435,-0.58389556
6894045776000.0,0.6512229,9.901498408644333,0.3589408162359122,0.0067195175,-0.018325957,0.01160644,317.91257,-74.56682,-0.5680402
6894050931000.0,0.6512229,9.902728822916302,0.3527887402508262,0.015577064,-0.023518313,0.0076358155,317.99017,-74.65076,-0.5563156
6894055953000.0,0.6512229,9.903927492261372,0.3467953890195746,0.005497787,-0.013439035,0.014049901,318.0626,-74.726425,-0.5407797
6894060923000.0,0.6512229,9.905113750056076,0.3408640955868146,0.0030543262,-0.013744468,0.0070249503,318.14032,-74.80512,-0.5294138
6894066853000.0,0.6512229,9.90652914416525,0.3337871197203627,0.002443461,-0.009162978,0.0015271631,318.213,-74.880135,-0.5175031
6894071980000.0,0.6512229,9.907752875294715,0.327668459472926,-0.0067195175,-0.007330383,-0.0012217305,318.2866,-74.950554,-0.5070286
6894076098000.0,0.6512229,9.908735774610326,0.3227539592000678,-0.0015271631,-0.0070249503,-0.004886922,318.35953,-75.02353,-0.4989703
6894085879000.0,0.6512229,9.911070339497648,0.3110811259876281,-0.004276057,0.0033597588,-0.0067195175,318.42892,-75.09032,-0.4924371
6894090908000.0,0.6528862148035368,9.911052453121004,0.3064023762021624,-0.012217305,0.0015271631,-0.0070249503,318.5015,-75.15582,-0.48597032
6894095898000.0,0.6600723107945745,9.906980324180587,0.3061628397941885,-0.014049901,0.002443461,-0.005192355,318.57013,-75.22105,-0.48069894
6894100872000.0,0.6672353651952603,9.902921252166632,0.3059240714388255,-0.008857546,0.0036651916,-0.009773844,318.63986,-75.317665,-0.46930066
6894110897000.0,0.6816723616502008,9.894740271680124,0.3054428384749101,-0.020158553,0.003970624,0.01038471,318.70737,-75.407425,-0.45115057
6894115877000.0,0.6888440566472686,9.890676303318749,0.305203782099818,-0.020158553,0.009468411,-0.0015271631,318.7754,-75.499725,-0.4442161
6894121018000.0,0.6962476076472535,9.886480949634842,0.3049569971953303,-0.023518313,0.004581489,0.012217305,318.84256,-75.58647,-0.424536
6894125891000.0,0.7032652120088421,9.88250429946918,0.3047230771720726,-0.021685716,0.016187929,-0.0009162979,318.90613,-75.67266,-0.41772953
6894130907000.0,0.7104887505842018,9.878410953023264,0.3044822926786063,-0.025350908,0.01985312,0.007941248,318.97043,-75.75498,-0.4006861
6894136685000.0,0.7188096449000767,9.873695770454578,0.3042049296795537,-0.025961773,0.02443461,0.014660766,319.0321,-75.83696,-0.38924015
6894140899000.0,0.7248782237590412,9.87025690244758,0.3040026438232006,-0.032986723,0.016493361,0.01740966,319.09564,-75.91454,-0.37631202
6894145875000.0,0.732044158358521,9.86619619831782,0.3037637794612612,-0.027794369,0.03573562,0.009468411,319.1504,-75.9939,-0.36721057
6894150871000.0,0.7392388949459407,9.86211917302998,0.3035239550335584,-0.033292156,0.03634648,0.004581489,319.21182,-76.06676,-0.35517728
6894155918000.0,0.7465070766026075,9.85800052878904,0.3032816824381588,-0.043676864,0.026572637,0.0067195175,319.27066,-76.13826,-0.3444314
6894160941000.0,0.7537406958737463,9.853901469937794,0.3030405619216753,-0.0421497,0.023518313,0.01282817,319.3273,-76.210205,-0.33483148
6894165875000.0,0.760846146298552,9.849875040239995,0.3028037136978391,-0.03970624,0.025350908,0.0125227375,319.38535,-76.27811,-0.32648137
6894170954000.0,0.7681604111359228,9.845730282146132,0.3025599049972181,-0.046731193,0.026572637,0.0076358155,319.44403,-76.34247,-0.317882
6894176084000.0,0.7755481210425408,9.84154390509917,0.3023136481289003,-0.03726278,0.021991149,0.007330383,319.50323,-76.41102,-0.3082359
6894181180000.0,0.7828868675696606,9.837385274020942,0.3020690233723803,-0.04337143,0.01740966,0.0067195175,319.5622,-76.47187,-0.30048865
6894185875000.0,0.7896481342385829,9.833553882162173,0.301843647934417,-0.05131268,0.010995574,0.00061086525,319.62302,-76.53363,-0.2942953
6894190912000.0,0.7969019149012797,9.829443398500272,0.3016018553718991,-0.04795292,0.018020526,-0.008552114,319.68134,-76.5957,-0.2900691
6894195885000.0,0.8040635292025684,9.825385142544222,0.3013631350198242,-0.0421497,0.022296581,-0.0033597588,319.7413,-76.655174,-0.28325763
6894200882000.0,0.8112597058893851,9.821307301198477,0.3011232625888332,-0.049785517,0.01863139,-0.0021380284,319.8021,-76.71058,-0.2803035
6894205881000.0,0.818458762774996,9.817227827736923,0.3008832941512659,-0.035430185,0.029321533,-0.0030543262,319.85718,-76.77287,-0.27798462
6894210948000.0,0.8257557464196028,9.813092862337909,0.3006400614901029,-0.045814894,0.024129177,-0.004581489,319.91736,-76.82487,-0.27448586
6894215883000.0,0.8328626369438054,9.809065616582206,0.3004031652629785,-0.042455133,0.023823744,-0.0021380284,319.97272,-76.88384,-0.2713866
6894221004000.0,0.8402373859558503,9.80488658405638,0.3001573404242543,-0.0421497,0.023518313,-0.007330383,320.02982,-76.93789,-0.2707394
6894230947000.0,0.8545562942602367,9.79677252031799,0.299680043729969,-0.051923547,0.027488936,0.005192355,320.0842,-76.98911,-0.26495937
6894235876000.0,0.8616545441880573,9.79275017090971,0.2994434355225736,-0.054061573,0.03573562,0.0070249503,320.13818,-77.04154,-0.26405942
6894240909000.0,0.8689025644531662,9.788642951479426,0.2992018349732084,-0.040927973,0.04184427,0.005192355,320.1908,-77.09467,-0.2610473
6894245884000.0,0.8760670589532489,9.784583063407569,0.2989630186145571,-0.04062254,0.046120327,0.014660766,320.24048,-77.14271,-0.25501445
6894250877000.0,0.8832574752424776,9.78050848629344,0.2987233381967188,-0.046120327,0.036957346,0.016187929,320.2926,-77.19182,-0.25145763
6894255980000.0,0.8906063024653765,9.77634414280988,0.2984783774171817,-0.04886922,0.03756821,0.018936822,320.33987,-77.24093,-0.24605143
6894260892000.0,0.8976800707034481,9.772335666385969,0.2982425852656852,-0.054061573,0.039095376,0.016798794,320.38937,-77.28685,-0.24132663
6894266039000.0,0.905092262299815,9.76813541635464,0.2979955123414685,-0.051618114,0.04062254,0.016187929,320.43817,-77.33335,-0.23570703
6894270976000.0,0.9122020330228118,9.76410653848313,0.2977585201077678,-0.051618114,0.034208454,0.018936822,320.4884,-77.37686,-0.22958717
6894276297000.0,0.919864801914257,9.759764294376524,0.2975030946114093,-0.039095376,0.041233405,0.024129177,320.53406,-77.42387,-0.22411445
6894280906000.0,0.926502220035037,9.756003083497491,0.2972818474562287,-0.032986723,0.03940081,0.032986723,320.58328,-77.46827,-0.21615376
6894285875000.0,0.9336580739387378,9.751948091773055,0.2970433191173065,-0.038179077,0.032070424,0.040011674,320.63162,-77.512184,-0.20760576
6894290902000.0,0.9349677865540046,9.749347192676291,0.2984629148006503,-0.039095376,0.022602014,0.043066,320.6805,-77.55823,-0.19775997
6894295941000.0,0.9240715966971572,9.749831477546186,0.3033056656514867,-0.03726278,0.025350908,0.038789943,320.72778,-77.602745,-0.18865015
6894300946000.0,0.9132489274704212,9.75031249476663,0.3081157406680448,-0.03023783,0.024740042,0.04153884,320.78296,-77.65569,-0.13662611
6894305991000.0,0.9023397633847304,9.750797356280543,0.3129642578425774,-0.028405234,0.020463986,0.048258353,320.83762,-77.70645,-0.08605187
6894311073000.0,0.8913505915545064,9.751285773765918,0.3178483340132365,-0.027488936,0.014660766,0.049480084,320.89227,-77.75768,-0.037511397
6894315932000.0,0.8808436285629561,9.751752759315195,0.3225180951531877,-0.025350908,-0.00030543262,0.058643065,320.949,-77.808556,0.014544888
6894321010000.0,0.8698631062186274,9.752240792371223,0.3273983271080493,-0.027794369,0.003970624,0.052839845,321.00208,-77.857185,0.060558174
6894325958000.0,0.8591636921659024,9.752716331473472,0.3321536220494937,-0.03604105,0.004581489,0.0580322,321.05835,-77.90358,0.11196223
6894330941000.0,0.8483885951115917,9.753195234332509,0.3369425538791659,-0.03176499,0.0027488936,0.051923547,321.11444,-77.9518,0.15717138
6894335899000.0,0.8376675573441279,9.753671734508124,0.3417074593601039,-0.03481932,0.008857546,0.046120327,321.16708,-77.99452,0.20212449
6894340964000.0,0.8267151458289597,9.754158518168772,0.3465751976136238,-0.027794369,0.005497787,0.04153884,321.2225,-78.04039,0.24517892
6894345946000.0,0.815942211146123,9.75463732492047,0.3513631683893466,-0.021380283,0.00580322,0.032986723,321.2751,-78.08432,0.28378695
6894350942000.0,0.805139003262652,9.755117477174885,0.3561645939203605,-0.021380283,-0.00030543262,0.031154128,321.32968,-78.12747,0.32249758
6894356003000.0,0.7941952412333793,9.755603876406186,0.3610284879580828,-0.01985312,-0.0067195175,0.007941248,321.3854,-78.17222,0.35182527
6894360926000.0,0.783549886467501,9.756077012825015,0.3657597565507933,-0.010995574,-0.017715093,0.0027488936,321.44254,-78.21803,0.38535023
6894365937000.0,0.7727142430119218,9.75655860668948,0.3705755978910475,-0.019547688,-0.034208454,-0.002443461,321.50375,-78.25866,0.4122345
6894371011000.0,0.7617423701534888,9.75704625531616,0.3754519856301117,-0.01038471,-0.04550946,-0.0067195175,321.5662,-78.30605,0.43744716
6894375954000.0,0.7510537679581331,9.757521313881725,0.3802024753018093,-0.012217305,-0.054367006,-0.0067195175,321.63193,-78.34709,0.4624413
6894381116000.0,0.7398916064099992,9.758017419954038,0.3851634357884174,-0.0106901415,-0.06841691,-0.023518313,321.7028,-78.391136,0.4817099
6894385932000.0,0.7294776253918254,9.758480272887835,0.389791871608546,-0.0018325958,-0.076052725,-0.0125227375,321.77197,-78.435646,0.5081522
6894391925000.0,0.7165185331489027,9.75905624415699,0.395551467927074,-0.014660766,-0.092240654,-0.016493361,321.84857,-78.474014,0.5263025
6894395880000.0,0.7079663539697338,9.759436348673844,0.3993524362968018,-0.0036651916,-0.09254608,-0.018325957,321.92133,-78.52078,0.54692537
6894400871000.0,0.6971739579436322,9.759916020391572,0.4041490565580688,-0.004581489,-0.099265605,-0.013133603,321.99942,-78.55974,0.56898457
6894405948000.0,0.6861955979707774,9.760403957340264,0.409028327458981,-0.01985312,-0.11789699,-0.018020526,322.08078,-78.59717,0.58768994
6894410890000.0,0.6755091581468957,9.760878919798492,0.4137778560767293,-0.02321288,-0.12644911,-0.017715093,322.1598,-78.63687,0.6084003
6894415884000.0,0.6647102750063725,9.761358879838232,0.4185773594998445,-0.03023783,-0.12308934,-0.017104227,322.24005,-78.67064,0.6275191
6894421141000.0,0.6533426881682205,9.761864116107535,0.4236296201116418,-0.039095376,-0.12492194,-0.01863139,322.32336,-78.702385,0.6461923
6894426186000.0,0.6424335240825297,9.762348977621452,0.4284781372861744,-0.053450707,-0.13439035,-0.013439035,322.4066,-78.72991,0.6665032
6894430883000.0,0.6322768652697468,9.762800393782175,0.432992207686329,-0.058948494,-0.12950343,-0.009162978,322.48553,-78.757034,0.684794
6894435876000.0,0.6214801445006974,9.76328025771458,0.4377907500554948,-0.0693332,-0.13041973,-0.003970624,322.56747,-78.778206,0.7050077
6894440912000.0,0.6105904417582716,9.76376425426246,0.4426306177444831,-0.08368854,-0.13408493,0.0030543262,322.6476,-78.79624,0.7261778
6894445892000.0,0.5998218318183826,9.764242868799483,0.4474166664123072,-0.09865474,-0.13622294,0.004886922,322.72665,-78.81088,0.7466598
6894450871000.0,0.5890553842499675,9.764721387229176,0.4522017540261819,-0.106595986,-0.12889257,0.0009162979,322.8031,-78.823265,0.76650155
6894455944000.0,0.5780856737630082,9.765208939748517,0.4570771807112966,-0.105068825,-0.14080444,-0.00061086525,322.8844,-78.83392,0.7880732
6894460920000.0,0.5673257133090147,9.765687169856196,0.4618593851633232,-0.10903945,-0.14446963,0.004276057,322.96027,-78.840675,0.8088748
6894465942000.0,0.556466283767223,9.766169820901364,0.4666857980970206,-0.10751228,-0.13164146,-0.0033597588,323.03476,-78.84971,0.82488304
6894471073000.0,0.5453711557347791,9.766662947646235,0.4716169659111983,-0.11178834,-0.14080444,-0.0012217305,323.11472,-78.85567,0.8458181
6894475908000.0,0.5349160896586018,9.767127626619434,0.4762636617563648,-0.1151481,-0.15577064,-0.0070249503,323.19272,-78.86265,0.8614592
6894480951000.0,0.5240112503158587,9.767612295918674,0.4811102568229987,-0.10048734,-0.16829337,-0.013439035,323.27164,-78.87355,0.87735504
6894485882000.0,0.5133485965781894,9.768086201196198,0.485849213847304,-0.084910266,-0.16676621,-0.01740966,323.3501,-78.8839,0.8918401
6894490916000.0,0.5080237943430389,9.770381736619685,0.487624305550159,-0.07727446,-0.18234327,-0.021685716,323.4363,-78.89629,0.9055568
6894495896000.0,0.5089790062940691,9.774680173692513,0.4859526860073104,-0.07452556,-0.16432275,-0.021991149,323.51172,-78.91162,0.9168638
6894500871000.0,0.5099332591969556,9.778974295065469,0.4842827447973362,-0.07238753,-0.17195857,-0.022602014,323.59424,-78.92229,0.8895381
6894505942000.0,0.5109059258241995,9.783351277875973,0.4825805795961745,-0.057421334,-0.18203785,-0.032070424,323.67197,-78.93761,0.85906494
6894510941000.0,0.5118647821581754,9.787666114608315,0.4809025823884035,-0.046120327,-0.18845193,-0.027183503,323.74915,-78.95214,0.8329265
6894515875000.0,0.5128111708662845,9.79192484724232,0.4792464035079989,-0.0421497,-0.19639318,-0.028710667,323.82953,-78.969055,0.8032292
6894521034000.0,0.5138007167408557,9.796377786370575,0.4775146996482488,-0.04337143,-0.19639318,-0.026572637,323.90808,-78.987335,0.7760766
6894525949000.0,0.5147434610660191,9.800620119345067,0.4758648984327667,-0.03848451,-0.1994475,-0.025045475,323.9889,-79.008385,0.749194
6894530897000.0,0.5156925351089302,9.804890935938712,0.474204020220314,-0.021991149,-0.204029,-0.023518313,324.06912,-79.03222,0.7232542
6894535876000.0,0.5166475552503317,9.809188509871566,0.4725327363440402,-0.01863139,-0.21533,-0.023518313,324.15118,-79.05351,0.69808143
6894540885000.0,0.5176083296805949,9.813511978003657,0.4708513824705205,-0.013133603,-0.22204952,-0.016493361,324.23184,-79.0797,0.6755128
6894545884000.0,0.5185671860145707,9.817826814735998,0.4691733852627494,-0.014966198,-0.2302962,-0.013133603,324.3154,-79.10453,0.6527804
6894550876000.0,0.5195246996811457,9.82213560948852,0.4674977377210024,-0.016493361,-0.23396139,-0.008857546,324.39816,-79.13057,0.63250375
6894555945000.0,0.520496982689132,9.826510866019078,0.4657962438529905,-0.01160644,-0.23671028,-0.0070249503,324.48193,-79.157616,0.6129529
6894561004000.0,0.5214673476008311,9.830877491149888,0.4640981066507273,-0.004581489,-0.24129178,0.002443461,324.56564,-79.18438,0.5970974
6894565881000.0,0.5224028031601031,9.835087024805349,0.4624610607650903,-0.01740966,-0.2434298,-0.004276057,324.6492,-79.20679,0.5772564
6894571077000.0,0.5233994459909371,9.83957190011266,0.4607169372420699,-0.0076358155,-0.24648413,0.004886922,324.73193,-79.236946,0.56479746
6894575954000.0,0.524334901550209,9.84378143376812,0.4590798913564329,0.0018325958,-0.22449298,0.005497787,324.80804,-79.263336,0.54684174
6894580950000.0,0.5252931824552988,9.84809368108054,0.4574029011483864,0.0036651916,-0.2134974,0.007941248,324.88654,-79.28988,0.532689
6894585942000.0,0.5262506961218737,9.852402475833062,0.4557272536066394,0.0030543262,-0.22937989,0.008246681,324.9656,-79.31808,0.5183672
6894590963000.0,0.5272137722676814,9.856736301644844,0.4540418717342213,0.015882496,-0.25228736,0.003970624,325.04288,-79.350266,0.5032411
6894595945000.0,0.5281693678379691,9.86103646499762,0.452369580858223,0.018020526,-0.25289822,0.0015271631,325.11734,-79.378815,0.4883644
6894600867000.0,0.5291134548305335,9.865284839951933,0.4507174299767168,0.01985312,-0.24587326,0.0018325958,325.19522,-79.410545,0.47381726
6894605975000.0,0.53009321841404,9.869693758941493,0.449002845112285,0.02107485,-0.23915374,-0.005192355,325.27295,-79.44239,0.45653462
6894610939000.0,0.5310453614110107,9.873978385774729,0.4473365962346344,0.027183503,-0.24220806,-0.0033597588,325.3501,-79.47558,0.4419637
6894615934000.0,0.5320034505064717,9.878289769947177,0.4456599416931627,0.030848695,-0.24404067,-0.0070249503,325.42477,-79.5081,0.42350116
6894620943000.0,0.5329642249367348,9.882613238079264,0.443978587819643,0.03940081,-0.23151793,-0.016493361,325.49567,-79.54332,0.40336865
6894626139000.0,0.5339608677675688,9.887098113386577,0.4422344642966227,0.033292156,-0.22999077,-0.0106901415,325.5687,-79.57474,0.38722515
6894631126000.0,0.534917422386,9.891402592439226,0.4405604950877501,0.043066,-0.23060162,-0.01160644,325.6389,-79.612755,0.36611766
6894635895000.0,0.5358321625053701,9.895518906977443,0.4389597011921989,0.047036625,-0.23335053,-0.013133603,325.70825,-79.64678,0.3466137
6894640910000.0,0.5367940877934055,9.899847553949378,0.4372763333192299,0.03970624,-0.22082779,-0.004276057,325.77222,-79.67972,0.3291452
6894645883000.0,0.5377479570770347,9.904139949042383,0.4356070634424054,0.034208454,-0.21746802,-0.0106901415,325.83966,-79.71386,0.30766052
6894650880000.0,0.5387064297917532,9.90845305949478,0.4339297375677841,0.04062254,-0.21288654,-0.011301007,325.9018,-79.74866,0.28970885
6894655962000.0,0.539681206324913,9.912839536845004,0.4322238800342989,0.032986723,-0.19853121,-0.016798794,325.9601,-79.777435,0.26805684
6894660893000.0,0.5406270196041358,9.917095680059084,0.4305687081536189,0.01985312,-0.15088372,-0.012217305,326.00665,-79.80588,0.24732363
6894665887000.0,0.5415849168899682,9.921406201091555,0.4288923892787222,0.021685716,-0.16310102,-0.004276057,326.06552,-79.83595,0.22853017
6894671059000.0,0.5425769562897128,9.925870361039484,0.4271563217534987,0.017104227,-0.16523905,0.00030543262,326.10767,-79.86001,0.20749134
6894675976000.0,0.5435200842341337,9.930114420293918,0.4255058492048669,0.010079277,-0.1591304,-0.009162978,326.15082,-79.8835,0.18518043
6894680895000.0,0.5444635957978119,9.934360205828304,0.4238547053230854,-0.0061086523,-0.15149458,-0.0015271631,326.1926,-79.90257,0.16923694
6894685934000.0,0.5454301245169366,9.938709568159627,0.4221632814523195,-0.015882496,-0.14049901,-0.005192355,326.23233,-79.92125,0.14725733
6894690954000.0,0.5631942449692718,9.947266704062494,0.415479149764102,-0.016798794,-0.112704635,-0.00030543262,326.26392,-79.937546,0.12889601
6894695961000.0,0.5954856559790092,9.9594657030349,0.404476150273919,-0.03634648,-0.12522738,0.0067195175,326.30353,-79.94557,0.111897334
6894700941000.0,0.6276029371510665,9.97159891950835,0.3935324839145998,-0.046120327,-0.12522738,-0.00030543262,326.32422,-80.00283,0.11450135
6894705898000.0,0.6595718854984337,9.98367609903825,0.3826393605926831,-0.05100725,-0.1255328,0.0106901415,326.34732,-80.05411,0.124244645
6894710916000.0,0.6919342382938923,9.995901898288006,0.3716121883454816,-0.06627888,-0.12492194,0.0009162979,326.37155,-80.09816,0.12562093
6894716727000.0,0.72941084891454,10.010059753895884,0.3588423800695772,-0.08124508,-0.12644911,0.006414085,326.39514,-80.13935,0.13401014
6894721087000.0,0.7575295930732087,10.02068240928228,0.3492611781967596,-0.099265605,-0.1301143,0.011911872,326.41956,-80.17408,0.13929671
6894725978000.0,0.7890728907062474,10.032598787148071,0.3385130914169543,-0.10934488,-0.13775012,0.0061086523,326.44574,-80.20574,0.14280744
6894730880000.0,0.8206871301250075,10.044541965291218,0.3277408318801305,-0.10354166,-0.1282817,0.009468411,326.46722,-80.23585,0.14939176
6894735875000.0,0.8529011500957759,10.056711727597422,0.3167642026703314,-0.12217305,-0.118507855,0.008246681,326.49106,-80.25535,0.15303567
6894740939000.0,0.885560168540615,10.069049600734282,0.305635944348325,-0.11911872,-0.13500121,0.0009162979,326.5196,-80.281944,0.15636542
6894745902000.0,0.9175678124074668,10.081141398597282,0.2947296358862162,-0.12339478,-0.14752395,-0.0030543262,326.544,-80.3005,0.15935875
6894750929000.0,0.9499882084821518,10.09338912534669,0.2836826859287268,-0.12308934,-0.15454891,-0.006414085,326.57162,-80.32069,0.1607265
6894755958000.0,0.982421503063332,10.105641724873797,0.2726313409245067,-0.1160644,-0.16737708,-0.01282817,326.60443,-80.341095,0.16072993
6894760918000.0,1.0144097991704413,10.117726213570243,0.261731625032494,-0.11636983,-0.16707164,-0.016187929,326.63522,-80.359024,0.16012031
6894765937000.0,1.0467786012191471,10.129954449208851,0.2507022552619271,-0.13164146,-0.16157386,-0.027488936,326.66846,-80.37426,0.15559871
6894771095000.0,1.080043849469242,10.14252134289762,0.23936742974358,-0.14660765,-0.16523905,-0.032375857,326.70364,-80.389015,0.15217166
6894776048000.0,1.1119870008036197,10.15458877687212,0.2284830965151246,-0.17195857,-0.16523905,-0.03970624,326.73654,-80.39616,0.14435449
6894780884000.0,1.143175589508051,10.16637115335116,0.2178558735204122,-0.2134974,-0.16432275,-0.043066,326.76987,-80.394196,0.13639216
6894786923000.0,1.1821226298691063,10.181084505616855,0.2045850299172137,-0.2452624,-0.17134771,-0.04428773,326.80527,-80.387794,0.12739336
6894790918000.0,1.2078873965924737,10.19081787907297,0.1958059240727398,-0.28191432,-0.17715092,-0.048258353,326.8399,-80.36844,0.1167007
6894795885000.0,1.239920837472315,10.20291942249137,0.1848908255171698,-0.30970868,-0.16615535,-0.051923547,326.8713,-80.34311,0.105447926
6894800875000.0,1.2721026111768463,10.215077002853324,0.1739251839241974,-0.34513888,-0.14660765,-0.056199603,326.90158,-80.30593,0.092965744
6894805949000.0,1.3048261221541595,10.227439239878684,0.1627749503685376,-0.37720928,-0.13652839,-0.058337633,326.93097,-80.26277,0.0802667
6894810902000.0,1.336769273488537,10.239506673853183,0.1518906171400822,-0.38759398,-0.11178834,-0.060170226,326.95044,-80.21693,0.06518392
6894815876000.0,1.36884785914111,10.251625271993536,0.1409601359209549,-0.4251622,-0.0842994,-0.07238753,326.9665,-80.155556,0.046392355
6894821018000.0,1.4020099193392463,10.264153183460705,0.1296604707764531,-0.46211955,-0.06872234,-0.074830994,326.97824,-80.092834,0.029738644
6894825910000.0,1.4335596662255323,10.276071997715349,0.1189101864732825,-0.48288897,-0.042455133,-0.079107046,326.9797,-80.02567,0.007938386
6894830911000.0,1.465812381715785,10.28825637835465,0.1079203721232915,-0.5204572,-0.015577064,-0.09010262,326.97696,-79.94503,-0.016493198
6894835875000.0,1.4978264748358845,10.3003506126065,0.0970118661378175,-0.5458081,0.025961773,-0.0852157,326.9621,-79.86393,-0.038850114
6894840902000.0,1.5302468709105694,10.312598339355906,0.085964916180328,-0.57940567,0.06505715,-0.086132,326.94128,-79.77191,-0.06619479
6894845898000.0,1.5624673401345852,10.32477053805096,0.0749860894471636,-0.61727935,0.10995574,-0.08857546,326.90726,-79.67372,-0.09394587
6894850871000.0,1.5945394765339107,10.336886699802465,0.0640578057514017,-0.6441574,0.14935656,-0.08002335,326.8637,-79.57157,-0.11943959
6894855942000.0,1.6272436397514816,10.349241627661272,0.0529141647658379,-0.6835582,0.17989981,-0.07666359,326.81104,-79.45763,-0.1477064
6894860900000.0,1.6592190373520963,10.361321243580022,0.0420188439205559,-0.72387534,0.20311269,-0.07513642,326.7498,-79.33851,-0.17448255
6894865894000.0,1.6914266080696172,10.373488569497376,0.0310444122341221,-0.77488256,0.22418754,-0.06811147,326.68097,-79.20804,-0.1989655
6894871221000.0,1.725781780118523,10.38646721290181,0.0193382052670351,-0.8188649,0.25289822,-0.058948494,326.60428,-79.07124,-0.22275352
6894875970000.0,1.7564092837904308,10.398037623550891,0.008902166805106,-0.8753699,0.28588495,-0.037873644,326.52042,-78.9198,-0.24129593
6894880999000.0,1.7888425783716109,10.410290223077997,-0.002149178199114,-0.9410379,0.29138273,-0.024129177,326.4372,-78.75683,-0.25809664
6894885871000.0,1.8202633401929489,10.42216030955564,-0.0128555120349781,-0.97219205,0.30024028,-0.0106901415,326.34375,-78.59162,-0.26982418
6894890876000.0,1.842632479514416,10.400000950777692,-0.081322932077959,-1.035722,0.2932153,0.008552114,326.25327,-78.40274,-0.27435437
6894895879000.0,1.8517206301972688,10.331839346168437,-0.2267334502378604,-1.1029172,0.2764165,0.027183503,326.1634,-78.20835,-0.27414265
6894900861000.0,1.85475697782279,10.252482984314948,-0.4073430691264152,-1.1771374,0.24831672,0.04795292,326.06332,-78.08374,-0.12686233
6894905933000.0,1.8446658737197463,10.146526285862675,-0.669711944398047,-1.248914,0.2321288,0.073303826,325.96393,-77.94059,0.023994455
6894910866000.0,1.8316695743159088,10.025989137006984,-0.915610675183997,-1.3078625,0.22999077,0.094989546,325.80966,-77.81005,0.1504436
6894915870000.0,1.8135822721079449,9.876769082657106,-1.150745811639932,-1.3613132,0.23579398,0.11881329,325.65747,-77.66174,0.282718
6894921106000.0,1.7978461184157075,9.71387780027082,-1.348832006635071,-1.4147639,0.22082779,0.129198,325.49777,-77.60203,0.4457648
6894925868000.0,1.790126971225457,9.551775749576844,-1.4298830521327015,-1.4504995,0.1863139,0.1423316,325.3428,-77.52946,0.61373836
6894930894000.0,1.7819798830737985,9.380686940927555,-1.5154274777251184,-1.473407,0.13622294,0.15454891,325.1692,-77.58707,0.8327182
6894935875000.0,1.8087267358716173,9.219767012219425,-1.4906981248164464,-1.4758505,0.08399397,0.16615535,325.01013,-77.62975,1.0517049
6894941160000.0,1.8442965544414796,9.058826563858178,-1.4476276023637058,-1.4840971,0.04734206,0.17837265,324.86444,-77.65447,1.270579
6894945943000.0,1.9316123346835683,9.045729386008388,-1.3210197415268776,-1.4880677,0.013744468,0.19792034,324.6846,-77.85747,1.5875322
6894950901000.0,2.0221228173179564,9.032153009721693,-1.189779562971788,-1.4892895,-0.013133603,0.2171626,324.50574,-78.1474,1.9900512
6894955908000.0,2.107704467097716,8.96261602471582,-1.1779473,-1.4672983,-0.021991149,0.24007004,324.34186,-78.39745,2.3815901
6894961380000.0,2.185113474801798,8.907388693093583,-1.17586677865141,-1.4355333,-0.024129177,0.26236662,324.19315,-78.60848,2.7620723
6894965946000.0,2.1029118159869227,9.114679868410295,-1.154422849807928,-1.4288138,0.0018325958,0.28496864,324.04236,-78.83191,3.2141593
6894972158000.0,1.991077233297916,9.396697560277891,-1.1252485865631383,-1.3881912,0.04734206,0.3023783,323.91995,-78.99887,3.6642208
6894976204000.0,1.812397445950172,9.615263957052017,-1.1507552292713437,-1.3778065,0.11209377,0.32253686,323.78928,-79.11819,4.1023583
6894980944000.0,1.5616014913999792,9.88498739914521,-1.1980752328155948,-1.3607023,0.15088372,0.31612277,323.65903,-79.21491,4.5213213
6894985931000.0,1.285345347345728,10.099551438488923,-1.1952654416337023,-1.3472633,0.24312437,0.30940324,323.53268,-79.25483,4.885452
6894990910000.0,1.002416656200554,10.2740247174644,-1.1622570646261867,-1.3326025,0.35124752,0.29138273,323.39526,-79.278206,5.2306604
6894995905000.0,0.7823945529821651,10.466234677727083,-1.1552306328079636,-1.3417655,0.47586402,0.24740042,323.26157,-79.29771,5.492759
6895000871000.0,0.6048641415387805,10.66842152633762,-1.165093477498963,-1.3845261,0.5338962,0.19639318,323.12085,-79.301605,5.7388563
6895005920000.0,0.5708936049538905,10.67931504149856,-1.1933860951585014,-1.4315627,0.51923543,0.14905111,323.00305,-79.29834,5.903446
6895010913000.0,0.6076405645110471,10.596634606724304,-1.230133040326609,-1.4575244,0.52748215,0.102319926,322.86758,-79.29068,6.0473437
6895015875000.0,0.7512209524436124,10.475682457309835,-1.1960680723860837,-1.4834863,0.5867361,0.06352998,322.74683,-79.28496,6.140204
6895021158000.0,0.9822239361629076,10.318600163820657,-1.1082869581590722,-1.4972308,0.6603453,0.040927973,322.6235,-79.27673,6.222271
6895026041000.0,1.2394819641955668,10.147699414890232,-0.9884688889489872,-1.5351044,0.7058548,0.031154128,322.50497,-79.261734,6.3158197
6895030883000.0,1.5493097794039663,9.946065470887689,-0.8212601835719588,-1.5528195,0.7244862,0.0290161,322.37683,-79.24589,6.401687
6895035874000.0,1.8227917102213669,9.729199438017323,-0.6358308259307026,-1.5628988,0.72021013,0.04428773,322.243,-79.183754,6.5434766
6895041828000.0,2.0971916853512997,9.460287801636188,-0.3998468954552454,-1.5714508,0.6795876,0.06383542,322.11658,-79.11313,6.6831045
6895045885000.0,2.2573731424179475,9.286626133776483,-0.177889091649356,-1.5732834,0.61483586,0.098043874,321.99902,-78.9826,6.902705
6895050878000.0,2.426232430006232,9.08300165756128,0.1598296287328625,-1.5699236,0.5329799,0.1282817,321.89734,-78.84432,7.1218543
6895055911000.0,2.516283714362934,8.899506832432433,0.523716376942085,-1.5705346,0.4334089,0.15760323,321.80597,-78.62787,7.3779554
6895060884000.0,2.530074861003861,8.738610121621623,0.9052717028185328,-1.5705346,0.32436943,0.18936823,321.73688,-78.40627,7.639358
6895065859000.0,2.5204340386420787,8.62869533612741,1.2964251252305117,-1.5861117,0.24312437,0.22082779,321.6649,-78.10764,7.9305654
6895071048000.0,2.478779373763621,8.582875117770326,1.717137588466052,-1.6114625,0.1518,0.2406809,321.62137,-77.80679,8.224468
6895076063000.0,2.426148937965964,8.551557195705024,2.1342621300648297,-1.6530013,0.089491755,0.26816985,321.56293,-77.423805,8.504963
6895080897000.0,2.2526392360008103,8.650035745340357,2.640723032617504,-1.6826283,0.07269296,0.2770274,321.51276,-77.04508,8.782406
6895085946000.0,2.0580529228048987,8.763168454804209,3.1438375107814385,-1.7116444,0.015271631,0.30573806,321.45172,-76.58392,9.039642
6895090943000.0,1.7319731145765052,8.977802836467138,3.3832378588580303,-1.7715092,0.013439035,0.3155119,321.3767,-76.12005,9.289008
6895095977000.0,1.4034788671036744,9.194026466103155,3.62441083308608,-1.8301523,0.07849618,0.3304781,321.269,-75.59801,9.500607
6895100870000.0,1.0436891248017233,9.390685775873887,3.801716588309018,-1.8646661,0.18967366,0.33322698,321.1466,-75.07613,9.706158
6895105966000.0,0.6566259450895917,9.591385745716243,3.9689660808381473,-1.887879,0.29016098,0.33414328,321.006,-74.549194,9.909377
6895111833000.0,0.2966769432291457,9.674547160674612,3.9819795645324176,-1.926669,0.4260785,0.27977628,320.83563,-74.03087,10.016529
6895115923000.0,0.0632918419738437,9.702236650676632,3.954289826701676,-1.9428569,0.5708536,0.26419923,320.6319,-73.51045,10.125598
6895121140000.0,-0.0680713247037108,9.462280254045153,4.186934222110261,-1.9422461,0.66248333,0.27366763,320.42188,-73.01445,10.154079
6895126117000.0,-0.1419614806964441,9.148247033330104,4.491731035471369,-1.9596558,0.5635232,0.29077184,320.22678,-72.5153,10.182646
6895131047000.0,-0.2163016507797923,8.637635715719064,4.568797486710087,-1.9917262,0.34513888,0.29138273,320.0607,-72.045654,10.167128
6895135871000.0,-0.2894906383242387,8.060256157190636,4.556599288153494,-2.0173824,0.16829337,0.27916542,319.91193,-71.57567,10.157347
6895140905000.0,-0.4047630441974004,7.640409661101131,4.653345208432843,-1.9984456,0.07422013,0.23609942,319.77844,-71.05843,10.144877
6895145900000.0,-0.5766355204417204,7.493812243791609,4.911153928077777,-1.9126191,0.079107046,0.18509217,319.66888,-70.55855,10.132157
6895150884000.0,-0.6998697826040364,7.369931632077156,5.187168899089123,-1.8579466,0.10934488,0.1432479,319.5699,-70.02979,10.117202
6895155998000.0,-0.7785949214681193,7.264964932487944,5.4889486970173245,-1.8368717,0.13836098,0.10048734,319.47437,-69.52495,10.08741
6895160898000.0,-0.8410386075976977,7.133258963526204,5.749266609734424,-1.8420641,0.11789699,0.06383542,319.3763,-69.00003,10.027773
6895165874000.0,-0.8699111956376856,6.916714628597394,5.936938286276885,-1.8591684,0.093462385,0.01863139,319.2768,-68.486946,9.952384
6895171037000.0,-0.8891924353072307,6.7249602492998,6.077497762417834,-1.8808541,0.07544186,-0.018936822,319.1613,-67.92594,9.860599
6895176103000.0,-0.8845705078269982,6.609412593169477,6.095985356511385,-1.9046779,0.1020145,-0.064446285,319.04688,-67.36936,9.753062
6895181148000.0,-0.8507068697700544,6.4873980676671925,6.0877390141302445,-1.9269744,0.122478485,-0.09743301,318.9248,-66.769394,9.641421
6895185873000.0,-0.7315641493909075,6.352369684965772,6.000367775978585,-1.9294178,0.15424347,-0.10445796,318.7963,-66.17365,9.521516
6895190904000.0,-0.604705519501492,6.208596607003686,5.907338210022819,-1.9306396,0.18570304,-0.12950343,318.66888,-65.56637,9.389624
6895195942000.0,-0.4492940756599887,6.006321885040255,5.903440739000188,-1.9486601,0.24770586,-0.1518,318.5276,-64.9581,9.250888
6895200937000.0,-0.2925570031407976,5.800324662141921,5.907919030986707,-1.9572122,0.32620203,-0.15577064,318.37674,-64.35697,9.106126
6895206049000.0,-0.1610877863189489,5.599683364871147,5.982979217887823,-1.9364429,0.38515055,-0.17287487,318.22095,-63.758278,8.972594
6895210863000.0,-0.0446078842488125,5.413315448388075,6.07150378847903,-1.9361374,0.3915646,-0.18845193,318.06137,-63.15745,8.837002
6895215952000.0,0.1253548418690818,5.287365765698677,6.131607842725705,-1.9431623,0.36682457,-0.18906279,317.8861,-62.534378,8.729119
6895221085000.0,0.3090957147885758,5.179005892409431,6.18343225186889,-1.9413297,0.34880406,-0.17989981,317.71082,-61.92101,8.619879
6895225989000.0,0.4684368316272885,5.084578314728444,6.281765198936279,-1.9401081,0.3200934,-0.16462818,317.52927,-61.27335,8.540419
6895230937000.0,0.6235307655865807,4.992491161123044,6.398085608918891,-1.9538525,0.28313604,-0.14935656,317.35547,-60.62928,8.468449
6895235896000.0,0.6847939800721542,4.98407375297636,6.453459334368176,-1.9743165,0.25381452,-0.10598512,317.17358,-59.960606,8.445368
6895240940000.0,0.7168966720307605,5.002418196268869,6.490148125178012,-2.0280726,0.22632557,-0.04734206,316.99756,-59.286037,8.436035
6895245878000.0,0.6821033487449313,5.017816722757393,6.575826118791416,-2.0909917,0.18692477,0.005192355,316.81668,-58.5766,8.471225
6895251382000.0,0.6039052537750965,5.033456226347543,6.700943236227871,-2.1713204,0.11575896,0.021380283,316.64743,-57.85681,8.521249
6895255955000.0,0.4825792021252498,5.057721451832112,6.654113441239174,-2.2638667,0.031154128,0.040011674,316.4885,-57.113884,8.597245
6895260984000.0,0.3221469369848672,5.0898079747406495,6.530351316370039,-2.3475552,-0.008552114,0.07360926,316.33014,-56.361088,8.684925
6895265849000.0,0.1670488806346169,5.129022495051152,6.348950444839058,-2.4123068,-0.04642576,0.105068825,316.1906,-55.578434,8.771784
6895271034000.0,0.0018463754404058,5.178583384180321,6.097016586359477,-2.4419339,-0.099265605,0.112399206,316.0611,-54.795155,8.869391
6895275937000.0,-0.1423024424814565,5.220535299055968,5.850363269925826,-2.4239132,-0.1328632,0.116980694,315.95267,-54.038555,8.943495
6895280881000.0,-0.2061564337347076,5.229657243377324,5.544776492081688,-2.405282,-0.20647246,0.12736541,315.86203,-53.28625,9.035937
6895286062000.0,-0.2681506,5.237015343235475,5.224868842773558,-2.3576343,-0.27275133,0.12736541,315.81638,-52.60875,9.097406
6895290899000.0,-0.2681506,5.217995437014986,4.930059948799014,-2.3115141,-0.31245756,0.1133155,315.7799,-51.94834,9.166335
6895295926000.0,-0.2538174466681544,5.189854564988842,4.662689008265145,-2.282498,-0.32620203,0.1020145,315.78296,-51.35358,9.232703
6895300875000.0,-0.1127940354568146,5.08800419407389,4.744952686007108,-2.2702806,-0.27947086,0.07544186,315.78372,-50.780033,9.288832
6895305980000.0,0.0326746479608232,4.982943344706174,4.829809439871063,-2.2745566,-0.22693644,0.06047566,315.81406,-50.26146,9.352603
6895310987000.0,0.1908207087919829,4.837002719252961,5.144315724567264,-2.2672265,-0.16890424,0.046731193,315.83463,-49.761482,9.401428
6895315917000.0,0.3533133021901002,4.674510088926004,5.55532651594291,-2.2724187,-0.17592919,0.035430185,315.85812,-49.267807,9.450083
6895321223000.0,0.49176079489698,4.622153852469658,5.954538546260232,-2.259896,-0.18112154,0.023518313,315.86072,-48.750393,9.515923
6895325983000.0,0.603269480116662,4.617865060673629,6.297642069075172,-2.2650883,-0.22540927,0.025045475,315.87088,-48.236816,9.591005
6895330943000.0,0.6771063833920951,4.680729489562071,6.574608498042308,-2.2736404,-0.28924468,0.03970624,315.84927,-47.637497,9.692519
6895335942000.0,0.7215250354611246,4.791776258879199,6.79670189753201,-2.2898283,-0.34666604,0.059253927,315.83194,-47.04563,9.802608
6895340952000.0,0.7426673246788797,4.939750831627711,7.025635342619499,-2.3051,-0.37110063,0.0693332,315.79462,-46.397316,9.933795
6895345953000.0,0.7325823432512109,5.136408232733207,7.26263245882291,-2.3451116,-0.3933972,0.08124508,315.76166,-45.748978,10.07932
6895350927000.0,0.7536055050364439,5.259858499763885,7.402486061595319,-2.3903158,-0.43860126,0.093767814,315.73453,-45.082478,10.2355795
6895356324000.0,0.8066657883564315,5.323530744451288,7.460852447489991,-2.4178047,-0.47067168,0.076052725,315.7095,-44.425,10.388806
6895360797000.0,0.8816902507268171,5.380821287719298,7.408200072681704,-2.450486,-0.5390886,0.04734206,315.7068,-43.755833,10.544772
6895365882000.0,0.9890944941253133,5.449169397192983,7.276385912531328,-2.4587326,-0.5684101,0.053145275,315.69565,-43.099407,10.701558
6895370832000.0,1.082408952827703,5.467804126075092,7.13481404182742,-2.450486,-0.60048056,0.061391957,315.71506,-42.453445,10.874732
6895375793000.0,1.167353018264797,5.449921091220476,6.982808899124871,-2.4486532,-0.6096435,0.06688975,315.7307,-41.81806,11.047971
6895380791000.0,1.2562336369781515,5.401751116011899,6.857426006154477,-2.4510968,-0.58032197,0.06841691,315.76746,-41.225636,11.243169
6895385781000.0,1.349368974756385,5.313517842855677,6.769192477074571,-2.4394903,-0.5161811,0.07574729,315.79144,-40.650352,11.431852
6895390828000.0,1.445317532203218,5.189522610464528,6.770022283017913,-2.4431555,-0.44593164,0.092240654,315.82996,-40.102562,11.639469
6895395797000.0,1.541638084556219,5.030593563303309,6.866342734794049,-2.4459045,-0.40194935,0.102319926,315.85516,-39.570442,11.8353195
6895400845000.0,1.647268131738601,4.824668923808632,6.971972803810504,-2.4303274,-0.39706242,0.124311075,315.87827,-39.04602,12.049954
6895405928000.0,1.761206234594139,4.574005164151297,7.085911049433574,-2.4153612,-0.3921755,0.13805555,315.88675,-38.53224,12.251516
6895410864000.0,1.853213628146871,4.38564520504108,7.244500571924131,-2.3979516,-0.4147775,0.17745635,315.873,-37.98136,12.477619
6895415881000.0,1.9165678196977385,4.283303951780099,7.4832970500456435,-2.3545802,-0.40011674,0.20647246,315.84473,-37.45352,12.691041
6895421018000.0,1.9448297755225383,4.223372,7.640816048954924,-2.362216,-0.32589662,0.24190263,315.78098,-36.849712,12.921046
6895425887000.0,1.9252589540669856,4.223372,7.679957691866028,-2.39337,-0.27366763,0.27488935,315.7066,-36.261906,13.153007
6895431190000.0,1.8849333395732093,4.205300905049652,7.714736142108599,-2.4010057,-0.22602014,0.29138273,315.60812,-35.62583,13.370895
6895435899000.0,1.6705477820409889,4.019500061990281,7.671858970906402,-2.3863451,-0.2012801,0.29077184,315.49655,-35.000362,13.581331
6895440899000.0,1.460921739492491,3.8380559063904713,7.634105673640601,-2.3774874,-0.122478485,0.26389378,315.38763,-34.369244,13.757097
6895445874000.0,1.3622275297566029,3.754165812656655,7.643975290419472,-2.362216,-0.06658431,0.23090707,315.27692,-33.75883,13.92826
6895450867000.0,1.272945194197197,3.6743360531595775,7.66062397290386,-2.346028,-0.067500606,0.20677789,315.17535,-33.121143,14.052192
6895456043000.0,1.2201295464306203,3.6093320941398246,7.705314051553151,-2.330451,-0.06688975,0.18784106,315.06976,-32.504284,14.157326
6895460960000.0,1.169956721842472,3.547580844815999,7.747767899450864,-2.3194554,-0.057726767,0.16035213,314.98804,-31.881489,14.239929
6895465934000.0,1.1447664259720651,3.530334806493016,7.820335883125708,-2.3258693,-0.0070249503,0.14721853,314.90002,-31.272741,14.311267
6895471159000.0,1.1258767392978484,3.5256123848244623,7.905339473159683,-2.3448062,0.024740042,0.14019357,314.81845,-30.679102,14.3812065
6895475957000.0,1.1486908952602417,3.4960603374628936,8.023610875123689,-2.368019,0.027794369,0.14294247,314.74512,-30.06592,14.433335
6895480886000.0,1.1907289832970511,3.4540222981990896,8.163737672669702,-2.3774874,0.022907447,0.13958271,314.6716,-29.46645,14.478097
6895485877000.0,1.1677932002493494,3.363544972658283,8.271986462055509,-2.3945918,0.032375857,0.15241088,314.6072,-28.851692,14.515223
6895490887000.0,1.1053736732545534,3.243907541392021,8.36041426561145,-2.402533,0.05497787,0.16737708,314.5421,-28.251291,14.550417
6895495882000.0,1.040636025346883,3.1046127785812,8.394312001172562,-2.4071145,0.069027774,0.18173242,314.47986,-27.629324,14.590254
6895501068000.0,0.9726944085987884,2.954170638069181,8.413724282587452,-2.3945918,0.087659165,0.19639318,314.41016,-27.02348,14.625705
6895505989000.0,0.9721344411294354,2.8269766449275364,8.544484046226886,-2.366492,0.09468412,0.21135938,314.33673,-26.392723,14.648103
6895510906000.0,0.9909606782508746,2.704606054492753,8.709213375312343,-2.3426683,0.09468412,0.22999077,314.25797,-25.77787,14.670639
6895515990000.0,1.006085042441752,2.564226212143523,8.82051560722274,-2.3258693,0.1414153,0.22632557,314.1786,-25.145386,14.669683
6895521101000.0,1.0197701379123951,2.4182518128238586,8.911749338863,-2.3197608,0.1554652,0.23273966,314.0974,-24.529001,14.681388
6895525929000.0,1.1035239297830377,2.3429554428007893,9.043243927021695,-2.3047945,0.16920967,0.23793201,314.0015,-23.887053,14.677557
6895530889000.0,1.2346903471400394,2.305479218737673,9.207201765285996,-2.2766948,0.16523905,0.2510656,313.9043,-23.264513,14.677373
6895535875000.0,1.3148807271733527,2.3136199792616274,9.301937186861917,-2.2424862,0.16340645,0.25961772,313.80038,-22.60535,14.665872
6895540911000.0,1.3546693337939568,2.3583823175105705,9.341726624419923,-2.2137756,0.18570304,0.27366763,313.69156,-21.966986,14.652438
6895545892000.0,1.4117355886363636,2.3901382358563312,9.20262193465909,-2.1945333,0.23823744,0.28099802,313.58914,-21.324717,14.65114
6895550881000.0,1.4796029965909092,2.4143765452211854,8.955390055397729,-2.1826215,0.269697,0.2846632,313.48587,-20.70353,14.65143
6895555989000.0,1.475915670553852,2.352288944049445,9.03090952136834,-2.1426098,0.2770274,0.2751948,313.4056,-20.11021,14.649377
6895561041000.0,1.434191117353392,2.2456593581927944,9.276621354637792,-2.055867,0.30390546,0.2837469,313.31577,-19.54661,14.636983
6895565894000.0,1.3859612672668638,2.1132786260324283,9.634191599570007,-1.9752327,0.31948254,0.28588495,313.2736,-19.025345,14.650119
6895571129000.0,1.3275764560601988,1.9471064638448443,10.114743777747917,-1.9792033,0.43371433,0.30085114,313.21262,-18.516035,14.631919
6895576008000.0,1.2670519294751832,1.7605457285089503,10.520892314991864,-2.0497584,0.47769663,0.30604348,313.15295,-17.97077,14.605919
6895580888000.0,1.1957518139340928,1.5181255242778682,10.85362522792921,-2.094657,0.49632803,0.2932153,313.0874,-17.445234,14.557345
6895585875000.0,1.09258450592681,1.2638032950596658,10.974684917263325,-2.1600194,0.4370741,0.27458394,312.9932,-16.830153,14.48328
6895590918000.0,0.9340957939339698,0.9948527030429594,10.70573494709626,-2.2036965,0.3567453,0.24007004,312.91183,-16.226908,14.410415
6895595906000.0,0.7909832688038088,0.702072438295973,10.480473157409245,-2.182927,0.34208453,0.24404067,312.79764,-15.562687,14.31236
6895600877000.0,0.6729354989803611,0.3620948615988891,10.329371422733583,-2.1358902,0.3817908,0.25381452,312.69943,-14.91374,14.221345
6895605947000.0,0.5515083010874103,0.0888034375546882,10.243119767359534,-2.085494,0.40133846,0.25870144,312.59314,-14.239933,14.122098
6895610993000.0,0.4286901175891803,-0.0427874713733321,10.28698382962694,-2.0182989,0.46517387,0.204029,312.50024,-13.603872,13.9987755
6895615922000.0,0.3394651193538301,-0.1767801699645649,10.36328099447629,-1.9572122,0.52778757,0.14782938,312.3751,-12.926064,13.853877
6895620968000.0,0.4401937447420531,-0.3480188699374674,10.6503576373111,-1.8753563,0.5635232,0.08124508,312.27267,-12.292761,13.697773
6895625917000.0,0.6127643807342084,-0.5325576739232978,10.93306248564397,-1.7913623,0.591623,0.011301007,312.18344,-11.659379,13.500814
6895630888000.0,1.04723541847621,-0.7766425159915915,11.221082796554551,-1.6862935,0.61819565,-0.08307768,312.12543,-11.075371,13.29349
6895635859000.0,1.6181111961451249,-1.0099622465986395,11.757691624716552,-1.5885551,0.7049385,-0.10781772,312.0512,-10.4826,13.071324
6895640968000.0,2.6073942261337866,-1.2179890546768708,13.042834411848071,-1.5253305,0.6826419,-0.018020526,311.98297,-9.922632,12.878151
6895645950000.0,3.385998203548019,-1.398891332167284,14.127822058492448,-1.5140295,0.5143485,0.13408493,311.88766,-9.331144,12.767551
6895650942000.0,3.178228787760045,-1.4636064095112566,14.321967681746935,-1.5225816,0.42760566,0.20189096,311.794,-8.766586,12.644524
6895655950000.0,2.9697934443573666,-1.5285289069749215,14.51673556661442,-1.5176947,0.52381694,0.1994475,311.6518,-8.1544695,12.652675
6895660955000.0,2.745832531108719,-1.661313084499462,14.739097655543594,-1.4605788,0.61911196,0.18509217,311.5022,-7.5711727,12.685329
6895665922000.0,2.494935620322928,-1.9173302825726588,15.01047550161464,-1.3475688,0.63316184,0.20525073,311.34705,-7.0217896,12.713083
6895670955000.0,2.159898709833024,-2.1395190025974027,15.074284586270872,-1.2699889,0.6059783,0.20280726,311.1997,-6.466072,12.6610155
6895675933000.0,1.7455906727272728,-2.321069690909091,14.920665090909091,-1.1001683,0.6114761,0.16768251,311.0608,-5.98579,12.5966
6895680964000.0,1.4475461152813425,-2.471595145488648,14.817547606120437,-0.91721416,0.655153,0.11301007,310.91345,-5.494631,12.47893
6895685942000.0,1.3016553827838104,-2.5798367185192497,14.779898102665353,-0.8268061,0.6041457,0.04337143,310.79047,-5.04405,12.388202
6895690934000.0,1.2143265218562294,-2.647054656287541,14.771354927533425,-0.7318166,0.46609017,-0.016187929,310.67886,-4.625583,12.248267
6895695889000.0,1.2097292496221663,-2.6562492007556675,14.803536025188915,-0.6462954,0.30634892,-0.05681047,310.5899,-4.2456045,12.132579
6895700850000.0,1.175240718906449,-2.766094278521645,14.58440424727594,-0.57910025,0.19058995,-0.09193522,310.52188,-3.87885,12.022017
6895706044000.0,1.077583015676843,-3.088364515627761,13.83732329174438,-0.4886922,0.1414153,-0.11728613,310.46857,-3.5548484,11.940648
6895710891000.0,0.8825453350881534,-3.375787266872873,13.202941423445717,-0.4288274,0.15790866,-0.15027285,310.43817,-3.2458665,11.869606
6895716086000.0,0.4311448916300648,-3.652783124280854,12.669468110733064,-0.3817908,0.20861048,-0.1881465,310.41913,-2.9689713,11.804429
6895720921000.0,0.135485984995129,-3.8548824770611594,12.206446684917914,-0.3222314,0.27122417,-0.19700404,310.38242,-2.670414,11.736041
6895725917000.0,0.036220993673462,-3.971410819655421,11.783491525978713,-0.24251351,0.31123585,-0.20555615,310.35825,-2.400036,11.661331
6895730885000.0,-0.0554064730113669,-4.07151041553483,11.375209340134072,-0.14752395,0.33536503,-0.19853121,310.3189,-2.1153412,11.526078
6895735897000.0,-0.1067023564793549,-4.080836932896143,11.034791164286409,-0.057421334,0.37018433,-0.18967366,310.28394,-1.8578563,11.379598
6895740932000.0,-0.1510708186940092,-4.082822034645162,10.688041589769586,0.004886922,0.40133846,-0.16920967,310.2447,-1.5848473,11.208541
6895745889000.0,-0.129194216232258,-4.017192314064516,10.303013353548389,0.05375614,0.44623706,-0.14935656,310.2061,-1.3376132,11.0272875
6895750880000.0,-0.107167562432258,-3.951112440064516,9.915344213548387,0.09162979,0.4990769,-0.12797627,310.16473,-1.1036758,10.837176
6895755953000.0,-0.0819427167697954,-3.786509725222863,9.588397207656003,0.109650314,0.56107974,-0.09865474,310.1184,-0.8800098,10.635418
6895761279000.0,-0.0527209430736113,-3.605448697079183,9.25731937692048,0.14355333,0.6151413,-0.06994407,310.0694,-0.67390084,10.424799
6895765885000.0,-0.0043130378786088,-3.456501248624008,9.0264513061793,0.16768251,0.6374379,-0.050701816,310.02325,-0.47917277,10.21985
6895770984000.0,0.0492761737126456,-3.2916113138274525,8.77087243238224,0.18784106,0.6792821,-0.022296581,309.98224,-0.314449,10.004528
6895775890000.0,0.057871276947619,-3.1514077895238097,8.5303354,0.23854288,0.73364913,0.0030543262,309.93936,-0.16630596,9.783133
6895780910000.0,0.0435630702551587,-3.017864534365079,8.287095483333333,0.2855795,0.7910705,0.025045475,309.89224,-0.023585927,9.552972
6895785875000.0,0.0571192769608727,-2.8778851176649534,8.109956621000734,0.31429017,0.82986045,0.034513887,309.85992,0.083291836,9.329565
6895790904000.0,0.0874319329215357,-2.7313739887758315,7.968497861953216,0.3390302,0.8753699,0.044898596,309.82367,0.17794593,9.092068
6895796696000.0,0.0665009115694623,-2.6869017246262006,7.896147847747302,0.37384954,0.9056077,0.05467244,309.797,0.24324556,8.851577
6895800877000.0,0.0387472340207941,-2.6829369575502526,7.864429379938607,0.38789943,0.9230174,0.06414085,309.77002,0.30716106,8.60624
6895805987000.0,-0.029463022816162,-2.752631303243649,7.914408036617606,0.38973203,0.93523467,0.061391957,309.75928,0.34457445,8.363444
6895810881000.0,-0.1085518062491797,-2.8492953504734224,7.997890674997656,0.3912592,0.9279043,0.03604105,309.75443,0.37725773,8.125902
6895815901000.0,-0.1150567703865802,-2.8532020414410977,8.12852570453679,0.3662137,0.9129381,0.0125227375,309.75235,0.41815427,7.883768
6895821059000.0,-0.0632678974420511,-2.782580801677468,8.298016542317956,0.344528,0.9062186,0.0036651916,309.75528,0.45689842,7.6460447
6895825900000.0,-0.0453164620735522,-2.6854603860457886,8.405406556821713,0.29626966,0.8888089,-0.0012217305,309.75815,0.5274347,7.4010057
6895830889000.0,-0.0601653256752305,-2.551820617248524,8.45985244980835,0.24923302,0.8958339,-0.016493361,309.7685,0.6022391,7.155703
6895835874000.0,-0.0693186938365821,-2.3896037416555407,8.49873730493992,0.2125811,0.88300574,-0.026572637,309.78802,0.67476904,6.9313555
6895840941000.0,-0.0736378452267022,-2.199561024566088,8.524652292656876,0.19700404,0.86315256,-0.038789943,309.81378,0.75269055,6.7118583
6895845933000.0,-0.0779400246376303,-2.020869659259943,8.551790974808526,0.19303341,0.8405506,-0.052534413,309.85532,0.81410944,6.496708
6895850932000.0,-0.082357709715973,-1.8618330038202453,8.582714704853743,0.21319197,0.7800749,-0.062002823,309.89944,0.87139875,6.3027325
6895855915000.0,-0.0834988592088918,-1.7096900921216085,8.620992187969925,0.2406809,0.7284568,-0.07880162,309.97293,0.8896003,6.116149
6895860935000.0,-0.0625440499509643,-1.599677314525444,8.710050007518797,0.27763826,0.70096785,-0.09437868,310.04837,0.89828795,5.9438357
6895866733000.0,-0.051801466977901,-1.4659094257493066,8.831116469446183,0.29810223,0.6188065,-0.116980694,310.14685,0.87280923,5.8037434
6895870999000.0,-0.0591119558736691,-1.359907398210611,8.940773699830007,0.31429017,0.60903263,-0.12095132,310.2438,0.8380966,5.65376
6895875940000.0,-0.0715650303085554,-1.220650228994857,9.075504856194485,0.30665436,0.59437186,-0.13194689,310.35205,0.7836344,5.5351796
6895881129000.0,-0.1459086265778401,-0.8210533687237027,9.335707855539972,0.3115413,0.6017023,-0.14385876,310.46054,0.7214636,5.4151816
6895885890000.0,-0.2141202014165498,-0.4544161261430576,9.574448745862554,0.29657507,0.61086524,-0.15974127,310.58038,0.6407687,5.2969694
6895890967000.0,-0.3091148466307385,-0.3014342974610778,9.689251277045908,0.28588495,0.64904433,-0.1740966,310.70203,0.5582446,5.1701474
6895895889000.0,-0.4032007579940119,-0.1744183149101796,9.788041023952095,0.24465153,0.6762278,-0.18784106,310.82666,0.48925388,5.045715
6895900938000.0,-0.509047337652254,-0.1303908256540938,9.865954765777367,0.21685717,0.6844745,-0.21960606,311.00052,0.33917293,4.905433
6895905963000.0,-0.6152996543955842,-0.0949733774940202,9.941216969089236,0.19853121,0.70188415,-0.23151793,311.17084,0.20057371,4.7562656
6895910928000.0,-0.7168667570333989,-0.0634501070946463,9.94238581768173,0.18692477,0.71959925,-0.24923302,311.36755,0.044826,4.586424
6895915856000.0,-0.8165408335756386,-0.033316092166552,9.919205822396856,0.17592919,0.71868294,-0.26633725,311.56525,-0.10375649,4.4188557
6895921007000.0,-0.9207253238899804,-0.001818464144106,9.894976894695482,0.17959438,0.7131852,-0.29138273,311.7685,-0.25731912,4.2210383
6895925917000.0,-1.0200353311591357,0.028205483359332,9.87188156660118,0.16707164,0.6933321,-0.3100141,311.9726,-0.40111917,4.0303664
6895930925000.0,-1.0848157726554877,0.0554164958290302,9.838447172832934,0.172264,0.68783426,-0.3213151,312.17484,-0.54690844,3.8358812
6895935890000.0,-1.1312213206991395,0.0807286292426581,9.800479085263063,0.17195857,0.68019843,-0.33505958,312.3807,-0.6859044,3.6502557
6895940962000.0,-1.1631866124729788,0.1111435402248162,9.753758511673151,0.16493362,0.67256266,-0.34391713,312.59756,-0.83293664,3.4243531
6895945959000.0,-1.1735315150778212,0.1473505405525291,9.696861736381322,0.15057829,0.6386596,-0.3436117,312.8135,-0.9758147,3.211524
6895950933000.0,-1.1903902199670722,0.1428970324613555,9.68004064803805,0.14874569,0.6151413,-0.33536503,313.0219,-1.1236949,2.988391
6895956066000.0,-1.2128715674471784,0.1069268483234245,9.693529268727705,0.14905111,0.59131753,-0.33444872,313.23026,-1.2662882,2.7783344
6895960942000.0,-1.2411669997493997,0.0823573380651561,9.697471200167069,0.12767084,0.57910025,-0.3313944,313.42908,-1.4068431,2.5722106
6895965871000.0,-1.2805982277435524,0.0724995387866764,9.687613714837632,0.122783914,0.5314528,-0.31673363,313.62274,-1.5500585,2.386015
6895971037000.0,-1.3232936764279328,0.0531390553138968,9.71921493980332,0.12736541,0.50946164,-0.3118467,313.8072,-1.6797864,2.1904733
6895976138000.0,-1.3669671949736764,0.0240233544950829,9.796856851892322,0.122783914,0.4886922,-0.2941316,313.98236,-1.8035339,2.0112317
6895980880000.0,-1.404935134362823,0.0065209085619858,9.86084674852071,0.10934488,0.4718934,-0.2846632,314.15173,-1.9226551,1.8302073
6895985871000.0,-1.441725721701063,-0.0003773226022514,9.918331846153846,0.09468412,0.4560109,-0.2828306,314.3169,-2.0384288,1.6576501
6895990898000.0,-1.478781678933949,-0.0073253105931591,9.976231582840237,0.08399397,0.43982297,-0.27091873,314.4705,-2.1437044,1.4818769
6895995884000.0,-1.5155354093423774,-0.0142166310870255,10.033659091715975,0.06780604,0.43799037,-0.2657264,314.62402,-2.2418942,1.3092871
6896000857000.0,-1.546901303152443,-0.0181465505302859,10.070772217518575,0.054367006,0.4334089,-0.25320363,314.7639,-2.335383,1.1423463
6896005942000.0,-1.565177189326728,-0.0144913629903174,10.056151363544249,0.025350908,0.42394048,-0.24801129,314.90314,-2.418626,0.9800656
6896011061000.0,-1.5835752741499662,-0.010811735651655,10.041432749681002,0.008857546,0.41416663,-0.23915374,315.03802,-2.4982827,0.80695695
6896016134000.0,-1.5927290528975429,-0.0036184968497913,10.030534880853036,-0.0033597588,0.410196,-0.23487769,315.1715,-2.5700583,0.63810533
6896021116000.0,-1.597152939554937,0.0052292829321279,10.021687384700977,-0.01863139,0.40317106,-0.21777347,315.2976,-2.6354778,0.47629973
6896026081000.0,-1.601946502804043,0.0121966117189435,10.035678455493969,-0.035430185,0.3930918,-0.2180789,315.42322,-2.696558,0.3123625
6896030898000.0,-1.6069602453972394,0.0172103579768503,10.070774339528311,-0.04642576,0.3753767,-0.20433442,315.53897,-2.7543528,0.15615764
6896035873000.0,-1.6197162125238398,0.0110440736795931,10.0546421252384,-0.058948494,0.364992,-0.18936823,315.64713,-2.8088791,0.0018164035
6896040901000.0,-1.637208593016075,-0.0020752212789029,10.006538215875034,-0.06566802,0.3472769,-0.17684549,315.75143,-2.861486,-0.14232059
6896045872000.0,-1.6493688746478874,-0.0268420358450704,9.959609063380285,-0.06658431,0.34391713,-0.15607607,315.843,-2.912689,-0.2862843
6896051770000.0,-1.6554418298355016,-0.0754252036543382,9.904952847166973,-0.067500606,0.33200526,-0.13500121,315.93045,-2.9616227,-0.41983014
6896055915000.0,-1.6391895061511423,-0.1163593968828045,9.804850662010915,-0.061086524,0.3210097,-0.11636983,316.00854,-3.008432,-0.5561508
6896061143000.0,-1.6067713121265377,-0.1719333995689575,9.64275993367866,-0.057421334,0.32834008,-0.10048734,316.08075,-3.053935,-0.6913723
6896065847000.0,-1.578196556611243,-0.2242196095434151,9.544449267616786,-0.042455133,0.33383787,-0.1001819,316.1457,-3.0978286,-0.8218316
6896071004000.0,-1.5477827782264448,-0.2850471209448403,9.509690897070469,-0.038789943,0.3417791,-0.086132,316.20178,-3.1393762,-0.9520486
6896075897000.0,-1.5213829803264511,-0.3411697326948438,9.481039,-0.03940081,0.33841935,-0.07544186,316.2503,-3.1732986,-1.0737566
6896080970000.0,-1.5108796603826613,-0.3884347053442871,9.481039,-0.02321288,0.34666604,-0.05681047,316.29218,-3.2130682,-1.198259
6896085891000.0,-1.4935867171412462,-0.4313514023822949,9.472313539047082,-0.031154128,0.3408628,-0.031154128,316.3227,-3.2311127,-1.3107647
6896090917000.0,-1.457399942232873,-0.4675382481392726,9.440649880744292,-0.03481932,0.32284227,-0.021991149,316.35275,-3.2550483,-1.4197289
6896095918000.0,-1.422885449436555,-0.5027292709482364,9.417383369583144,-0.029932396,0.30848694,-0.01038471,316.3651,-3.2707164,-1.5250536
6896100943000.0,-1.3964318514063216,-0.5335917712918002,9.4394279962437,-0.021685716,0.29993483,0.0027488936,316.3749,-3.286525,-1.6244916
6896106233000.0,-1.3691429004054476,-0.5652018497972762,9.463757751325502,-0.026572637,0.28619036,0.03176499,316.3722,-3.2919888,-1.7094938
6896110991000.0,-1.359668648528953,-0.5699389757355234,9.515866235575425,-0.032375857,0.2507602,0.03726278,316.37332,-3.2996066,-1.7841202
6896116069000.0,-1.3507010086313684,-0.5764644443196804,9.568714826773228,-0.031154128,0.21777347,0.05375614,316.355,-3.3015208,-1.847836
6896121843000.0,-1.3562251288311689,-0.6040850626233766,9.590811192207791,-0.031154128,0.20097467,0.070554934,316.33588,-3.3016696,-1.9044604
6896126005000.0,-1.3651333355735804,-0.6236539289165701,9.606698521050598,-0.05009095,0.17287487,0.08032878,316.31366,-3.2927089,-1.9474993
6896130945000.0,-1.4473628697566627,-0.6419271921263036,9.624972132483585,-0.04428773,0.14538592,0.09132435,316.28708,-3.291147,-1.9844607
6896136264000.0,-1.536260825784033,-0.6629661502562766,9.643483917730869,-0.054367006,0.122478485,0.10934488,316.25403,-3.2740152,-2.0157194
6896140934000.0,-1.6217374451915558,-0.7095897571540266,9.63571316106333,-0.05100725,0.09712757,0.12736541,316.21887,-3.2627554,-2.0374007
6896145934000.0,-1.713254168325949,-0.7595079658239945,9.627393293110938,-0.06169739,0.065973446,0.14263703,316.18488,-3.2415774,-2.0673795
6896150938000.0,-1.8116346872841127,-0.8084146471467528,9.614883162407835,-0.058337633,0.04520403,0.15607607,316.14703,-3.2258866,-2.0919428
6896156032000.0,-1.9151060156347843,-0.8576866592667407,9.600101764569237,-0.062308256,0.023823744,0.16768251,316.1064,-3.2055242,-2.1065412
6896160952000.0,-2.00168457109517,-0.9162837589574366,9.570364042085128,-0.067500606,0.021991149,0.17654006,316.0661,-3.176025,-2.1414793
6896165913000.0,-2.08348180482066,-0.9799038032711622,9.534009473457676,-0.079107046,0.026267206,0.17989981,316.0248,-3.1441612,-2.1711214
6896170958000.0,-2.1399106610390914,-1.0817326095568285,9.498839455130138,-0.086437434,0.023518313,0.18845193,315.9831,-3.104375,-2.2178133
6896175983000.0,-2.178598969751784,-1.2074697138679529,9.464987487991156,-0.082161374,0.031154128,0.204029,315.93872,-3.0655477,-2.2672958
6896180944000.0,-2.2072870700308167,-1.2886375777253467,9.412553754959552,-0.09040806,0.01038471,0.19456059,315.89978,-3.0098078,-2.3248703
6896185966000.0,-2.230445144761171,-1.3442170054410632,9.347711000625964,-0.089186326,-0.025350908,0.20647246,315.85092,-2.9594693,-2.3782086
6896191691000.0,-2.211060508166969,-1.4160136317402705,9.341498581165558,-0.08399397,-0.014049901,0.20708331,315.80164,-2.886404,-2.4443264
6896195952000.0,-2.1740307941923778,-1.4736154090340796,9.37029942685017,-0.062002823,0.021685716,0.2049453,315.75034,-2.819927,-2.5057886
6896200951000.0,-2.1310634169813185,-1.5272767555006426,9.414259878125923,-0.040317107,0.0125227375,0.20097467,315.6991,-2.746178,-2.5609686
6896205934000.0,-2.0886109363843035,-1.569729186843926,9.466146221409508,-0.0070249503,-0.0061086523,0.20891592,315.6452,-2.6834993,-2.6219633
6896210931000.0,-2.0591233753897864,-1.6039501369153206,9.526116592288302,0.0143553335,-0.01282817,0.21044308,315.58664,-2.609313,-2.6743953
6896215951000.0,-2.0411696694799737,-1.6308806957800392,9.593442989450098,0.016798794,-0.032986723,0.21166481,315.52686,-2.540496,-2.716343
6896221045000.0,-2.037609084036122,-1.6516063657213225,9.650385415478768,0.0290161,-0.062308256,0.20341812,315.45984,-2.4738507,-2.741968
6896225963000.0,-2.0551845383237555,-1.6621516749981342,9.689051488320024,0.0571159,-0.07544186,0.2125811,315.38812,-2.4137363,-2.7654076
6896231083000.0,-2.073481879916412,-1.6731301181655347,9.72930571624748,0.07147124,-0.09010262,0.21410827,315.322,-2.346812,-2.774557
6896235881000.0,-2.074860306109516,-1.6594076960194075,9.775986356569955,0.086132,-0.09315695,0.21838433,315.253,-2.2891316,-2.7826326
6896240862000.0,-2.070136864105357,-1.6357904366768987,9.827943824041984,0.11056661,-0.08857546,0.21227567,315.18713,-2.2390687,-2.7884083
6896245929000.0,-2.0616604569653574,-1.6211273569653577,9.848421943877014,0.13225232,-0.09865474,0.2144137,315.1201,-2.1901612,-2.7928047
6896250879000.0,-2.0516772706960094,-1.6111441706960092,9.853413641255132,0.13652839,-0.09743301,0.22082779,315.05392,-2.1439607,-2.8013043
6896255986000.0,-2.019457052173913,-1.556439252173913,9.847039347826088,0.15699236,-0.11301007,0.2406809,314.9817,-2.1141105,-2.8004088
6896261440000.0,-1.9785390206815512,-1.484832643654524,9.83681016039953,0.16035213,-0.1255328,0.24831672,314.91168,-2.0809839,-2.8003993
6896265868000.0,-1.949717956171853,-1.4517239217072482,9.799074262197989,0.16249016,-0.1386664,0.25473082,314.83813,-2.0546634,-2.7942307
6896271072000.0,-1.9169207698975277,-1.4189266865093542,9.74753572877691,0.16707164,-0.13500121,0.26725355,314.76135,-2.0304458,-2.788961
6896275900000.0,-1.868488658131892,-1.370494623038592,9.71138798038592,0.18875736,-0.13164146,0.269697,314.68805,-2.0233407,-2.7742808
6896280948000.0,-1.8069826422709925,-1.3089887142175574,9.680634892175572,0.19517145,-0.13133603,0.27030787,314.61252,-2.0132341,-2.7597003
6896285878000.0,-1.7672272088008896,-1.23968870251454,9.645984943807733,0.204029,-0.13927728,0.27488935,314.53732,-2.0152075,-2.7388844
6896290910000.0,-1.7342538796869655,-1.1654987227677045,9.60889008304824,0.20463985,-0.14049901,0.27763826,314.46335,-2.0162342,-2.7202535
6896295876000.0,-1.698183121199167,-1.0823313811958786,9.550237044064453,0.204029,-0.15302174,0.2764165,314.38977,-2.0309167,-2.6843047
6896300874000.0,-1.6562101659212978,-0.9826456603474736,9.45579768924696,0.21319197,-0.1695151,0.2751948,314.31647,-2.0477598,-2.6474173
6896305924000.0,-1.6061543256058446,-0.9215765109141126,9.40431503545973,0.21685717,-0.17104226,0.27397305,314.24808,-2.0792894,-2.6050656
6896310967000.0,-1.55021651952067,-0.8914561555194227,9.38710350650392,0.22235495,-0.17623462,0.25473082,314.18637,-2.1124935,-2.558044
6896315939000.0,-1.48879747925117,-0.85526411950078,9.356223595631825,0.22815818,-0.18325958,0.24740042,314.12448,-2.1638727,-2.5055206
6896321093000.0,-1.4117946287051482,-0.8039288858034321,9.29462110078003,0.22602014,-0.18173242,0.22388211,314.0737,-2.212541,-2.4554234
6896325916000.0,-1.347755264094064,-0.7460921168268932,9.278549713871335,0.24373524,-0.15149458,0.20952678,314.02048,-2.273334,-2.3999126
6896331256000.0,-1.2894788975758833,-0.6666243256946027,9.326230774681443,0.2602286,-0.12767084,0.18753563,313.97705,-2.3310885,-2.3447833
6896335867000.0,-1.2446511720597386,-0.6047869546048538,9.358656437461107,0.26328292,-0.12644911,0.17440203,313.9312,-2.3984582,-2.2785442
6896340962000.0,-1.201275053293626,-0.5440603520979643,9.384682199306605,0.27458394,-0.11301007,0.15699236,313.89334,-2.4705608,-2.2243633
6896345873000.0,-1.1692339887337295,-0.4807241636039996,9.413059887337296,0.2687807,-0.11026118,0.14813483,313.85895,-2.5498843,-2.1584024
6896350912000.0,-1.173393759029394,-0.3975287012240324,9.45465759029394,0.2510656,-0.10995574,0.14172074,313.82947,-2.6265025,-2.0974445
6896356705000.0,-1.1759844608860526,-0.3042496270856455,9.50166510691824,0.23793201,-0.12583824,0.13836098,313.8039,-2.7144027,-2.0232937
6896361025000.0,-1.145372673982612,-0.2698113838004069,9.524623597484275,0.21197024,-0.1282817,0.13255776,313.78137,-2.790957,-1.9551808
6896365854000.0,-1.1111540816315206,-0.2313154863873474,9.550287150943396,0.20891592,-0.13530666,0.12522738,313.76645,-2.8883405,-1.8841671
6896371173000.0,-1.074339623568933,-0.1629060861972588,9.540782286750874,0.19700404,-0.14813483,0.12522738,313.75183,-2.9731543,-1.812906
6896375869000.0,-1.0421097846367464,-0.0944177215855952,9.520638663710471,0.18020524,-0.15790866,0.122478485,313.74066,-3.0531034,-1.7427635
6896381009000.0,-1.0174724447401529,-0.0417614755879221,9.498900242330398,0.16554448,-0.16401732,0.11453723,313.7275,-3.1350355,-1.6660208
6896385875000.0,-1.003942770260331,-0.0124471596903125,9.478605777702509,0.1685988,-0.1591304,0.121256754,313.71143,-3.2148716,-1.5918039
6896390855000.0,-0.990096124368528,0.0175539280963902,9.457835857059903,0.16462818,-0.1469131,0.11636983,313.70386,-3.3023438,-1.5139836
6896395903000.0,-0.9760604078099292,0.0479646692906222,9.436782331075197,0.17684549,-0.1432479,0.110872045,313.6951,-3.3926504,-1.4375781
6896400959000.0,-0.9686521796116504,0.0837738169902912,9.415209966019416,0.17837265,-0.13713925,0.103847094,313.68216,-3.4767811,-1.3684131
6896405957000.0,-0.9723403323624596,0.1280316808090615,9.393081165048542,0.16371189,-0.13225232,0.10415252,313.66922,-3.5571954,-1.3021417
6896410972000.0,-0.9760410298505164,0.1724400815795962,9.370877096047156,0.17195857,-0.112399206,0.089491755,313.66092,-3.6584423,-1.2364515
6896415897000.0,-0.9664754095242556,0.2372066893837797,9.348852712586629,0.17867808,-0.10140363,0.0852157,313.6503,-3.7523088,-1.1717736
6896421169000.0,-0.9522904561247424,0.3128596968308672,9.325211164731224,0.18661933,-0.09010262,0.08674286,313.6424,-3.8461046,-1.1151263
6896425893000.0,-0.9598133606136626,0.3556798690544192,9.297741608066383,0.18173242,-0.06963864,0.080634214,313.6435,-3.94847,-1.0675979
6896430886000.0,-0.9782684068554612,0.3879761770937862,9.26544488571015,0.16646078,-0.054367006,0.076052725,313.6441,-4.0471616,-1.0236968
6896435871000.0,-0.9864111,0.4311037003706915,9.320501959462389,0.16065755,-0.024129177,0.07238753,313.65002,-4.1632376,-0.98684436
6896440905000.0,-0.9864111,0.483357815304574,9.445912180143075,0.15515977,-0.036957346,0.07941248,313.65527,-4.2719116,-0.9437212
6896446555000.0,-0.9744058870306496,0.4459713228589731,9.5050495095102,0.14660765,-0.053145275,0.089491755,313.66058,-4.3825254,-0.9159152
6896450874000.0,-0.9621769920272002,0.3929794062028185,9.52950738464571,0.12217305,-0.058337633,0.0852157,313.66855,-4.483982,-0.88913435
6896455945000.0,-0.9495038608637032,0.37349546,9.535774334776924,0.11484267,-0.07147124,0.08582657,313.67642,-4.596389,-0.85301524
6896460969000.0,-0.937709304498284,0.37349546,9.53184274072561,0.077579886,-0.08368854,0.076358154,313.6889,-4.6901245,-0.8176101
6896465879000.0,-0.9325972354166666,0.3649858370930232,9.53135437015504,0.06505715,-0.084910266,0.074830994,313.68945,-4.772099,-0.78005654
6896471149000.0,-0.948898858101852,0.326948760994832,9.542222326658052,0.064751714,-0.0729984,0.07849618,313.69144,-4.844754,-0.7443485
6896475872000.0,-0.9540685401801804,0.30645782,9.540852548348347,0.05100725,-0.06414085,0.07971791,313.6889,-4.908926,-0.7058817
6896480986000.0,-0.9442635585885886,0.30645782,9.521242226826828,0.058643065,-0.055283304,0.07849618,313.68613,-4.977176,-0.67213255
6896485848000.0,-0.9448945662222222,0.30327406272,9.517728384888889,0.053450707,-0.029932396,0.07452556,313.67847,-5.030508,-0.6487375
6896490918000.0,-0.9621583668888888,0.29464216464,9.539308107555556,0.04886922,-0.00580322,0.080634214,313.66846,-5.0845904,-0.62829155
6896495873000.0,-0.9780137989497804,0.2937914491502769,9.56060174737445,0.07452556,-0.009162978,0.076358154,313.66406,-5.14529,-0.6050953
6896500877000.0,-0.9871645163834256,0.3441204332556807,9.583478540958565,0.070249505,-0.022296581,0.06994407,313.6585,-5.1946783,-0.5865064
6896505986000.0,-0.9948263321161648,0.3943914333418749,9.6037946724322,0.07513642,-0.03756821,0.05955936,313.65942,-5.25017,-0.57041794
6896510881000.0,-0.9748056462310484,0.4244224883013026,9.573764061712575,0.0693332,-0.029321533,0.057726767,313.65967,-5.2999554,-0.5578706
6896515916000.0,-0.953836922461189,0.4547224599962135,9.54577068723968,0.062308256,-0.019547688,0.05222898,313.66522,-5.362624,-0.5432598
6896521036000.0,-0.9306292090193108,0.482571697709201,9.531845780007572,0.055283304,-0.01038471,0.038789943,313.67358,-5.4219313,-0.5317849
6896525956000.0,-0.90979666,0.5069549667156182,9.519346,0.049480084,0.008552114,0.03940081,313.67734,-5.485958,-0.52155465
6896530883000.0,-0.90979666,0.4975910316163922,9.519346,0.041233405,0.01863139,0.036651913,313.68604,-5.5455747,-0.5125169
6896536110000.0,-0.9101032153777208,0.4893368167733675,9.516893567221512,0.03604105,0.011911872,0.021991149,313.69833,-5.6093693,-0.49958324
6896540916000.0,-0.9137864782410372,0.5003866130553777,9.487427587387964,0.023518313,0.018020526,0.016798794,313.70822,-5.667062,-0.49356928
6896545905000.0,-0.9176099901896608,0.5118571568862036,9.456839619558258,0.0015271631,0.024740042,0.010079277,313.72195,-5.720732,-0.48274237
6896550875000.0,-0.9142958842759238,0.5095311900883989,9.435115488379022,0.0012217305,0.027183503,0.0036651916,313.73703,-5.7755556,-0.47320977
6896555980000.0,-0.9045840172765196,0.4949633870540326,9.420547376042908,-0.004276057,0.015882496,-0.00580322,313.75507,-5.8213263,-0.46249112
6896560927000.0,-0.8902825215058179,0.4710268219028063,9.416485382614647,-0.015882496,0.027794369,-0.004276057,313.77454,-5.8683553,-0.45983568
6896566001000.0,-0.8712768466021317,0.4377669181089273,9.42123689312604,-0.028405234,0.030543262,-0.010995574,313.79944,-5.91233,-0.45243216
6896571035000.0,-0.8712409295060543,0.4073870179165866,9.423578,-0.024740042,0.030543262,-0.011911872,313.82126,-5.9552627,-0.4437881
6896575899000.0,-0.8891466101364597,0.3805285203421103,9.423578,-0.025350908,0.029626964,-0.01740966,313.84598,-5.992466,-0.4364826
6896580879000.0,-0.9112564604168696,0.3492031914970293,9.432775160611667,-0.023823744,0.02565634,-0.015271631,313.86588,-6.0231447,-0.42371342
6896585888000.0,-0.939290097074121,0.311825006034869,9.456136508230252,-0.022907447,0.02321288,-0.013744468,313.8872,-6.05278,-0.41181356
6896590901000.0,-0.95599181815072,0.278859831314204,9.474839816603698,-0.0143553335,0.025961773,-0.014049901,313.906,-6.077685,-0.40588975
6896595888000.0,-0.9511148906565916,0.2544753109690595,9.484593824364342,-0.013439035,0.035124753,-0.012217305,313.92334,-6.100191,-0.40132084
6896600861000.0,-0.9464276223685426,0.2327152624729692,9.492292262637465,-0.006414085,0.029932396,-0.015271631,313.9387,-6.119746,-0.39859965
6896605988000.0,-0.94189012550134,0.2145652560521208,9.496829854264854,-0.010079277,0.032070424,-0.013744468,313.95154,-6.1361647,-0.40045023
6896610922000.0,-0.943030514804064,0.205616403628447,9.500193,-0.004886922,0.0421497,-0.018020526,313.96292,-6.1549454,-0.39888838
6896615951000.0,-0.9630022295303752,0.2255881131411984,9.500193,-0.012217305,0.04428773,-0.02443461,313.97458,-6.16875,-0.39587274
6896621046000.0,-0.978021275365216,0.2311113450069199,9.499005999846224,-0.011301007,0.04795292,-0.028099801,313.98114,-6.184109,-0.39365596
6896625892000.0,-0.9815895648316162,0.2061332963862832,9.495437635860371,-0.012217305,0.058643065,-0.018325957,313.9853,-6.196577,-0.3939733
6896632328000.0,-0.986328630247578,0.1729598087836383,9.490698471474705,-0.0061086523,0.065973446,-0.02687807,313.9988,-6.215193,-0.39936522
6896635877000.0,-0.9965785613673804,0.1656042088828253,9.483837550864909,-0.014660766,0.08093964,-0.016493361,314.00354,-6.2290545,-0.40903997
6896640865000.0,-1.0113342486820427,0.1557670788704695,9.474000220551895,-0.010079277,0.089186326,-0.02107485,314.0149,-6.2480145,-0.41953185
6896645922000.0,-1.0186846340529931,0.1355132286359175,9.475005208047106,-0.014660766,0.089186326,-0.01740966,314.01825,-6.25489,-0.43183187
6896650893000.0,-1.0233564959568204,0.1121539044818449,9.479677167517174,-0.015882496,0.09468412,-0.018325957,314.02374,-6.263859,-0.44802806
6896655934000.0,-1.0212892862838916,0.0950578295422647,9.474180829346093,-0.019242255,0.109650314,-0.013133603,314.02713,-6.267673,-0.4707071
6896660894000.0,-1.0165543452950558,0.0808529937208931,9.464710749601275,-0.026267206,0.11148291,-0.0015271631,314.02917,-6.270077,-0.490589
6896665886000.0,-1.0280713642575685,0.0604521543932724,9.455420287265738,-0.026572637,0.11728613,-0.0070249503,314.0285,-6.270791,-0.5150482
6896671034000.0,-1.047024365737626,0.0367609475665545,9.445944108121097,-0.03756821,0.111177474,-0.009773844,314.0242,-6.266533,-0.53561497
6896675960000.0,-1.0598173169436604,0.0128091163359464,9.45228464241664,-0.030543262,0.111177474,-0.003970624,314.01584,-6.265151,-0.55765593
6896680888000.0,-1.0696834129821262,-0.0118561412737535,9.46708358043274,-0.04550946,0.11026118,0.003970624,314.008,-6.2545123,-0.5771808
6896685867000.0,-1.0823781768071126,-0.0256708029614418,9.484496301024354,-0.027183503,0.112399206,0.006414085,313.99655,-6.25083,-0.6019703
6896690909000.0,-1.096376889292617,-0.0350032842859489,9.503161153556244,-0.03390302,0.103847094,0.009468411,313.98328,-6.2360377,-0.6225261
6896695894000.0,-1.1165567244908097,-0.0413520134878291,9.521948393939391,-0.032070424,0.092240654,0.0070249503,313.9715,-6.2238555,-0.6436466
6896700874000.0,-1.1402489569796324,-0.0460904624595131,9.540902575757576,-0.040927973,0.09010262,0.0143553335,313.95624,-6.2070684,-0.66401917
6896705919000.0,-1.1911939547993342,-0.0590779325437395,9.595650867209171,-0.05467244,0.080634214,0.025350908,313.94403,-6.185949,-0.682231
6896710898000.0,-1.2573345414277788,-0.076715410647309,9.670609818106158,-0.04550946,0.06811147,0.023823744,313.93362,-6.1692967,-0.69854754
6896715946000.0,-1.3066130256425763,-0.0953539509374055,9.710882,-0.046731193,0.061391957,0.021991149,313.92105,-6.1446667,-0.7185539
6896720962000.0,-1.3356648725128517,-0.1147218640187481,9.710882,-0.046120327,0.045814894,0.024740042,313.90845,-6.1236806,-0.73185486
6896725904000.0,-1.3666135062351177,-0.1387467228600405,9.702740200017638,-0.05009095,0.035124753,0.026267206,313.89575,-6.098974,-0.75737107
6896730894000.0,-1.400329561883764,-0.1682482506490872,9.685882282211836,-0.04734206,0.029626964,0.03176499,313.88165,-6.0768323,-0.7791603
6896735937000.0,-1.4311946556180903,-0.1925987227879396,9.670449772261309,-0.048563786,0.019547688,0.03726278,313.8687,-6.048853,-0.8021852
6896740888000.0,-1.4502558065829143,-0.1973640279447236,9.66091897286432,-0.046120327,0.008857546,0.042455133,313.85468,-6.0232825,-0.8226979
6896745910000.0,-1.473441938247012,-0.2031605702855245,9.654444835989375,-0.03726278,0.009162978,0.04062254,313.838,-5.993925,-0.8514122
6896750875000.0,-1.5095253653955607,-0.2121814082337317,9.658955346803262,-0.030848695,0.0033597588,0.043676864,313.8192,-5.9651732,-0.8744402
6896755957000.0,-1.5437524986597402,-0.2240395637350649,9.66111152103896,-0.03176499,0.0009162979,0.051923547,313.80252,-5.936861,-0.90125006
6896760890000.0,-1.558477337090909,-0.2534893687272727,9.646386836363636,-0.017715093,-0.005497787,0.048258353,313.78882,-5.91509,-0.92495865
6896766142000.0,-1.5771550736857225,-0.2777274,9.627709203485589,-0.017715093,-0.010079277,0.055588737,313.76862,-5.88834,-0.9556637
6896771843000.0,-1.6085238394426888,-0.2777274,9.596340328545438,-0.0027488936,-0.008246681,0.055283304,313.75183,-5.870223,-0.98602676
6896780945000.0,-1.6280571,-0.2379030874899353,9.57182886087445,-0.0036651916,0.004276057,0.067500606,313.73206,-5.840912,-1.0204355
6896786281000.0,-1.628588385822762,-0.2012900348427729,9.56723,-0.00030543262,0.008246681,0.064751714,313.71704,-5.8174577,-1.0526865
6896790904000.0,-1.6404537691977843,-0.2052451529980346,9.56723,-0.0033597588,0.0030543262,0.062002823,313.70084,-5.7919126,-1.0924441
6896795860000.0,-1.653173829765946,-0.2094851628568876,9.56723,0.0027488936,-0.0018325958,0.07086037,313.6802,-5.7779946,-1.1344688
6896800878000.0,-1.6676685005455307,-0.1998088418799832,9.56360295740663,0.004581489,-0.0012217305,0.06872234,313.6638,-5.762171,-1.1760517
6896806120000.0,-1.6834684120856065,-0.1840089193411666,9.558336210239194,-0.004886922,-0.008246681,0.07238753,313.64386,-5.745159,-1.2127705
6896810877000.0,-1.693316005512283,-0.2092523655781905,9.584946182144996,0.004276057,-0.012217305,0.06841691,313.62836,-5.7343135,-1.2516423
6896815912000.0,-1.7029463606151387,-0.2429586285500299,9.618652626123428,0.008857546,-0.01160644,0.06658431,313.61154,-5.7197227,-1.2888335
6896820935000.0,-1.694023342207033,-0.273842923381599,9.645987589711304,0.011911872,-0.023518313,0.0693332,313.59842,-5.7105193,-1.3236877
6896825923000.0,-1.681134841874269,-0.303916113254789,9.671764680097132,0.0125227375,-0.024740042,0.07147124,313.58588,-5.7020273,-1.3610206
6896830917000.0,-1.6730029755295086,-0.3042817159819042,9.68509028583179,0.014966198,-0.027488936,0.06688975,313.57132,-5.6883593,-1.3948483
6896835899000.0,-1.668097401028172,-0.2846594077318528,9.689995962780175,0.018020526,-0.040011674,0.06688975,313.55542,-5.675293,-1.4246035
6896840909000.0,-1.656965897232008,-0.2620632701560141,9.6854632224459,0.022296581,-0.028710667,0.060170226,313.53775,-5.6565814,-1.4557369
6896845911000.0,-1.642500878510317,-0.2379549693930548,9.675819708807248,0.02321288,-0.03481932,0.05955936,313.5194,-5.6381564,-1.4775703
6896850873000.0,-1.6079390589503546,-0.2209348921815603,9.651788465531917,0.021380283,-0.043676864,0.0720821,313.50055,-5.6233997,-1.5011114
6896856064000.0,-1.5609290193380614,-0.2068318557541371,9.6188812070922,0.021380283,-0.04337143,0.058948494,313.48935,-5.609441,-1.5257076
6896860942000.0,-1.541866,-0.192739022125289,9.599954566848854,0.028405234,-0.034513887,0.051923547,313.47855,-5.6020246,-1.5455937
6896865885000.0,-1.541866,-0.1778121284885432,9.590003623081774,0.025350908,-0.04337143,0.048563786,313.47107,-5.5917525,-1.5604392
6896870944000.0,-1.5388223788129811,-0.1693389623740376,9.56812259068317,0.029626964,-0.03268129,0.042455133,313.45953,-5.5887704,-1.5747188
6896875885000.0,-1.534210746710847,-0.1647274265783062,9.540453279602378,0.028099801,-0.027488936,0.04428773,313.44733,-5.583262,-1.5846409
6896880884000.0,-1.5198284795539034,-0.1677899307806691,9.511478167286246,0.028099801,-0.032986723,0.04795292,313.4349,-5.583362,-1.594523
6896885931000.0,-1.4984379194547708,-0.1763461592874845,9.481531204460968,0.022602014,-0.023823744,0.04062254,313.4248,-5.581255,-1.610088
6896890988000.0,-1.477550003935636,-0.18195933,9.45331623255099,0.03145956,-0.026572637,0.05131268,313.41043,-5.5834208,-1.6204091
6896895898000.0,-1.4582727813262273,-0.18195933,9.429219641385671,0.03848451,-0.018325957,0.047647487,313.40186,-5.5833106,-1.6367563
6896900883000.0,-1.435069340953545,-0.1764450562347188,9.423191449877752,0.04428773,-0.018020526,0.05009095,313.3868,-5.583773,-1.6445756
6896905925000.0,-1.405554481764466,-0.1616876420497147,9.447787123064384,0.040011674,-0.025045475,0.04520403,313.37512,-5.5832033,-1.6526953
6896911718000.0,-1.3858838072192512,-0.1394630812131115,9.470144664587048,0.038179077,-0.019547688,0.04520403,313.3623,-5.584305,-1.6605797
6896915923000.0,-1.3818958032085562,-0.1195232568766092,9.48210880154486,0.042760566,-0.022296581,0.044593163,313.35168,-5.5859127,-1.6641352
6896920996000.0,-1.3770272592683177,-0.1012791518373586,9.490616,0.03756821,-0.020463986,0.053145275,313.33508,-5.588653,-1.662256
6896925924000.0,-1.3722179269948027,-0.0916603768083155,9.490616,0.032375857,-0.025961773,0.050396383,313.3224,-5.592376,-1.657894
6896930884000.0,-1.365663301219963,-0.0881013101878003,9.519266740850275,0.022907447,-0.022602014,0.05467244,313.30896,-5.596974,-1.6557337
6896935935000.0,-1.3567220042144177,-0.0925719605578558,9.586326468391867,0.018020526,-0.03145956,0.044593163,313.30112,-5.601018,-1.6491158
6896940860000.0,-1.3490285989659807,-0.0892620544820597,9.636870320545963,0.013439035,-0.029932396,0.04062254,313.289,-5.6035933,-1.646457
6896945894000.0,-1.3440436324475236,-0.0643372052329645,9.646839941267707,0.01160644,-0.030848695,0.039095376,313.27954,-5.605335,-1.6409252
6896950857000.0,-1.336324630075188,-0.0493601565413533,9.650468845864662,0.017715093,-0.027794369,0.036651913,313.27316,-5.6048903,-1.6341482
6896955967000.0,-1.322526477443609,-0.0539595445939849,9.641270365601503,0.011911872,-0.028710667,0.027794369,313.26926,-5.600327,-1.6264955
6896960937000.0,-1.309477775264496,-0.0600056487919297,9.631723139834332,0.006414085,-0.02687807,0.014966198,313.26996,-5.60231,-1.619538
6896965938000.0,-1.297693822947593,-0.0717895272812269,9.619939023456082,0.003970624,-0.03359759,0.015271631,313.2697,-5.6033325,-1.6101029
6896970963000.0,-1.2858533189699008,-0.0836299570770114,9.608098354629703,0.008246681,-0.05100725,0.017104227,313.27243,-5.6017585,-1.5974189
6896975925000.0,-1.2772029186561655,-0.0801021436861104,9.596403457461646,0.006414085,-0.04062254,0.009468411,313.27704,-5.5975943,-1.5913813
6896980933000.0,-1.2693334684961852,-0.0722326483312823,9.584599384937238,0.013439035,-0.043676864,0.00030543262,313.28235,-5.5970793,-1.5770426
6896985949000.0,-1.2610871998323083,-0.0639863469647848,9.572230113471214,0.021991149,-0.040011674,0.0009162979,313.28122,-5.5938945,-1.565387
6896991052000.0,-1.2519814777529346,-0.0548806163281162,9.558571720514252,0.025045475,-0.036651913,0.0012217305,313.28278,-5.5909915,-1.5535085
6896995902000.0,-1.2434502993617935,-0.0463494304003449,9.546542367313496,0.028710667,-0.043982297,-0.005192355,313.2883,-5.591198,-1.5395253
6897000901000.0,-1.235192529081501,-0.0380916549464424,9.53828442457956,0.02687807,-0.045814894,-0.0030543262,313.29095,-5.5906167,-1.5282499
6897006045000.0,-1.2266952355584304,-0.0295943560996981,9.529786953600691,0.034513887,-0.050396383,-0.0018325958,313.2985,-5.5955586,-1.5124937
6897010915000.0,-1.2050431497952665,-0.02873042,9.545553433336664,0.035124753,-0.04917465,-0.003970624,313.3061,-5.5977993,-1.4984038
6897016005000.0,-1.1807018375012484,-0.02873042,9.565026381504046,0.02107485,-0.04795292,-0.0061086523,313.31326,-5.5978203,-1.4835049
6897021031000.0,-1.1701298217829956,-0.0248216988498578,9.55941280748418,0.02687807,-0.04153884,-0.0030543262,313.3238,-5.6052804,-1.4681416
6897025930000.0,-1.161523568797579,-0.0205185921274878,9.550806869026871,0.032070424,-0.032986723,0.00030543262,313.3344,-5.608412,-1.4543374
6897030944000.0,-1.1587936,-0.0009521574532637,9.566278190149228,0.027794369,-0.035430185,-0.0027488936,313.3391,-5.607798,-1.4380066
6897035901000.0,-1.1587936,0.0251243223450517,9.592354288290762,0.029626964,-0.038789943,0.002443461,313.34015,-5.610277,-1.4240324
6897040927000.0,-1.149249937716263,0.0430790613806228,9.598379352941176,0.035430185,-0.027488936,0.00061086525,313.34467,-5.613309,-1.41228
6897045928000.0,-1.1303103126841323,0.0525488803240731,9.584174831932774,0.028405234,-0.029626964,-0.0061086523,313.34943,-5.6130075,-1.3962562
6897050947000.0,-1.1166483996694765,0.0555418382316972,9.565292958932408,0.030848695,-0.033292156,-0.0076358155,313.35797,-5.621325,-1.3836077
6897055976000.0,-1.1086890991902163,0.0515621846676582,9.5414149743844,0.02687807,-0.03481932,-0.0027488936,313.36633,-5.625504,-1.3714997
6897061095000.0,-1.1003799751584284,0.0493132703567807,9.518393205006335,0.026267206,-0.022296581,-0.006414085,313.37802,-5.6330547,-1.3589494
6897065882000.0,-1.090695957076468,0.0638393086028728,9.508709490283058,0.02443461,-0.028099801,-0.0036651916,313.38678,-5.638852,-1.3410872
6897070961000.0,-1.084355138434722,0.0795157072154436,9.497291688164545,0.032375857,-0.023823744,-0.00580322,313.3977,-5.646559,-1.3279992
6897075910000.0,-1.0967472204985185,0.0960384945149032,9.48076856702109,0.0290161,-0.016798794,-0.008857546,313.40796,-5.650313,-1.3145345
6897080854000.0,-1.1091267827784557,0.1125445887578873,9.464262139271396,0.025961773,-0.0125227375,-0.0027488936,313.41196,-5.6594906,-1.3011327
6897085878000.0,-1.1035838661699486,0.1222474214795103,9.458222439063332,0.022602014,-0.01160644,0.0015271631,313.4171,-5.6672807,-1.2893604
6897090936000.0,-1.0949907396132694,0.1308405570090473,9.453926234699308,0.024129177,-0.010995574,0.0009162979,313.42172,-5.675325,-1.279079
6897095889000.0,-1.0825233914839798,0.1402303755575464,9.443076198672006,0.02687807,-0.0070249503,0.0033597588,313.42575,-5.688477,-1.272323
6897100879000.0,-1.067413284401349,0.150303785538575,9.427965776032885,0.023518313,-0.0027488936,0.009468411,313.42883,-5.6999593,-1.2660621
6897105912000.0,-1.076592102450593,0.1498372808458498,9.433753089328064,0.016493361,-0.003970624,0.0106901415,313.43283,-5.712897,-1.2576617
6897115871000.0,-1.0922587864181583,0.1376027544537737,9.455333418527404,0.01282817,-0.004276057,0.01038471,313.4354,-5.7254467,-1.250906
6897120928000.0,-1.0788532104078243,0.1286656991142277,9.45980157058498,0.0106901415,-0.008857546,0.0143553335,313.4352,-5.739761,-1.2386131
6897125897000.0,-1.0676331979332274,0.1319522982889507,9.461885,0.01160644,-0.0012217305,0.009162978,313.43747,-5.754372,-1.2323269
6897131002000.0,-1.05791746581876,0.1465259066057233,9.461885,0.011911872,-0.0030543262,0.0106901415,313.4371,-5.767845,-1.2220742
6897140898000.0,-1.0595809417034272,0.1470967618934509,9.486414079063454,0.0027488936,-0.0009162979,0.0036651916,313.4426,-5.777476,-1.2099895
6897145898000.0,-1.0606739402261711,0.1448279280452342,9.498429222940226,-0.007330383,-0.003970624,0.0018325958,313.44635,-5.786587,-1.196152
6897150876000.0,-1.045270568707593,0.1525296017415185,9.486876483198708,-0.01038471,0.00061086525,0.008552114,313.4485,-5.7974057,-1.184285
6897155928000.0,-1.0296382197899838,0.1603457639579967,9.47515200726979,-0.0070249503,0.005192355,0.0125227375,313.4531,-5.806061,-1.171959
6897160927000.0,-1.0278683686221537,0.153355507554998,9.468311865592437,-0.0061086523,0.0036651916,0.0036651916,313.45938,-5.812851,-1.1597906
6897166731000.0,-1.0332315244693169,0.1372660288131995,9.462948597742184,-0.008857546,0.016187929,0.016798794,313.4577,-5.8194275,-1.1525514
6897170948000.0,-1.0371439188027554,0.1397728810866401,9.47328039419812,-0.014966198,0.017104227,0.017104227,313.46054,-5.8277564,-1.1384028
6897175928000.0,-1.0417711587367808,0.1490272691530028,9.49178954720093,-0.015882496,0.018936822,0.0143553335,313.46014,-5.836517,-1.1281499
6897180975000.0,-1.043872,0.15322891,9.500193,-0.021991149,0.01985312,0.016798794,313.45032,-5.83967,-1.1204277
6897185869000.0,-1.043872,0.15322891,9.500193,-0.017104227,0.02076942,0.019547688,313.44128,-5.8454795,-1.1135038
6897190901000.0,-1.043872,0.148647879261811,9.502483322834646,-0.020158553,0.018936822,0.018325957,313.43082,-5.8489475,-1.1079845
6897195889000.0,-1.043872,0.1381996939293525,9.507706976377952,-0.029626964,0.01985312,0.022602014,313.4181,-5.851733,-1.1034445
6897200885000.0,-1.0495217707269535,0.1227757479271097,9.506944350613916,-0.04428773,0.019242255,0.02076942,313.40512,-5.8525896,-1.0983856
6897205923000.0,-1.058924990060417,0.1039692915864353,9.502243133697135,-0.04153884,0.017104227,0.02321288,313.39,-5.8555517,-1.0930488
6897210907000.0,-1.0782715300837775,0.0906860846521325,9.497651958587204,-0.04428773,0.027183503,0.022602014,313.3728,-5.8513565,-1.0911038
6897215880000.0,-1.1054756959634426,0.0816180246245239,9.493117836252855,-0.044898596,0.017715093,0.027183503,313.3543,-5.8484507,-1.0829397
6897220964000.0,-1.1226973029202842,0.0744035501562746,9.486194101815313,-0.04184427,0.016187929,0.017715093,313.33704,-5.844427,-1.0801429
6897225895000.0,-1.1273562611681136,0.0697445899625098,9.476875990726125,-0.03970624,0.01160644,0.019547688,313.3159,-5.839979,-1.0734373
6897230877000.0,-1.137071190267147,0.059028524254654,9.474465482642833,-0.037873644,0.02076942,0.026267206,313.29892,-5.833933,-1.0766327
6897235849000.0,-1.1535302018912643,0.0402182393203792,9.481519481556466,-0.042455133,0.02687807,0.02076942,313.28534,-5.826612,-1.0779632
6897240898000.0,-1.1702441097131004,0.0211166446636709,9.488682723816108,-0.044593163,0.023823744,0.020463986,313.2671,-5.8203735,-1.0798154
6897245880000.0,-1.186736224739519,0.0022685272979112,9.495750910177277,-0.034208454,0.022907447,0.016493361,313.2515,-5.816416,-1.0841323
6897250869000.0,-1.2057121410388771,-0.0196232619222455,9.503063323761896,-0.026267206,0.0143553335,0.01863139,313.23517,-5.8103967,-1.0858854
6897255946000.0,-1.2292424266978546,-0.047075281104291,9.51090650661397,-0.034513887,0.03023783,0.022602014,313.219,-5.802701,-1.094313
6897260930000.0,-1.2523416868365866,-0.0740244368268269,9.518606018793356,-0.03604105,0.03390302,0.02321288,313.205,-5.790004,-1.1040987
6897266012000.0,-1.2701384227826855,-0.0805086269697879,9.546605356360423,-0.037873644,0.03268129,0.026572637,313.18893,-5.7750993,-1.116524
6897270926000.0,-1.2867675811042405,-0.0846659083022968,9.575706481095407,-0.027794369,0.024740042,0.02687807,313.17392,-5.763369,-1.127829
6897276024000.0,-1.298826250519162,-0.0772553780007551,9.589362687464604,-0.02107485,0.027183503,0.0290161,313.15573,-5.745129,-1.1455146
6897280903000.0,-1.307647320407778,-0.0640237639569567,9.593773314517652,-0.025350908,0.023518313,0.026267206,313.13947,-5.726856,-1.1589828
6897285869000.0,-1.3146996457619675,-0.05746084,9.59328389833114,-0.029932396,0.023518313,0.031154128,313.12378,-5.7089934,-1.1766812
6897290919000.0,-1.320009575494071,-0.05746084,9.58797385770751,-0.023823744,0.03268129,0.025350908,313.11197,-5.693181,-1.1959468
6897295900000.0,-1.331473162393501,-0.0706258647727362,9.599548947790767,-0.026267206,0.034208454,0.0290161,313.0954,-5.6781373,-1.2140217
6897300871000.0,-1.3456220447394491,-0.0894910530532989,9.618414025757875,-0.015577064,0.02107485,0.03390302,313.08057,-5.6687593,-1.2301894
6897305901000.0,-1.3534936395929151,-0.0926042230856248,9.624691,-0.016187929,0.025350908,0.031154128,313.06726,-5.6536484,-1.2545661
6897310881000.0,-1.358160677854976,-0.0879371828742538,9.624691,-0.014966198,0.014660766,0.02443461,313.05475,-5.64228,-1.2704688
6897315917000.0,-1.373370101524147,-0.0915766774798405,9.619305475675676,-0.016798794,0.0125227375,0.02443461,313.0419,-5.6270113,-1.2903755
6897320951000.0,-1.3947300973238812,-0.1001207025644661,9.61076128108108,-0.01863139,0.030848695,0.025045475,313.0307,-5.612277,-1.3128576
6897325886000.0,-1.4039965747199998,-0.1110358015936,9.5998461616,-0.018325957,0.029626964,0.0290161,313.0201,-5.598918,-1.3297231
6897330939000.0,-1.3936730936,-0.1265211149013333,9.584361074666669,-0.013744468,0.02565634,0.03145956,313.0095,-5.5864873,-1.3505515
6897335874000.0,-1.382031388159732,-0.1318734270874057,9.56799956352974,-0.02321288,0.022296581,0.034513887,312.99997,-5.568931,-1.375047
6897340903000.0,-1.368582148506004,-0.127390342521642,9.550067337615191,-0.01985312,0.023823744,0.027794369,312.9927,-5.5565376,-1.3994673
6897345876000.0,-1.3634091279217344,-0.1209959419629825,9.54550505584347,-0.009773844,0.021991149,0.025045475,312.987,-5.540796,-1.4177825
6897350872000.0,-1.373529792755156,-0.110875219005817,9.565746385510312,-0.0036651916,0.017715093,0.027488936,312.98184,-5.5252056,-1.4354655
6897355914000.0,-1.385374833795988,-0.0990301404894001,9.568387398897237,-0.00030543262,0.015882496,0.030543262,312.97794,-5.5128465,-1.4502254
6897360900000.0,-1.3989930270082709,-0.0854119349531324,9.550229902747413,-0.003970624,0.02076942,0.024740042,312.9759,-5.5003586,-1.4655954
6897365885000.0,-1.4063440169791934,-0.0737214858438222,9.544285901875162,0.0030543262,0.02076942,0.0290161,312.97433,-5.4945936,-1.4786762
6897370947000.0,-1.402193168310643,-0.0654197824387362,9.56088920986386,0.007330383,0.01282817,0.030543262,312.97534,-5.487071,-1.4908683
6897376278000.0,-1.3973756752128146,-0.0566228146440274,9.576387978855836,0.010079277,0.008857546,0.032986723,312.9734,-5.4836373,-1.5094432
6897380941000.0,-1.389200550562929,-0.0484476844454919,9.572300331167048,0.010079277,0.008246681,0.02687807,312.97366,-5.480581,-1.5265925
6897386047000.0,-1.3802487627734554,-0.0394958905802288,9.567824343798629,0.01160644,0.01038471,0.03359759,312.97397,-5.477336,-1.543636
6897390897000.0,-1.3595606660972832,-0.0318073999757605,9.557480401822028,0.0061086523,0.004276057,0.02687807,312.9801,-5.4719677,-1.5584126
6897395964000.0,-1.3358781081909874,-0.0239131949106068,9.545639267122176,0.018936822,0.013133603,0.026572637,312.98206,-5.472406,-1.5774208
6897400873000.0,-1.3196639969914976,-0.019153614,9.5385,0.011911872,0.013133603,0.026267206,312.9851,-5.4698515,-1.5882076
6897405957000.0,-1.3143567753651624,-0.019153614,9.5385,0.0030543262,0.0030543262,0.025961773,312.98828,-5.4702945,-1.5984814
6897410904000.0,-1.3095466601945451,-0.021629555356666,9.543451724489795,0.011301007,0.005497787,0.028099801,312.98337,-5.475595,-1.6081957
6897415877000.0,-1.3050048495517834,-0.0261713688449361,9.552535061224493,0.010995574,0.019547688,0.02076942,312.9813,-5.4756956,-1.6185784
6897421816000.0,-1.2994427590563775,-0.0227243340362854,9.551647106257498,0.013744468,0.019242255,0.01740966,312.97717,-5.478134,-1.6252543
6897425892000.0,-1.2955408161535389,-0.0149204429339264,9.543843464914035,0.004886922,0.013133603,0.013133603,312.97534,-5.4769487,-1.6343584
6897430879000.0,-1.2969930617315424,-0.009576807,9.528189845671143,0.006414085,0.015577064,0.009773844,312.97348,-5.477365,-1.6453807
6897435872000.0,-1.3063698560054906,-0.009576807,9.504747859986272,0.004276057,0.013133603,0.017104227,312.97015,-5.474207,-1.6529943
6897440909000.0,-1.308172887833416,-0.0057270920195339,9.490616,0.0012217305,0.0070249503,0.009773844,312.97266,-5.4717755,-1.6612471
6897445902000.0,-1.298690099058007,0.0037557036871591,9.490616,-0.003970624,0.005192355,0.015882496,312.96927,-5.4682374,-1.6693503
6897456171000.0,-1.3191054113173106,-0.006165051296623,9.52209980316398,0.0021380284,0.004276057,0.011301007,312.96918,-5.4690537,-1.6777978
6897460990000.0,-1.336655836933374,-0.0166953143631731,9.54316038720718,-0.0021380284,0.006414085,0.015271631,312.965,-5.4654746,-1.6861107
6897465909000.0,-1.3341135519963454,-0.019153614,9.55803603334856,-0.0030543262,-0.0018325958,0.00580322,312.96964,-5.4650655,-1.689905
6897470910000.0,-1.3253618705344907,-0.019153614,9.571163372772956,-0.0076358155,-0.0012217305,0.016187929,312.96722,-5.462512,-1.6961573
6897475967000.0,-1.318819871485623,-0.024712674801817,9.576807,-0.007330383,-0.003970624,0.008552114,312.9689,-5.4590874,-1.7042536
6897485932000.0,-1.3169419058992806,-0.0432265362381295,9.576807,0.0015271631,-0.004886922,0.010995574,312.96478,-5.456974,-1.7123758
6897491786000.0,-1.3270251050359712,-0.0533097422185251,9.576807,-0.00580322,-0.005497787,0.013744468,312.95996,-5.4499855,-1.7183923
6897495893000.0,-1.3277194671275123,-0.0540041047813463,9.569893570349889,0.00061086525,-0.015882496,0.00580322,312.95267,-5.4463663,-1.7228665
6897500900000.0,-1.3175203737317878,-0.0438050044632564,9.549495490056366,-0.002443461,-0.012217305,0.005497787,312.94223,-5.438058,-1.730775
6897505937000.0,-1.3157574721267722,-0.0495118505951626,9.540367475062553,-0.004276057,-0.008857546,0.013133603,312.9292,-5.4304276,-1.7380977
6897510962000.0,-1.3237847315095914,-0.0735936442502919,9.544381188573812,0.00061086525,0.0033597588,0.018020526,312.91687,-5.4238663,-1.7489418
6897515908000.0,-1.331757219246862,-0.0966395936589958,9.552144128661087,-0.0030543262,0.0021380284,0.013744468,312.9073,-5.4142995,-1.7570289
6897520931000.0,-1.3409059956637503,-0.1103627707033092,9.616185468048688,0.0015271631,0.008857546,0.017104227,312.89383,-5.4086356,-1.7702824
6897526289000.0,-1.350190600126392,-0.1243592899810411,9.68173439165811,0.0012217305,-0.0030543262,0.016187929,312.8796,-5.3974566,-1.777246
6897530967000.0,-1.3466515946441266,-0.1208202808033809,9.671117153487636,0.004276057,-0.012217305,0.016493361,312.8641,-5.388671,-1.7865162
6897535889000.0,-1.3429279980251203,-0.1170966802962319,9.65994613034205,-0.00580322,-0.008552114,0.016493361,312.8494,-5.372955,-1.7956579
6897540860000.0,-1.338874387664951,-0.1074072255595694,9.65529965156762,-0.008246681,-0.008552114,0.016798794,312.8351,-5.360513,-1.8009185
6897545896000.0,-1.3343606988675714,-0.0893524581158633,9.659813434627983,0.005192355,0.0061086523,0.02107485,312.81937,-5.3500476,-1.8110619
6897550843000.0,-1.3311762,-0.0725326961251528,9.664358613330617,0.00061086525,-0.007941248,0.013133603,312.80978,-5.338429,-1.808127
6897555941000.0,-1.3311762,-0.0576052917880146,9.66933451487974,0.004581489,-0.019547688,0.010995574,312.79706,-5.333229,-1.8096759
6897561758000.0,-1.3241023145984323,-0.0514209780247004,9.667269659813638,0.0009162979,-0.02443461,0.01160644,312.78186,-5.3278685,-1.8107791
6897565884000.0,-1.3124135476113,-0.0572653670106493,9.65850320662624,0.0070249503,-0.03573562,0.007941248,312.7692,-5.326309,-1.8069487
6897571638000.0,-1.296112731992309,-0.0654157824796627,9.646277765123504,0.00061086525,-0.032986723,0.0076358155,312.7564,-5.322811,-1.8059602
6897575900000.0,-1.2781612014485613,-0.0817454270506503,9.635020155005911,0.0033597588,-0.036957346,0.0067195175,312.74548,-5.323506,-1.8000929
6897580911000.0,-1.254516421679149,-0.1053901722546314,9.620833020496647,0.0018325958,-0.04795292,0.014660766,312.7324,-5.3211236,-1.792901
6897585879000.0,-1.2474991404844598,-0.1325213765179446,9.620142585982723,0.0061086523,-0.05009095,0.01038471,312.72162,-5.319782,-1.7827479
6897590906000.0,-1.2517864834001249,-0.1625327993116039,9.628717450886098,-0.007941248,-0.050701816,0.005497787,312.70914,-5.312657,-1.7700971
6897595886000.0,-1.2473514244056707,-0.1783541903206106,9.63066278691385,-0.00580322,-0.04734206,-0.0027488936,312.69507,-5.3047886,-1.755273
