timestamp,acc_x,acc_y,acc_z,gyro_x,gyro_y,gyro_z,ori_azimuth,ori_pitch,ori_roll
715052029000.0,1.577545975700907,9.583982358724295,-0.084533217969239,-1.1704178,0.7461719,0.03756821,266.97092,2.1791115,-34.289112
715056921000.0,1.59940263407928,9.587005099955828,-0.0847657355020472,-1.1771374,0.7507534,0.03481932,266.97302,2.1721618,-34.28461
715061929000.0,1.6217775615443029,9.590099516981075,-0.0850037665331804,-1.1829406,0.7623598,0.031154128,266.93225,1.5856992,-34.37932
715066932000.0,1.6441301498245564,9.593190844532456,-0.0852415599135238,-1.1936307,0.7620544,0.032986723,266.8651,1.0039065,-34.470604
715071920000.0,1.6664157205505017,9.596272903662234,-0.0854786403414975,-1.1997393,0.75411314,0.030543262,266.7763,0.42571595,-34.56113
715076920000.0,1.6887549053198936,9.599362377529294,-0.0857162911313669,-1.1899655,0.7498371,0.034513887,266.66095,-0.15337549,-34.650295
715081916000.0,1.71107621874147,9.60244937981726,-0.0859537518006045,-1.1847731,0.73884153,0.033292156,266.52554,-0.7273835,-34.73248
715087255000.0,1.7349300002382264,9.605748320012507,-0.086207515314027,-1.1606439,0.7284568,0.0290161,266.36792,-1.3072834,-34.810364
715091928000.0,1.7558082023237,9.60863574228866,-0.086429623742239,-1.1468995,0.7128797,0.036651913,266.18576,-1.8869603,-34.87984
715096923000.0,1.7781250479083226,9.611722126681853,-0.0866670368813185,-1.1365148,0.7696902,0.059253927,265.9671,-2.479984,-35.01687
715101946000.0,1.8005669929276538,9.614825812128702,-0.0869057808648214,-1.509448,0.7852673,0.043066,265.7398,-2.9809241,-35.133842
715106939000.0,1.8228749028383684,9.617910960732347,-0.087143098943585,-1.2412782,0.7733554,0.050701816,265.47507,-3.64199,-35.253536
715111943000.0,1.845231958955576,9.621002906178502,-0.0873809398540863,-1.2400564,0.7467828,0.04886922,265.20062,-4.1488595,-35.36938
715116973000.0,1.867705178833584,9.624110916888764,-0.0876200165486949,-1.2458596,0.72356987,0.054061573,264.9025,-4.719292,-35.47704
715121955000.0,1.889963942537806,9.627189268649902,-0.0878568117957208,-1.2293663,0.6768387,0.05955936,264.5891,-5.2951255,-35.564747
715127014000.0,1.9125667296874769,9.630315198308592,-0.0880972668649107,-1.2366967,0.6224717,0.06841691,264.25745,-5.865783,-35.637436
715131941000.0,1.934579762359236,9.633359565857193,-0.088331447953248,-1.2391402,0.5558874,0.08399397,263.90887,-6.4438896,-35.686695
715136952000.0,1.95696809333512,9.63645583656676,-0.0885696215748552,-1.2137892,0.45875978,0.098043874,263.54813,-7.0285034,-35.70518
715141968000.0,1.979378763495774,9.639555196750194,-0.0888080328472522,-1.1246029,0.39553526,0.10445796,263.17386,-7.6293364,-35.707577
715146958000.0,2.001673269895627,9.64263849166952,-0.0890452083355419,-1.0677924,0.27763826,0.105374254,262.79474,-8.230668,-35.660145
715151948000.0,2.02396777629548,9.645721786588846,-0.0892823838238315,-0.93737274,0.17256944,0.1020145,262.40887,-8.870801,-35.59172
715157296000.0,2.0478617683248217,9.649026287837051,-0.0895365751086759,-0.8054258,0.08368854,0.10048734,262.0214,-9.525683,-35.487858
715162005000.0,2.068900812540635,9.651935954325053,-0.0897603946225749,-0.68691796,0.012217305,0.09254608,261.63773,-10.206761,-35.353233
715166975000.0,2.0911059622014108,9.655006891348908,-0.0899966195077051,-0.5681047,-0.21288654,0.03940081,261.28506,-10.911259,-35.14732
715171947000.0,2.113320047536094,9.658079064162312,-0.0902329394531512,-0.12644911,-0.28985557,0.016187929,260.9166,-11.722537,-34.954945
715176996000.0,2.1358781563162257,9.661198814873268,-0.0904729192207614,0.06780604,-0.23579398,0.013133603,260.56607,-12.49929,-34.73231
715182019000.0,2.1583201013355566,9.664302500320115,-0.0907116632042642,0.017104227,-0.18875736,0.02107485,260.22772,-13.320037,-34.48057
715187009000.0,2.18061460773541,9.667385795239442,-0.0909488386925539,-0.0076358155,-0.17134771,0.016493361,259.89352,-14.189238,-34.229874
715192002000.0,2.2029225176461247,9.670470943843087,-0.0911861567713175,-0.015577064,-0.14080444,0.014049901,259.5512,-15.05168,-33.98793
715196989000.0,2.225203620535116,9.673552385078091,-0.0914231896691333,-0.008246681,-0.11209377,0.014966198,259.2091,-15.910868,-33.74341
715201991000.0,2.247551740978416,9.6766430947347,-0.0916609355193186,-0.004886922,-0.07849618,0.010079277,258.86746,-16.764692,-33.502357
715206990000.0,2.2698864579108537,9.679731950706987,-0.0918985387790301,-0.014049901,-0.061086524,0.007330383,258.52545,-17.616247,-33.25752
715212023000.0,2.2923730812997234,9.682841815101568,-0.0921377580641126,-0.006414085,-0.040011674,0.0036651916,258.18298,-18.469656,-33.016376
715216981000.0,2.3145246169170526,9.685905337388146,-0.0923734125873472,-0.0009162979,-0.024740042,0.0036651916,257.84137,-19.318373,-32.77141
715226983000.0,2.3592119221297443,9.692085520911812,-0.0928488092274019,0.02107485,-0.007330383,0.003970624,257.5006,-20.169687,-32.526184
715232064000.0,2.3819130016924,9.695225044255515,-0.0930903099600673,0.03145956,0.0018325958,-0.0021380284,257.1641,-21.015715,-32.276917
715236993000.0,2.4039349700380663,9.698270647593665,-0.0933245861087205,0.030848695,-0.02107485,0.009468411,256.82797,-21.864162,-32.015106
715242022000.0,2.426403722079121,9.701378040409152,-0.0935636152731712,0.03268129,-0.025045475,0.0106901415,256.49686,-22.70952,-31.756147
715246998000.0,2.44863567876162,9.704452684801652,-0.0938001253392493,0.028099801,-0.026267206,0.02076942,256.1673,-23.55297,-31.483173
715252004000.0,2.471001670552735,9.707545866037352,-0.0940380613100665,0.041233405,-0.04520403,0.018936822,255.84944,-24.395424,-31.20017
715256991000.0,2.4932827734417264,9.710627307272356,-0.0942750942078823,0.048258353,-0.057726767,0.021991149,255.53198,-25.233713,-30.910725
715262030000.0,2.5157962038523194,9.71374087903558,-0.0945145986739127,0.03940081,-0.07880162,0.022602014,255.2264,-26.066349,-30.6096
715267015000.0,2.538068371067403,9.71682108448104,-0.0947515365114125,0.036651913,-0.089186326,0.014049901,254.92932,-26.896555,-30.303799
715272769000.0,2.5637763049000197,9.720376451007253,-0.0950250250403942,0.025045475,-0.10354166,0.019242255,254.63937,-27.720184,-29.984936
715276993000.0,2.582648448193201,9.722986438530144,-0.0952257924276759,0.018936822,-0.10445796,0.013439035,254.36145,-28.53641,-29.665335
715281966000.0,2.6048670013648385,9.72605922923832,-0.09546215990328,0.00030543262,-0.10415252,0.011911872,254.0906,-29.343367,-29.336994
715286947000.0,2.6271212972321067,9.729136963104686,-0.095698907620148,-0.01863139,-0.09040806,-0.00030543262,253.82938,-30.140902,-29.010468
715292017000.0,2.619684245094684,9.730210225415547,-0.0924578479786023,-0.032070424,-0.05497787,-0.009162978,253.5709,-30.930204,-28.685242
715296974000.0,2.600572363748723,9.730449128703205,-0.0879187772128849,-0.038179077,-0.010079277,-0.0076358155,253.31587,-31.710918,-28.362288
715301983000.0,2.5812599946420214,9.730690538137916,-0.0833320906150478,-0.040011674,0.04795292,-0.010079277,253.04611,-32.52392,-27.958927
715306925000.0,2.562205946303966,9.730928718498538,-0.0788067551855188,-0.03023783,0.09437868,-0.010995574,252.7767,-33.333122,-27.560575
715311907000.0,2.542997676611495,9.731168826664586,-0.0742447921928208,-0.02565634,0.15485434,-0.01282817,252.50116,-34.134304,-27.176977
715316935000.0,2.523612052361446,9.731411151806878,-0.0696407075024784,-0.028099801,0.19211712,-0.01740966,252.22908,-34.92951,-26.797152
715321907000.0,2.504442338007579,9.731650778021567,-0.0650879014005726,-0.03145956,0.21105394,-0.024129177,251.95644,-35.718697,-26.425352
715326917000.0,2.485126113367017,9.731892235651417,-0.0605002991136563,-0.009773844,0.22785273,-0.0143553335,251.68063,-36.50873,-26.056953
715331917000.0,2.4658484440650588,9.732133211329907,-0.0559218537175323,-0.013439035,0.22968534,-0.020158553,251.41626,-37.281815,-25.691788
715336914000.0,2.4465823413646817,9.732374042422991,-0.0513461553886459,-0.007941248,0.22021692,-0.027794369,251.15579,-38.056774,-25.32467
715342372000.0,2.4255388375546643,9.732637091473633,-0.0463483243942369,-0.0070249503,0.22357668,-0.023518313,250.89767,-38.8238,-24.957977
715346935000.0,2.4079460365496974,9.732857005877824,-0.0421700351257341,-0.0018325958,0.22449298,-0.03481932,250.65439,-39.582573,-24.592197
715351921000.0,2.3887223447217845,9.733097306824416,-0.0376044093767191,-0.003970624,0.22235495,-0.027183503,250.41272,-40.336258,-24.22087
715356925000.0,2.369429253284385,9.73333847528345,-0.0330223012242782,0.01038471,0.21471913,-0.023823744,250.1825,-41.085545,-23.851006
715361947000.0,2.350066762237498,9.733580511254926,-0.0284237106684112,0.01863139,0.21594086,-0.018936822,249.95569,-41.826916,-23.480093
715366939000.0,2.330819937206423,9.733821101372332,-0.0238525907849209,0.013744468,0.1994475,-0.0106901415,249.74017,-42.562134,-23.102509
715371920000.0,2.311615523047813,9.734061161343243,-0.0192915434813021,0.02076942,0.19058995,-0.011301007,249.53043,-43.29404,-22.727451
715376924000.0,2.2923224316104127,9.734302329802276,-0.0147094353288612,0.028710667,0.17928895,-0.0067195175,249.32925,-44.019367,-22.346148
715381911000.0,2.27309488424864,9.734542678944004,-0.010142893890767,0.03604105,0.16920967,-0.017104227,249.13998,-44.736145,-21.967257
715386952000.0,2.253659138058406,9.73478563062306,-0.0055269052423948,0.030848695,0.16371189,-0.018020526,248.95636,-45.44608,-21.58482
715391931000.0,2.234462434967516,9.735025594203702,-0.0009676893169344,0.029626964,0.1695151,-0.016187929,248.78078,-46.149708,-21.205164
715396927000.0,2.2152001878009995,9.735266377101649,0.0036070933228726,0.01740966,0.16554448,-0.015577064,248.61601,-46.841114,-20.82435
715401940000.0,2.195872396558856,9.735507979316903,0.0081974426770266,0.008246681,0.16707164,-0.02443461,248.4566,-47.523834,-20.448605
715406944000.0,2.1765793051214564,9.73574914777594,0.0127795508294676,-0.005192355,0.1563815,-0.029321533,248.30673,-48.195175,-20.07052
715412449000.0,2.1553545912200005,9.736014461997955,0.0178204192106002,-0.0030543262,0.15241088,-0.03481932,248.16304,-48.858696,-19.69773
715417003000.0,2.137796490019777,9.736233942645926,0.02199046727739,-0.014966198,0.13988814,-0.03756821,248.03065,-49.50714,-19.32402
715421969000.0,2.1186499088690725,9.736473279689804,0.0265377792448204,-0.009162978,0.14477506,-0.03023783,247.90033,-50.15314,-18.953548
715426971000.0,2.0993645284993936,9.736714351758566,0.0311180560191029,-0.013439035,0.13194689,-0.028099801,247.78485,-50.78456,-18.582066
715431966000.0,2.0801061368667373,9.73695508646138,0.0356919229698308,-0.01740966,0.1328632,-0.02443461,247.66919,-51.410736,-18.213966
715436960000.0,2.0608516007679416,9.737195772969056,0.0402648742314795,-0.027183503,0.13408493,-0.02443461,247.56273,-52.02614,-17.846685
715441994000.0,2.04144284331473,9.73743838728216,0.0448744530562972,-0.029932396,0.15454891,-0.032986723,247.45776,-52.633556,-17.486416
715446973000.0,2.0222461402238405,9.737678350862804,0.0494336689817576,-0.034513887,0.15241088,-0.028405234,247.36154,-53.231934,-17.122347
715451966000.0,2.002995459658905,9.737918989175345,0.0540057045543271,-0.03481932,0.1518,-0.026572637,247.26715,-53.821083,-16.767206
715456993000.0,1.9836136909427164,9.738161266122498,0.0586088735555902,-0.043982297,0.13897185,-0.029626964,247.18176,-54.39885,-16.412817
715462001000.0,1.9643051773698752,9.738402627362076,0.0631946444643481,-0.03604105,0.14569137,-0.025350908,247.09538,-54.97411,-16.06205
715467039000.0,1.944880997781222,9.738645434455725,0.0678078860454827,-0.036651913,0.14172074,-0.03268129,247.02235,-55.53499,-15.714397
715472049000.0,1.92556477314066,9.73888689208557,0.0723954883323989,-0.03268129,0.13439035,-0.025350908,246.95059,-56.09366,-15.3657875
715477000000.0,1.9064760249978607,9.739125506202411,0.076929064963641,-0.024740042,0.12583824,-0.022296581,246.88684,-56.6437,-15.022482
715482277000.0,1.8861303728165744,9.739379831933492,0.0817611562347103,-0.02107485,0.10995574,-0.015577064,246.83005,-57.187233,-14.677702
715487322000.0,1.867211399154479,9.739524365630713,0.0870283552239488,-0.017104227,0.077579886,-0.016493361,246.78516,-57.724335,-14.333999
715491993000.0,1.8612112887707652,9.73752431181941,0.1059175909295763,-0.016798794,0.053145275,-0.016187929,246.74585,-58.254574,-13.990848
715497020000.0,1.8547538803145616,9.735371824020348,0.1262464686628646,-0.01038471,0.025961773,-0.013439035,246.69807,-58.749836,-13.727482
715502000000.0,1.848356845480288,9.733239460933154,0.1463852812969955,-0.0067195175,0.0009162979,-0.007941248,246.66074,-59.237415,-13.462409
715506987000.0,1.8419508188299816,9.731104100548446,0.1665524014990859,0.0067195175,-0.025045475,-0.004886922,246.63556,-59.72175,-13.195798
715511995000.0,1.8355178167315795,9.728959748271205,0.1868044444050552,-0.0012217305,-0.03726278,-0.00030543262,246.61722,-60.1951,-12.928402
715516984000.0,1.8291092209909785,9.726823531515778,0.2069796524837056,-0.009162978,-0.034208454,0.0021380284,246.60632,-60.66464,-12.662007
715521995000.0,1.8226723652571335,9.724677894682458,0.2272438272045147,0.0018325958,-0.04062254,0.005497787,246.60512,-61.1304,-12.394131
715526998000.0,1.8162457858844687,9.722535683332008,0.2474756504190843,-0.005192355,-0.029626964,-0.0018325958,246.60419,-61.58125,-12.133772
715532003000.0,1.8098166374215088,9.720392615610844,0.2677155615102138,-0.01740966,-0.024129177,0.007330383,246.60837,-62.028904,-11.869653
715537005000.0,1.803391342593991,9.71825083244575,0.2879433407865034,-0.03604105,-0.020158553,0.006414085,246.61665,-62.4638,-11.614075
715541980000.0,1.7970007304854545,9.716120610285351,0.3080619337292345,-0.053145275,-0.020463986,0.010079277,246.62717,-62.89065,-11.358009
715547034000.0,1.7905086393102694,9.7139565614816,0.3284999977960814,-0.05222898,-0.031154128,0.01160644,246.64389,-63.310104,-11.104967
715551977000.0,1.784159132646451,9.711840041252684,0.3484891847138542,-0.06169739,-0.033292156,0.01863139,246.66135,-63.716835,-10.85355
715556994000.0,1.7777145696417216,9.70969183530721,0.3687776230643431,-0.07086037,-0.035124753,0.02076942,246.68588,-64.11676,-10.604889
715562074000.0,1.7711890802927033,9.707516653684127,0.3893208295264685,-0.08246681,-0.032375857,0.029932396,246.71194,-64.50869,-10.355975
715567020000.0,1.7648357199934426,9.705398848899131,0.4093221482590812,-0.09773844,-0.04184427,0.03268129,246.74596,-64.89025,-10.109798
715571996000.0,1.7584438233397583,9.703268198553374,0.4294447851400922,-0.093462385,-0.049480084,0.04337143,246.78043,-65.26948,-9.862903
715577008000.0,1.7520056830607662,9.701122133534696,0.4497130037991813,-0.1020145,-0.03604105,0.043066,246.8162,-65.63409,-9.62275
715582006000.0,1.7455855264138385,9.69898206311104,0.4699246073223512,-0.100792766,-0.037873644,0.047036625,246.85986,-65.99783,-9.379496
715586967000.0,1.739212897937366,9.696857835545664,0.489986585129163,-0.08735373,-0.035430185,0.049785517,246.90228,-66.35618,-9.141919
715592022000.0,1.7327195222170335,9.694693358556554,0.5104286931342898,-0.08093964,-0.04795292,0.05131268,246.95218,-66.70719,-8.905191
715597820000.0,1.72527172945215,9.6922107398458,0.5338754472814164,-0.074830994,-0.040011674,0.05955936,246.99808,-67.0566,-8.67172
715602026000.0,1.7198689325619982,9.690409792226372,0.5508842516868692,-0.061086524,-0.043982297,0.064446285,247.0539,-67.403435,-8.43956
715606988000.0,1.7134950195403784,9.688285136475638,0.5709502734319609,-0.06261369,-0.06169739,0.06261369,247.11417,-67.74198,-8.209834
715612062000.0,1.7069772374622447,9.68611252396471,0.5914692162644066,-0.040011674,-0.07238753,0.06352998,247.17584,-68.08538,-7.981812
715617020000.0,1.7006084626212146,9.683989580955409,0.6115190622563788,-0.03756821,-0.11026118,0.053450707,247.25388,-68.41571,-7.7562265
715621967000.0,1.6942538177768065,9.681871347985057,0.6315244249272713,-0.03848451,-0.14477506,0.050396383,247.33594,-68.74605,-7.5313272
715626997000.0,1.6877925556851603,9.67971757562992,0.6518654344753995,-0.045814894,-0.1826487,0.04886922,247.43279,-69.06858,-7.3082623
715631997000.0,1.6813698299479374,9.677576648835544,0.6720851258751293,-0.03970624,-0.1994475,0.035430185,247.53731,-69.3872,-7.0915637
715636976000.0,1.6749740796588108,9.67544471393371,0.6922198945709801,-0.062002823,-0.21044308,0.026267206,247.65274,-69.690895,-6.874735
715642019000.0,1.668496118480248,9.673285375168906,0.7126134753167476,-0.093767814,-0.1826487,0.018936822,247.76563,-69.986984,-6.666711
715647008000.0,1.6620875227396472,9.67114915841348,0.7327886833953978,-0.11575896,-0.16065755,0.0125227375,247.88605,-70.27357,-6.4628887
715656974000.0,1.6492857458002146,9.666881863126935,0.7730905722933392,-0.1441642,-0.06811147,-0.0061086523,247.98346,-70.54287,-6.2767353
715662051000.0,1.6427641100866386,9.66470796605993,0.7936216469406248,-0.15485434,-0.039095376,-0.02565634,248.09485,-70.80543,-6.092034
715667837000.0,1.6353317318635243,9.662230485573485,0.817019873828392,-0.16157386,0.0061086523,-0.035124753,248.17917,-71.055916,-5.922363
715672011000.0,1.6299700404180908,9.660443239885542,0.8338992722088865,-0.16340645,0.024129177,-0.044898596,248.26657,-71.29851,-5.7609825
715676994000.0,1.6235691519483746,9.65830959224227,0.8540502166578572,-0.16737708,0.04886922,-0.049785517,248.34193,-71.53392,-5.6079426
715681995000.0,1.6171451416660043,9.656168237262538,0.8742739519958669,-0.16890424,0.06078109,-0.053145275,248.41832,-71.764496,-5.4600377
715686980000.0,1.6107416841059932,9.65403373324855,0.8944329843213974,-0.172264,0.082161374,-0.054367006,248.48727,-71.98906,-5.318121
715691980000.0,1.6318047653596144,9.648635671836873,0.9034670543100723,-0.16554448,0.09407325,-0.06169739,248.55801,-72.21107,-5.181245
715697022000.0,1.664157855845234,9.641875339923596,0.9080544327666108,-0.17745635,0.09743301,-0.057726767,248.626,-72.42388,-5.044861
715702004000.0,1.6961259432707307,9.63519545622825,0.9125872212375494,-0.18051068,0.07849618,-0.059864793,248.71112,-72.554306,-4.9317775
715707014000.0,1.7282736987909515,9.628478030031202,0.9171454850351014,-0.18051068,0.057421334,-0.067500606,248.79674,-72.67986,-4.821371
715712028000.0,1.760447121181847,9.621755240619624,0.9217073881650266,-0.20311269,0.021380283,-0.07544186,248.89246,-72.79594,-4.71101
715716981000.0,1.792229123794952,9.615114240229609,0.926213791476259,-0.19456059,-0.010079277,-0.08399397,248.99396,-72.91776,-4.603693
715721996000.0,1.824408962903516,9.6083901100144,0.9307766044392776,-0.19120082,-0.03756821,-0.0870483,249.10493,-73.02975,-4.496558
715726991000.0,1.8564604676587064,9.601692795871834,0.9353212207404296,-0.19547687,-0.080634214,-0.09468412,249.23059,-73.13895,-4.391251
715732034000.0,1.8888199748619945,9.594931123154923,0.9399095090300612,-0.17867808,-0.09987647,-0.083383106,249.3566,-73.25411,-4.2832985
715737676000.0,1.925023095948838,9.587366309062364,0.9450427873425936,-0.17806722,-0.15210545,-0.07574729,249.50499,-73.36085,-4.1744037
715741974000.0,1.9526021484889395,9.581603535051402,0.948953249977699,-0.16676621,-0.16584991,-0.076052725,249.64828,-73.47348,-4.068218
715746991000.0,1.9847948210328408,9.574876723228927,0.9535178826069042,-0.16310102,-0.19822577,-0.079107046,249.81114,-73.582596,-3.9572768
715751998000.0,2.016923326400056,9.568163319442778,0.958073416905176,-0.160963,-0.22327125,-0.076358154,249.97571,-73.69286,-3.8465195
715757005000.0,2.0490518317672706,9.561449915656626,0.962628951203448,-0.15790866,-0.22937989,-0.06688975,250.14401,-73.802704,-3.7358968
715761965000.0,2.080878751404056,9.554799529641183,0.9671417233463336,-0.15515977,-0.22907446,-0.07086037,250.31851,-73.91046,-3.628988
715767049000.0,2.113501344031761,9.547982883975358,0.9717673147927915,-0.15699236,-0.22571471,-0.07147124,250.4931,-74.01676,-3.5205412
715771997000.0,2.1452512630565224,9.541348587603505,0.9762691689385576,-0.15027285,-0.2284636,-0.08002335,250.67041,-74.1236,-3.4171176
715776992000.0,2.1773027678117125,9.534651273460938,0.9808137852397096,-0.15302174,-0.22266038,-0.08399397,250.84433,-74.22573,-3.315643
715781999000.0,2.209431273178927,9.527937869674789,0.9853693195379816,-0.15393804,-0.21533,-0.073303826,251.01826,-74.32882,-3.2144449
715786980000.0,2.2413929438867557,9.52125932678307,0.989901198175827,-0.15302174,-0.22724187,-0.067500606,251.19675,-74.429375,-3.1166613
715792072000.0,2.27406687025581,9.514431954688186,0.9945340682870314,-0.16249016,-0.25778514,-0.06688975,251.37807,-74.525375,-3.0185308
715796987000.0,2.305605037597504,9.507841904836193,0.9990058979407176,-0.16310102,-0.27855456,-0.06169739,251.55933,-74.623,-2.9193995
715801996000.0,2.337746376400056,9.501125819442777,1.003563251905176,-0.16829337,-0.29993483,-0.049480084,251.74869,-74.71545,-2.8178575
715807354000.0,2.3721271496689864,9.493941793581742,1.0084381376192046,-0.16615535,-0.3115413,-0.042455133,251.94107,-74.808174,-2.7175775
715811989000.0,2.4018686360634423,9.48772716874675,1.0126552140067602,-0.172264,-0.32986724,-0.04062254,252.14066,-74.89592,-2.615404
715817007000.0,2.434067725325013,9.480999016120643,1.0172207564690587,-0.17928895,-0.3454443,-0.0421497,252.34229,-74.98264,-2.5137281
715821968000.0,2.465901061679467,9.474347289301573,1.0217344384450378,-0.2003638,-0.344528,-0.039095376,252.54382,-75.06249,-2.4122853
715826995000.0,2.498157901400056,9.467607069442778,1.026308169405176,-0.20097467,-0.3472769,-0.04337143,252.75113,-75.1443,-2.3140278
715832007000.0,2.530318490355614,9.460886961638463,1.0308682528689146,-0.19272798,-0.35185838,-0.038179077,252.9575,-75.22194,-2.214326
715837004000.0,2.562382828546142,9.454186965888637,1.0354146888362534,-0.19333886,-0.36041048,-0.03970624,253.16626,-75.29516,-2.1192281
715842023000.0,2.594588334525381,9.4474574724589,1.039981141131645,-0.18509217,-0.36896262,-0.038789943,253.37543,-75.37228,-2.0237243
715846984000.0,2.626421670879835,9.440805745639825,1.0444948231076243,-0.18142697,-0.37598756,-0.038179077,253.58636,-75.44661,-1.9302403
715851997000.0,2.658588676553062,9.43408429703188,1.049055816404456,-0.16768251,-0.37659842,-0.034513887,253.79724,-75.525055,-1.8374993
715857030000.0,2.690884016579663,9.427336032351294,1.0536350063631543,-0.16707164,-0.37812558,-0.03848451,254.01047,-75.59933,-1.7481148
715862069000.0,2.723217856912276,9.420579722848911,1.0582196553204128,-0.1591304,-0.37843102,-0.029932396,254.222,-75.67886,-1.6562526
715866983000.0,2.7547496075363016,9.413991013800551,1.0626905751410056,-0.16371189,-0.38087448,-0.027488936,254.43488,-75.753395,-1.5688396
715873738000.0,2.7980945353884152,9.404933885265413,1.068836497686407,-0.16737708,-0.398895,-0.032375857,254.65167,-75.829216,-1.4819031
715876999000.0,2.819019451706068,9.400561524620985,1.071803463403736,-0.17073683,-0.40561453,-0.035124753,254.86526,-75.902725,-1.3962287
715881976000.0,2.8509554555432217,9.393888344943797,1.0763317027092083,-0.16157386,-0.42485678,-0.027488936,255.08649,-75.977745,-1.3087778
715886948000.0,2.882859375792032,9.38722186928477,1.080855392849214,-0.18173242,-0.43463063,-0.018020526,255.30652,-76.04225,-1.2235966
715891980000.0,2.911254156143697,9.41522005937053,1.0222811381179462,-0.17928895,-0.43401974,-0.007941248,255.52792,-76.11487,-1.137395
715897038000.0,2.9382034631537115,9.457569050786836,0.9375832356859004,-0.17837265,-0.4175264,-0.003970624,255.74678,-76.18031,-1.052552
715901955000.0,2.944374544626612,9.483186573827853,0.8241271460961711,-0.18906279,-0.40286562,0.00061086525,255.95284,-76.23775,-0.81252265
715906975000.0,2.8674766559932023,9.444737378586424,0.5790152753773867,-0.20005837,-0.38637227,0.005192355,256.15213,-76.29167,-0.57735884
715911917000.0,2.78981089503212,9.411143380085656,0.3697365057805139,-0.20799962,-0.3817908,0.0036651916,256.3269,-76.37371,-0.33634093
715916953000.0,2.7020283466809425,9.395652557815843,0.2974449468468951,-0.21991149,-0.3827071,0.0033597588,256.4973,-76.4472,-0.09937416
715921903000.0,2.631289632976577,9.389240624528467,0.2238556480419335,-0.22510384,-0.38637227,-0.007330383,256.62988,-76.57921,0.11529196
715926942000.0,2.593188179814019,9.401940902623036,0.143419380520221,-0.23396139,-0.3979787,-0.010995574,256.76477,-76.70202,0.32809678
715932121000.0,2.55786389446084,9.414857603405222,0.0627547192871736,-0.24220806,-0.3827071,-0.002443461,256.85123,-76.852806,0.52186614
715936970000.0,2.5684060938024973,9.425399912826334,0.0100442344483541,-0.2556471,-0.36896262,0.0067195175,256.94275,-76.99457,0.7117685
715941944000.0,2.5880497161990474,9.446232502646902,-0.0275415576352567,-0.25167647,-0.3417791,0.010079277,256.9657,-77.18288,0.8967977
715946936000.0,2.6302302222869245,9.492631147432505,-0.0233235043838009,-0.2284636,-0.31398472,0.0143553335,256.98718,-77.36601,1.0799526
715952239000.0,2.679234923235692,9.542947012167645,-0.0197889028313654,-0.23701571,-0.30482176,0.014966198,256.92026,-77.58711,1.2774383
715957031000.0,2.7743694475439384,9.60085484452456,-0.0280614682658855,-0.23060162,-0.29718593,0.028405234,256.85178,-77.80837,1.4740931
715961929000.0,2.871608366588553,9.660043609734114,-0.0365170245050923,-0.2144137,-0.30634892,0.032986723,256.67105,-78.0753,1.7052068
715967007000.0,2.967759322796056,9.69902238436005,0.0221436187665722,-0.20555615,-0.31520647,0.05222898,256.4994,-78.324554,1.9385214
715971917000.0,3.059572583852387,9.731157167138534,0.0955941638578541,-0.18112154,-0.3203988,0.08124508,256.3406,-78.56611,2.1710114
715976979000.0,3.1362654817150064,9.680074866330392,0.1219261564186633,-0.16432275,-0.3295618,0.10048734,256.0195,-78.86282,2.4774034
715981937000.0,3.2053532807449803,9.601775113881075,0.1311378789872926,-0.15454891,-0.3408628,0.121256754,255.72281,-79.133675,2.7843087
715987004000.0,3.2330432576029837,9.525872633836244,0.1680316435853534,-0.17654006,-0.3622431,0.129198,255.18495,-79.44341,3.2012844
715992557000.0,3.242058292820817,9.444737081539245,0.2221221702432615,-0.21166481,-0.38606682,0.12980886,254.69649,-79.69945,3.6076524
715996976000.0,3.2269592298440064,9.386478123973728,0.2392078695894909,-0.24740042,-0.41386122,0.14049901,253.80777,-80.00177,4.1915965
716002010000.0,3.167587839142036,9.332053681855502,0.2095221277422003,-0.28160888,-0.43035457,0.14874569,253.02138,-80.19719,4.7455406
716006994000.0,3.090053857303141,9.293411535699716,0.210427954498164,-0.30115658,-0.44868052,0.15271631,252.1391,-80.27494,5.4090066
716012073000.0,2.9809051422786617,9.278527848429212,0.2600409724020808,-0.3005457,-0.46609017,0.15790866,251.35637,-80.25707,6.0369806
716016995000.0,2.900545591920109,9.274054405628688,0.3447398328860644,-0.31398472,-0.49174652,0.15149458,250.51324,-80.1281,6.733061
716022041000.0,2.852286774852474,9.282828444484794,0.4807418054543804,-0.32406402,-0.5128214,0.15668693,249.76033,-79.92865,7.3920584
716027021000.0,2.8424064222058703,9.301126385414111,0.6172698894170551,-0.32650748,-0.5222898,0.16554448,249.10342,-79.67526,8.000687
716032023000.0,2.9599027110620555,9.35204160068678,0.7621818126956096,-0.3323107,-0.539394,0.172264,248.51733,-79.38936,8.57596
716036986000.0,3.076482895307007,9.402559836072276,0.9059638749170142,-0.32895094,-0.5510005,0.183565,247.9964,-79.07137,9.113859
716042054000.0,3.2286638876158764,9.461593092880928,1.0609060404419044,-0.30970868,-0.5546656,0.21899518,247.52277,-78.740364,9.63096
716047047000.0,3.387896009666097,9.521843427504274,1.215834615309153,-0.27458394,-0.53023106,0.25686884,247.08447,-78.40632,10.123995
716051950000.0,3.516435783671757,9.552462680231582,1.333728948430945,-0.22876903,-0.49968776,0.29901853,246.68759,-78.04245,10.615786
716057064000.0,3.627389501845947,9.560681210354089,1.428245091441517,-0.17440203,-0.45173484,0.33658674,246.3089,-77.68168,11.090779
716063072000.0,3.725903415280268,9.53836595634209,1.4660353281749436,-0.14385876,-0.4260785,0.3912592,245.96838,-77.27866,11.584788
716067285000.0,3.747921767880253,9.475456377484992,1.384252842815935,-0.12370021,-0.364992,0.4098906,245.62816,-76.8917,12.052836
716072129000.0,3.773237908396352,9.403124547438996,1.290221425992048,-0.13072516,-0.27947086,0.4538729,245.29874,-76.468285,12.541599
716077025000.0,3.7398540095666633,9.283993420717987,1.1112796421207085,-0.14966199,-0.1966986,0.46670106,244.97263,-76.06317,13.002443
716082069000.0,3.668976509028661,9.13278788887802,0.8750211589748607,-0.16554448,-0.106595986,0.47678033,244.63712,-75.661224,13.45086
716087031000.0,3.6025897413746737,9.013264357668277,0.7111387314482323,-0.19211712,-0.014966198,0.48380527,244.31897,-75.26427,13.888931
716092024000.0,3.538294134366843,8.914929941706873,0.5976759362058056,-0.23548855,0.059864793,0.47891834,243.99588,-74.87922,14.305119
716097164000.0,3.478276885039135,8.820239,0.4872320956131196,-0.26725355,0.12308934,0.4859433,243.68896,-74.49971,14.718137
716102032000.0,3.5060785174804323,8.820239,0.4698560571934402,-0.29901853,0.17928895,0.48288897,243.37762,-74.13407,15.107751
716107020000.0,3.534565481863585,8.820239,0.4520516858628401,-0.33200526,0.23915374,0.48288897,243.08044,-73.77907,15.483436
716112013000.0,3.5768446315471394,8.810017794721999,0.4286083948992747,-0.39522982,0.30665436,0.48808134,242.77753,-73.431175,15.842763
716117012000.0,3.644354998650282,8.781084722703465,0.3948532415592264,-0.4718934,0.35246924,0.4831944,242.47595,-73.095055,16.18354
716122099000.0,3.703358595815838,8.780423383130756,0.4142154126895027,-0.54367006,0.3848451,0.48502702,242.18195,-72.754875,16.521303
716127031000.0,3.745111400058932,8.825655726998159,0.5185973288353591,-0.6053675,0.4120286,0.48899764,241.88644,-72.423164,16.843222
716132680000.0,3.792934107108656,8.877463819152855,0.6381539882651933,-0.6227771,0.3979787,0.5122105,241.62033,-72.07796,17.176704
716137164000.0,3.808493731318354,8.97829550268443,0.8168317534698748,-0.698219,0.3820962,0.5320636,241.35536,-71.73625,17.496033
716142043000.0,3.81778488407238,9.108371447206205,1.0398195650924638,-0.7199047,0.3313944,0.5729916,241.11205,-71.39825,17.816092
716147095000.0,3.814851470585883,9.28761224915017,1.1897262892821436,-0.77366084,0.29260445,0.61117065,240.8677,-71.048706,18.132036
716152055000.0,3.8053531846430713,9.487076452309536,1.2942075338332333,-0.8445212,0.25320363,0.64843345,240.64398,-70.69816,18.447662
716157050000.0,3.751288426145434,9.676612172899253,1.313624832266985,-0.9068295,0.23823744,0.69027776,240.4028,-70.33472,18.760618
716162099000.0,3.672274733555402,9.86199021733392,1.286273950883037,-0.9633345,0.24556783,0.72234815,240.17047,-69.971794,19.068432
716167114000.0,3.5937931197033497,10.046119924769028,1.2591072505185092,-0.9972375,0.24648413,0.7648033,239.93364,-69.60363,19.37248
716172088000.0,3.523306261804646,10.182465163851932,1.174668938272558,-1.0305296,0.23090707,0.79320854,239.70264,-69.23904,19.668638
716177049000.0,3.461081157289584,10.267615717239954,1.0272935744661198,-1.0464121,0.20647246,0.83077675,239.47592,-68.87219,19.966652
716182066000.0,3.3981536528848144,10.353727454056662,0.8782546306610601,-1.058324,0.19975294,0.86345804,239.24915,-68.52141,20.244051
716187288000.0,3.2981451925181573,10.4666423167844,0.711981408214108,-1.0549643,0.20616703,0.8918633,239.0275,-68.17414,20.518969
716192092000.0,3.1837113888767288,10.58565327947468,0.5517740496587404,-1.0390818,0.21288654,0.91599244,238.80963,-67.8317,20.79013
716197093000.0,2.9991831156976745,10.686463623546512,0.5273368489825582,-1.029308,0.22052236,0.93187493,238.616,-67.50243,21.057312
716202348000.0,2.75187171501938,10.77354484395764,0.6179015619013013,-1.0467176,0.22388211,0.9275989,238.4245,-67.18275,21.31426
716207094000.0,2.5285149295542637,10.852191365759966,0.6996941646629291,-1.0534371,0.2510656,0.9126327,238.25195,-66.884476,21.554333
716212072000.0,2.3973105853520598,10.87019347893298,0.8908930754736544,-1.0910053,0.27488935,0.91721416,238.08092,-66.5874,21.789135
716217107000.0,2.315498361061363,10.856558305966631,1.136329795805448,-1.1441506,0.30909783,0.92271197,237.90128,-66.3014,22.009222
716222088000.0,2.290417672348218,10.82082160501479,1.350792496562896,-1.1969905,0.31581733,0.9266826,237.6954,-66.04518,22.174183
716227079000.0,2.310616844837301,10.76695726222003,1.542684107916608,-1.2541064,0.35735616,0.93859446,237.46918,-65.78644,22.332739
716232235000.0,2.33148379201296,10.711312190801522,1.740919561360755,-1.2867876,0.37323865,0.9492846,237.2084,-65.51982,22.474375
716237139000.0,2.3463757062325583,10.388982333488372,1.909691044139535,-1.3542882,0.30298916,0.9419542,236.96307,-65.25132,22.609375
716242117000.0,2.35967988587907,9.963248492186048,2.0737760653674417,-1.4526376,0.24251351,0.9288206,236.71129,-64.98068,22.73758
716247085000.0,2.306712662228572,9.530111261809523,2.2039635377714286,-1.5076154,0.24281894,0.9315695,236.42651,-64.67902,22.871313
716252067000.0,2.2022014049714285,9.089346130190476,2.308474795028572,-1.5460999,0.27916542,0.93370754,236.15118,-64.378136,22.994778
716257050000.0,2.071921397101449,8.711562691304348,2.388372427536232,-1.591304,0.29657507,0.91538155,235.84961,-64.03603,23.138432
716262158000.0,1.9067265065428447,8.401822433220769,2.4399957499788942,-1.63437,0.3203988,0.8885035,235.53705,-63.69969,23.26814
716267042000.0,1.7487758711692698,8.105665146517518,2.489355246222035,-1.6771306,0.34147367,0.8347474,235.20435,-63.34266,23.390175
716272071000.0,1.5079684227584926,7.746681956627065,2.4107881841934287,-1.6982054,0.35033122,0.7831292,234.87134,-62.99748,23.494755
716277053000.0,1.2201220206051606,7.356982323863003,2.251365617662892,-1.6636915,0.32559118,0.7266242,234.54814,-62.676865,23.574968
716282096000.0,0.9527357093518336,6.914895015659068,2.05627429629336,-1.6059648,0.18997909,0.689056,234.22656,-62.345547,23.650414
716287071000.0,0.7166375140099108,6.423810744103073,1.8248980415857283,-1.5210545,-0.021991149,0.65668017,233.94092,-62.04311,23.711504
716292015000.0,0.4878545540337973,5.890061780506959,1.5926153600497015,-1.4422529,-0.27091873,0.6200282,233.72234,-61.756905,23.765947
716297113000.0,0.2597570913976143,5.278566460964215,1.349958516172962,-1.3692545,-0.49938235,0.5674938,233.56519,-61.500374,23.816635
716302008000.0,0.102952075598442,4.68486570691334,1.066473982288218,-1.3304645,-0.6792821,0.5036584,233.4961,-61.253117,23.879993
716307168000.0,0.0259646173472249,4.049719196689387,0.6959718387633885,-1.3035865,-0.83291477,0.44532076,233.49026,-61.031937,23.943254
716312100000.0,0.0751726555085908,3.439566332306033,0.1775594247977502,-1.244027,-0.97402465,0.410196,233.56285,-60.815617,24.026682
716317915000.0,0.3626502536178442,2.714436235534325,-0.7406526192541798,-1.1355985,-1.0125091,0.38606682,233.65265,-60.62731,24.09908
716322018000.0,0.5654912828598505,2.202792420047769,-1.3885329316780954,-0.9877691,-1.0073168,0.37812558,233.83206,-60.439995,24.220613
716327044000.0,1.0105071235934096,2.2206861819632118,-1.489759925900096,-0.8881981,-0.9306532,0.37843102,234.0014,-60.27044,24.333197
716332067000.0,1.5137340293304855,2.430364050231017,-1.3849210136605352,-0.6908886,-0.838718,0.408058,234.16129,-60.13917,24.447903
716337096000.0,2.261668626528351,2.805319507452916,-1.113416443067781,-0.5137377,-0.7263188,0.47891834,234.45996,-59.955128,24.77545
716342104000.0,3.2615532263873503,3.351150299516568,-0.6690232634766844,-0.3368922,-0.5873469,0.5693264,234.72412,-59.79266,25.103064
716347091000.0,4.269531918,3.90274037,-0.1622311186,-0.17959438,-0.38515055,0.6762278,234.95444,-59.54794,25.550514
716352053000.0,5.284425762728572,4.459404643785714,0.4046159695614285,-0.05467244,-0.24648413,0.8035932,235.1612,-59.30048,26.012661
716357382000.0,6.374383299721429,5.057240982964286,1.0133882655735715,-0.049785517,-0.18936823,0.9266826,235.36377,-58.939217,26.577312
716362150000.0,7.593904889505063,5.832867282010032,1.5773754116589382,-0.1282817,-0.24220806,1.0461067,235.5531,-58.558495,27.15861
716367088000.0,8.940964232610959,6.718972386107694,2.168112272338412,-0.28863382,-0.35918877,1.1383474,235.74315,-58.149403,27.751287
716372095000.0,9.88964727007602,8.037966778576365,2.599275824754665,-0.46914452,-0.3933972,1.1554517,235.93329,-57.60937,28.423475
716377056000.0,10.543040112093989,9.63369042805805,2.911197105514858,-0.7162395,-0.24587326,1.0763446,236.09776,-57.050434,29.072107
716382069000.0,11.203281659571529,11.246140066205944,3.226387869564616,-1.0228939,0.05131268,0.9263771,236.24124,-56.377888,29.787804
716388166000.0,10.80944526529052,13.059374405389908,3.5317294601681954,-1.3451253,0.3848451,0.7473936,236.32117,-55.718876,30.4332
716392262000.0,10.273378133792049,14.243969781536697,3.719165457721712,-1.6597209,0.5757405,0.59712076,236.35162,-55.072304,31.010612
716397095000.0,9.468993883948864,15.042960979829544,3.6539491121946015,-1.9141463,0.63285637,0.5149594,236.32217,-54.478676,31.490261
716402046000.0,8.539556859943183,15.494209466477272,3.4114872141051134,-2.1105394,0.6930266,0.4709771,236.23256,-53.911694,31.891129
716407050000.0,7.6001702980113635,15.950288526704544,3.166429783678977,-2.2782218,0.8390234,0.45753807,236.01237,-53.502766,32.04326
716412030000.0,6.562052235955057,15.730248685662922,2.8787795624898878,-2.3603833,1.0488557,0.48258355,235.75552,-53.095238,32.1697
716417031000.0,5.490096314606742,15.316964247550562,2.5774264499865165,-2.3331997,1.1252137,0.5308419,235.49658,-52.690918,32.286026
716422036000.0,4.609678401530457,14.40346415375982,2.334250124477094,-2.2757785,1.169807,0.56077427,235.1583,-52.42379,32.21477
716427037000.0,3.886460937251301,13.084081362514029,2.1387859297724723,-2.1077905,1.1242975,0.63041294,234.82068,-52.15526,32.16848
716432101000.0,3.361145945399453,11.274095843737785,1.7873531183435425,-1.990199,1.0277808,0.68661255,234.46362,-51.94333,32.036922
716437039000.0,2.985190417639776,9.197095688387854,1.3436023837025934,-1.8707749,0.8979719,0.713796,234.1327,-51.745895,31.925629
716442052000.0,2.603524751244624,7.088549358138929,0.8931118140883618,-1.7831156,0.768163,0.7290677,233.79587,-51.513676,31.843918
716447035000.0,2.461279739125851,5.4173690164286405,0.6032580617904726,-1.704925,0.6197228,0.768163,233.50305,-51.2892,31.790085
716452030000.0,2.534641078625516,4.12896131135819,0.4565354593942298,-1.640784,0.5271767,0.7828238,233.23813,-51.082188,31.740332
716457853000.0,2.810967192489077,3.077405464484361,0.3993639304930994,-1.5766432,0.49357912,0.7724391,233.00998,-50.730976,31.86161
716462035000.0,3.138723894354671,2.627434358901449,0.4354727234177127,-1.5063937,0.49205196,0.75808376,232.80084,-50.396244,31.987371
716467034000.0,3.530511496608641,2.0895564160968165,0.4786357688099036,-1.4468343,0.48991394,0.73853606,232.59521,-49.96069,32.235737
716472041000.0,4.041412383246073,1.8413040560209424,0.5927592078534032,-1.4398094,0.516792,0.73823065,232.383,-49.539318,32.47319
716477027000.0,4.645842141533567,1.828645848107893,0.7636451303333553,-1.4312572,0.59986967,0.73975784,232.15967,-49.14387,32.690903
716484618000.0,5.607819193016489,1.873682295829292,1.075816283026188,-1.4880677,0.7431176,0.7626653,231.95999,-48.632576,32.99727
716487003000.0,6.290562613349793,2.473851952164712,1.6477900281544835,-1.5848899,0.75869465,0.78801614,231.77371,-48.119938,33.307827
716492156000.0,7.765689173088793,3.770570710695706,2.8835890674190985,-1.6209309,0.77457714,0.82924956,231.5756,-47.51316,33.714996
716496988000.0,8.8150005266079,4.828245890042441,3.7990876335781913,-1.6566665,0.79045963,0.8539896,231.36981,-46.892406,34.120285
716502042000.0,8.945365841332027,5.476123314593536,4.051917861116553,-1.6627752,0.8359691,0.8445212,231.14772,-46.273262,34.518745
716507077000.0,9.075241060888018,6.121565109729024,4.3037975990777015,-1.6291776,0.90194255,0.7965683,230.85283,-45.594376,34.931576
716512006000.0,8.826146357890579,6.827911575785108,4.125819990381197,-1.5861117,0.94225967,0.72509706,230.555,-44.937756,35.32015
716517059000.0,8.486841849101323,7.568648141556389,3.848641083636184,-1.5738943,1.0403035,0.69027776,230.21967,-44.29765,35.675526
716522099000.0,7.940450356666666,8.02089512,3.5255416866666667,-1.5842791,1.1453724,0.65179324,229.86835,-43.737846,35.939106
716527015000.0,7.3557173876438355,8.390652666082191,3.198779252109589,-1.6236799,1.2140946,0.62888575,229.5041,-43.19628,36.174137
716532070000.0,6.837710728386836,8.35270828411064,3.0176163371693923,-1.668273,1.2895365,0.6188065,229.15407,-42.778717,36.310226
716537057000.0,6.381296789837808,8.040932549215963,2.940476082710815,-1.6826283,1.3652838,0.6017023,228.79443,-42.382782,36.415142
716541971000.0,5.93156386542836,7.733720605908877,2.8644650118446733,-1.6652187,1.4062119,0.59498274,228.45668,-42.065567,36.433105
716547033000.0,5.8823491885867485,7.371702204059747,2.7333844106472616,-1.6255124,1.4049901,0.5717699,228.12164,-41.767773,36.431515
716552036000.0,6.084203012631176,6.986344701547299,2.5719012900957487,-1.5653422,1.3564262,0.5308419,227.79944,-41.491657,36.41973
716557245000.0,6.292850575689881,6.585570918528252,2.419833900157687,-1.5454891,1.3756685,0.48747048,227.41296,-41.20388,36.352566
716562025000.0,6.461281612045554,6.224647418747262,2.524100670372317,-1.5225816,1.4230106,0.42424592,227.05191,-40.94904,36.27079
716567084000.0,6.6395436649583885,5.842657463644327,2.634453304371441,-1.536937,1.4700472,0.36377025,226.73253,-40.625168,36.27665
716572100000.0,6.59708398271094,5.567663253268743,2.7801773685166022,-1.5714508,1.5176947,0.3145956,226.41684,-40.323483,36.257023
716576964000.0,6.483160281535134,5.335434590678205,2.933535980575675,-1.5873333,1.5766432,0.28802297,226.09909,-40.040188,36.21439
716582074000.0,6.305488076286141,5.240515437287906,3.0475889531016698,-1.6169603,1.6383406,0.26725355,225.75824,-39.68754,36.204712
716587023000.0,6.0963993761368265,5.243732186520972,3.128007717517307,-1.6612481,1.7232509,0.2556471,225.40549,-39.344128,36.171062
716592206000.0,5.877424485679381,5.2471010309895485,3.2122288644088504,-1.6917913,1.7996091,0.27183503,224.99898,-38.96055,36.113735
716597074000.0,5.61551401034945,5.170765373375637,3.417385329108946,-1.7253889,1.858252,0.2941316,224.58394,-38.580643,36.037926
716602059000.0,5.321109997077487,5.055563711922424,3.6861890573241576,-1.7626517,1.8863518,0.3109304,224.16324,-38.203045,35.951347
716607089000.0,5.044105398506131,4.80554767400223,4.027360117636566,-1.774869,1.8979583,0.33383787,223.6911,-37.80522,35.818428
716612027000.0,4.79807636555184,4.387298560200668,4.45263858729097,-1.7873917,1.8839084,0.3408628,223.22864,-37.411053,35.681076
716616987000.0,4.5509512129691565,3.967186044109997,4.879811776737273,-1.7846428,1.8655825,0.34055737,222.69456,-36.991016,35.478806
716622101000.0,4.5069014285901465,3.643990062421384,5.123872610377359,-1.7510452,1.8203784,0.34116822,222.18112,-36.583813,35.28248
716627054000.0,4.540048844601677,3.370523977672956,5.289609647169812,-1.7314975,1.7486018,0.33658674,221.6918,-36.186264,35.09069
716632027000.0,4.562087351009679,3.1596053860564086,5.390983823564753,-1.690875,1.6698002,0.31673363,221.09152,-35.72116,34.829514
716636999000.0,4.5700338798815086,3.0284869336198263,5.4108502494659545,-1.6542231,1.6065756,0.28527406,220.5225,-35.27381,34.57255
716642239000.0,4.579328297338329,2.9050020918663995,5.434355520615027,-1.6190983,1.5855007,0.24953845,219.95018,-34.78076,34.317608
716647096000.0,4.597358344860779,2.941062155533303,5.482435584585567,-1.5891659,1.5968018,0.20891592,219.40768,-34.310265,34.0591
716652050000.0,4.615748473628788,2.977842381064668,5.53147586395762,-1.57084,1.6105462,0.18081611,218.88101,-33.818302,33.809143
716657346000.0,4.6368651619436205,3.021269270623145,5.583228269881306,-1.5580118,1.5909985,0.16890424,218.37808,-33.34454,33.557648
716662000000.0,4.761774233143752,3.3592583099901088,5.57955455603363,-1.527774,1.5766432,0.14508049,217.89316,-32.894264,33.293777
716667217000.0,4.901793705522585,3.7381342915924822,5.575436428585559,-1.5164729,1.5754215,0.12675454,217.42177,-32.431774,33.029713
716672089000.0,4.9523870323603365,4.037742794468132,5.570901753864655,-1.5164729,1.6093245,0.095294975,216.96716,-31.989767,32.75392
716677039000.0,4.936839205203892,4.296872507488795,5.565719162851209,-1.5192219,1.6655241,0.0870483,216.51817,-31.558075,32.47438
716682057000.0,4.913930022608813,4.428711355824816,5.584515782765857,-1.5402967,1.7308867,0.08857546,216.11281,-31.149496,32.20955
716687045000.0,4.888061673187572,4.503082729574223,5.613617705408516,-1.557401,1.8167132,0.089186326,215.70424,-30.754166,31.926355
716692004000.0,4.8623437211466864,4.577021711615785,5.642550430826508,-1.5931365,1.9043725,0.08155051,215.31189,-30.361744,31.622276
716697106000.0,4.743862780092688,4.559674298867147,5.706105051699279,-1.6206255,2.0005836,0.06994407,214.9119,-29.978443,31.297955
716701959000.0,4.600269807085479,4.5118100245108135,5.777901463233779,-1.6560557,2.080607,0.036651913,214.51633,-29.600475,30.95468
716707099000.0,4.373878535797051,4.378409629389045,5.855312720891853,-1.6945401,2.165212,0.010995574,214.11304,-29.2155,30.582525
716713074000.0,4.087570560682936,4.197583534322332,5.945725820874298,-1.7235563,2.2800546,-0.018020526,213.70978,-28.840324,30.18245
716717066000.0,3.919350119845112,4.004679129719264,6.02051314658492,-1.7476854,2.327702,-0.036957346,213.30667,-28.434711,29.749208
716722096000.0,3.722457513843176,3.714521656340755,6.124140993417231,-1.7446312,2.361605,-0.06688975,212.90746,-28.044739,29.29175
716727087000.0,3.6676992820169048,3.435970890789857,6.148527722529875,-1.7281377,2.3918428,-0.10842858,212.49257,-27.627619,28.76634
716732139000.0,3.681800708306616,3.15864259501603,6.1344260017487615,-1.6972891,2.4016168,-0.15851954,212.09775,-27.229788,28.23996
716737021000.0,3.7010608118565504,3.20423034820688,6.000912391314955,-1.6737708,2.4559836,-0.22204952,211.69173,-26.799847,27.653524
716742119000.0,3.724882488558185,3.4583284403106447,5.782547021549972,-1.6832392,2.5610526,-0.29535335,211.30438,-26.386713,27.05289
716747062000.0,3.71061982563824,3.7869274171645846,5.7572734997284085,-1.7174476,2.663678,-0.3539964,210.9363,-25.941502,26.443941
716752048000.0,3.4815099208039118,4.590973406300924,6.803397778381314,-1.7125608,2.6780334,-0.4016439,210.594,-25.520763,25.833124
716757883000.0,3.252679737873663,5.647713177987018,7.933941657738368,-1.6835446,2.461787,-0.35155296,210.32672,-25.121256,25.288664
716762094000.0,3.381711491452601,7.277199258890209,8.048226865801261,-1.5741998,2.0222695,-0.2706133,210.10109,-24.75341,24.807947
716766979000.0,3.5313956795868,9.167495982996618,8.180804220678308,-1.3142766,1.6578883,-0.2003638,209.83745,-24.486956,24.194008
716772097000.0,4.009743510577211,11.222773630146545,7.562316531153424,-1.0057896,1.4227052,-0.04337143,209.5783,-24.24462,23.69515
716777060000.0,4.583075494736317,13.241280797627354,6.704687767720068,-0.7312057,1.5677856,0.09285152,209.30812,-24.058977,23.209461
716782126000.0,4.722259591961364,13.706878042867404,6.958174814560549,-0.6795876,1.8832976,0.20891592,209.15747,-24.084497,22.724947
716787091000.0,4.710872473257764,13.634759703680052,7.580670954099145,-0.79198676,2.1352794,0.23243423,208.98389,-24.130436,22.236277
716792006000.0,4.3411234851340375,13.182271231722178,8.390814923030057,-0.9483683,2.0781636,0.13713925,209.02702,-24.424793,21.897312
716797036000.0,2.7464994826969944,11.426228154955322,9.877826549756294,-1.0671816,1.7788396,-0.06688975,209.08424,-24.698282,21.55213
716801986000.0,1.231820828357973,9.896451800695708,11.053975495454186,-1.0564915,1.6001616,-0.2657264,209.10349,-24.91153,21.123116
716807096000.0,-0.1687142684876275,8.909887301525812,11.409912507075658,-0.9459248,1.5219707,-0.43096542,209.1918,-25.130526,20.732414
716811996000.0,-1.5116931284765598,7.963866548897146,11.75122197027433,-0.8081747,1.3881912,-0.46883908,209.02328,-25.12208,20.03671
716817053000.0,-2.356880710908727,7.1658603336669335,11.48233163941153,-0.7486154,1.3213016,-0.45845437,208.89424,-25.130373,19.353264
716821993000.0,-2.986599893855084,6.450915966172939,10.994654463670935,-0.6606508,1.3271047,-0.38820487,208.77226,-25.175505,18.710926
716827036000.0,-2.936884389730041,5.6882286036122585,10.633250987702947,-0.6068946,1.3640621,-0.32986724,208.44005,-25.074747,17.779415
716832070000.0,-2.631203070083582,4.914762168988375,10.322937701316167,-0.6081163,1.3967434,-0.35033122,208.12321,-24.977484,16.878372
716837020000.0,-2.236733249298556,4.265602999064741,9.93662677345942,-0.6398814,1.4398094,-0.42332962,207.7655,-24.810505,15.920836
716842048000.0,-1.7863854832380754,3.6651393109841006,9.50129121614881,-0.6872234,1.4993688,-0.5510005,207.43246,-24.639671,14.968897
716847047000.0,-1.533385936576822,3.39600068873212,8.986335324900262,-0.7284568,1.6362026,-0.70402217,207.15169,-24.366924,14.083551
716852499000.0,-1.335244755220395,3.2334233431643478,8.391911356426974,-0.78893244,1.8060231,-0.8381071,206.89609,-24.081997,13.182397
716857048000.0,-1.3603320245314825,3.320729549786812,8.052757284382746,-0.8509353,2.006387,-0.9618073,206.71889,-23.710423,12.352808
716862016000.0,-1.4594027623004462,3.5000005563906798,7.741392010014874,-0.95356065,2.19209,-1.0803152,206.56128,-23.320322,11.486612
716867011000.0,-1.6592197163153786,3.830745197814208,7.467477027114234,-1.0296134,2.3472497,-1.2070698,206.4765,-22.944307,10.6151
716872031000.0,-1.91358780582878,4.243572075774135,7.21310885051609,-1.0952814,2.4541512,-1.3014483,206.40202,-22.546505,9.716532
716877042000.0,-2.1755600858728776,4.523539203363082,7.149597853939921,-1.1578951,2.536618,-1.3826935,206.37,-22.185225,8.757007
716882060000.0,-2.45276854016108,4.560151542827601,7.437266883021333,-1.2403619,2.586098,-1.4410311,206.35182,-21.799881,7.789752
716887028000.0,-2.7003567322728497,4.566692476903029,7.837554533836614,-1.3307699,2.5515842,-1.4764613,206.35863,-21.488844,6.7576737
716892048000.0,-2.9250291399299,4.545089378134268,8.351708645456997,-1.3946054,2.456289,-1.5134187,206.38411,-21.158787,5.7414923
716897032000.0,-3.109337371717797,4.549744856781325,8.891286884206176,-1.3952162,2.3063216,-1.5396858,206.4157,-20.79617,4.713752
716902033000.0,-3.198386373081293,4.619005426505527,9.504736685259788,-1.3567317,2.1077905,-1.5399913,206.46616,-20.423542,3.744458
716907077000.0,-3.2125702510948906,4.691897544381364,9.989506060196453,-1.2886202,2.0027218,-1.5683966,206.52289,-20.014574,2.75483
716912204000.0,-3.0886802255474453,4.771541148733892,10.237286573308102,-1.2574661,1.8051068,-1.5839735,206.60635,-19.605112,1.8677669
716917033000.0,-2.93644225285766,4.83514258559414,10.420401190179057,-1.1829406,1.6355917,-1.5961909,206.7136,-19.19377,1.0031526
716922180000.0,-2.5352608785132933,4.826227495659252,10.277758354856212,-1.1071932,1.5143349,-1.6062702,206.8392,-18.793554,0.2016771
716927008000.0,-2.158943863682402,4.817864943841563,10.143956215952253,-1.0177015,1.4376713,-1.5971072,207.00629,-18.414318,-0.5250666
716932179000.0,-1.7684724092774973,4.4934310293470165,9.834906313001738,-0.9242391,1.4132367,-1.6022996,207.18562,-18.060846,-1.213952
716936983000.0,-1.4067523607133992,4.165979129785649,9.534107846726805,-0.84757555,1.3927728,-1.6313156,207.37416,-17.730825,-1.864312
716942110000.0,-1.221375140230595,3.7221342806361952,9.08893777280214,-0.8045095,1.3662001,-1.6936239,207.63216,-17.42146,-2.4192955
716947041000.0,-1.2310978498867613,3.2068303135268685,8.544465321391806,-0.7974846,1.3545936,-1.7751744,207.90123,-17.125782,-2.9604082
716952026000.0,-1.390967526598317,2.809864223948157,7.984194370393656,-0.81489426,1.3716979,-1.8497,208.24338,-16.785309,-3.4072464
716957176000.0,-1.6771879792533126,2.499792133320437,7.397442801092949,-0.8381071,1.421178,-1.9013181,208.59593,-16.44927,-3.8508208
716961979000.0,-1.856066703451087,2.249141797019928,6.953502717346015,-0.870483,1.4837917,-1.9486601,208.98766,-16.041002,-4.2978773
716968050000.0,-1.9719269542391304,1.9805565227173916,6.521659674456521,-0.9129381,1.5653422,-2.008525,209.38608,-15.628506,-4.7545147
716971974000.0,-2.0490858422213467,1.7862083478141,6.397895280425364,-0.9633345,1.6954565,-2.0766363,209.78285,-15.1838045,-5.308656
716977031000.0,-2.1539950898188263,1.4857864975187085,6.612482423050413,-1.02717,1.790446,-2.1471913,210.1877,-14.726643,-5.8644085
716982046000.0,-2.8271317317943656,0.7001504750322728,7.580368107563217,-1.0677924,1.7443258,-2.235767,210.62904,-14.2367325,-6.446656
716987016000.0,-5.133055864985952,-1.482887285162123,10.713967071417724,-1.0769554,1.5128077,-2.3698518,211.10236,-13.738533,-6.994116
716991974000.0,-7.433412374515908,-3.660654129235325,13.840000001556684,-0.9941832,1.0534371,-2.4495697,211.63315,-13.165069,-7.4343853
716997045000.0,-9.747305595065578,-4.662484500055031,15.711201818398605,-0.74281216,0.66645396,-2.348166,212.14714,-12.651391,-7.8099422
717002029000.0,-11.997478514078692,-4.890128460066037,16.731221782078325,-0.2003638,0.50854534,-2.0738876,212.63496,-12.261992,-8.1024275
717007308000.0,-12.738381938135154,-5.663253661961279,17.21741445960982,0.5742133,0.28069258,-1.9040669,213.0107,-11.51971,-8.789898
717012029000.0,-11.735606308359914,-6.894085459624657,17.049726332616274,0.9776898,0.627664,-1.4184291,213.20494,-10.885252,-9.511795
717016970000.0,-10.686101036866702,-8.182274384059046,16.87422388917736,1.6911805,1.396438,-1.0845913,213.27618,-10.460689,-10.615116
717022034000.0,-8.738418895675993,-10.53290237947564,16.71495276462532,2.2782218,2.0864103,-0.9795224,213.29126,-10.158596,-11.6883545
717026997000.0,-6.520490221365682,-13.201855889649774,16.566159868910194,2.5986207,2.4168882,-0.9673051,213.24445,-10.013195,-12.778871
717032033000.0,-5.363343180502737,-14.225669263148133,16.305710266394584,2.7763824,2.055867,-1.1872166,213.41537,-9.859364,-13.704925
717037048000.0,-4.690661521241072,-14.506324590576014,15.998326724051571,2.903748,1.4495832,-1.6032158,213.66647,-9.776321,-14.609201
717042102000.0,-4.255967907644124,-13.164256998301306,14.811854096613228,3.0353894,0.81183994,-2.140472,214.19347,-9.4741,-15.158679
717047169000.0,-4.018980837074,-10.490424391761334,12.90565396857416,3.035084,0.3549127,-2.5415049,214.84492,-9.169182,-15.578319
717052094000.0,-3.981515326192469,-8.252073841841003,10.815172339079496,2.9520063,0.18295415,-2.8179214,215.66403,-8.842842,-15.833702
717057039000.0,-4.034354685746164,-6.1737241361227335,8.6047239586053,2.8221974,0.24251351,-2.994156,216.58844,-8.49762,-16.027315
717062001000.0,-4.116954414869051,-4.371352278766544,6.68945741875528,2.5799894,0.50671273,-3.1151073,217.5326,-8.373095,-16.256208
717067019000.0,-4.229731244607152,-2.828566836299633,5.05193945626584,2.310598,0.8717047,-3.1874948,218.50911,-8.190634,-16.528093
717072099000.0,-4.322014731018246,-1.48748832541495,3.754645614675299,2.0448713,1.2690725,-3.2281175,219.44672,-8.182698,-16.95701
717077042000.0,-4.377739418952324,-0.5262367893996469,3.053442903590347,1.7831156,1.6523905,-3.2403347,220.38156,-8.085075,-17.476286
717082089000.0,-4.351469874386654,0.3686741726398429,2.8054218444553483,1.5448782,1.9657644,-3.2433891,221.2342,-8.01686,-18.009022
717087084000.0,-4.170399338707416,1.0929562873461376,3.4324623033436144,1.3646729,2.1319196,-3.2146783,222.05199,-7.8880386,-18.583776
717092109000.0,-3.9882412923033783,1.8215884447834008,4.063268770993972,1.2336423,2.1499403,-3.2076533,222.87036,-7.827033,-19.28048
717097092000.0,-3.947409350947821,2.275052182431112,4.592263227398867,1.1554517,2.0906863,-3.2082644,223.66057,-7.7235584,-19.975874
717102056000.0,-4.046507618943392,2.4577644725750765,5.022721122858446,1.1191051,2.0329595,-3.1942143,224.42606,-7.5903444,-20.651152
717110275000.0,-4.234309771197609,2.743977910284628,5.69283506903743,1.0998629,1.563815,-3.1783319,225.25357,-7.5920105,-21.25502
717113026000.0,-4.493812473908022,2.704605066062088,5.563978479451125,1.0091494,1.4883732,-3.1829133,226.06026,-7.554222,-21.938541
717117040000.0,-4.872454367284831,2.647155921493105,5.375963084831193,0.990518,1.4785993,-3.169169,226.88242,-7.5462847,-22.489494
717122188000.0,-5.358066840404864,2.573476749534678,5.134831233435229,1.0088439,1.681712,-3.123354,227.68138,-7.5224185,-23.0635
717127040000.0,-5.874821303368052,2.5334479804633503,4.967580925328531,1.1099422,2.007914,-3.0546317,228.45515,-7.515659,-23.65384
717132166000.0,-6.486484134965443,2.523890757295824,4.857672858901976,1.2070698,2.2699752,-2.964529,229.1933,-7.5157433,-24.265799
717136989000.0,-7.130395478979119,2.433523850709977,4.884968808705336,1.276403,2.44621,-2.862209,229.90521,-7.5197587,-25.070776
717142089000.0,-7.910050110069605,2.220478793633411,5.102546736315545,1.235475,2.574797,-2.846632,230.59834,-7.51015,-25.91785
717147101000.0,-8.54911061594644,1.9974082460133904,5.343887365185636,1.0626001,2.6035078,-2.937651,231.29393,-7.4638715,-26.88228
717151940000.0,-8.841745680310407,1.747081592422398,5.647099826765064,0.8350528,2.5433373,-3.0641,231.98743,-7.3773823,-27.83677
717156966000.0,-9.145689435940351,1.4870812285149118,5.962029736229459,0.5925393,2.601675,-3.199712,232.7305,-7.1664433,-28.920048
717161951000.0,-9.334260250373468,1.22696340167314,6.575111470969027,0.3555236,2.719572,-3.3527339,233.51648,-6.869792,-29.98026
717166982000.0,-9.454221115924708,0.963050399342695,7.3812459221193105,0.21991149,2.7940977,-3.5326338,234.35226,-6.5066876,-31.021688
717171952000.0,-9.511936413685378,0.9323735112969868,8.268542572810642,0.21960606,2.8997774,-3.6685512,235.26758,-6.030632,-32.106087
717176927000.0,-9.531142029426585,1.0476079076488964,9.214424788370453,0.3454443,2.8738155,-3.692375,236.20682,-5.539108,-33.140232
717181897000.0,-9.311067463649048,1.6899033734924815,10.559315101069602,0.6169739,2.6303856,-3.549738,237.2002,-5.034946,-34.069885
717186938000.0,-8.93688749767478,2.6739963597116723,12.175771803906372,1.0002918,2.118786,-3.2433891,238.15009,-4.612603,-34.874115
717192090000.0,-8.563108333800841,3.63123217846123,13.720117631636946,1.3793337,1.4318681,-2.7925704,239.0487,-4.3024216,-35.447853
717196932000.0,-8.321544824684432,3.914604819895812,13.803735993287916,1.6759088,1.0525209,-2.2907448,239.81601,-4.127263,-35.93002
717202070000.0,-8.061999859387555,4.23206646397643,13.864337612623872,1.8084666,0.267559,-1.8121318,240.43033,-4.2254205,-35.806835
717206908000.0,-7.776583343005089,4.744988537398447,13.56237531765021,2.082745,-0.50885075,-1.5974126,240.96695,-4.466325,-35.57917
717211887000.0,-7.482848569324167,5.272859352522096,13.25161255066512,2.3472497,-1.2599095,-1.1801916,241.32977,-4.869172,-35.094845
717216930000.0,-7.087131404634946,6.178030266694012,13.013906092698932,2.5308146,-1.9572122,-0.8164214,241.66742,-5.344889,-34.42431
717221899000.0,-6.672354167504102,7.163736279306809,12.799197600082037,2.5219572,-2.6798658,-0.52626044,241.92923,-5.8926916,-33.553024
717226926000.0,-6.543587436019752,8.214382653985185,12.339172867061729,2.3417518,-3.5100317,-0.36132678,242.2064,-6.535033,-32.48603
717231909000.0,-6.468176165856789,9.265428314607409,11.83957310380247,1.953547,-4.2617016,-0.35124752,242.4951,-7.1437955,-31.27209
717236930000.0,-6.582381378751259,9.938835681772408,10.183487345871098,1.3799446,-4.7317624,-0.53786683,242.89449,-7.759068,-29.93332
717241885000.0,-6.735301760422961,10.5218440755287,8.305434912688822,0.7632761,-4.805677,-0.9260717,243.39929,-8.244747,-28.557022
717246909000.0,-6.4304130070592,10.566825765312,6.5637930917824,0.23976462,-4.4409904,-1.391551,244.02417,-8.709978,-27.279188
717251896000.0,-6.0361102107648,10.502636931328,4.8673744459456,-0.20219639,-3.5353825,-1.7574593,244.72034,-9.015396,-26.194992
717258764000.0,-5.471676731046157,10.31620649181808,2.579308268716849,-0.5726862,-1.5137241,-1.951409,245.44379,-9.257595,-25.708406
717261900000.0,-5.061567702448934,9.533270700372418,1.877716657837716,-0.9230174,-0.75961095,-1.9511036,246.22797,-9.386779,-25.14806
717266898000.0,-4.407956438122108,8.285466782755897,0.7595550279990972,-0.9804387,0.68844515,-1.9416351,246.9198,-9.497595,-25.443779
717271907000.0,-4.606759085290928,5.826225152439465,5.593941575460788,-0.9923506,1.8420641,-1.9547688,247.56905,-9.53472,-25.863182
717276885000.0,-4.860890527918323,3.302139742482833,10.792868390802314,-0.9334021,2.3976462,-1.9620992,248.14096,-9.577408,-26.503466
717281903000.0,-5.342440105635104,2.063097240415704,13.470270402863742,-0.9978484,2.291661,-1.92392,248.729,-9.45172,-27.286123
717286905000.0,-5.90887051330254,1.328507910161663,15.156285878891454,-1.2641857,1.7211128,-1.8393153,249.27876,-9.294088,-28.064518
717291937000.0,-6.397765516869919,0.7381138822237805,15.486672541463417,-1.6533068,1.3610078,-1.6655241,249.96877,-8.655763,-28.642887
717296924000.0,-6.820029605691057,0.2673135898658536,14.76348456097561,-1.9682078,0.68844515,-1.5418239,250.6828,-7.9908657,-28.947054
717301924000.0,-7.292760257879935,-0.1752562164994666,13.687264991271457,-2.0583105,0.16554448,-1.2483032,251.32434,-7.218656,-29.152327
717306904000.0,-7.796928870041703,-0.596167605454951,12.378276990107652,-2.0885482,-0.22999077,-0.9077458,251.91757,-6.4309134,-29.185995
717311940000.0,-8.248289692704644,-1.0498527171972074,11.26597417656582,-1.8832976,-0.5558874,-0.5861252,252.50519,-5.6448493,-29.181583
717316941000.0,-8.64566653151877,-1.5247665770606091,10.345222421633109,-1.536937,-0.72143185,-0.3640757,252.99359,-4.9445877,-29.10035
717321913000.0,-8.975991835998808,-1.9815504553491607,9.748013971391677,-1.2476922,-0.7974846,-0.22174409,253.42215,-4.257514,-29.082285
717327304000.0,-9.278573291447303,-2.463629130227476,9.373633735273668,-1.0757337,-0.79809546,-0.112399206,253.76901,-3.6707194,-29.03358
717331923000.0,-9.638111136577708,-2.9503106020408163,9.308020724097332,-1.0415252,-0.7067711,-0.004581489,254.08072,-3.078383,-29.080473
717336918000.0,-10.102767678963891,-3.5323045561224493,9.430052220368916,-1.1383474,-0.5317582,0.15974127,254.32045,-2.5319264,-29.146517
717341913000.0,-10.437410930515112,-4.302615430023095,9.59707142363691,-1.3133603,-0.28802297,0.34697145,254.50192,-1.9434566,-29.291334
717346909000.0,-10.643994201124611,-5.2586652203233255,9.80845906135154,-1.5070046,-0.05009095,0.5403103,254.61688,-1.361224,-29.478928
717351942000.0,-10.58623282295054,-6.095681099606367,9.973453328084886,-1.666135,0.12980886,0.68875057,254.69864,-0.6889369,-29.749825
717356937000.0,-10.279223478649666,-6.8079427954817735,10.092163439756971,-1.7198911,0.1881465,0.77213365,254.73318,-0.027821068,-30.044363
717361946000.0,-9.803909164995105,-7.370400717453477,10.124430976297749,-1.6701056,0.102319926,0.8045095,254.8136,0.7650218,-30.353107
717366989000.0,-8.55985386584721,-7.2426840505484815,9.760202400489716,-1.5677856,-0.095294975,0.79534656,254.87227,1.5306952,-30.632938
717371942000.0,-7.3401312319749215,-7.084414101433049,9.340449463054188,-1.4526376,-0.20311269,0.83108217,254.98074,2.377386,-30.860168
717376962000.0,-6.11725073416928,-6.718411004612628,8.526630802955665,-1.3961325,-0.21166481,0.91874135,255.06058,3.1834958,-31.051413
717381995000.0,-4.891203414357367,-6.351460091007613,7.710704644334976,-1.3038919,-0.20311269,1.0277808,255.12598,3.9158313,-31.104504
717386977000.0,-3.778606979252455,-5.707437016946468,6.918374017104847,-1.208597,-0.23426682,1.1392636,255.1485,4.6061144,-31.146206
717392269000.0,-2.642693082912522,-5.014407067788829,6.102441175847997,-1.078788,-0.28191432,1.2388347,255.1286,5.237948,-31.188683
717397371000.0,-1.994704037294908,-4.578260626472838,5.616449239828275,-0.9431759,-0.31612277,1.2956452,255.0264,5.768774,-31.14679
717401923000.0,-1.4165687696250957,-4.189131147666411,5.182847653634276,-0.8753699,-0.40378192,1.3808609,254.7956,6.167131,-31.028803
717406997000.0,-0.9171125734276442,-3.702759889190313,4.1836148856536575,-0.74128497,-0.43401974,1.4584408,254.5531,6.51266,-30.922838
717411976000.0,-0.5004772243529999,-3.1988295690105684,2.941644830773071,-0.64599,-0.39492437,1.5192219,254.29137,6.84515,-30.818497
717417399000.0,-0.1963574927746001,-2.76569451682986,1.885708052380029,-0.57360244,-0.3472769,1.5244142,253.96437,7.0750895,-30.671082
717422041000.0,-0.209286878100824,-2.6062320738051383,1.5236852902472129,-0.473726,-0.31337386,1.5106697,253.6306,7.2751513,-30.534323
717426966000.0,-0.2411401673424137,-2.429814358877098,1.16556142819924,-0.38637227,-0.25686884,1.4676038,253.25363,7.394949,-30.456594
717431988000.0,-0.3477803568577764,-2.220342594971492,0.906578105123535,-0.31673363,-0.16371189,1.4175128,252.89243,7.5038843,-30.398039
717436959000.0,-0.4533375814855875,-2.0129980831485588,0.6502248396895787,-0.26297748,-0.030848695,1.3393221,252.55911,7.594094,-30.38928
717441985000.0,-0.5425947415277641,-1.9249702814478744,0.510854018455469,-0.22266038,0.116675265,1.269378,252.25023,7.6821237,-30.40918
717447018000.0,-0.6234115222507151,-1.896446688420949,0.4300372526245191,-0.20769419,0.26297748,1.1887437,251.98239,7.7813315,-30.46213
717452000000.0,-0.7647509716068344,-1.9015688271453253,0.4769153971818007,-0.19364429,0.39950588,1.1276573,251.7714,7.8669133,-30.588867
717457106000.0,-0.943112305029756,-1.9250374597619504,0.5942583740218852,-0.18295415,0.5213735,1.061073,251.60066,7.9663997,-30.74834
717461991000.0,-1.1979962742528103,-1.9567540784754591,0.7775516085823966,-0.18387043,0.6383542,0.981355,251.49559,8.091364,-30.956667
717466942000.0,-1.518688441211955,-1.9957571523443924,1.0159039529293483,-0.19639318,0.7861836,0.88514376,251.43106,8.232365,-31.2025
717472035000.0,-1.9123621208555237,-1.949410732399931,1.310961418656588,-0.24037547,0.9437868,0.7831292,251.51888,8.458755,-31.472916
717477006000.0,-2.398975326241196,-1.765397352628414,1.678988135500773,-0.27977628,1.1133019,0.68294734,251.64764,8.702299,-31.778378
717482024000.0,-2.8963177600618906,-1.5681751431545383,2.0521029294823703,-0.29565877,1.2788464,0.5696318,251.9807,9.052598,-32.11148
717487114000.0,-3.5088416491279077,-1.1659205191860464,2.4589287209302326,-0.310625,1.4792101,0.4636467,252.34383,9.41947,-32.48479
717491988000.0,-4.09537238298012,-0.7807360325018755,2.8484903923480878,-0.30940324,1.5909985,0.376293,252.54877,9.651122,-32.926407
717497041000.0,-4.849316589990732,-0.249724758313253,3.439191919369787,-0.32253686,1.813659,0.3417791,252.79218,9.896133,-33.44074
717502345000.0,-5.653034369958635,0.3180277400206825,4.0846068663909,-0.33353242,2.044566,0.27885997,253.08276,10.15645,-33.96946
717507013000.0,-6.323371318665977,0.7687715256670113,4.801173991106515,-0.34147367,2.0998492,0.26267207,253.2694,10.280182,-34.57005
717512037000.0,-7.04483079388142,1.253890801392623,5.572389336987246,-0.33200526,2.1398609,0.26358834,253.43088,10.283391,-35.263275
717517044000.0,-7.841433107613781,1.7177333207571246,6.598376980646534,-0.3378085,2.0818288,0.26633725,253.59293,10.29383,-35.928375
717522016000.0,-8.671824782645682,2.168372687324543,7.747760522883879,-0.3539964,1.8823812,0.28771752,253.73895,10.300592,-36.55101
717527054000.0,-9.752715355501588,2.497628655015879,9.131811307677935,-0.35521814,1.5552629,0.34269542,253.81314,10.17191,-37.12929
717532135000.0,-10.911713951242294,2.79305971242294,10.590785859798244,-0.37415496,1.1921035,0.44012842,253.843,10.0420685,-37.628433
717537005000.0,-11.51632641793632,2.668205378450871,11.036119968980932,-0.42485678,0.84329945,0.5342017,253.79572,9.809228,-38.0196
717542118000.0,-11.864776831493476,2.3063530833226897,10.964642925189308,-0.48197266,0.5699373,0.63529986,253.69016,9.571102,-38.322014
717547091000.0,-12.098065008363829,1.818406898693152,10.77351662310507,-0.5503896,0.3417791,0.70738196,253.49576,9.2392845,-38.535343
717552085000.0,-12.208068235337167,1.1683854569785677,10.438505632618924,-0.6017023,0.15332718,0.7489208,253.26956,8.92062,-38.675564
717557057000.0,-12.222531133911836,0.5727189626726831,10.174569427212774,-0.6239988,0.020158553,0.77732605,253.0199,8.661318,-38.824905
717562108000.0,-12.155370541339812,0.011927628989934,9.966371800624785,-0.65026605,-0.06811147,0.7678576,252.76872,8.425602,-38.9258
717566968000.0,-12.0907495791739,-0.5276577762165915,9.76604702034016,-0.65270954,-0.16401732,0.7654142,252.52036,8.2841625,-39.031063
717572095000.0,-11.949492363001744,-1.39758978283886,9.540494412449098,-0.64873886,-0.27885997,0.75625116,252.27718,8.155894,-39.099636
717577050000.0,-11.774660707969751,-2.3959723196819858,9.315052961993407,-0.65148777,-0.3680463,0.72143185,252.04623,8.040202,-39.142612
717582070000.0,-11.484565901394424,-3.428611219621514,8.846622976095617,-0.63804877,-0.42394048,0.65668017,251.85878,8.050817,-39.174656
717587090000.0,-11.117454901394424,-4.475675452954848,8.214553642762285,-0.6462954,-0.41233405,0.54733527,251.7019,8.081978,-39.195263
717592089000.0,-10.751879624701196,-5.518359537104914,7.585128424169986,-0.643852,-0.364992,0.42943826,251.63773,8.284535,-39.197617
717597091000.0,-10.481744884003742,-6.276084522458085,7.17602441885299,-0.6609562,-0.21868975,0.37598756,251.5946,8.496213,-39.22924
717602091000.0,-10.278452086997191,-6.834277873541052,6.921047193552566,-0.65057147,-0.008246681,0.2678644,251.61865,8.727238,-39.282974
717608343000.0,-10.022493667765154,-7.532138083427283,6.6305727202064,-0.6603453,0.2125811,0.18081611,251.78769,9.242995,-39.35734
717612244000.0,-9.841060461625185,-7.966282880270574,6.799046933579048,-0.63255095,0.25259277,0.14966199,251.96375,9.743837,-39.434185
717617358000.0,-9.60321134186107,-8.535423226606538,7.019907514760211,-0.5885687,0.22540927,0.07941248,252.25362,10.388181,-39.519215
717622093000.0,-9.46241103488892,-8.67578315252721,7.417821786476815,-0.47739118,-0.007330383,-0.013133603,252.52603,11.0027075,-39.549553
717627041000.0,-9.388226446250188,-8.467360732965558,8.011295286432086,-0.40591997,-0.46273044,-0.10995574,252.77887,11.61201,-39.501244
717632984000.0,-9.299123978529895,-8.217026367675563,8.724111173706575,-0.32375857,-0.78893244,-0.2171626,253.05548,12.274986,-39.375603
717637126000.0,-9.180962967659948,-6.830771862199825,8.25895429640666,-0.22999077,-0.9089675,-0.27214047,253.29852,12.907856,-39.18294
717642223000.0,-9.03550816774759,-5.123814839158634,7.685690551971954,-0.12217305,-0.91324353,-0.28099802,253.48987,13.440911,-38.889404
717647035000.0,-8.874952204588737,-4.0864600318944415,7.360991503237508,-0.0030543262,-0.9407325,-0.2611449,253.65506,13.93765,-38.567596
717652028000.0,-8.688489215017684,-3.501052040745443,7.209218883322753,0.060170226,-1.0219775,-0.25473082,253.80339,14.410249,-38.240505
717657032000.0,-8.493264866219981,-3.0043416235865394,7.028314678611759,0.098043874,-1.1285735,-0.2302962,253.8518,14.599043,-37.987938
717662027000.0,-8.280787463713017,-2.698230514951442,6.787027223180004,0.124311075,-1.2046263,-0.2171626,253.89163,14.772963,-37.729668
717667147000.0,-8.062992808891064,-2.384458968162313,6.539701543137846,0.14172074,-1.2284501,-0.21991149,253.8823,14.846453,-37.47777
717672034000.0,-7.787320967205423,-2.0728992566110533,6.321480275224192,0.15943582,-1.2180653,-0.23396139,253.86804,14.911759,-37.222755
717677045000.0,-7.472062445464025,-1.747632424984359,6.106303650531804,0.1695151,-1.1728612,-0.23915374,253.85362,14.97192,-36.979336
717682066000.0,-7.092819940914745,-1.4315104042005549,6.100894136446273,0.19242255,-1.1533136,-0.2302962,253.82614,14.979167,-36.74527
717687037000.0,-6.696518131757727,-1.1217573627786814,6.164667010305235,0.25717425,-1.1340714,-0.22235495,253.80734,14.974693,-36.52948
717692005000.0,-6.177412515022168,-0.7321364481534178,6.302392047097639,0.34330627,-1.1270463,-0.21105394,253.76767,14.917656,-36.31833
717697044000.0,-5.585326170440252,-0.2942910516981131,6.481510391194968,0.37934732,-1.1447614,-0.16646078,253.7161,14.849535,-36.1153
717702037000.0,-4.948547544997584,0.1998400555630739,6.587880167230546,0.48075095,-1.1609493,-0.11362094,253.65991,14.698774,-35.883507
717707244000.0,-4.264059032073465,0.7397183148825519,6.6698261161913965,0.6273586,-1.1438452,-0.06047566,253.59502,14.52146,-35.66581
717712019000.0,-3.613729148111332,1.2213838534917767,6.685809843656244,0.795652,-1.1346822,0.0018325958,253.49857,14.240383,-35.388557
717717039000.0,-2.9186188300198808,1.7209944042598952,6.672776579061992,0.98990715,-1.1429288,0.06963864,253.3919,13.910297,-35.12225
717722826000.0,-2.0240208097518506,2.382064962472791,6.61286647144101,1.1716396,-1.1582005,0.13652839,253.25641,13.451947,-34.799595
717727025000.0,-1.3106206268502396,2.9203976477905966,6.538462641010013,1.3298537,-1.1817188,0.23640485,253.10054,12.938984,-34.48584
717732076000.0,-0.6247644347005016,3.442077876099144,6.405612098052523,1.4453071,-1.1917981,0.31337386,252.90866,12.3018465,-34.096935
717737012000.0,-0.0668285369056751,3.8698286648863967,6.247530423064817,1.4559973,-1.1798862,0.3753767,252.70502,11.640354,-33.71698
717742057000.0,0.346538094089153,4.15229845230312,6.152758389955423,1.3603969,-1.1499538,0.3998113,252.46027,10.873657,-33.261925
717747037000.0,0.6347245375364041,4.312927008023774,6.110238908231798,1.1640037,-1.0897835,0.36041048,252.23267,10.12977,-32.817772
717752033000.0,0.7096579363931523,4.234690798160173,6.029227377115309,0.8549059,-0.97097033,0.26450464,252.01369,9.370409,-32.343235
717757140000.0,0.6037948610389611,3.950785261904762,5.913740541125541,0.4813618,-0.7993172,0.12522738,251.83856,8.686609,-31.89428
717761998000.0,0.2289789293926912,3.2975125974585926,5.693528060467969,0.11178834,-0.57360244,-0.04734206,251.71393,8.067536,-31.454988
717767070000.0,-0.4265577355797039,2.2460998430286567,5.357246148628517,-0.2443461,-0.3005457,-0.22357668,251.6525,7.5567737,-31.070045
717772014000.0,-1.0151538189705993,1.366443314268007,5.0536825905827225,-0.5323691,0.06169739,-0.38545597,251.66867,7.1989303,-30.78312
717777027000.0,-1.4396869663177383,0.9709380663683772,4.828716306401633,-0.7626653,0.5308419,-0.50579643,251.74664,6.9321685,-30.597904
717782059000.0,-1.865829156114428,0.5739337959851863,4.602897367243594,-0.88270026,1.0995574,-0.5934556,251.95233,6.976504,-30.646254
717787019000.0,-2.39356941799511,0.2431103925623471,4.486188398386308,-0.91629785,1.3860532,-0.6264423,252.18553,7.062303,-30.742575
717792926000.0,-3.1127992677359413,-0.0999069368332518,4.436395536860635,-0.91446525,2.1994202,-0.58459806,252.47122,7.167536,-31.143604
717797100000.0,-3.701545501801064,-0.2956050256109292,4.65177614207941,-0.8002335,2.4608707,-0.5342017,252.818,7.394088,-31.535025
717802050000.0,-4.448618831723291,-0.4993522886584118,5.059270759353255,-0.7473936,2.869845,-0.39858958,253.15964,7.611454,-32.18282
717807047000.0,-5.133402361838418,-0.7012570845480023,5.65895049127232,-0.63804877,3.138931,-0.24312437,253.4724,7.8282475,-32.914406
717812007000.0,-5.76477076603411,-0.8990351325582512,6.38540430759068,-0.5140431,3.2785137,-0.08582657,253.74866,8.004775,-33.705498
717817041000.0,-6.407968341074856,-1.1110015266794624,7.157633516506718,-0.41080686,3.232088,0.025961773,253.98506,8.158905,-34.564472
717822035000.0,-7.070951183088079,-1.437393135380678,8.284704763297079,-0.33841935,3.076012,0.12064589,254.17383,8.26704,-35.412525
717827024000.0,-7.697875679586844,-1.7495516525686328,9.35882664519344,-0.25686884,2.7311785,0.17898351,254.31677,8.35222,-36.177353
717832182000.0,-8.208093991736884,-2.018087451372656,10.267372570535471,-0.14874569,2.2122486,0.19456059,254.4187,8.405212,-36.826122
717837324000.0,-8.696608332192513,-2.2706525859465243,11.163297912192514,-0.014660766,1.5506815,0.20586158,254.47946,8.454266,-37.274017
717842032000.0,-8.855740746310161,-2.285119187358289,11.84322928631016,0.15668693,0.8228355,0.21899518,254.49252,8.466201,-37.542164
717847024000.0,-8.93607043333602,-2.2363753048118,12.371846285282505,0.3182608,0.1563815,0.25350907,254.46506,8.469966,-37.595524
717852025000.0,-8.434243482066575,-1.7654298812363989,11.634546239300397,0.45356745,-0.34238997,0.28710666,254.39523,8.437341,-37.494904
717857050000.0,-7.930008243088579,-1.292224371645039,10.893707860764083,0.57757306,-0.63132924,0.32162055,254.2922,8.353394,-37.23092
717862035000.0,-7.5396564825632915,-0.945469245877637,10.171754633702532,0.66950834,-0.8029824,0.34574974,254.16165,8.242167,-36.880028
717867079000.0,-7.203353050031645,-0.6601208227721519,9.448192035601268,0.768163,-0.95478237,0.37048978,254.0093,8.0962105,-36.475536
717872034000.0,-6.893948607866052,-0.4052485675498379,8.707271221152903,0.8533788,-1.0830641,0.3912592,253.83481,7.861563,-36.065174
717877040000.0,-6.587928873328096,-0.1557249178709614,7.949284754492782,0.9272934,-1.1374311,0.40561453,253.6624,7.607988,-35.64972
717882062000.0,-6.349221290783859,0.0152288218611963,7.345382194654488,0.9599747,-1.0864239,0.41630468,253.49069,7.315585,-35.27929
717887200000.0,-6.131872119967058,0.1589002805330538,6.789115703376506,0.95356065,-0.95569867,0.42424592,253.32922,7.018251,-34.928417
717892109000.0,-5.922243280464793,0.2996658808719833,6.272062717747541,0.9263771,-0.84391034,0.41874814,253.16574,6.69282,-34.63528
717897040000.0,-5.6830552551395375,0.4919543615652001,5.962525302016089,0.8970556,-0.5873469,0.40683624,253.02603,6.3743043,-34.42655
717902269000.0,-5.436458906513838,0.6956103218618954,5.66462651478893,0.81306165,-0.3155119,0.36743546,252.90018,6.063083,-34.294273
717907194000.0,-5.282623954505638,0.8846074607585499,5.721765143062156,0.7147123,-0.052839845,0.33078352,252.79544,5.7682247,-34.233837
717911982000.0,-5.133068269182742,1.068347217314323,5.777314331320473,0.57543504,0.16187929,0.2883284,252.71754,5.485293,-34.241203
717917020000.0,-5.028724881053902,1.258071127835881,6.06584775305712,0.43951756,0.33078352,0.24190263,252.6662,5.2353044,-34.307316
717921969000.0,-4.933399944499196,1.4439549507039422,6.380420357230491,0.33169982,0.47250426,0.20066923,252.63734,5.021163,-34.422863
717927057000.0,-4.92612719690739,1.571057886508806,6.733880073818152,0.22999077,0.54458636,0.16737708,252.63513,4.8133817,-34.542416
717932244000.0,-4.9303131631667645,1.692450995449566,7.0980595317687705,0.1563815,0.5626069,0.15149458,252.64502,4.631198,-34.681435
717937077000.0,-4.986180173167451,1.7651207479488904,7.448920351714862,0.12339478,0.5537493,0.15821409,252.68457,4.4393334,-34.792423
717942124000.0,-5.088336951580363,1.8069122256220576,7.825043311365165,0.11728613,0.5161811,0.16187929,252.72992,4.263991,-34.894535
717947082000.0,-5.228865828145633,1.806614646029051,8.097131499528391,0.12614368,0.49510628,0.17867808,252.78326,4.0640845,-34.970695
717952029000.0,-5.416548531597812,1.757459654489719,8.253534063478588,0.14813483,0.47036624,0.18875736,252.83588,3.865725,-35.030872
717957056000.0,-5.609418221393443,1.6787121584836069,8.360553,0.17501289,0.4343252,0.19028452,252.89244,3.6486182,-35.079754
717962016000.0,-5.804094359098361,1.5424389027459018,8.360553,0.22357668,0.40591997,0.18906279,252.94582,3.4237049,-35.120487
717967033000.0,-5.987129214353868,1.422438834246007,8.342088514312383,0.25259277,0.39187005,0.18661933,253.00166,3.2043352,-35.17577
717972040000.0,-6.146269974154739,1.3329221698402822,8.292356572495333,0.2611449,0.37659842,0.17531833,253.06015,2.9840822,-35.21905
717977038000.0,-6.263265991310225,1.2627458694795792,8.180544733996332,0.2452624,0.37323865,0.17256944,253.11641,2.7856312,-35.29097
717982129000.0,-6.329170822255479,1.2156710042773005,7.987537486820508,0.22296582,0.38698313,0.1731803,253.17487,2.5916457,-35.359432
717986974000.0,-6.39534583444563,1.167447081695606,7.798519295334174,0.19486602,0.39614612,0.16065755,253.23047,2.419324,-35.45164
717992046000.0,-6.470733987864972,1.110905917431371,7.591201775031526,0.17195857,0.44135013,0.14721853,253.28635,2.2543664,-35.553524
717996959000.0,-6.582507436448598,1.037530053244326,7.421079027503338,0.12522738,0.47433686,0.12308934,253.34593,2.1162653,-35.678455
718002034000.0,-6.791081128037383,0.9170208049132176,7.319109761815754,0.08399397,0.5155703,0.09193522,253.41241,1.9883168,-35.81286
718007115000.0,-6.967001962429104,0.8173752355452925,7.256976304083617,0.04337143,0.5458081,0.06383542,253.4667,1.8811618,-35.980766
718012418000.0,-7.03283989761789,0.7885710943218278,7.335158817209528,-0.008552114,0.5739079,0.04734206,253.52728,1.7914816,-36.15349
718017004000.0,-7.089776116885432,0.7636614598411926,7.402770547399123,-0.05467244,0.59559363,0.023823744,253.57016,1.7315986,-36.358776
718022032000.0,-7.147786379695134,0.7600506831541919,7.491684881297635,-0.07360926,0.57879484,0.0030543262,253.61697,1.6811149,-36.554726
718026997000.0,-7.203540554651163,0.7646968441860466,7.584608393023256,-0.09040806,0.552833,-0.01282817,253.66956,1.6449591,-36.747837
718032164000.0,-7.229885359114831,0.7511897868604952,7.646461968906911,-0.083383106,0.5109888,-0.020463986,253.72223,1.6159143,-36.922424
718037365000.0,-7.2427770276939,0.7297037473470797,7.693731255836425,-0.06719518,0.46120325,-0.02321288,253.77716,1.5910101,-37.081734
718042119000.0,-7.251637747968504,0.7122761311181102,7.702948082981627,-0.03481932,0.408058,-0.021380283,253.82486,1.5579464,-37.222904
718047787000.0,-7.25733645335433,0.6951796579212599,7.657357487790026,-0.013744468,0.3567453,-0.022602014,253.87305,1.5253426,-37.34577
718052081000.0,-7.243476266058783,0.6850320045882239,7.597310951944903,0.02076942,0.301462,-0.020158553,253.91537,1.4839032,-37.448524
718057083000.0,-7.2109491465321565,0.6757385418663304,7.504376130643127,0.054367006,0.26847526,-0.022602014,253.95876,1.4395897,-37.539436
718062019000.0,-7.175832749488984,0.6644313184192596,7.406166835142706,0.06261369,0.23793201,-0.015271631,253.99498,1.3925635,-37.62242
718067121000.0,-7.135143053826936,0.649635066504656,7.295195187190552,0.07727446,0.21105394,-0.00580322,254.03036,1.3373239,-37.694153
718071971000.0,-7.09646311969112,0.635569636911197,7.189704694723295,0.10598512,0.20250183,-0.0015271631,254.05827,1.277206,-37.767708
718077056000.0,-7.0051095039356746,0.6006355930689802,6.933985959703767,0.13072516,0.21502456,0.0021380284,254.08269,1.2140766,-37.837273
718082116000.0,-6.898471770545916,0.5596211003224715,6.634579913829878,0.14110987,0.22296582,0.01160644,254.10321,1.1469867,-37.90088
718087174000.0,-6.819290308762581,0.5342401184132624,6.425183949851983,0.15485434,0.22968534,0.01282817,254.12756,1.0794795,-37.97556
718092083000.0,-6.777538619498717,0.5296010310637458,6.33704129021117,0.16249016,0.24587326,0.019242255,254.14673,1.0095644,-38.0528
718097094000.0,-6.744677804085559,0.529512878365776,6.2698371327955,0.17989981,0.2501493,0.034208454,254.15147,0.9396968,-38.148823
718102052000.0,-6.727106279253941,0.5365414882984235,6.238208351402561,0.18509217,0.23762658,0.040927973,254.15706,0.872353,-38.241707
718107630000.0,-6.707337427799571,0.5444490288801717,6.202624377499816,0.19150625,0.226631,0.047036625,254.1608,0.800403,-38.34238
718112103000.0,-6.703765,0.5569706447100117,6.187874640982785,0.18692477,0.20952678,0.058643065,254.16028,0.72886574,-38.43479
718118092000.0,-6.703765,0.5761434727527996,6.173495235166304,0.18753563,0.19272798,0.070554934,254.15767,0.65486205,-38.521317
718121990000.0,-6.727708058850056,0.5941615294520858,6.164471094205186,0.1881465,0.19211712,0.0711658,254.15283,0.5801354,-38.60967
718127049000.0,-6.815101951146186,0.6305757057422022,6.153546772115746,0.1863139,0.17348573,0.083383106,254.13985,0.5029935,-38.685566
718132066000.0,-6.901770296204435,0.6666875702307403,6.142713144141299,0.18997909,0.17073683,0.089491755,254.11752,0.42002454,-38.765537
718137171000.0,-7.0116769343137255,0.685958590580546,6.14774139857747,0.19211712,0.17592919,0.09285152,254.09265,0.3376728,-38.840073
718142244000.0,-7.133088247549019,0.6952979036139946,6.161750465647828,0.17440203,0.17592919,0.09315695,254.06772,0.2599596,-38.910015
718147095000.0,-7.235511886141304,0.7018914586956522,6.20366314673913,0.16249016,0.19517145,0.0888809,254.03957,0.17342561,-39.002254
718152034000.0,-7.329439143133361,0.7068350012541806,6.267928993520067,0.1386664,0.19761491,0.08552113,254.012,0.09493796,-39.087032
718157116000.0,-7.409217233857443,0.7086837,6.322407113993711,0.109650314,0.20158553,0.09040806,253.98236,0.020902086,-39.185444
718162154000.0,-7.478756948532495,0.7086837,6.36982055581761,0.08674286,0.22540927,0.08582657,253.9584,-0.045384895,-39.287323
718167061000.0,-7.546488464989518,0.7086837,6.416001135220126,0.06566802,0.2321288,0.0720821,253.93689,-0.10439266,-39.38978
718172093000.0,-7.620653579245283,0.7238168509433962,6.499173391981133,0.05375614,0.23487769,0.064751714,253.91544,-0.15937412,-39.49481
718177049000.0,-7.696976616809605,0.7492577926243568,6.606025612692968,0.042455133,0.23182335,0.06261369,253.8978,-0.20714301,-39.597034
718182076000.0,-7.755602916681859,0.7670524382110301,6.691772047652689,0.032070424,0.226631,0.06566802,253.8873,-0.24971588,-39.705814
718186980000.0,-7.805550104527499,0.7813230893869644,6.766692792168034,0.032070424,0.21105394,0.055588737,253.88287,-0.2883786,-39.80756
718192070000.0,-7.855438693264863,0.7965130334594114,6.840706613085128,0.020463986,0.18600847,0.05222898,253.87756,-0.32636014,-39.89949
718197106000.0,-7.884015879597077,0.8155645059342287,6.874046713539403,0.03604105,0.16676621,0.04550946,253.87756,-0.36701247,-39.9857
718202167000.0,-7.906915805159056,0.8335348594840944,6.903467062063623,0.023518313,0.14263703,0.039095376,253.88895,-0.39928412,-40.063168
718207157000.0,-7.863357121356303,0.8378907278643697,6.886043588542521,0.022907447,0.12797627,0.04153884,253.89954,-0.43728143,-40.135204
718212012000.0,-7.820976878898915,0.8421287521101085,6.869091491559566,0.016187929,0.12522738,0.029626964,253.9122,-0.47215748,-40.204113
718217025000.0,-7.776880889127325,0.8175633713948498,6.832976302217453,0.009162978,0.1255328,0.018936822,253.92368,-0.5067741,-40.267452
718221963000.0,-7.733388846086245,0.7885687281759657,6.794316747649704,0.00030543262,0.098043874,0.01038471,253.93892,-0.5370981,-40.319954
718227055000.0,-7.687309943513983,0.7647115808508453,6.738489589824617,-0.007330383,0.0842994,0.0036651916,253.96188,-0.565139,-40.375717
718237031000.0,-7.598577733333333,0.7245075673046252,6.629655284370016,-0.021685716,0.06688975,0.0033597588,253.98544,-0.5890151,-40.42073
718242110000.0,-7.557507545098039,0.7153809011633362,6.584021810713951,-0.03268129,0.05589417,-0.0009162979,254.01184,-0.6057295,-40.463596
718246958000.0,-7.520289009820448,0.7031762421986075,6.545028242198608,-0.03848451,0.05375614,-0.0030543262,254.03525,-0.61640567,-40.50372
718252047000.0,-7.48814346207402,0.6781740541956761,6.520026054195676,-0.055283304,0.0571159,-0.0027488936,254.0589,-0.6219418,-40.541035
718257288000.0,-7.455037780065958,0.6524250922535728,6.494277092253573,-0.06414085,0.06047566,-0.010079277,254.08392,-0.62577045,-40.57941
718262303000.0,-7.424485129660144,0.6221698857260557,6.491844935169928,-0.07391469,0.0580322,-0.008246681,254.10489,-0.6275772,-40.615887
718267105000.0,-7.396068268486097,0.589016996416066,6.506053365756952,-0.08093964,0.059253927,-0.0067195175,254.1281,-0.6267728,-40.65326
718272091000.0,-7.368899083622454,0.5597895197277822,6.5122285,-0.09040806,0.05467244,-0.018325957,254.14908,-0.6181577,-40.689426
718277039000.0,-7.343606224624144,0.5344967223538831,6.5122285,-0.08460484,0.058337633,-0.008246681,254.16077,-0.6158661,-40.72723
718282025000.0,-7.322760466095864,0.5229751849445761,6.509897457113371,-0.07849618,0.053145275,-0.008552114,254.1897,-0.6005742,-40.759045
718287045000.0,-7.311734963458451,0.5413513015411665,6.50254705806131,-0.0852157,0.03726278,-0.007941248,254.21375,-0.5862197,-40.78795
718292235000.0,-7.300336087225747,0.5603497169069642,6.494947741113065,-0.083383106,0.03176499,-0.0061086523,254.22992,-0.5725279,-40.813576
718297094000.0,-7.280132244376796,0.5708298438017927,6.501772317267038,-0.07513642,0.021380283,0.005497787,254.24167,-0.56111926,-40.83274
718302034000.0,-7.25612942516489,0.5788307723997971,6.51377364332826,-0.071776666,0.018936822,0.01160644,254.25421,-0.5487355,-40.85221
718307005000.0,-7.229333554086538,0.593384486673077,6.517205689471154,-0.059864793,0.012217305,0.015577064,254.26779,-0.5452998,-40.867344
718312055000.0,-7.196781691105769,0.6212861057115385,6.503254918798077,-0.058948494,-0.004581489,0.018020526,254.27928,-0.5412801,-40.87857
718316990000.0,-7.168600536249307,0.6427530024967635,6.495288970316257,-0.037873644,-0.005497787,0.024129177,254.2902,-0.546659,-40.884342
718322047000.0,-7.150686766099501,0.6472314917976697,6.504245808627705,-0.03634648,-0.009162978,0.03359759,254.29869,-0.54925805,-40.884624
718327019000.0,-7.133109402388924,0.6508199266491721,6.509407720206316,-0.019547688,-0.009468411,0.036957346,254.30286,-0.5663189,-40.883144
718333426000.0,-7.11089987982083,0.6452675605013122,6.470541620984527,-0.021685716,-0.016798794,0.03390302,254.306,-0.58001256,-40.87866
718337166000.0,-7.097935370002714,0.642026441507556,6.447854058772962,-0.01863139,-0.016798794,0.043066,254.2927,-0.6058678,-40.87608
718342015000.0,-7.058123765004534,0.6569619739800544,6.43753299301904,-0.025961773,-0.03390302,0.059253927,254.27843,-0.6293787,-40.866592
718347023000.0,-7.014641793653672,0.6743548079238441,6.4288365533454215,-0.016493361,-0.022602014,0.05009095,254.27063,-0.65371275,-40.865417
718352037000.0,-6.975138483754796,0.6927068714397557,6.454095130533156,-0.013133603,-0.024740042,0.060170226,254.2586,-0.67814595,-40.856964
718358438000.0,-6.927145817356925,0.7167032296954513,6.506887068582166,-0.01740966,-0.013744468,0.067500606,254.25127,-0.70040035,-40.855648
718362035000.0,-6.903926613447375,0.726410677619387,6.536137432763127,-0.019242255,-0.014966198,0.06536258,254.23724,-0.729361,-40.844624
718367047000.0,-6.896323988564188,0.7150067998336898,6.574150557179061,-0.01038471,-0.008552114,0.071776666,254.21777,-0.7621042,-40.839016
718372860000.0,-6.887506339233388,0.7017803948918983,6.618238803833056,-0.015271631,-0.0021380284,0.07452556,254.19882,-0.7963182,-40.823586
718377030000.0,-6.882840205861653,0.7019907242509551,6.653104918258596,-0.021991149,0.00061086525,0.06872234,254.18155,-0.8309285,-40.809345
718382087000.0,-6.87797097482405,0.7068600061331188,6.696928455198069,-0.016493361,0.006414085,0.064446285,254.16345,-0.867211,-40.798103
718387036000.0,-6.878556855139187,0.7014549591006424,6.7398470832976445,-0.012217305,0.01740966,0.061086524,254.14636,-0.89786506,-40.780052
718392069000.0,-6.882526508499423,0.689545874666447,6.783513726223028,-0.01160644,0.021380283,0.05681047,254.13199,-0.9273684,-40.762276
718397020000.0,-6.885724,0.6791609017341573,6.821856093063371,-0.008246681,0.015577064,0.048258353,254.1271,-0.9572903,-40.74614
718402030000.0,-6.885724,0.6747351321557052,6.83955917137718,-0.01863139,0.015271631,0.056505036,254.11783,-0.98619485,-40.733044
718407189000.0,-6.885724,0.6708267726987776,6.857894247748407,-0.02076942,0.0061086523,0.044898596,254.12231,-1.008171,-40.708183
718412210000.0,-6.885724,0.6808748581234981,6.877990471058406,-0.009162978,0.009468411,0.043066,254.12015,-1.0339059,-40.687485
718417082000.0,-6.884365704917891,0.6908883998098531,6.8957537618755405,-0.009468411,0.008246681,0.03390302,254.11926,-1.0534948,-40.66045
718422039000.0,-6.872056621331028,0.7031975262402765,6.899856761175454,-0.014660766,0.009162978,0.03390302,254.11581,-1.0755942,-40.63592
718426999000.0,-6.859740088228176,0.7155141022126188,6.903962243630078,-0.015577064,0.005497787,0.023823744,254.12369,-1.0961857,-40.611835
718433347000.0,-6.8569937,0.6992158924127465,6.923922357302732,-0.018325957,0.007941248,0.025961773,254.1269,-1.1173002,-40.590553
718436977000.0,-6.8569937,0.6860278104704097,6.93711047367223,-0.021380283,0.014049901,0.024740042,254.1351,-1.1354992,-40.570255
718442827000.0,-6.830771107489936,0.7136680115064132,6.96191539528134,-0.027794369,0.023518313,0.0067195175,254.1507,-1.1513587,-40.548077
718447037000.0,-6.804347671762944,0.7476409496208221,6.980789249789346,-0.028710667,0.02076942,0.009773844,254.15872,-1.171307,-40.52492
718452034000.0,-6.777121113402062,0.7635775226804123,6.985934991752577,-0.031154128,0.015271631,0.0061086523,254.17303,-1.1836056,-40.509262
718457068000.0,-6.753226579698652,0.7587986159397303,6.9763770784694685,-0.03634648,0.011301007,-0.0009162979,254.18716,-1.1950196,-40.493946
718462053000.0,-6.72756783825079,0.7662371756633777,6.981584657994061,-0.022602014,0.016187929,-0.004581489,254.19916,-1.2192997,-40.474335
718467081000.0,-6.6998915857745,0.7846880764738001,7.0000355250886095,-0.022602014,0.021380283,-0.009162978,254.21388,-1.2378716,-40.454617
718472038000.0,-6.671886332375979,0.8057820257206266,7.0047688749869454,-0.023823744,0.016493361,-0.011911872,254.22052,-1.2610707,-40.43481
718477033000.0,-6.642743180939948,0.8307617338015666,6.992279027467363,-0.025350908,0.0030543262,-0.012217305,254.22798,-1.2835597,-40.414715
718482030000.0,-6.615073645285182,0.854210536142161,6.980242175905226,-0.019547688,0.0106901415,-0.021685716,254.23666,-1.3106414,-40.398033
718487148000.0,-6.596342704098595,0.868258705359702,6.970876729760199,-0.013439035,0.006414085,-0.01985312,254.24155,-1.3391685,-40.37482
718492120000.0,-6.577725252996845,0.8826069486119874,6.961105805615143,-0.01863139,0.0021380284,-0.030543262,254.2515,-1.3700787,-40.358944
718497044000.0,-6.552932317560463,0.9073999099369086,6.941271509043113,-0.016493361,0.0061086523,-0.03970624,254.26028,-1.404014,-40.344593
718501996000.0,-6.5297339623047375,0.9311476441101152,6.921833903021767,-0.002443461,0.015577064,-0.040317107,254.27406,-1.440702,-40.332096
718507085000.0,-6.5172535101749896,0.947788326589842,6.905193198822023,-0.0012217305,0.018325957,-0.036651913,254.28946,-1.4737827,-40.319195
718512009000.0,-6.505177710157917,0.9638894703371744,6.889092034058899,0.003970624,0.021685716,-0.033292156,254.30594,-1.5144105,-40.307705
718517054000.0,-6.51805364367114,0.948005100565792,6.8664716206689365,0.0027488936,0.022296581,-0.032070424,254.32166,-1.5536827,-40.296406
718521960000.0,-6.536873552924094,0.9244802508461848,6.842946795513719,0.0106901415,0.03268129,-0.01985312,254.3317,-1.5982033,-40.288906
718527035000.0,-6.564577026269548,0.8923813620980496,6.83784,0.012217305,0.03390302,-0.018936822,254.34065,-1.6440265,-40.2809
718532083000.0,-6.594308646371464,0.8584022948339484,6.83784,0.0036651916,0.025350908,-0.018325957,254.34538,-1.6907938,-40.272915
718537022000.0,-6.638684240262582,0.8164552585995624,6.83784,0.0070249503,0.03145956,-0.020158553,254.3533,-1.7332815,-40.271835
718542015000.0,-6.697278460962801,0.7662317095317287,6.83784,-0.012217305,0.023518313,-0.016798794,254.35944,-1.7694333,-40.264225
718546980000.0,-6.762453584551213,0.708304933950255,6.845483103074309,-0.020158553,0.016493361,-0.013133603,254.36475,-1.8006915,-40.262753
718552027000.0,-6.8520579898038,0.6224339832071683,6.879084794029044,-0.02443461,0.02321288,-0.016187929,254.37128,-1.827486,-40.262928
718557043000.0,-6.941112021257531,0.5370904744044492,6.912480094569752,-0.035430185,0.026267206,-0.01160644,254.3794,-1.8395203,-40.269543
718562026000.0,-6.995410957832122,0.481138000171844,6.932842209187045,-0.04520403,0.018325957,-0.011301007,254.3901,-1.8494103,-40.27472
718567072000.0,-7.031913295892739,0.4400728507959588,6.946530585959777,-0.03756821,0.010995574,-0.017715093,254.40134,-1.8602028,-40.28069
718572040000.0,-7.040633784319375,0.4108518080522688,6.9527617,-0.024740042,0.015271631,-0.01740966,254.41034,-1.8486878,-40.295174
718577036000.0,-7.025864972960181,0.3911601760901327,6.9527617,-0.018325957,0.0106901415,-0.020158553,254.42267,-1.8360349,-40.304848
718582049000.0,-7.010977486000933,0.385277654619692,6.941734749930005,-0.004581489,-0.004581489,-0.0070249503,254.4294,-1.8230972,-40.31968
718587048000.0,-6.996084291647224,0.3890009804230829,6.92311815979157,0.017104227,-0.0009162979,-0.003970624,254.44022,-1.8113263,-40.338234
718592235000.0,-6.97890173776322,0.3949803179064108,6.903064513729528,0.021685716,-0.01985312,0.00061086525,254.45122,-1.7978349,-40.34917
718597039000.0,-6.935844229854937,0.4337321064960224,6.872924213233505,0.038179077,-0.021380283,0.0012217305,254.46184,-1.7917842,-40.36562
718601957000.0,-6.891764957604118,0.4734034837407581,6.842068676630791,0.053450707,-0.035124753,0.008857546,254.46725,-1.7904925,-40.374596
718607062000.0,-6.851091827634049,0.4892299980935281,6.817060732743002,0.06078109,-0.034513887,0.01038471,254.47427,-1.7901763,-40.387047
718612024000.0,-6.812309422019097,0.5008647157283931,6.793791329870236,0.06627888,-0.026572637,0.018325957,254.47595,-1.795433,-40.39736
718617046000.0,-6.775222333739961,0.518094816214293,6.748807110917963,0.08246681,-0.010079277,0.027183503,254.47151,-1.815006,-40.407333
718622035000.0,-6.741223138101047,0.5423800226125851,6.675951583013114,0.087659165,-0.0061086523,0.025045475,254.46848,-1.8325089,-40.415886
718627031000.0,-6.7251272068690096,0.5554548,6.610222725319489,0.07941248,-0.0021380284,0.025961773,254.46516,-1.854469,-40.42654
718632063000.0,-6.729938554472843,0.5554548,6.552486353115016,0.08399397,0.0070249503,0.028405234,254.46216,-1.8797934,-40.43941
718637178000.0,-6.727832960789788,0.5601171392102114,6.503155967500997,0.08246681,0.018325957,0.026572637,254.45453,-1.9060836,-40.450058
718642159000.0,-6.7183191911846825,0.5696309088153171,6.465100938751496,0.08979719,0.03145956,0.029321533,254.44456,-1.936015,-40.463326
718647032000.0,-6.71751641504663,0.5746084,6.445191,0.092240654,0.032986723,0.021685716,254.44312,-1.9605068,-40.48474
718652033000.0,-6.726725832756466,0.5746084,6.445191,0.08002335,0.048258353,0.026572637,254.43582,-1.9856791,-40.512764
718657092000.0,-6.74027337067555,0.5777196347676479,6.449857826161761,0.08155051,0.040011674,0.022296581,254.43533,-2.012485,-40.536827
718662023000.0,-6.760187008526609,0.5856851065429703,6.461805967285148,0.083383106,0.036957346,0.014049901,254.43448,-2.0363476,-40.5657
718667374000.0,-6.783676900080264,0.5943616042201016,6.473321735779898,0.08032878,0.03268129,0.013133603,254.43268,-2.0594177,-40.59187
718672040000.0,-6.8275133729421205,0.60233187957906,6.46535146042094,0.09254608,0.040317107,0.015577064,254.43271,-2.084873,-40.619736
718676958000.0,-6.873717353553911,0.6107326113011683,6.456950728698831,0.08002335,0.03268129,0.00580322,254.4371,-2.1027684,-40.640175
718682057000.0,-6.90924567600551,0.6330770675537191,6.448047196078972,0.07238753,0.038179077,0.00061086525,254.43867,-2.1252089,-40.66561
718687019000.0,-6.939791228567493,0.6592589580330579,6.439319862800735,0.06352998,0.040317107,-0.0027488936,254.4435,-2.1428292,-40.687252
718692016000.0,-6.9657032945945945,0.6703765,6.445967324324324,0.055283304,0.045814894,0.002443461,254.44615,-2.1601934,-40.717567
718698166000.0,-6.993243366136725,0.6703765,6.467999485083699,0.034208454,0.05497787,-0.00030543262,254.45294,-2.1704874,-40.74877
718702043000.0,-7.011295001600001,0.67250638032,6.47179141968,0.03390302,0.06688975,0.0061086523,254.45084,-2.1913927,-40.78497
718707095000.0,-7.0354859984,0.67734457968,6.46695322032,0.021991149,0.07788532,0.005192355,254.45247,-2.2030447,-40.822628
718712061000.0,-7.0736544511165285,0.6820470284836665,6.4622507715163335,0.0070249503,0.09407325,0.0027488936,254.45473,-2.2136445,-40.86622
718717051000.0,-7.129574614841541,0.6867070218527548,6.457590778147245,0.00580322,0.093767814,0.0143553335,254.45216,-2.2268777,-40.90681
718722022000.0,-7.17539222775422,0.6880375320825667,6.468200826842147,0.0015271631,0.096516706,0.005192355,254.45486,-2.2323065,-40.950706
718727020000.0,-7.206028140339227,0.6842080380110409,6.502666313473077,-0.009773844,0.09896017,0.0076358155,254.44897,-2.2400737,-40.99288
718732532000.0,-7.239814684990799,0.6799847144171534,6.5406762699175935,-0.0033597588,0.11209377,0.009468411,254.45087,-2.2473497,-41.046032
718737051000.0,-7.267532946840307,0.6707976829205807,6.586737228800171,0.005497787,0.116980694,0.014660766,254.45065,-2.2537374,-41.096146
718742282000.0,-7.2993221502153,0.6605005072560696,6.639420034695374,0.0015271631,0.109650314,0.013744468,254.45483,-2.2558088,-41.14621
718747032000.0,-7.324327908346312,0.6563328663948694,6.676928802446175,0.00030543262,0.094989546,0.010079277,254.45816,-2.2607305,-41.194122
718752017000.0,-7.350570793458544,0.6519590369857994,6.7162932671278055,0.006414085,0.09162979,0.02076942,254.4566,-2.2668788,-41.240936
718757057000.0,-7.371655151909852,0.6645569415278814,6.7662541697738,0.0070249503,0.063224554,0.007941248,254.4661,-2.2664003,-41.275497
718762290000.0,-7.392417184555473,0.6811665676443782,6.820235498011434,0.007941248,0.040927973,0.0033597588,254.46838,-2.270756,-41.309315
718767770000.0,-7.405645576379556,0.6895301,6.836321065516188,0.007330383,0.028710667,0.005192355,254.47928,-2.2703888,-41.333885
718772039000.0,-7.409808003502341,0.6895301,6.819671313561392,0.012217305,0.0030543262,0.010079277,254.49115,-2.271228,-41.34758
718777029000.0,-7.4059602483127165,0.680879231083622,6.78531983306284,0.004581489,-0.021991149,0.0076358155,254.51155,-2.2701275,-41.355927
718782077000.0,-7.391607842652152,0.6617426902028699,6.732694395596239,0.006414085,-0.036957346,-0.002443461,254.53293,-2.2716875,-41.359547
718787015000.0,-7.378036016348176,0.645540902504343,6.688613023818231,0.011301007,-0.04886922,0.00030543262,254.55003,-2.2743363,-41.359512
718792167000.0,-7.364502230044803,0.6320070832266618,6.652522879903081,-0.0018325958,-0.060170226,-0.00061086525,254.57216,-2.2710996,-41.35556
718796959000.0,-7.347290446712464,0.6213928378213935,6.620552894111874,0.0030543262,-0.05375614,0.0012217305,254.58832,-2.2709134,-41.353874
718802041000.0,-7.31385717063788,0.6166166605122669,6.591895600843965,0.003970624,-0.03604105,-0.0067195175,254.6081,-2.2652705,-41.35258
718807085000.0,-7.283903258653626,0.6104875951921754,6.562405157125392,-0.004276057,-0.027794369,-0.007330383,254.62473,-2.2584882,-41.356377
718812042000.0,-7.265766100557806,0.5996053003346833,6.529758234675633,-0.009468411,-0.023823744,-0.00030543262,254.64069,-2.2527757,-41.36386
718816973000.0,-7.247724073813708,0.588780084288225,6.497282548857645,-0.010995574,-0.02321288,0.0030543262,254.66324,-2.2433834,-41.37134
718822034000.0,-7.217478213926691,0.5728913204291249,6.480674552537995,-0.01038471,-0.007941248,0.0033597588,254.68333,-2.234441,-41.383953
718827029000.0,-7.17946406586868,0.5538842017443131,6.475922827446111,-0.01863139,-0.0027488936,-0.0036651916,254.7046,-2.2228365,-41.393784
718832050000.0,-7.141599242788697,0.5431464535445389,6.490310550210228,-0.008552114,-0.008552114,-0.008552114,254.72363,-2.2136583,-41.405174
718837858000.0,-7.098089105153027,0.5377077076366481,6.522942968866725,-0.008246681,-0.003970624,0.005497787,254.73721,-2.2032773,-41.420597
718842008000.0,-7.070332325349821,0.5363012,6.549949732053368,-0.005497787,-0.01038471,-0.009773844,254.77116,-2.1844325,-41.428074
718847027000.0,-7.039049484689229,0.5363012,6.58514287675724,-0.006414085,-0.013744468,-0.017715093,254.79614,-2.1693509,-41.437183
718852117000.0,-7.006667228875938,0.53950085846639,6.618284349816382,-0.003970624,-0.02565634,-0.017715093,254.82285,-2.1552467,-41.437077
718857047000.0,-6.968974769431582,0.5734241191960722,6.625823007009421,-0.010995574,-0.030848695,-0.014049901,254.85019,-2.1386514,-41.43797
718862008000.0,-6.931045298578956,0.6075606904901805,6.633409067523552,-0.00580322,-0.032070424,-0.018936822,254.88278,-2.1249232,-41.43208
718867017000.0,-6.909100346150058,0.6385549949793226,6.623341761628594,-0.0036651916,-0.03848451,-0.009773844,254.90784,-2.112942,-41.42324
718872038000.0,-6.899631094131547,0.6669629339582512,6.599668359669161,-0.013439035,-0.044593163,-0.016493361,254.93987,-2.0961177,-41.414715
718877056000.0,-6.890964974434464,0.6777852985362608,6.573666967115768,-0.0076358155,-0.048258353,-0.008246681,254.96727,-2.0954194,-41.399197
718882055000.0,-6.883001788614438,0.673803726413839,6.5457959206836325,-0.004276057,-0.043676864,-0.004581489,254.99792,-2.0904264,-41.38499
718886998000.0,-6.880647418313405,0.6703765,6.51794806148521,-0.011911872,-0.04428773,-0.009773844,255.0163,-2.0925229,-41.364628
718892092000.0,-6.91646554751416,0.6703765,6.487246853681561,-0.015882496,-0.03726278,0.0030543262,255.02582,-2.1003127,-41.34806
718897007000.0,-6.94652111692572,0.6695424664141217,6.4643445,-0.013133603,-0.024740042,-0.004581489,255.0538,-2.1000187,-41.33945
718902059000.0,-6.961636868234008,0.6657635088572991,6.4643445,-0.009773844,-0.019242255,-0.0015271631,255.07228,-2.1036344,-41.330826
718906919000.0,-6.976178149183785,0.6621281696399282,6.4643445,-0.0106901415,-0.0106901415,-0.0027488936,255.08368,-2.107069,-41.331955
718911947000.0,-6.978220253640088,0.6444409477024897,6.493790217239206,-0.0143553335,0.0033597588,0.004581489,255.09026,-2.1128411,-41.33607
718916926000.0,-6.973211020821514,0.6193947522260741,6.538873312606366,-0.01740966,0.004581489,0.0061086523,255.09933,-2.1172357,-41.33897
718921922000.0,-6.986238392255722,0.6093348419360693,6.572020488383584,-0.015577064,0.004276057,0.011301007,255.1033,-2.1225448,-41.345154
718926916000.0,-7.005529120984169,0.6045121597539579,6.600956581476253,-0.02321288,-0.0012217305,0.0015271631,255.11237,-2.122601,-41.350204
718931939000.0,-7.0102224,0.5929361096092042,6.625334540886184,-0.019242255,-0.0067195175,0.010079277,255.115,-2.124747,-41.34752
718936943000.0,-7.0102224,0.5792661351145765,6.648118037891034,-0.011911872,0.0009162979,-0.0012217305,255.12852,-2.1205251,-41.34756
718941931000.0,-7.013374277473684,0.5746084,6.677944570175439,-0.0143553335,-0.004886922,0.0015271631,255.12808,-2.1206448,-41.344784
718946919000.0,-7.01816305750376,0.5746084,6.711466680451127,-0.0070249503,-0.008552114,0.008857546,255.12988,-2.1232421,-41.34496
718951970000.0,-7.004720716191551,0.5746084,6.737996846787092,-0.005192355,-0.02565634,0.009468411,255.13104,-2.121668,-41.337288
718957008000.0,-6.98202445272368,0.5746084,6.760693205052216,-0.003970624,-0.03756821,0.014049901,255.12787,-2.1236968,-41.3302
718961979000.0,-6.951623152272727,0.5847544609440559,6.765729501311189,0.007941248,-0.040927973,0.01740966,255.1283,-2.1273825,-41.31775
718966976000.0,-6.914439667676768,0.6033462711888112,6.756433654428904,0.009468411,-0.03848451,0.019242255,255.12764,-2.1297162,-41.304176
718971974000.0,-6.888115413092783,0.6177060120969072,6.744463413092783,0.008857546,-0.04520403,0.009468411,255.13077,-2.132975,-41.28228
718976976000.0,-6.873299953195876,0.6275829458268042,6.729647953195876,0.0076358155,-0.039095376,0.015271631,255.12701,-2.1396763,-41.26533
718981968000.0,-6.8665705,0.64477292555393,6.69962833142323,0.01160644,-0.03268129,0.013439035,255.12897,-2.1484497,-41.2435
718986998000.0,-6.8665705,0.6682654213760871,6.65655864468016,0.00061086525,-0.030848695,0.008552114,255.12991,-2.1541686,-41.22297
718991946000.0,-6.867879213371389,0.6918203483999308,6.616591768387822,-0.005192355,-0.018020526,0.013744468,255.12695,-2.164797,-41.20416
718996969000.0,-6.884521408977686,0.7209441907109496,6.604110165127141,-0.018325957,-0.014660766,0.01160644,255.1288,-2.1691048,-41.18415
719001979000.0,-6.90112053300467,0.7499926577581733,6.591660865438505,-0.017104227,0.007330383,0.016493361,255.12311,-2.1836586,-41.181858
719007063000.0,-6.918147351407525,0.7565677,6.588843,-0.02321288,0.008857546,0.02107485,255.11884,-2.193171,-41.17497
719012046000.0,-6.934887268613522,0.7565677,6.588843,-0.03359759,0.02565634,0.023518313,255.113,-2.202317,-41.178757
719017004000.0,-6.936421684265304,0.7407866848803103,6.611387377935472,-0.032986723,0.023518313,0.019242255,255.10223,-2.218735,-41.176
719022041000.0,-6.922729231951935,0.7088377406850223,6.657028869760621,-0.039095376,0.034208454,0.021685716,255.08792,-2.232821,-41.181522
719027031000.0,-6.921765063028341,0.6822195369716584,6.701060066813769,-0.031154128,0.021991149,0.022296581,255.07962,-2.2473104,-41.181946
719032109000.0,-6.940841650416789,0.6631429495832107,6.743982388437776,-0.023823744,0.023823744,0.02107485,255.07095,-2.2601902,-41.189255
719037026000.0,-6.9527617,0.6487098093830876,6.778341744297322,-0.034208454,0.016493361,0.015271631,255.06729,-2.263278,-41.18306
719042017000.0,-6.9527617,0.6415178166829673,6.7999176435449895,-0.029626964,-0.0021380284,0.016798794,255.0617,-2.2721782,-41.174335
719046965000.0,-6.9527617,0.634387786652874,6.821307655461932,-0.014966198,-0.006414085,0.006414085,255.06317,-2.2743638,-41.169117
719052032000.0,-6.924208005914813,0.649201467321952,6.825407930591481,-0.01282817,-0.0143553335,0.017715093,255.05629,-2.2792237,-41.15771
719057111000.0,-6.882269251646836,0.6743647505371616,6.821214055164684,0.00030543262,-0.011301007,0.022907447,255.05551,-2.2865088,-41.149025
719062037000.0,-6.855321833904334,0.682842565786764,6.798623914817935,0.004886922,-0.020158553,0.016493361,255.06044,-2.290007,-41.137978
719071976000.0,-6.847417,0.6486403599575015,6.69859991452169,0.01740966,-0.008857546,0.023823744,255.05771,-2.3015404,-41.13372
719077052000.0,-6.847417,0.6369463606214417,6.675211891428113,0.0067195175,-0.009468411,0.014966198,255.0534,-2.3132517,-41.113525
719082037000.0,-6.847417,0.6254620054815171,6.652243157164622,0.002443461,-0.0070249503,0.014966198,255.04333,-2.3277779,-41.10257
719087036000.0,-6.850646079069345,0.6257215427874216,6.633387447696083,0.014049901,0.006414085,0.019547688,255.03496,-2.3423963,-41.09509
719092775000.0,-6.855641142352086,0.630716658228665,6.613406829455602,0.0015271631,0.011301007,0.011911872,255.03159,-2.3483725,-41.08644
719097016000.0,-6.858883737576203,0.6301791924237973,6.611776654094748,0.00061086525,0.025350908,0.019242255,255.01053,-2.3634102,-41.08873
719102057000.0,-6.862429580308484,0.6266333496915167,6.618868487660668,-0.009773844,0.03145956,0.009468411,254.99939,-2.368744,-41.09059
719107607000.0,-6.866333453977231,0.622729476022769,6.626676398053617,-0.014966198,0.032986723,0.014660766,254.97394,-2.3815577,-41.09757
719112007000.0,-6.87398905772164,0.6076552409656816,6.641987692907531,-0.009773844,0.03268129,0.018936822,254.95303,-2.3920224,-41.105717
719116976000.0,-6.883061864346997,0.5895095377140134,6.660133400896092,-0.008552114,0.028710667,0.01160644,254.93521,-2.3989594,-41.11313
719122095000.0,-6.893055071165708,0.5878507564453738,6.67645421106116,-0.014660766,0.02565634,0.01282817,254.9194,-2.4039364,-41.115826
719127080000.0,-6.903037422916885,0.5928419062624151,6.69142760839519,-0.011301007,0.025045475,0.0061086523,254.90976,-2.4081507,-41.118324
719132051000.0,-6.9048777,0.5755624217578088,6.708747720438983,-0.008552114,0.009468411,0.007330383,254.89468,-2.4094567,-41.11283
719137015000.0,-6.9048777,0.5532665419566645,6.726584455942219,-0.0076358155,0.014660766,0.0143553335,254.87982,-2.4108357,-41.11332
719142066000.0,-6.911438154706356,0.5524384547063556,6.7226546521922765,-0.0009162979,0.01985312,0.018936822,254.86652,-2.414452,-41.109802
719147098000.0,-6.921130523491553,0.5621308234915526,6.70811614961786,-0.00030543262,0.0070249503,0.013133603,254.8551,-2.4161832,-41.10298
719152030000.0,-6.9240313,0.5713243091139241,6.694325923187572,0.010079277,0.008857546,0.0143553335,254.85611,-2.4145236,-41.104187
719157072000.0,-6.9240313,0.5805852079324895,6.6804345556194855,0.003970624,0.014049901,0.013439035,254.86012,-2.40812,-41.103123
719162831000.0,-6.913685668748816,0.5979794594132701,6.647445909933649,0.017104227,0.0070249503,0.01740966,254.86108,-2.4113126,-41.102966
719167114000.0,-6.902021983924171,0.6135310892492891,6.616342479753555,0.02076942,0.0143553335,0.016798794,254.86357,-2.4101999,-41.10858
719172105000.0,-6.902600017913604,0.6249254444396335,6.600852714439633,0.01160644,0.008552114,0.018325957,254.86604,-2.4115875,-41.111202
719177049000.0,-6.916902968593294,0.6296931112606988,6.605620381260699,0.02443461,0.018325957,0.019547688,254.86829,-2.4183316,-41.120358
719182044000.0,-6.9240313,0.633755642361372,6.6113694057260135,0.020463986,0.01038471,0.015577064,254.8712,-2.4216235,-41.118248
719187029000.0,-6.9240313,0.6370771617692896,6.618012604084046,0.033292156,0.010079277,0.01038471,254.87378,-2.4311857,-41.12106
719192012000.0,-6.9240313,0.6403973485716274,6.62465313716691,0.021991149,0.014660766,0.02321288,254.87115,-2.4384987,-41.127876
719197082000.0,-6.917547357027858,0.6578558912827032,6.630392471486071,0.018020526,0.007330383,0.0125227375,254.87964,-2.4446533,-41.13157
719202042000.0,-6.907484667058575,0.6830126687427179,6.6354238164707136,0.017104227,0.009468411,0.021380283,254.87556,-2.4550002,-41.13867
719207089000.0,-6.911872054804892,0.6755413903902155,6.6262356217239375,0.015271631,0.017104227,0.014049901,254.87527,-2.4613204,-41.13937
719212074000.0,-6.921140225645506,0.6570050487089886,6.612333171908367,0.011911872,0.02443461,0.012217305,254.86966,-2.4696407,-41.14055
719217107000.0,-6.930462712299672,0.6608699680826414,6.61121218936088,0.004276057,0.021380283,0.01740966,254.85654,-2.483423,-41.138638
719222098000.0,-6.939691918391581,0.6747137049430392,6.615826768314347,0.0067195175,0.020463986,0.014660766,254.84729,-2.4965203,-41.139713
719227030000.0,-6.948062305121339,0.6897080121004184,6.620012079882845,-0.0036651916,0.01863139,0.019242255,254.83795,-2.5025504,-41.144634
719232581000.0,-6.956959420050209,0.7075024277656904,6.624460869606694,0.009773844,0.019547688,0.012217305,254.83423,-2.5113816,-41.150314
719237019000.0,-6.967197303498078,0.7172887193003845,6.629094051251993,0.004581489,0.018936822,0.014049901,254.81706,-2.520738,-41.150055
719242054000.0,-6.989807820238207,0.7127666159523586,6.638138210728688,-0.0012217305,0.021380283,0.016187929,254.8028,-2.531299,-41.151196
719246994000.0,-7.01190899896299,0.7080090604148043,6.646641326837117,-0.0021380284,0.016493361,0.014660766,254.79514,-2.5432909,-41.153927
719252027000.0,-7.03345380246737,0.699391139013052,6.650950377525478,-0.0076358155,0.028405234,0.014966198,254.78586,-2.5535429,-41.16209
719258194000.0,-7.057784517274899,0.6875988012966472,6.656846644814235,-0.01160644,0.019242255,0.014966198,254.78093,-2.5607886,-41.162254
719262272000.0,-7.054567267880385,0.6682952814136255,6.666498359403575,-0.0067195175,0.015882496,0.009162978,254.77782,-2.5675774,-41.167553
719267050000.0,-7.050797768712415,0.6456782588532829,6.677806817546751,-0.009773844,0.017715093,0.0070249503,254.78017,-2.568065,-41.173912
719272035000.0,-7.050379215377575,0.6283700011762015,6.6846113,-0.0030543262,0.019547688,0.017104227,254.78003,-2.5729632,-41.17922
719277024000.0,-7.054752547661328,0.6196233411752861,6.6846113,0.00030543262,0.013439035,0.009773844,254.7873,-2.572856,-41.1831
719282090000.0,-7.059957999282763,0.615693035057301,6.6846113,-0.01038471,0.0036651916,0.004581489,254.79544,-2.5670922,-41.187313
719287028000.0,-7.0673315454587975,0.6267533389225852,6.6846113,-0.0021380284,-0.00061086525,0.004276057,254.80418,-2.5658565,-41.191418
719292014000.0,-7.074776766445778,0.6379211548546037,6.6846113,-0.00580322,0.0021380284,0.0036651916,254.81638,-2.556553,-41.195263
719297032000.0,-7.071056067966789,0.6385440437005214,6.659795442305464,0.0036651916,0.0015271631,0.0061086523,254.8273,-2.5526388,-41.197006
719302140000.0,-7.061610558331724,0.6338213036773509,6.622013206507048,0.0070249503,0.007941248,0.008552114,254.83783,-2.5467827,-41.20165
719307018000.0,-7.0553411696834765,0.63206923,6.602466068241215,0.0030543262,0.008552114,0.013133603,254.84633,-2.5450308,-41.206177
719312050000.0,-7.050676523705353,0.63206923,6.59313682499274,0.010079277,0.007941248,0.01282817,254.85538,-2.5460277,-41.212196
719317069000.0,-7.04031173631746,0.6348084902444445,6.594321509047619,-0.002443461,0.0061086523,0.011301007,254.86247,-2.5416706,-41.218952
719322041000.0,-7.025195488359788,0.6398471887037037,6.604398884920634,-0.0036651916,0.007941248,0.00580322,254.87096,-2.5405307,-41.22659
719327048000.0,-7.019799,0.6303444261871292,6.605171103596531,0.0015271631,0.008857546,0.009468411,254.871,-2.541055,-41.23142
719332048000.0,-7.019799,0.6128605558083068,6.600800131437699,-0.00580322,0.008246681,-0.0009162979,254.87836,-2.5350351,-41.23669
719336982000.0,-7.023839982251908,0.5932365869045801,6.594378781040076,-0.009468411,0.0070249503,0.0018325958,254.8829,-2.5345225,-41.241367
719342209000.0,-7.033393222519084,0.5693539650458016,6.584825690400763,0.0030543262,-0.0015271631,0.004276057,254.89136,-2.5340831,-41.243954
719347005000.0,-7.032318799802528,0.5604304310979463,6.5842416414889415,-0.013133603,0.011301007,0.0070249503,254.89017,-2.5268278,-41.255417
719352032000.0,-7.013305045872828,0.5746906919470774,6.598501932118878,-0.0015271631,0.007941248,0.009468411,254.88864,-2.528699,-41.25979
719356992000.0,-6.9928170240117575,0.5873166769349281,6.604865079414149,-0.0030543262,0.01282817,0.011911872,254.88739,-2.5198781,-41.273396
719362063000.0,-6.96820530123657,0.5971613866045004,6.59502042114332,-0.002443461,0.01160644,0.020463986,254.88303,-2.5157568,-41.283993
719366987000.0,-6.95592699712551,0.60333884,6.593590953951238,-0.00580322,0.01038471,0.0076358155,254.88765,-2.5095286,-41.29319
719372011000.0,-6.965055844862916,0.60333884,6.607284249388104,0.00030543262,0.0125227375,0.01160644,254.8826,-2.510286,-41.302475
719376964000.0,-6.973038964359,0.6044626043589999,6.619820875654946,0.01160644,0.01038471,0.015271631,254.88182,-2.5116482,-41.309803
719382091000.0,-6.977929915011456,0.6093535550114554,6.629602981243152,0.0067195175,0.012217305,0.011301007,254.88226,-2.5101628,-41.31882
719387081000.0,-6.980433901759325,0.6171480395918367,6.6367273,0.0106901415,0.00580322,0.016187929,254.88863,-2.5117319,-41.3233
719392047000.0,-6.976250370021112,0.633882192755102,6.6367273,0.01985312,0.01038471,0.017715093,254.89722,-2.5121303,-41.331493
719397392000.0,-6.972383374713396,0.6510668401326565,6.636571241762201,0.011911872,0.0125227375,0.0076358155,254.89845,-2.51166,-41.331184
719402030000.0,-6.983294903963315,0.64742962573698,6.632934065345562,0.0106901415,0.015577064,0.0143553335,254.8927,-2.5179908,-41.33229
719407024000.0,-6.995043971896496,0.6435132288650508,6.629017709367835,0.009468411,0.009162978,0.002443461,254.90994,-2.5171862,-41.333073
719412009000.0,-7.002804359279779,0.6481223003808865,6.6271505,0.00030543262,0.004276057,0.0015271631,254.92006,-2.5178406,-41.3349
719422012000.0,-7.011889648184819,0.673710996369637,6.631318620462047,0.0027488936,0.0036651916,0.0067195175,254.9321,-2.5197861,-41.33629
719427043000.0,-7.019840288580858,0.6896122771617162,6.651195221452145,0.0018325958,-0.0015271631,0.00580322,254.94632,-2.5165415,-41.335617
719433365000.0,-7.030595650835766,0.7072201189970815,6.674546642212788,0.004581489,-0.004276057,0.0076358155,254.95691,-2.5199997,-41.343052
719437057000.0,-7.046230896966481,0.6884578236402229,6.668292576412841,0.010079277,0.00061086525,0.018020526,254.9642,-2.5253885,-41.350964
719442030000.0,-7.067291048377111,0.6631856419474662,6.659868559830193,0.018936822,0.0027488936,0.012217305,254.97583,-2.5328133,-41.35362
719447019000.0,-7.072094741991608,0.6434749941101218,6.65329831706069,0.019547688,0.00061086525,0.011911872,254.9813,-2.5425627,-41.356194
719452076000.0,-7.062181759164876,0.6286054836413878,6.648341722136935,0.0143553335,-0.00061086525,0.0106901415,254.98912,-2.5516136,-41.359734
719457042000.0,-7.050679406375358,0.6150654389604227,6.646304,0.015271631,0.004581489,0.01038471,254.99368,-2.557563,-41.369816
719462017000.0,-7.037880898137535,0.6022669351772922,6.646304,0.0125227375,0.013744468,0.00580322,255.00014,-2.5605679,-41.380646
719466990000.0,-7.024252048272173,0.5903460650476089,6.648012019578474,0.004276057,0.0027488936,0.004276057,254.99829,-2.562826,-41.384903
719472035000.0,-7.008744947812133,0.5800079764844335,6.653181161014229,0.006414085,0.006414085,0.0067195175,254.99615,-2.566571,-41.3958
719482043000.0,-6.986819528646955,0.5953475359036616,6.704272177550421,0.008246681,-0.013744468,0.0106901415,254.99506,-2.5663536,-41.39698
719488073000.0,-6.987561239904611,0.6124426966881956,6.7047107802861685,0.006414085,-0.022602014,0.008552114,254.99501,-2.5651402,-41.402435
719492118000.0,-6.995259601589826,0.6239902351967409,6.681615695230525,0.008857546,-0.025961773,0.009468411,254.98984,-2.5664937,-41.404526
719497013000.0,-6.99887501364491,0.6356104896069479,6.660145830002686,-0.0027488936,-0.03176499,-0.0015271631,254.9851,-2.566181,-41.397583
719502046000.0,-6.994559584528607,0.6442415596320172,6.647199272280419,-0.008857546,-0.024740042,0.009773844,254.97159,-2.5718455,-41.393368
719507030000.0,-6.991069,0.6512229,6.637447168853944,0.0009162979,-0.01038471,0.005497787,254.96126,-2.5777411,-41.39315
719512236000.0,-6.991069,0.6512229,6.641551919405566,0.0012217305,-0.00580322,-0.0009162979,254.94794,-2.5818212,-41.392303
719517025000.0,-6.991069,0.6512229,6.645327879911082,-0.00061086525,0.0030543262,0.004886922,254.93854,-2.587303,-41.391064
