timestamp,acc_x,acc_y,acc_z,gyro_x,gyro_y,gyro_z,ori_azimuth,ori_pitch,ori_roll
523313423000.0,-2.395018993014406,10.435669784452298,2.909964473215548,-1.1695015,0.73914695,0.03390302,340.6395,-6.59507,-24.673946
523318432000.0,-2.3752191370606948,10.430357596060723,2.8529795168669025,-1.1695015,0.752586,0.028405234,340.6376,-6.5960307,-24.673615
523323633000.0,-2.354660332745412,10.424841786153646,2.79381026991755,-1.1921035,0.7620544,0.034513887,340.48587,-6.869294,-25.057945
523328459000.0,-2.3355838494488235,10.419723674519044,2.7389072155477034,-1.1911873,0.75991637,0.040927973,340.31592,-7.1562533,-25.43457
523333467000.0,-2.315787946351162,10.414412546656198,2.681933635712604,-1.1884383,0.74220127,0.036957346,340.12842,-7.4454155,-25.801327
523338441000.0,-2.296126440359196,10.409137476770058,2.625346857338045,-1.1652255,0.73823065,0.03176499,339.9201,-7.7487206,-26.162931
523343472000.0,-2.276239621572388,10.4038019567465,2.5681116176914016,-1.17897,0.7535023,0.030543262,339.6937,-8.051125,-26.516844
523348484000.0,-2.256427907050527,10.398486586768747,2.51109253180212,-1.1881329,0.77091193,0.029626964,339.45132,-8.367747,-26.862368
523353402000.0,-2.2369877609973523,10.393270906491296,2.4551428381861014,-1.1960741,0.78038037,0.039095376,339.1886,-8.689928,-27.201414
523358380000.0,-2.2173104435811863,10.38799159449025,2.3985105537573617,-1.2177598,0.78984874,0.04062254,338.911,-9.012522,-27.53767
523363473000.0,-2.197178547719288,10.382590321685644,2.340569970270907,-1.2302825,0.7965683,0.032375857,338.6169,-9.342568,-27.867704
523368428000.0,-2.177592145992268,10.37733540184531,2.28419934565371,-1.1838568,0.8417723,0.03023783,338.30154,-9.690035,-28.202671
523373450000.0,-2.157740902909909,10.372009426580291,2.2270664946289758,-1.2290609,0.84574294,0.025350908,337.9765,-10.016581,-28.520382
523378402000.0,-2.138166359751039,10.366757688326135,2.1707299995524147,-1.2428054,0.8390234,0.019547688,337.63495,-10.368827,-28.83958
523383567000.0,-2.117749858253551,10.361280057453213,2.111970307090695,-1.2519683,0.84665924,0.011301007,337.27972,-10.716227,-29.156029
523388417000.0,-2.0985785064117666,10.356136493129172,2.05679421639576,-1.2644911,0.8350528,0.006414085,336.91293,-11.065151,-29.457079
523394312000.0,-2.075276419997886,10.349884676285829,1.9897296690459365,-1.2843442,0.83169305,0.003970624,336.53308,-11.415099,-29.75463
523398412000.0,-2.0590697101934907,10.34553650850674,1.943085963510012,-1.3008375,0.79626286,0.0033597588,336.14435,-11.768035,-30.031973
523403402000.0,-2.0393449585047265,10.340244470160972,1.886317160918728,-1.2718215,0.73364913,0.005192355,335.7456,-12.13274,-30.292637
523408434000.0,-2.0194541868618687,10.33490788960869,1.82907054475854,-1.1829406,0.69058317,0.009468411,335.3358,-12.513517,-30.540737
523413463000.0,-1.9995752737871604,10.329574490642589,1.7718580581389871,-1.0693196,0.6209445,0.01160644,334.91324,-12.922499,-30.732916
523418460000.0,-1.9798228521060472,10.324275028595734,1.715009619952886,-0.9379836,0.593761,0.016187929,334.48007,-13.361078,-30.915857
523423457000.0,-1.9600704304249343,10.31897556654888,1.6581611817667845,-0.8240572,0.55680364,0.013744468,334.04813,-13.8243,-31.068916
523428395000.0,-1.9405512272507623,10.313738675696898,1.6019839578798587,-0.7724391,0.44348818,-0.017104227,333.6272,-14.302018,-31.187277
523433479000.0,-1.9204549070933123,10.308346947650833,1.544145763015312,-0.5842926,0.16982053,-0.06963864,333.22845,-14.837406,-31.245834
523438468000.0,-1.9007341082605984,10.303055969833792,1.4873883369375738,-0.16279559,0.10934488,-0.08368854,332.8135,-15.443013,-31.3238
523443475000.0,-1.880942158018987,10.297745902499672,1.430426133616019,-0.13164146,0.084910266,-0.06963864,332.42883,-15.995664,-31.332794
523448504000.0,-1.8610632449442783,10.29241250353357,1.3732136469964664,-0.21960606,0.050701816,-0.07238753,332.06104,-16.614895,-31.31927
523453383000.0,-1.841777260277048,10.287238183876456,1.3177076374087162,-0.26267207,0.0061086523,-0.08460484,331.69608,-17.251123,-31.29
523458493000.0,-1.8215781658623016,10.281818882083495,1.2595736531919908,-0.28710666,-0.027183503,-0.094989546,331.335,-17.868431,-31.249176
523464455000.0,-1.7980112380930808,10.27549600981547,1.191746879434629,-0.31703907,-0.051923547,-0.109650314,330.98486,-18.469263,-31.195381
523468467000.0,-1.7821523796210723,10.271241168564323,1.1461043070906949,-0.33750305,-0.07391469,-0.116675265,330.6413,-19.06366,-31.129084
523473584000.0,-1.7619256152139773,10.265814443070278,1.087890687279152,-0.35308012,-0.08582657,-0.1151481,330.30383,-19.648542,-31.055222
523478376000.0,-1.742983529023084,10.26073238941238,1.033374434369847,-0.36957347,-0.09987647,-0.121256754,329.97668,-20.223284,-30.972647
523483497000.0,-1.7227409531917892,10.255301421803429,0.9751153085041226,-0.3830125,-0.12308934,-0.12186762,329.65326,-20.79322,-30.879997
523488486000.0,-1.703020154359075,10.250010443986389,0.918357882426384,-0.38728857,-0.1432479,-0.12217305,329.3364,-21.357431,-30.78169
523493473000.0,-1.6833072612384603,10.244721587226802,0.8616232093757363,-0.37873647,-0.16187929,-0.122478485,329.02637,-21.918177,-30.674633
523498491000.0,-1.6634718295803006,10.23939985407669,0.8045358644051828,-0.3680463,-0.18142697,-0.10934488,328.71933,-22.477074,-30.557549
523503395000.0,-1.644087023511824,10.234199021201414,0.7487454419787987,-0.35185838,-0.21074851,-0.11056661,328.42505,-23.03342,-30.432365
523508481000.0,-1.623982797642274,10.228805172097893,0.6908844940871615,-0.32467487,-0.23487769,-0.096516706,328.1291,-23.595606,-30.29738
523513487000.0,-1.6041948002567123,10.2234961652925,0.633933667279152,-0.2950479,-0.24281894,-0.09621128,327.84427,-24.15585,-30.158865
523518468000.0,-1.584505624272397,10.218213671705277,0.5772672533097762,-0.24465153,-0.24312437,-0.079107046,327.5581,-24.728144,-30.010036
523523483000.0,-1.5646820511823865,10.212895120141344,0.5202140378798588,-0.20097467,-0.2443461,-0.07727446,327.28296,-25.299038,-29.85922
523528400000.0,-1.5452458579852617,10.207680500392618,0.4642757207773853,-0.17959438,-0.24587326,-0.06505715,327.0055,-25.876148,-29.70269
523534205000.0,-1.5222995286158678,10.201524131134668,0.3982350596466433,-0.13897185,-0.23823744,-0.050396383,326.73114,-26.46388,-29.545834
523538484000.0,-1.505385257578549,10.19698612871352,0.3495549581861015,-0.07391469,-0.23732115,-0.03756821,326.4611,-27.058891,-29.383905
523543474000.0,-1.485660505889785,10.191694090367752,0.2927861555948174,-0.046120327,-0.24220806,-0.014966198,326.18985,-27.65299,-29.217295
523548499000.0,-1.465797404239276,10.186364933516556,0.2356191750294465,-0.015577064,-0.23579398,0.003970624,325.92017,-28.258825,-29.050812
523553398000.0,-1.4464323624510484,10.18116940328491,0.1798856351707893,0.00061086525,-0.22785273,0.02321288,325.6511,-28.865347,-28.878666
523558636000.0,-1.425727302461921,10.175614353814945,0.1202954572202592,0.014660766,-0.22235495,0.043676864,325.38235,-29.475468,-28.703054
523563481000.0,-1.4065757149003857,10.170476092134535,0.0651762490930507,0.022602014,-0.21746802,0.05589417,325.1159,-30.083187,-28.526287
523568468000.0,-1.3868628217797712,10.165187235374953,0.008441576042403,0.034208454,-0.21319197,0.064446285,324.85074,-30.691072,-28.346941
523573500000.0,-1.3669720501369134,10.159850654822668,-0.0488050401177855,0.019547688,-0.18997909,0.07819075,324.58316,-31.2905,-28.16932
523578392000.0,-1.347634678341035,10.154662548292109,-0.1044589443816255,0.028405234,-0.16523905,0.07819075,324.32248,-31.890532,-27.99308
523583501000.0,-1.3274395367823382,10.149244307027876,-0.1625815520848057,0.031154128,-0.12156218,0.08735373,324.0542,-32.482243,-27.821768
523588443000.0,-1.3079045221839671,10.144003174060986,-0.2188042820259128,0.022907447,-0.08857546,0.08582657,323.79236,-33.06467,-27.654663
523593427000.0,-1.288203487631502,10.13871749888758,-0.2755048255359247,0.026572637,-0.059864793,0.09193522,323.52472,-33.64611,-27.492598
523598483000.0,-1.2682178474434478,10.133355465645858,-0.3330244780212013,0.027488936,-0.035430185,0.10170906,323.25693,-34.218124,-27.335598
523603398000.0,-1.2689534907754445,10.12337179756575,-0.3362462077091648,0.04153884,-0.007330383,0.1133155,322.98663,-34.788204,-27.183308
523608393000.0,-1.2751473818193138,10.111936936334978,-0.3252877819320023,0.0711658,0.028405234,0.13072516,322.71188,-35.357452,-27.034147
523613419000.0,-1.28137971342822,10.10043110799747,-0.3142613459047714,0.089186326,0.040927973,0.14996742,322.34485,-36.0427,-26.91086
523618412000.0,-1.2875711244356354,10.089000825289714,-0.3033073078856779,0.12797627,0.08399397,0.160963,321.9668,-36.73601,-26.795536
523623435000.0,-1.2937997359898603,10.07750186473673,-0.2922874534955503,0.13561209,0.096516706,0.17928895,321.59174,-37.42483,-26.666744
523628423000.0,-1.2999849469061409,10.066083028336513,-0.2813443848716291,0.16401732,0.10476339,0.18142697,321.21506,-38.12093,-26.542646
523633437000.0,-1.3062023982963231,10.054604671137096,-0.2703442753928118,0.18417588,0.089491755,0.183565,320.84235,-38.81365,-26.408352
523638429000.0,-1.3123925692855116,10.043176677690848,-0.2593924312527527,0.17898351,0.060170226,0.18448131,320.4768,-39.500805,-26.268581
523643399000.0,-1.318555459873706,10.031799047997769,-0.2484888524514519,0.16218472,0.037873644,0.16584991,320.12323,-40.18048,-26.12686
523648433000.0,-1.3247977116284282,10.0202749055682,-0.2374448653919453,0.12003502,0.008246681,0.1423316,319.7852,-40.8456,-25.975286
523653454000.0,-1.3310238431461996,10.00878052353823,-0.2264293987598866,0.09132435,-0.0106901415,0.10995574,319.46213,-41.498577,-25.824165
523658473000.0,-1.3372474946275168,9.997290720031277,-0.215418319885897,0.049785517,-0.023518313,0.0852157,319.15417,-42.129387,-25.669239
523663422000.0,-1.343384344832944,9.985961164829856,-0.20456081254432,0.0033597588,-0.032986723,0.040011674,318.86713,-42.73689,-25.520355
523668411000.0,-1.3495707957674514,9.974540039168131,-0.1936155500413643,-0.025045475,-0.03940081,0.02321288,318.58743,-43.33297,-25.366924
523673461000.0,-1.3558328878138055,9.96297926855444,-0.1825364609173062,-0.0580322,-0.056505036,-0.0027488936,318.32944,-43.901672,-25.219858
523678468000.0,-1.362041659076399,9.951516936185577,-0.1715517085917301,-0.07147124,-0.059864793,-0.029321533,318.07858,-44.45902,-25.076563
523683488000.0,-1.3682665505759433,9.940024843417117,-0.160538435838706,-0.082161374,-0.06658431,-0.04795292,317.84155,-45.00006,-24.932325
523688403000.0,-1.3743612401616525,9.928773123106955,-0.1497555203843009,-0.07880162,-0.064751714,-0.051618114,317.61063,-45.53306,-24.790531
523693435000.0,-1.380601011879921,9.917253559200402,-0.1387159210828631,-0.06811147,-0.0720821,-0.062002823,317.39352,-46.054737,-24.650713
523698443000.0,-1.3868110231607411,9.905788937570032,-0.1277289748782526,-0.064446285,-0.06047566,-0.06078109,317.17456,-46.57069,-24.511929
523703366000.0,-1.3929156328922665,9.894518903167812,-0.1169285083915717,-0.04795292,-0.061391957,-0.064751714,316.96838,-47.083042,-24.37257
523708350000.0,-1.3990958837356389,9.883109223813626,-0.1059942152837884,-0.021991149,-0.06719518,-0.064446285,316.76428,-47.59297,-24.232546
523713331000.0,-1.40527241452433,9.871706412243965,-0.0950665038131085,-0.013133603,-0.054061573,-0.06169739,316.56067,-48.09606,-24.095377
523718828000.0,-1.4120887947181535,9.859122341736343,-0.0830067507606436,-0.007941248,-0.06261369,-0.05222898,316.36755,-48.598915,-23.951593
523723328000.0,-1.4176688767396577,9.848820664951868,-0.0731342951055423,0.0125227375,-0.067500606,-0.03940081,316.17383,-49.101704,-23.808807
523728318000.0,-1.423856567692392,9.837397250028635,-0.0621868387235522,0.01985312,-0.0729984,-0.03940081,315.98785,-49.595463,-23.66517
523733328000.0,-1.4300690590096663,9.82592804987525,-0.0511955047608727,0.030848695,-0.08307768,-0.029321533,315.80518,-50.09197,-23.514563
523738328000.0,-1.4362691501446705,9.81448174233694,-0.0402261095885379,0.04337143,-0.09010262,-0.02687807,315.62927,-50.58234,-23.365488
523743311000.0,-1.442448160969816,9.80307435224426,-0.029294010359789,0.057421334,-0.0870483,-0.026267206,315.45673,-51.070164,-23.214666
523748313000.0,-1.448650732141274,9.791623466182935,-0.0183202274293853,0.056505036,-0.10415252,-0.021685716,315.29507,-51.551743,-23.05852
523753344000.0,-1.4548892638413156,9.780106191537891,-0.0072828220069821,0.040011674,-0.108123146,-0.021991149,315.13458,-52.025326,-22.906338
523758401000.0,-1.4611600360152588,9.768529396093644,0.0038116242703173,0.047036625,-0.105068825,-0.0290161,314.98175,-52.49667,-22.753778
523763416000.0,-1.467378727423668,9.75704874963272,0.0148139276281691,0.03268129,-0.108123146,-0.022602014,314.8341,-52.95523,-22.597221
523768385000.0,-1.4735403779936354,9.74567340920115,0.0257153125504354,0.03604105,-0.10262536,-0.02076942,314.68964,-53.41039,-22.445951
523773487000.0,-1.4798669509877938,9.73399359698906,0.0369084833842858,0.023823744,-0.08674286,-0.032070424,314.54858,-53.851025,-22.298243
523778417000.0,-1.485980240846908,9.722707537756284,0.0477243070242079,0.011911872,-0.083383106,-0.03145956,314.41162,-54.28833,-22.14701
523783399000.0,-1.4921580116538264,9.711302436925116,0.0586542123739223,0.01160644,-0.07696902,-0.034513887,314.27594,-54.71617,-22.003035
523789182000.0,-1.4993290370605723,9.698063637626309,0.0713414148302448,0.0021380284,-0.06872234,-0.040927973,314.14328,-55.132416,-21.861382
523793375000.0,-1.5045284334863869,9.68846476412468,0.0805403496217647,-0.0009162979,-0.064446285,-0.04520403,314.01404,-55.54339,-21.72123
523798360000.0,-1.5107099243479862,9.677052795508986,0.0914768366085825,-0.008246681,-0.06872234,-0.044898596,313.889,-55.94469,-21.582483
523803450000.0,-1.516733016747243,9.679620325100888,0.1136062446018459,-0.014966198,-0.07269296,-0.04642576,313.76733,-56.33805,-21.446884
523808650000.0,-1.5227022595952533,9.691310079575874,0.1432037363470912,-0.008857546,-0.073303826,-0.040317107,313.64847,-56.727913,-21.310173
523813477000.0,-1.5282433240620503,9.702161318970251,0.1706781772421488,-0.012217305,-0.07696902,-0.03573562,313.5574,-57.051105,-21.198622
523818435000.0,-1.5339347675313648,9.713307050256214,0.198898247256173,-0.009773844,-0.0870483,-0.034513887,313.4709,-57.372665,-21.086325
523823511000.0,-1.5397616668960763,9.724718049047569,0.227789952659801,-0.016798794,-0.09040806,-0.029932396,313.3853,-57.68831,-20.973263
523828464000.0,-1.545447370708806,9.735852540184991,0.2559815635471472,-0.010995574,-0.09162979,-0.023518313,313.30438,-58.003094,-20.859402
523833472000.0,-1.5511962107439667,9.747110672956287,0.2844862248279526,-0.020158553,-0.08124508,-0.0106901415,313.2226,-58.31069,-20.744673
523838482000.0,-1.5569473466417612,9.758373301787,0.3130022697594294,-0.020158553,-0.079107046,-0.009162978,313.14685,-58.61587,-20.63115
523843433000.0,-1.562630754591857,9.769503296865013,0.3411824969961043,-0.027488936,-0.065973446,-0.013133603,313.06696,-58.914364,-20.519337
523848428000.0,-1.5683646715198976,9.78073220525012,0.3696131645475466,-0.018020526,-0.04550946,-0.0033597588,312.9853,-59.21475,-20.40572
523853461000.0,-1.5741422098379814,9.792046538764083,0.3982601214617428,-0.020158553,-0.026572637,-0.00061086525,312.90436,-59.504482,-20.297377
523859273000.0,-1.5808139866519495,9.805112087419593,0.4313410103123901,-0.012217305,-0.017104227,-0.012217305,312.82355,-59.79282,-20.192562
523863480000.0,-1.5856433337022533,9.814569548395797,0.4552865194993606,-0.01038471,-0.00061086525,-0.0076358155,312.73587,-60.078583,-20.086704
523868427000.0,-1.5913221499270815,9.825690551354985,0.4834439794346931,-0.008246681,0.013133603,-0.0030543262,312.65024,-60.359272,-19.985596
523873535000.0,-1.5971857830939349,9.837173487096951,0.512517823249061,-0.004276057,0.029626964,-0.002443461,312.5617,-60.63631,-19.887379
523878388000.0,-1.602756693774972,9.848083175263705,0.5401402516028447,-0.0033597588,0.038179077,0.0015271631,312.47318,-60.91022,-19.78862
523883504000.0,-1.6086295103923605,9.859584095243328,0.5692596300198977,0.009468411,0.036957346,0.0143553335,312.38425,-61.18481,-19.688984
523888465000.0,-1.6143243976556256,9.870736570618408,0.5974967755099289,0.01740966,0.0033597588,0.0067195175,312.30646,-61.450794,-19.592228
523893435000.0,-1.620029616300743,9.881909278260848,0.6257851474279806,0.016493361,-0.036651913,0.008857546,312.23087,-61.717613,-19.489742
523903443000.0,-1.631518112920529,9.904407559565788,0.6827489353869066,0.007330383,-0.12339478,-0.01038471,312.18372,-61.974052,-19.388027
523908501000.0,-1.6373243495215355,9.91577809382242,0.7115381879344933,-0.009773844,-0.13744467,-0.030543262,312.12946,-62.224503,-19.290634
523913476000.0,-1.6430353078232378,9.926962041613391,0.7398550189792232,-0.014049901,-0.1414153,-0.042760566,312.1003,-62.469143,-19.190012
523918428000.0,-1.6487198637046507,9.938094284721112,0.7680409380412337,-0.0076358155,-0.122478485,-0.06047566,312.0733,-62.703175,-19.098557
523923467000.0,-1.654504289610636,9.949422106413316,0.7967220459074436,-0.011911872,-0.083383106,-0.0888809,312.04593,-62.925495,-19.016184
523928945000.0,-1.6607926573647511,9.961736813146777,0.8279018650959924,-0.01863139,-0.029626964,-0.12095132,312.01294,-63.140263,-18.944004
523933384000.0,-1.6658883244805818,9.971715817014942,0.8531678777608278,-0.029932396,0.01863139,-0.13500121,311.97318,-63.347286,-18.878777
523938475000.0,-1.671732442815047,9.983160536251898,0.8821449605444901,-0.016493361,0.05589417,-0.15118915,311.92633,-63.547115,-18.8275
523943420000.0,-1.6774089631772413,9.994277043151673,0.9102910368291512,-0.013439035,0.082161374,-0.15943582,311.87115,-63.737747,-18.78186
523948487000.0,-1.6832255311601003,10.005667809675664,0.9391315158047586,-0.00580322,0.08857546,-0.16065755,311.8136,-63.92642,-18.740658
523953436000.0,-1.6889066432475626,10.016793308694265,0.9673003593907622,-0.015577064,0.082161374,-0.15302174,311.75385,-64.10885,-18.70079
523958504000.0,-1.6947243591617387,10.028186323247962,0.9961465301917052,-0.022602014,0.06688975,-0.1414153,311.6963,-64.29037,-18.66021
523963474000.0,-1.7004295778068563,10.039359030890402,1.024434902109757,-0.03726278,0.032986723,-0.12522738,311.6465,-64.46766,-18.61443
523968430000.0,-1.7061187254135368,10.050500266116948,1.05264358847311,-0.038179077,0.013439035,-0.11209377,311.5979,-64.644684,-18.566687
523973462000.0,-1.7118951158003035,10.061812351601208,1.0812848535619703,-0.061086524,-0.025961773,-0.09896017,311.56488,-64.81485,-18.510485
523978420000.0,-1.717586559269618,10.072958082887167,1.1095049235759948,-0.058337633,-0.051618114,-0.077579886,311.5332,-64.991066,-18.448696
523983437000.0,-1.7233457306866309,10.084236447925823,1.138060811284821,-0.06566802,-0.06536258,-0.06261369,311.5103,-65.159325,-18.383623
523988420000.0,-1.7290658724388683,10.095438379954452,1.1664231769322355,-0.07147124,-0.07727446,-0.046120327,311.49374,-65.33019,-18.31132
523993414000.0,-1.734798641435592,10.106665040309853,1.1948481526583423,-0.07666359,-0.08857546,-0.03390302,311.48145,-65.499,-18.236145
523998390000.0,-1.740510747668611,10.117851236130534,1.223170675528408,-0.08093964,-0.108123146,-0.017715093,311.47458,-65.66824,-18.154955
524003464000.0,-1.7325077264051134,10.125476791637375,1.2335931137158411,-0.08399397,-0.13958271,-0.0070249503,311.4752,-65.83516,-18.07138
524008436000.0,-1.7147026039995812,10.130224833368231,1.2305068921683593,-0.084910266,-0.15302174,0.005192355,311.476,-66.00251,-17.98425
524013474000.0,-1.6966611304116743,10.135035902201714,1.2273797030782116,-0.092240654,-0.19303341,0.013744468,311.5629,-66.10144,-17.880903
524018473000.0,-1.67875931888608,10.13980972774728,1.2242767220814574,-0.098043874,-0.2284636,0.014660766,311.65118,-66.199135,-17.778149
524023448000.0,-1.6609434532449856,10.14456063434644,1.2211886383729451,-0.095294975,-0.24678956,0.026267206,311.7437,-66.29893,-17.67087
524028419000.0,-1.6431419119179742,10.1493077211212,1.2181030375458066,-0.09773844,-0.26236662,0.03634648,311.84482,-66.39429,-17.563738
524033442000.0,-1.62515415450788,10.154104465613177,1.2149851592608103,-0.1020145,-0.27275133,0.040927973,311.94833,-66.4889,-17.456486
524038421000.0,-1.607323964552702,10.158859192036736,1.2118945926709244,-0.10170906,-0.25534168,0.056505036,312.04562,-66.586235,-17.346992
524044407000.0,-1.5858876285270551,10.164575559253333,1.2081789606952151,-0.11362094,-0.23640485,0.06688975,312.14456,-66.67816,-17.239523
524048479000.0,-1.5713054767902637,10.16846414049389,1.2056513874568109,-0.11026118,-0.22510384,0.08032878,312.23828,-66.77485,-17.130234
524053404000.0,-1.5536686650752105,10.173167299288032,1.2025943397654697,-0.1142318,-0.21074851,0.09254608,312.32407,-66.86772,-17.02263
524058437000.0,-1.5356450968799078,10.177973593341012,1.199470254277039,-0.12522738,-0.2012801,0.10720685,312.40594,-66.96114,-16.913628
524063420000.0,-1.5178005826106469,10.182732139588971,1.1963772048057797,-0.1282817,-0.19547687,0.10720685,312.4842,-67.05267,-16.808578
524068385000.0,-1.50002052775476,10.18747349662713,1.1932953283007015,-0.13622294,-0.1966986,0.121256754,312.5587,-67.145164,-16.698236
524073526000.0,-1.4816102030792089,10.192382925938944,1.1901042050151815,-0.1301143,-0.20097467,0.12705997,312.6324,-67.23598,-16.592743
524078396000.0,-1.4641703506828003,10.197033562147569,1.1870812969427285,-0.13225232,-0.19456059,0.12217305,312.7024,-67.322365,-16.489426
524083437000.0,-1.4461181338593316,10.20184749584935,1.1839522456915506,-0.12370021,-0.19181168,0.113926366,312.77386,-67.410515,-16.38716
524088413000.0,-1.428298687139716,10.20659935740461,1.1808635412626949,-0.110872045,-0.17989981,0.115453534,312.83978,-67.49819,-16.287008
524093430000.0,-1.410332416200747,10.211390372159984,1.177749387299759,-0.10629055,-0.17654006,0.11056661,312.908,-67.580986,-16.192585
524098571000.0,-1.3919220915251955,10.2162998014718,1.1745582640142394,-0.08155051,-0.16523905,0.10842858,312.9696,-67.66926,-16.10061
524103422000.0,-1.374550279620683,10.220932293514515,1.1715471496283112,-0.08246681,-0.1563815,0.099571034,313.03143,-67.74919,-16.013899
524108500000.0,-1.3563655628919435,10.22578156059201,1.1683951317244268,-0.079107046,-0.14202617,0.084910266,313.08865,-67.83132,-15.932598
524114456000.0,-1.3350366592219214,10.231469279125596,1.16469812135902,-0.07666359,-0.10720685,0.067500606,313.13806,-67.908936,-15.858564
524118416000.0,-1.320855588279462,10.235250905282918,1.1622400687990786,-0.09193522,-0.105374254,0.055588737,313.19318,-67.98017,-15.787292
524123443000.0,-1.3028535065552846,10.240051469599294,1.1591197076327089,-0.095294975,-0.076358154,0.033292156,313.23254,-68.04692,-15.72991
524128469000.0,-1.284855005909628,10.24485107895957,1.155999967186682,-0.084910266,-0.028710667,0.019242255,313.26608,-68.11122,-15.676462
524133595000.0,-1.266498397411889,10.24974618392988,1.1528181547063134,-0.082161374,0.008246681,0.007941248,313.29575,-68.168045,-15.63095
524138413000.0,-1.2492447610985635,10.254347162421286,1.1498275240917182,-0.086132,0.025350908,-0.01038471,313.3191,-68.21999,-15.5943575
524143408000.0,-1.2313572738870524,10.259117168142453,1.1467270259763376,-0.07819075,0.040317107,-0.026572637,313.33325,-68.2718,-15.5637665
524148530000.0,-1.2130149897033968,10.264008453288362,1.1435476963773428,-0.0729984,0.05131268,-0.03573562,313.3446,-68.3189,-15.537961
524153394000.0,-1.1955966237781137,10.268653359760384,1.14052851262695,-0.070249505,0.049785517,-0.03756821,313.3561,-68.36428,-15.515343
524158495000.0,-1.1773295422433951,10.273524590828185,1.137362218155167,-0.062308256,0.02443461,-0.03756821,313.37204,-68.40924,-15.494249
524163491000.0,-1.159438473953363,10.278295551505453,1.134261099319443,-0.06872234,0.0021380284,-0.03481932,313.38766,-68.45117,-15.473483
524168475000.0,-1.141590378605581,10.283055052709514,1.13116742912784,-0.05222898,-0.013133603,-0.03268129,313.4087,-68.498116,-15.4520035
524173545000.0,-1.1234343105050082,10.287896680138203,1.128020376986703,-0.04734206,-0.03176499,-0.021380283,313.43622,-68.54309,-15.425833
524178391000.0,-1.1060804039930998,10.292524397400422,1.125012366202492,-0.05100725,-0.025961773,-0.0125227375,313.46118,-68.588615,-15.400985
524183402000.0,-1.0881356195252554,10.297309682419192,1.1219019365616163,-0.04917465,-0.016493361,0.0012217305,313.4892,-68.638565,-15.371177
524188455000.0,-1.0700404297595365,10.302135075594178,1.1187654366663178,-0.06169739,-0.005497787,0.009468411,313.51486,-68.68468,-15.341631
524193471000.0,-1.052077739899088,10.30692513539345,1.115651903423725,-0.06811147,0.0290161,0.01160644,313.53052,-68.732925,-15.313096
524198500000.0,-1.034068496017869,10.311727609622029,1.1125303008166685,-0.08857546,0.06414085,0.026267206,313.54126,-68.779274,-15.280362
524203402000.0,-1.025815060363013,10.2917374245831,1.1107999240782214,-0.09468412,0.07422013,0.03145956,313.55,-68.824715,-15.250987
524208429000.0,-1.028221613983644,10.24240310174558,1.110559268967448,-0.098043874,0.10567969,0.03726278,313.54144,-68.868965,-15.222157
524213475000.0,-1.030637263390786,10.192882315384308,1.1103177042789731,-0.110872045,0.14202617,0.051618114,313.54596,-68.987015,-15.105533
524218476000.0,-1.033031370145665,10.143803153158242,1.1100782938534752,-0.12858713,0.17531833,0.059253927,313.5421,-69.1007,-14.993617
524223462000.0,-1.035418296016456,10.094871198977245,1.1098396015156362,-0.13836098,0.18845193,0.059864793,313.53284,-69.21247,-14.883177
524228399000.0,-1.0377817643325602,10.046420124410142,1.1096032549308166,-0.15241088,0.22021692,0.05497787,313.5084,-69.31794,-14.778163
524233386000.0,-1.040169168928957,9.997478356359473,1.1093645147204672,-0.17440203,0.24404067,0.06505715,313.4812,-69.420784,-14.671388
524238475000.0,-1.042605403537151,9.947535573602336,1.1091208915140367,-0.1863139,0.26236662,0.07360926,313.44693,-69.519325,-14.570317
524243473000.0,-1.0449980741152125,9.898485852985283,1.1088816247060709,-0.19608775,0.26633725,0.08124508,313.40924,-69.613655,-14.469415
524248457000.0,-1.0473840425347916,9.84957352654363,1.1086430281132529,-0.20005837,0.24098633,0.087964594,313.3742,-69.70626,-14.367585
524253414000.0,-1.049757085363013,9.8009261745831,1.1084057240782212,-0.20738874,0.20280726,0.101098195,313.34073,-69.797066,-14.263215
524258501000.0,-1.0521923625199952,9.751003019565305,1.108162196616812,-0.2144137,0.13500121,0.11636983,313.32233,-69.886894,-14.154464
524263472000.0,-1.0545721075066985,9.702218273429375,1.107924222366632,-0.20799962,0.057421334,0.13744467,313.3162,-69.97976,-14.039144
524268469000.0,-1.056964299359154,9.653178366681995,1.1076850034311765,-0.20372356,-0.004886922,0.15943582,313.3236,-70.07195,-13.917834
524273469000.0,-1.0593579273884268,9.604109018325602,1.1074456408781892,-0.22052236,-0.073303826,0.19456059,313.35205,-70.16584,-13.783506
524278404000.0,-1.0617204382533192,9.55567757149784,1.1072093900383908,-0.2275473,-0.12675454,0.22174409,313.3925,-70.263054,-13.64449
524283492000.0,-1.0641561941359077,9.505744602610374,1.106965814704471,-0.21899518,-0.13347405,0.25503623,313.43536,-70.36583,-13.495301
524288479000.0,-1.0665435987323042,9.456802834559705,1.106727074494121,-0.20952678,-0.12064589,0.3036,313.484,-70.47321,-13.33489
524293473000.0,-1.0689343544079422,9.40779236942134,1.1064879991761978,-0.20097467,-0.08857546,0.34697145,313.52618,-70.58499,-13.170658
524298473000.0,-1.071327982437215,9.358723021064945,1.1062486366232105,-0.18234327,-0.074830994,0.3830125,313.5662,-70.70601,-12.997853
524303407000.0,-1.0736900145765016,9.310301388106854,1.1060124336559225,-0.19181168,-0.04917465,0.4129449,313.59033,-70.827065,-12.8212
524308487000.0,-1.076121940654243,9.260446930176755,1.1057692413020874,-0.18570304,-0.033292156,0.45753807,313.6091,-70.96179,-12.634239
524313475000.0,-1.0785098239762458,9.21149534825642,1.1055304532192274,-0.21899518,-0.056505036,0.50579643,313.62872,-71.0891,-12.440519
524318473000.0,-1.080902494554307,9.162445627639366,1.1052911864112611,-0.2764165,-0.07422013,0.54092115,313.6396,-71.214775,-12.243241
524323704000.0,-1.0834067081985324,9.111109275388904,1.105040765308326,-0.34697145,-0.070554934,0.5546656,313.64844,-71.3316,-12.04223
524328435000.0,-1.0856715590398305,9.064679857974086,1.1048142804606895,-0.4202753,-0.022296581,0.5497787,313.64783,-71.434456,-11.842534
524333406000.0,-1.0880513040265336,9.01589511183816,1.1045763062105094,-0.5174029,0.049480084,0.54061574,313.63806,-71.51445,-11.646124
524338423000.0,-1.0904530703911062,8.966658927697353,1.104336129824842,-0.59223384,0.1160644,0.52106804,313.61642,-71.57669,-11.460823
524343413000.0,-1.0928419111643206,8.917687718037671,1.104097245996961,-0.66614854,0.17928895,0.4868596,313.57645,-71.609985,-11.29061
524348484000.0,-1.0952695287116092,8.867921584934615,1.103854484495721,-0.7263188,0.22510384,0.453262,313.52335,-71.62332,-11.132514
524353388000.0,-1.0976171990827202,8.819794368066663,1.103619717703751,-0.754724,0.24953845,0.42913285,313.45966,-71.62043,-10.987319
524358435000.0,-1.1000333272154683,8.770263767835718,1.1033781051427658,-0.7635816,0.26633725,0.4089743,313.38687,-71.6013,-10.855851
524363474000.0,-1.1024456255433697,8.720811678562145,1.1031368755618651,-0.7611381,0.28191432,0.40500367,313.30768,-71.575356,-10.730819
524368430000.0,-1.104818189645985,8.672174140471286,1.102899619399344,-0.7452556,0.28191432,0.40653083,313.22885,-71.54672,-10.612299
524373472000.0,-1.1072319241507038,8.622692609588698,1.1026582462009118,-0.7113526,0.28893927,0.3885103,313.1451,-71.51787,-10.504231
524378402000.0,-1.109592041387567,8.574310232109294,1.1024222347236663,-0.66981375,0.26816985,0.38453966,313.06775,-71.49611,-10.391986
524383435000.0,-1.1120014673618333,8.524917026053746,1.1021812923778294,-0.6579019,0.21594086,0.37232238,312.99908,-71.470116,-10.287195
524388418000.0,-1.1143869570558067,8.476014513481763,1.1019427436575222,-0.66767573,0.15974127,0.3494149,312.93832,-71.44552,-10.186552
524393380000.0,-1.1167623935120572,8.427318092172879,1.1017052002599377,-0.68019843,0.098043874,0.33078352,312.89413,-71.420944,-10.085634
524398486000.0,-1.1192067664555507,8.377208473631327,1.101460763220827,-0.6808093,0.089186326,0.28893927,312.85416,-71.38898,-9.9990835
524403397000.0,-1.068700783162125,8.38295172783122,1.1212503445917368,-0.6954701,0.07696902,0.2648101,312.83197,-71.34997,-9.9096155
524408399000.0,-0.9529583097827452,8.454418479668465,1.165766679733769,-0.70432764,0.07727446,0.21960606,312.81323,-71.30229,-9.839375
524413476000.0,-0.8354803934798444,8.526956804154212,1.2109504929117167,-0.68661255,0.07819075,0.18600847,312.81088,-71.19042,-9.811973
524418416000.0,-0.7211725529172424,8.597537722602034,1.2549150462107246,-0.6618725,0.07971791,0.17562376,312.8092,-71.07625,-9.79128
524423532000.0,-0.6027922062941103,8.670633264865,1.300445947967349,-0.64934975,0.06719518,0.16432275,312.81326,-70.959785,-9.779449
524428407000.0,-0.4899884162652268,8.740285487017456,1.3438320203018963,-0.63529986,0.029321533,0.17654006,312.82227,-70.85326,-9.762416
524433495000.0,-0.3722559683335428,8.812980975491648,1.389113730258445,-0.6084218,-0.01160644,0.19547687,312.83533,-70.75384,-9.745645
524439242000.0,-0.2392747619138516,8.895092015637323,1.4402603472239106,-0.55771995,-0.058643065,0.21655174,312.8587,-70.66728,-9.721726
524443422000.0,-0.1425527429762653,8.954814331247016,1.4774611230923018,-0.5137377,-0.12186762,0.25320363,312.8943,-70.59205,-9.684136
524448486000.0,-0.0253756367801081,9.027166916473693,1.5225292400773578,-0.4615087,-0.20066923,0.29352075,312.94437,-70.53593,-9.63524
524453390000.0,0.0880991911792037,9.097233480050232,1.566173403919126,-0.41691554,-0.26053402,0.33200526,313.0028,-70.4945,-9.574051
524458401000.0,0.2040499177094059,9.1688288206053,1.6107698364254677,-0.36743546,-0.36132678,0.38973203,313.08835,-70.476036,-9.487756
524463490000.0,0.3218055048800701,9.241538596714806,1.656060446089162,-0.30268374,-0.41325033,0.4251622,313.17438,-70.47474,-9.397635
524468435000.0,0.4362290416375736,9.312190953339194,1.700069497923898,-0.26847526,-0.44165558,0.44012842,313.27728,-70.482994,-9.292759
524473593000.0,0.5555812362978776,9.38588657628532,1.7459741873806354,-0.27397305,-0.46211955,0.43768495,313.38947,-70.49918,-9.181464
524478444000.0,0.6678296845912344,9.455195895190254,1.7891466667436895,-0.3036,-0.4990769,0.44043383,313.51096,-70.51968,-9.06317
524483495000.0,0.7847059806806478,9.527362741157855,1.8340990875358532,-0.32986724,-0.5131268,0.453262,313.6297,-70.53965,-8.945316
524488494000.0,0.9003790363430866,9.598786630089162,1.8785887235564485,-0.3662137,-0.4908302,0.44929138,313.74826,-70.546844,-8.833593
524493434000.0,1.0146868769056885,9.669367548536982,1.9225532768554563,-0.42119157,-0.4709771,0.44501534,313.8687,-70.54346,-8.719408
524498468000.0,1.131169805932437,9.741291504704256,1.9673544026261456,-0.4859433,-0.46181414,0.43279803,313.98535,-70.526115,-8.611711
524503414000.0,1.245616481928921,9.811958148963958,2.011372354168027,-0.52503866,-0.4474588,0.4266894,314.09335,-70.501114,-8.507793
524508395000.0,1.3608730312897148,9.883124860459626,2.0557017954600023,-0.5897904,-0.4615087,0.4184427,314.20624,-70.45097,-8.408101
524513483000.0,1.4786054792213987,9.95582034893382,2.1009835054165515,-0.64965516,-0.4831944,0.410196,314.31616,-70.39132,-8.312511
524518431000.0,1.593098433695843,10.026515568464148,2.1450192563727235,-0.71593404,-0.5375614,0.39767328,314.4383,-70.31207,-8.217997
524523427000.0,1.7087020716413412,10.097896594489514,2.189482193271882,-0.7663304,-0.5693264,0.38056904,314.55945,-70.22048,-8.128723
524528413000.0,1.824074317197036,10.169134744161749,2.2338561330995854,-0.82650065,-0.59864795,0.3735441,314.693,-70.109695,-8.03714
524533433000.0,1.940233296878061,10.240858673434635,2.278532662970237,-0.8750645,-0.6230826,0.35979962,314.83386,-69.98708,-7.9511685
524538427000.0,2.0557906563455983,10.312211124189377,2.3229778004551047,-0.8949176,-0.63591075,0.36071593,314.97656,-69.858536,-7.8629885
524543409000.0,2.171070344945372,10.383392123320355,2.367316141454226,-0.9062186,-0.6261369,0.38026363,315.11682,-69.72166,-7.7747154
524548567000.0,2.290422539605676,10.457087746266485,2.413220830910963,-0.91599244,-0.6075055,0.41050145,315.25464,-69.582886,-7.6843586
524553405000.0,2.402370177792289,10.526211325912344,2.456277614081125,-0.8933904,-0.58123827,0.4633413,315.38132,-69.45595,-7.585688
524558433000.0,2.518714271385156,10.59804955626774,2.5010253416089414,-0.8582657,-0.5510005,0.5311473,315.49518,-69.33615,-7.4785
524563475000.0,2.635382314323748,10.67008781351752,2.545897665036795,-0.81061816,-0.5006041,0.63591075,315.58563,-69.236336,-7.3532977
524568426000.0,2.749944686515132,10.740825895953789,2.589960115114404,-0.784351,-0.44715336,0.7867944,315.65402,-69.152504,-7.202679
524573425000.0,2.8656177421775717,10.812249784885092,2.634449751134999,-0.79443026,-0.35705075,1.0091494,315.67984,-69.08906,-7.015502
524578413000.0,2.981036266211227,10.883516509827954,2.678841490376993,-0.81031275,-0.19914207,1.2699889,315.6527,-69.04808,-6.792308
524583438000.0,3.0973109420871534,10.955311877277408,2.723562518783373,-0.7828238,-0.008552114,1.5198327,315.5703,-69.03319,-6.5283475
524588423000.0,3.212660048403868,11.02653573931433,2.7679275589039305,-0.6881397,0.1740966,1.6450601,315.43314,-69.04057,-6.2475014
524593408000.0,3.328009154720583,11.09775960135125,2.812292599024488,-0.57971114,0.22052236,1.5338826,315.27988,-69.05571,-5.9742403
524598444000.0,3.444538362225292,11.16971213278915,2.8571115242094685,-0.5149594,0.20769419,1.4068227,315.0832,-69.08878,-5.689591
524603418000.0,3.4516417063115448,11.140953561380474,2.8301471328894308,-0.4550946,0.03023783,1.1001683,314.94836,-69.12261,-5.4766593
524608451000.0,3.3973980213448374,11.055067821251054,2.762342526681046,-0.52290064,-0.29993483,0.8518516,314.86615,-69.130455,-5.270331
524613419000.0,3.001573489422116,10.919151270245951,2.5072295112377523,-0.73731434,-0.7791586,0.7492262,315.0671,-69.17257,-4.482736
524618416000.0,2.2695337727854428,10.732552888572286,2.067048717286543,-0.98563105,-1.2281445,0.7122689,315.35593,-69.14434,-3.7383978
524623407000.0,1.3570246688694705,10.440879681321682,1.7171460314036044,-1.2046263,-1.3970488,0.6921103,315.69815,-69.04508,-3.0261152
524628403000.0,0.2638808826142362,10.044560589568542,1.4558367681230655,-1.3658947,-1.2147056,0.6420194,316.0614,-68.867836,-2.343774
524633426000.0,-0.796567826488685,9.662149152883512,1.4599392119511942,-1.4859297,-0.732122,0.5143485,316.34644,-68.686325,-1.8796926
524638415000.0,-1.7632031735373863,9.318345711440193,2.0628406374700177,-1.5699236,-0.204029,0.4260785,316.56375,-68.46292,-1.4556357
524643333000.0,-2.565242337324841,8.948787496815287,2.5982426663694267,-1.6230689,0.105068825,0.4202753,316.6463,-68.22799,-1.3387363
524648770000.0,-3.177519716472317,8.484476754042136,3.0829623780695736,-1.6349808,0.17134771,0.46578476,316.65448,-67.984604,-1.2628335
524653381000.0,-3.445474257288658,8.110501576160216,3.3784017507413826,-1.606881,0.13041973,0.49693888,316.6039,-67.63938,-1.3557447
524658405000.0,-3.2694366543616407,7.739896198151357,3.484950845291739,-1.5842791,0.007330383,0.5320636,316.5564,-67.30124,-1.4258639
524663337000.0,-3.023139217866511,7.467246178665112,3.571448394695424,-1.5512923,-0.19303341,0.57543504,316.4788,-66.9125,-1.5584228
524668408000.0,-2.5525030481346547,7.456630481346546,3.606834545088896,-1.496009,-0.4538729,0.6114761,316.45062,-66.54647,-1.6557537
524673423000.0,-2.0870642015155934,7.446132015155931,3.641829919615272,-1.3814718,-0.7128797,0.67164636,316.48178,-66.20534,-1.6359861
524678427000.0,-1.512508798374147,7.461462794861501,3.65073373721397,-1.244027,-0.9624182,0.7296785,316.5731,-65.895294,-1.577059
524683411000.0,-0.8418632289642713,7.499785173022882,3.636362770373344,-1.1038336,-1.1450669,0.7672467,316.7072,-65.626625,-1.4854046
524688422000.0,-0.2243227726782016,7.427072537459332,3.4840790226486247,-0.9599747,-1.2479976,0.7528914,316.92627,-65.45394,-1.1879729
524693406000.0,0.3403717610692103,7.25766422524401,3.212319789108252,-0.84696466,-1.2834278,0.7309003,317.1627,-65.31443,-0.878219
524699575000.0,1.0146332233768465,7.063008315733425,2.879205656320852,-0.79259765,-1.344209,0.6462954,317.48755,-65.29808,-0.35970742
524703532000.0,1.1350498240553075,7.12809851894538,2.70671705619203,-0.68294734,-1.3567317,0.63713247,317.7876,-65.32162,0.15113518
524708480000.0,1.2856238296547575,7.20949005937822,2.4910300222174517,-0.67073005,-1.348485,0.6273586,318.16522,-65.52156,0.91451925
524713470000.0,1.4382184729022556,7.423397405714286,2.3209965936842107,-0.66248333,-1.3035865,0.6365216,318.51147,-65.72309,1.6395459
524718449000.0,1.5911862309172933,7.762794497142857,2.1967102715789477,-0.66339964,-1.2235631,0.6582073,318.82462,-65.89891,2.3256557
524723415000.0,1.819339271478249,8.248705001704623,1.9941673425201143,-0.65179324,-1.1325442,0.6805039,319.22015,-66.200356,3.1222856
524728427000.0,2.1237100757057137,8.883629303627437,1.7127061216828037,-0.65668017,-1.0803152,0.72204274,319.57104,-66.454475,3.876795
524733437000.0,2.4279594231078687,9.51830024389745,1.43135721577799,-0.66798115,-1.0622946,0.7663304,320.0113,-66.801476,4.723167
524738480000.0,2.6029607757786803,9.868591178080868,1.3012099958792802,-0.66675943,-1.0064005,0.795652,320.38644,-67.09328,5.504766
524743427000.0,2.680867508018959,10.006073323031536,1.282878963464887,-0.6789767,-0.9239337,0.79534656,320.71497,-67.327835,6.2316074
524748422000.0,2.7018726033898304,10.068276662131137,1.3177508777837803,-0.7244862,-0.82436264,0.7806858,321.15564,-67.61111,6.993127
524753502000.0,2.665735722033898,10.055135862617329,1.406450614160308,-0.8029824,-0.7370089,0.7644979,321.54187,-67.82968,7.6913867
524758517000.0,2.6300612220338984,10.042163203254775,1.4940154129650889,-0.91782504,-0.6386596,0.7483099,321.96368,-67.96585,8.351156
524764375000.0,2.496767121091954,9.925517842528736,1.6802562043678162,-1.0241156,-0.5320636,0.71685034,322.32867,-68.05081,8.949498
524768421000.0,2.366865601762452,9.803039531800769,1.8435609803831416,-1.1044444,-0.45356745,0.6792821,322.64737,-68.0862,9.49775
524773422000.0,2.252933913655133,9.655368685212872,1.9846640280649297,-1.1869112,-0.42088616,0.6386596,322.9956,-68.03447,10.003306
524778492000.0,2.194168116132707,9.510182633311976,2.053800332635626,-1.2608259,-0.42058071,0.61269784,323.30652,-67.95297,10.470353
524783658000.0,2.1342895934500925,9.36224749640467,2.12424572699701,-1.3154984,-0.419359,0.59437186,323.6414,-67.80433,10.895742
524788475000.0,2.182795118618042,9.297131169865642,1.985432002303263,-1.3267993,-0.40378192,0.59223384,323.94818,-67.64544,11.295529
524793487000.0,2.2841364118234164,9.264885780038387,1.7412913736276392,-1.3154984,-0.36865717,0.59650993,324.22787,-67.478065,11.670716
524798423000.0,2.4044053123509443,9.230129256419184,1.6516777860823395,-1.2831224,-0.31978795,0.61819565,324.50977,-67.2771,12.033879
524803496000.0,2.5439513157541995,9.192071379928628,1.6770498067716946,-1.2006557,-0.24251351,0.6386596,324.75394,-67.091576,12.37597
524808418000.0,2.681124945750452,9.15109769801085,1.7203789506329112,-1.1395692,-0.20799962,0.66248333,325.0311,-66.91818,12.7309
524813494000.0,2.8276345526220616,9.097377462929476,1.818051970886076,-1.1029172,-0.1740966,0.6805039,325.26752,-66.7556,13.067969
524818340000.0,2.96140056794846,9.029997360579827,1.908877161828065,-1.1145236,-0.14202617,0.6951646,325.50165,-66.55405,13.424247
524823409000.0,3.0835688767867926,8.91271588614858,1.9968383952184416,-1.153619,-0.09040806,0.71776664,325.7013,-66.350464,13.769046
524828360000.0,3.182824584061813,8.781186973108097,2.032217791970305,-1.210124,-0.03848451,0.73884153,325.89478,-66.09401,14.13329
524834513000.0,3.24085341939247,8.562462994697372,1.9116963181349895,-1.2516629,-0.00580322,0.7809912,326.05884,-65.82702,14.493892
524838404000.0,3.2775493723051285,8.424147538822815,1.835481617225968,-1.2483032,0.054061573,0.8368854,326.1999,-65.50701,14.874064
524843415000.0,3.3408632138645418,8.202104367968127,1.9725475296414343,-1.2180653,0.116675265,0.8668178,326.3144,-65.18588,15.243646
524848447000.0,3.413394314847278,7.954645176042496,2.2413391493669765,-1.1630874,0.09010262,0.9034697,326.41745,-64.86486,15.6219225
524853382000.0,3.5123998133417245,7.711874896161108,2.5198313144325573,-1.1117748,0.010995574,0.9266826,326.53113,-64.53189,16.018091
524858446000.0,3.6599151850220255,7.462624752422908,2.8301222045521293,-1.0644327,-0.06078109,0.9447031,326.6341,-64.208786,16.413975
524863414000.0,3.8302003301102303,7.295963717501451,2.9325882292593306,-1.0396926,-0.07544186,0.95172805,326.702,-63.81609,16.83805
524868416000.0,4.029372212222008,7.2125894896345,2.8167905266486173,-1.0170907,-0.021685716,0.93737274,326.7578,-63.439785,17.250458
524873453000.0,4.176231230651045,7.258891872604182,2.7134551881015856,-1.0005972,-0.0125227375,0.9230174,326.8061,-62.99117,17.70735
524878395000.0,4.2459591616598855,7.48467709663954,2.6304458834572757,-0.94989544,-0.038789943,0.87781334,326.84088,-62.57077,18.139593
524883388000.0,4.316406664599411,7.712792358397643,2.5465799469762875,-0.8790351,-0.04642576,0.83169305,326.87973,-62.13833,18.593233
524888479000.0,4.257382247401652,7.969036563341428,2.46654075403594,-0.8570439,-0.060170226,0.7657196,326.9218,-61.725903,19.022175
524893426000.0,4.100917935551239,8.23594660250607,2.392910605526955,-0.86926126,-0.05955936,0.7431176,326.9504,-61.328037,19.439596
524898448000.0,3.9415488993283128,8.473899715041727,2.322951777081213,-0.893085,-0.022907447,0.7104363,327.02994,-60.974953,19.826847
524903437000.0,3.7827079942194177,8.678123426419702,2.2581187421534703,-0.9401216,0.046731193,0.70554936,327.08786,-60.619667,20.201757
524908467000.0,3.622561721880724,8.884025464549834,2.192752904172603,-0.9969321,0.110872045,0.7360926,327.18793,-60.307186,20.526949
524913478000.0,3.4159125244573083,9.054598504651644,2.0552516930535454,-1.031446,0.18081611,0.7816021,327.2554,-59.993824,20.838112
524918434000.0,3.1755085117221418,9.196878328095927,1.8639095700434156,-1.0500773,0.30573806,0.8399397,327.2752,-59.66997,21.139696
524923640000.0,3.118734239402446,9.356202017244836,1.85132140413074,-1.0488557,0.5140431,0.8881981,327.30475,-59.398045,21.372616
524928441000.0,3.1694420702326047,9.508325942951677,1.9389077886605173,-1.0980303,0.6768387,0.9767735,327.2933,-59.098183,21.616337
524933388000.0,3.213090601583435,9.525205680064962,2.2339738773041007,-1.1304061,0.79320854,1.0198395,327.27597,-58.8572,21.786476
524938476000.0,3.252657548233861,9.4559635363378,2.664265241981324,-1.1417072,0.8060367,1.0329732,327.23206,-58.603603,21.961924
524943408000.0,3.3120604615815257,8.958550106927921,3.2478777631910427,-1.1432343,0.7663304,1.0262536,327.1772,-58.33432,22.130281
524948424000.0,3.383494496990903,8.227402028411475,3.928601747025892,-1.1511755,0.6939429,0.98807454,327.12823,-58.070843,22.292759
524953391000.0,3.44488092564696,7.750406236334946,4.357447,-1.181108,0.6401868,0.9086621,327.0753,-57.753147,22.463509
524958403000.0,3.490324886766253,7.704962169766463,4.357447,-1.1890492,0.6093381,0.8173377,327.03928,-57.456577,22.622019
524963418000.0,3.574674029536622,7.618391267384156,4.406324490941704,-1.1475104,0.5815437,0.74189585,326.8507,-57.009033,22.816355
524968404000.0,3.7031492628998506,7.485157695724962,4.511007983139013,-1.0958922,0.54733527,0.66828656,326.68567,-56.59028,22.987171
524973850000.0,3.960419500742781,7.64305344002049,4.593202494806941,-1.054048,0.5363397,0.61300325,326.5382,-56.183857,23.151573
524978539000.0,4.282468109470448,8.039863360261254,4.6363340587885,-1.0742066,0.52290064,0.5751296,326.40955,-55.79588,23.30202
524983492000.0,4.622648693609528,8.459014466030608,4.681894015367868,-1.1294898,0.54733527,0.5216789,326.26572,-55.382553,23.453117
524988453000.0,4.8458643,8.841761448575733,4.607441549096138,-1.2275337,0.5726862,0.49877146,326.1275,-54.967155,23.60001
524993433000.0,4.8458643,9.155269907901944,4.3037300905916185,-1.2745703,0.61941737,0.4605924,325.98746,-54.57382,23.720005
524998419000.0,4.8458643,9.469156088263489,3.9996527146672154,-1.3729197,0.6805039,0.4297437,325.89932,-54.160378,23.875912
525003455000.0,4.790294478455026,9.622074044021163,3.781249701079365,-1.466382,0.7678576,0.41416663,325.79282,-53.75465,24.0111
525008497000.0,4.657443345107583,9.547132672733683,3.685869360084656,-1.5522085,0.9056077,0.39003745,325.6608,-53.34968,24.116613
525013472000.0,4.526357587788359,9.47318715068783,3.591756469079365,-1.6200147,1.0855075,0.35705075,325.57904,-53.028404,24.160694
525018411000.0,4.370041383612164,9.355753658193915,3.5683443348553467,-1.7040086,1.2290609,0.33078352,325.47214,-52.697903,24.184298
525023460000.0,4.191269542628708,9.203797378685646,3.595160176337924,-1.7708983,1.3255776,0.29901853,325.33646,-52.372482,24.178925
525028411000.0,3.994189572552029,8.807071894926633,3.711269329903136,-1.8356501,1.3701707,0.27275133,325.18646,-52.051903,24.126865
525033486000.0,3.761129871055912,8.047296842658483,3.9583126105687154,-1.8622227,1.3151928,0.22876903,325.04947,-51.742012,24.064896
525038476000.0,3.496995124126608,7.436667691836177,4.073239473410562,-1.9172006,1.16492,0.062002823,324.95593,-51.435596,23.956192
525043502000.0,3.163317319948919,7.085427907616529,3.9415246689409833,-1.9437732,1.0146471,-0.080634214,324.8849,-51.140396,23.853994
525048471000.0,2.8946415012153803,6.826546226311137,3.7439516781673534,-1.9642372,0.9224065,-0.17195857,324.7961,-50.76839,23.748737
525053445000.0,2.975343149049794,7.072159972156747,3.1614961316146144,-1.9593502,0.8524625,-0.23182335,324.76343,-50.425484,23.638533
525058601000.0,3.058997691919564,7.326760791131408,2.55772837969947,-1.915368,0.68539083,-0.24312437,324.79453,-50.096886,23.520012
525063469000.0,2.871136503146539,7.758295448426731,1.5560718353461196,-1.8161024,0.54000485,-0.23823744,324.8476,-49.797977,23.402449
525068424000.0,2.340245944011587,8.440869144660873,-0.0128991678253922,-1.7052304,0.47555858,-0.20677789,324.92093,-49.517582,23.304958
525073454000.0,2.119883802262023,8.736216230116085,-0.8868650268,-1.645671,0.5513059,-0.20341812,325.02072,-49.333817,23.163576
525078434000.0,2.328686794898839,8.495776214195688,-0.7887908988,-1.5876387,0.6658431,-0.24037547,325.1293,-49.18051,23.026756
525083677000.0,2.548516933532338,8.24263826169154,-0.685537354,-1.6331482,0.700357,-0.2770274,325.38055,-49.270645,22.763002
525089417000.0,2.472949784158117,7.633678023536511,-0.2241253944286864,-1.7537941,0.786489,-0.31245756,325.5895,-49.36168,22.468872
525093414000.0,2.2226880136391065,7.002248511164755,0.3148998983906659,-1.820073,0.8176431,-0.41233405,325.81558,-49.470577,22.159384
525098488000.0,1.808882851252999,6.158747147240736,1.0029043369234871,-1.9159788,0.90469146,-0.5222898,325.95746,-49.467304,21.88408
525103426000.0,1.2793730216742203,5.282534459717409,1.677399000399893,-2.0146337,0.9306532,-0.62888575,326.12158,-49.463676,21.596004
525108721000.0,0.7115814972474008,4.342974682391363,2.400657251332978,-2.0555615,0.9101892,-0.7134906,326.21072,-49.336914,21.278376
525113443000.0,0.2942259687833828,3.748712987664264,2.8401584944467992,-2.0384574,0.8753699,-0.78893244,326.31616,-49.21599,20.941109
525118420000.0,-0.0290551991335311,3.441595883628656,3.034127185069945,-2.03693,0.81061816,-0.838718,326.4464,-49.09055,20.603857
525123437000.0,-0.3449167072846142,3.150558011753596,3.235360537701584,-2.0247128,0.7318166,-0.8854492,326.5144,-48.790485,20.214685
525128485000.0,-0.5064604666686038,3.1470461937672525,3.5268416505884064,-2.01219,0.6075055,-0.926988,326.6235,-48.49932,19.840504
525133437000.0,-0.6649320784890309,3.143601161542932,3.8127795410431498,-2.0522017,0.44929138,-0.95722586,326.7125,-48.15371,19.412148
525138342000.0,-0.810665978325657,3.2497704811162285,4.015178039447304,-2.0665572,0.27122417,-0.98624194,326.8491,-47.820503,19.004536
525143436000.0,-0.9340254253047954,3.633065849796803,4.023989421945272,-2.0506747,0.1001819,-1.01312,327.03137,-47.487083,18.622118
525148448000.0,-1.0718864865966549,4.087851207872423,4.141765865266433,-2.0308216,-0.041233405,-1.0338894,327.22784,-47.111973,18.20777
525153554000.0,-1.3723948239128745,5.305100238537534,5.320975811590821,-2.0060816,-0.15974127,-1.074512,327.47134,-46.74572,17.814325
525159583000.0,-1.7272253694826918,6.7423886063166085,6.713348856320499,-1.9077321,-0.21991149,-1.1426234,327.78473,-46.46021,17.38428
525163469000.0,-1.3918119753475775,7.76230021436453,6.9904933658340855,-1.706452,-0.44501534,-1.151481,328.1605,-46.205563,17.016245
525168429000.0,-0.6246683287631658,9.120287414685524,6.971433910321998,-1.3475688,-0.9251554,-1.0146471,328.59216,-46.00927,16.729515
525173395000.0,-0.5779831078024869,9.98260513175514,6.208453061756735,-0.84391034,-1.4401149,-0.78801614,329.091,-45.928352,16.332712
525178489000.0,-1.2040204940148256,10.402555612386418,4.730849401498485,-0.25473082,-1.613906,-0.6001751,329.5993,-45.952717,15.991323
525183672000.0,-1.903853820763244,10.788355730354004,3.3673212033642983,0.10903945,-1.2956452,-0.591623,330.17993,-46.15678,15.740149
525188482000.0,-3.411192974918404,10.580180830362371,4.011120803916645,-0.04550946,-1.0143417,-0.6771441,330.7759,-46.36301,15.54633
525193339000.0,-4.933260806879238,10.369971788936311,4.661211169796636,-0.32650748,-0.4428773,-0.9859365,331.41263,-46.93682,15.051017
525198430000.0,-5.574942717121363,10.345433718752831,6.421062649850448,-1.0714576,-0.014049901,-1.2910637,332.0179,-47.338284,14.515191
525203442000.0,-5.622798163509472,10.441145065802592,8.81383192562313,-1.7592919,0.002443461,-1.3836098,332.59,-47.67048,13.936528
525208398000.0,-5.167303898667795,10.256775000422923,10.788236998942692,-2.1077905,-0.27580565,-1.2626585,333.1504,-47.842274,13.005361
525213474000.0,-3.985158562909706,9.670842091139775,12.25306927215056,-2.1484132,-0.44959682,-1.0897835,333.68002,-47.88837,12.071124
525218460000.0,-2.879771904496456,8.318481747848889,13.19308853899194,-2.101682,-0.61727935,-0.9645562,334.13034,-47.525917,11.18341
525223429000.0,-1.8260795056327088,6.303525803136836,13.701449040205883,-1.9963076,-0.68630713,-0.8585711,334.56955,-47.147312,10.382821
525229227000.0,0.4226782631299732,3.4596533486074272,13.327822209549073,-1.8432859,-0.4456262,-0.75716746,334.82733,-46.515553,9.7871685
525233492000.0,2.708025624867374,1.062577905885279,12.45431174535809,-1.7067575,-0.1386664,-0.799928,335.10123,-45.92183,9.207473
525238485000.0,5.232148725784966,-1.5293686608943862,11.461232643196954,-1.690875,0.13133603,-0.9251554,335.17395,-45.01147,8.828565
525243480000.0,5.698676260275928,-1.2069715107992387,10.86953901094196,-1.9147571,0.38820487,-1.110553,335.22302,-44.0965,8.380639
525248440000.0,6.161934833063749,-0.886833399793847,10.281991380114178,-2.3414464,0.69913524,-1.2498302,335.02338,-42.780346,8.448724
525253395000.0,6.051936965637616,-0.5492893216575635,9.797623555687483,-2.7876835,1.1206323,-1.3164146,334.79984,-41.43137,8.413864
525258402000.0,5.4332380314889575,-0.1924935772785561,9.399074995962954,-3.2733214,1.7052304,-1.409877,334.55112,-39.991123,8.242289
525263733000.0,4.757091864687069,0.0701006734491531,9.025014018390635,-3.7736201,2.2876904,-1.459357,334.30167,-38.537884,8.065151
525268417000.0,3.94191110582976,-1.1885382774035038,9.33478280141019,-4.238183,2.6777277,-1.5360206,334.04486,-37.00227,7.780538
525273483000.0,3.0602489101911754,-2.549824555161736,9.669814538126044,-4.5680504,2.8228083,-1.6362026,333.84872,-35.485218,7.281527
525278464000.0,2.2505188238482536,-3.625119227563228,9.924165329867522,-4.7488666,2.8087585,-1.7715092,333.6825,-33.91407,6.7214975
525283382000.0,1.6076617411232437,-3.9654553703653153,9.969543405901245,-4.77941,2.6413813,-1.8500054,333.5711,-32.32567,6.169596
525288418000.0,0.9493802712974708,-4.313957366126054,10.016010260497792,-4.7473392,2.35794,-1.9960022,333.5206,-30.452078,5.4354224
525293466000.0,0.0084136561995716,-4.1927965187409,9.792246823083511,-4.6102,2.0384574,-2.1019874,333.55887,-28.621153,4.760279
525298410000.0,-0.9973454579828692,-3.9332457503640255,9.49214157665953,-4.4022,1.6920967,-2.1609359,333.70776,-26.844345,4.1654587
525303489000.0,-1.8847127314018688,-3.532532101977373,9.257742511411706,-4.1621304,1.3558154,-2.1927009,333.9647,-25.05796,3.5187788
525308459000.0,-2.568345056635514,-2.9706426280964093,9.12195199050664,-3.932445,1.0601566,-2.2009475,334.3,-23.347439,2.9670858
525313466000.0,-3.1879485178427416,-2.417074985656682,9.806103528657834,-3.7446039,0.9639453,-2.1728477,334.7113,-21.756409,2.2726617
525318474000.0,-3.7059567025201607,-1.8817998386520736,11.698560306307604,-3.674049,0.88697636,-2.0925188,335.16116,-20.210327,1.6763556
525323432000.0,-4.218793080241936,-1.3518688923963134,13.572122747119815,-3.6080756,0.9300423,-1.8762726,335.60516,-18.80228,0.9871363
525328394000.0,-7.151622074901446,-1.9953106377135348,15.421314361366624,-3.3805282,1.5030339,-1.7595973,336.02792,-17.473377,0.19119951
525333406000.0,-11.62533732063075,-3.3784229386333773,17.272972687253613,-2.9782734,2.1502457,-1.6884315,336.41275,-16.22658,-0.6045134
525338458000.0,-14.016179378307609,-4.396482676598677,18.33740716179713,-2.160325,1.5952746,-1.1737776,336.72766,-15.178634,-1.2738842
525343473000.0,-14.201512345679438,-5.018671561349228,18.565764177714996,-0.6936375,-1.4388931,0.06780604,336.95993,-14.465879,-1.3447268
525348456000.0,-14.385662729809813,-5.636890347533076,18.792664080071663,1.207986,-4.474588,0.8573494,337.2836,-13.861337,-1.9761205
525353456000.0,-11.993614117531031,-5.987993973135764,17.39249003021264,2.624888,-3.9877284,0.5766568,337.5268,-13.585957,-2.6621182
525358612000.0,-7.698634118878091,-6.159033172827865,14.793646752621957,2.7293458,-1.7018706,-0.07513642,337.72766,-13.513584,-2.9430845
525363473000.0,-4.140361126959551,-5.479598001664408,12.911218736210568,2.2589796,0.101098195,-0.86193085,338.04025,-13.545243,-3.2539063
525368615000.0,-0.8332878573640405,-3.9785487850203216,11.448291374104896,1.7351627,0.79076505,-1.5244142,338.43237,-13.602801,-3.8824184
525373480000.0,1.8513755111233177,-0.9747865865146936,10.152799420948917,1.2308935,0.66859204,-2.005776,338.81924,-13.522752,-4.222503
525378395000.0,4.045864290304862,3.905445964295524,8.947285080074156,0.8191703,0.47555858,-2.1817052,339.277,-13.311644,-4.750694
525383353000.0,6.259552055753915,8.828374344136227,7.73122402166987,0.61208695,0.06505715,-2.3631322,339.82635,-13.213469,-4.7798347
525388472000.0,7.92062817185988,12.32139228372363,7.087408986742791,0.2144137,-0.3848451,-2.2910502,340.36984,-12.946517,-4.735803
525393418000.0,8.97943879040062,14.30608989045868,7.000320523263016,-0.26083946,-0.79717916,-2.1661282,340.97168,-12.5985985,-4.594345
525398510000.0,9.568249116844054,15.773154150161965,6.7072856446783895,-0.98868537,-1.0274754,-2.1514673,341.62524,-13.022082,-4.0500946
525403427000.0,9.59003962563628,16.561242006015732,6.202473530911615,-1.8228219,-0.86651236,-2.232407,342.27563,-13.280121,-3.5094953
525408423000.0,9.6121802361561,17.361991838809193,5.689550748650316,-2.629164,-0.03940081,-2.4550674,342.99115,-13.603557,-3.009444
525414475000.0,8.210886011809363,16.635355776465627,5.501845220118094,-3.318831,1.5222762,-2.5060747,343.62048,-13.711685,-2.768902
525418779000.0,7.1263703494081545,15.887489876808417,5.451012782113108,-3.6254852,3.1697798,-2.0341814,344.10202,-13.691946,-2.7718825
525423571000.0,6.717278436855181,13.255218646646208,6.366439543475084,-3.6086864,4.0986004,-1.2253957,344.47137,-13.708242,-3.0208762
525428447000.0,6.301015464065468,10.576805767207365,7.297913017682303,-3.3692272,4.1960335,-0.41874814,344.61453,-13.612071,-3.6124194
525433427000.0,6.092439684114501,7.490106614218308,7.778922866838628,-2.9965994,3.9177842,0.003970624,344.5806,-13.555876,-4.3169236
525438418000.0,6.58861102371815,3.253103688078012,6.72944531085876,-2.6355782,3.4119878,0.22204952,344.36902,-13.568446,-4.933425
525443466000.0,7.090448916388802,-1.032288171500472,5.66798213662787,-2.28036,3.0207286,0.3576616,344.08087,-13.173176,-5.456047
525448469000.0,7.554146607242785,-5.106848147253977,4.648867301247102,-2.071444,2.973692,0.44715336,343.75882,-12.854342,-5.914003
525453334000.0,7.524349736509713,-6.604141834998801,4.127421674498361,-2.0680842,3.207959,0.44043383,343.43542,-12.5881405,-6.331718
525458332000.0,7.493738275065952,-8.14236873147334,3.5917206996802302,-2.2030854,3.5650096,0.29932398,343.38177,-11.407602,-6.496937
525463324000.0,7.436442654365079,-9.481408848214286,3.5220750463789683,-2.3985624,3.9122865,0.08093964,343.34433,-10.245199,-6.7303596
525468300000.0,7.356073540714286,-10.644397791071428,3.857734433839286,-2.5546384,4.146248,-0.17440203,343.35345,-9.0875,-7.0397673
525473320000.0,7.181297365893056,-11.544866702655032,4.472006004808764,-2.6331346,4.1926737,-0.31031954,343.44873,-7.6541553,-7.3900037
525478319000.0,6.919081252952098,-12.1848524006684,5.343097162049759,-2.6499333,4.0613375,-0.5858198,343.6667,-6.236143,-7.769631
525483288000.0,6.352735681410517,-12.426998164594377,6.254866105972279,-2.605951,3.6352592,-0.9086621,343.97086,-4.6569934,-8.09171
525488301000.0,5.227382577252344,-11.957285888911535,7.257898025071341,-2.4397957,2.947425,-1.1960741,344.36087,-3.1609163,-8.302125
525493243000.0,3.74418512,-10.929906144578313,7.6635223698795185,-2.1792617,2.2650883,-1.2889256,344.7678,-1.6103832,-8.45526
525498306000.0,1.6219498770624998,-8.967408616453314,7.138668505035768,-1.847562,1.8802432,-1.2556335,345.22864,-0.16805759,-8.496054
525503324000.0,-0.4595842028020802,-7.078739501376568,6.567591965616396,-1.5586227,1.7712038,-1.196685,345.70276,1.1510464,-8.595248
525508365000.0,-2.492649400296115,-5.331189544978077,5.8587265661772205,-1.3329079,1.8051068,-1.1462886,346.17014,2.3628438,-8.619806
525513309000.0,-4.3956783031299045,-3.611859265100176,5.321668219037947,-1.1911873,1.8002199,-1.1252137,346.63275,3.2547302,-8.9772005
525518919000.0,-6.33022674593297,-1.6475484851721909,5.103411508300249,-1.146594,1.7116444,-1.1395692,347.09695,4.101856,-9.309163
525523407000.0,-7.614621373466477,-0.2254170024136947,4.998967528673323,-1.1969905,1.5503759,-1.2116512,347.59283,4.7144456,-9.944442
525528409000.0,-7.737625381835473,0.6173874881540655,5.231308169091774,-1.3487904,1.3753631,-1.3304645,348.11075,5.341074,-10.538951
525533469000.0,-7.8447879819147905,1.4644630678678388,5.461152040633755,-1.5769486,1.2394456,-1.4782939,348.70297,5.6739097,-11.343537
525538353000.0,-7.736339118152835,2.214568275094193,5.619306822355328,-1.8515326,1.1362094,-1.5925257,349.31958,6.056555,-12.093054
525543663000.0,-7.604317888695652,3.011697520869565,5.786390036521738,-2.051591,1.0946705,-1.6581937,349.9107,6.450402,-12.8803425
525548384000.0,-7.185206408187039,3.326958348818704,5.830897409253486,-2.1847596,1.1322387,-1.668273,350.51764,6.8981123,-13.646358
525553387000.0,-6.741060096603774,3.6610506856603777,5.878063345660378,-2.2094996,1.2589933,-1.6206255,351.08102,7.2952795,-14.417488
525558414000.0,-6.012239263404019,3.6197545321974256,6.132933358283174,-2.1426098,1.3833044,-1.4929546,351.62173,7.6921062,-15.189229
525563416000.0,-5.058522666774701,3.273754904231873,6.554343034493934,-2.019215,1.382388,-1.3350459,352.13583,8.06701,-15.952255
525568412000.0,-4.173833369097888,2.7691528314011515,7.057411808982725,-1.8771889,1.2229522,-1.1921035,352.57635,8.37013,-16.622328
525573451000.0,-3.3865225031669866,2.014260628272553,7.691891690911707,-1.7580702,1.0995574,-1.039998,352.96375,8.625729,-17.300373
525578402000.0,-2.763963942708226,1.188060697130767,8.299456843843533,-1.7018706,0.8362745,-0.97035944,353.3048,8.903482,-17.697878
525583428000.0,-2.4708635374238828,0.1597257685829292,8.880689441222005,-1.6526959,0.63255095,-0.82741696,353.57227,9.124202,-18.081915
525589038000.0,-2.335122251323998,-0.8555741115104671,9.383719437266048,-1.6878207,0.571159,-0.62125,353.81305,9.44248,-18.255362
525593414000.0,-2.416463373298212,-1.5179232237522526,9.63355306100097,-1.9211712,0.6160576,-0.5525276,354.04486,9.792861,-18.398905
525598478000.0,-2.510593044613892,-2.28440766259878,9.92266582850409,-2.0399845,0.74189585,-0.464563,354.26572,10.238484,-18.462097
525603388000.0,-2.66068181627907,-3.1193664581395346,9.898075255813954,-2.2785273,0.8384125,-0.44623706,354.48175,10.763373,-18.527483
525608430000.0,-2.877311286266252,-4.0743044545504485,9.548815426478669,-2.453235,0.86437434,-0.5198463,354.69687,11.286839,-18.604761
525613375000.0,-2.8809834425349923,-5.022618265209953,9.142455980342143,-2.53112,0.83077675,-0.60231316,354.95813,11.995139,-18.683344
525618409000.0,-2.38614104681182,-6.016051820870918,8.576386359937791,-2.572659,0.77824235,-0.66675943,355.2258,12.713288,-18.754507
525623476000.0,-1.8880547498055988,-7.015997753833593,8.006605913654743,-2.5854871,0.73731434,-0.70921457,355.5452,13.62077,-18.882362
525628404000.0,-1.462467122513183,-7.399900003717938,7.39745282963625,-2.5912905,0.6750061,-0.7122689,355.8602,14.513036,-18.979418
525633446000.0,-1.048178027616409,-7.581151544695683,6.754441509160783,-2.552806,0.5928447,-0.6713409,356.16293,15.370442,-19.052372
525638468000.0,-0.6639753357607282,-7.707262306371912,6.097374621586476,-2.4666739,0.5390886,-0.5842926,356.49368,16.417667,-19.045183
525643433000.0,-0.3120082885965789,-7.778606927758328,5.431490991997599,-2.3151793,0.5195409,-0.48991394,356.80017,17.410795,-19.022509
525648507000.0,-0.1438985809787971,-7.817948825283372,4.855827817549006,-2.1096232,0.5357288,-0.36163223,357.08072,18.41305,-18.965027
525653456000.0,-0.1628593522596346,-7.824269079077211,4.394449026616882,-1.8671097,0.5830709,-0.21166481,357.3244,19.336134,-18.916616
525658761000.0,-0.1831840424283237,-7.831043972262968,3.899881541085478,-1.6190983,0.64996064,-0.039095376,357.5406,20.230448,-18.866898
525663465000.0,-0.3721650897700709,-7.836143802644185,3.777698848246791,-1.4202617,0.70738196,0.15668693,357.70963,21.043201,-18.841068
525668434000.0,-0.7277694087468864,-7.840702924410806,3.9372648729450086,-1.3096951,0.7476991,0.37782016,357.82742,21.782038,-18.846243
525673508000.0,-1.1183195136919817,-7.917273252033631,4.168422119645909,-1.3002267,0.80573124,0.49296826,357.9579,22.524542,-18.920115
525678461000.0,-1.536596673234671,-8.089123628887824,4.486183055205414,-1.3408492,0.8927795,0.7507534,357.99838,23.205942,-19.049858
525683385000.0,-1.9524248043851251,-8.259967815366737,4.802083488618497,-1.452943,1.0393872,1.0128145,358.03867,23.878693,-19.274305
525688465000.0,-2.579039960731212,-8.596769869329721,5.350432866960055,-1.6175711,1.241889,1.2541064,358.03818,24.541357,-19.560112
525693410000.0,-3.3943606940709934,-9.091458792339685,6.115368550972048,-1.8252654,1.423316,1.4605788,357.99985,25.20978,-19.901533
525698513000.0,-4.18211869739173,-9.534489161977,6.793009114935161,-2.057394,1.5833627,1.6175711,357.96744,25.894592,-20.379782
525703443000.0,-4.872937558952777,-9.874122374602395,7.301303984570589,-2.266921,1.6542231,1.715615,357.91876,26.593056,-20.892523
525708361000.0,-5.562074914157083,-10.21292889380964,7.8083616253144115,-2.4309382,1.6276505,1.7754798,357.89017,27.307587,-21.509377
525713479000.0,-6.279237375307071,-10.5655136366528,8.336039747585026,-2.5405886,1.4352279,1.7849482,357.84415,28.02805,-22.095938
525718342000.0,-6.776554492740675,-10.730770064105428,8.499725208621845,-2.552806,1.1508701,1.7400496,357.78665,28.73603,-22.641188
525723535000.0,-6.891341406075497,-10.523413121733304,7.910979514630332,-2.4929411,0.88056225,1.6624697,357.7138,29.428652,-23.127579
525728703000.0,-7.0055757153599885,-10.317054431538978,7.325068144218599,-2.3038783,0.48533243,1.5060883,357.66595,30.062248,-23.623411
525733485000.0,-6.740214567997009,-10.247973400130851,6.603259084493878,-2.0882428,-0.011301007,1.2684617,357.5943,30.663357,-23.989782
525738627000.0,-6.270742374427517,-10.234165118796149,5.737957422656323,-1.9113973,-0.46731192,1.0024298,357.50497,31.22501,-24.230877
525743418000.0,-5.67409664558285,-10.097259450736937,4.783192808468066,-1.788308,-0.8023715,0.7324274,357.4458,31.780931,-24.419348
525748573000.0,-4.875911226779812,-9.828258243054936,3.61016866746762,-1.6814066,-0.93554014,0.49877146,357.39365,32.309486,-24.504576
525753459000.0,-4.126389184269468,-9.516828244378852,2.60929691505339,-1.5552629,-0.816116,0.37110063,357.38702,32.900692,-24.531172
525758457000.0,-3.378435468721243,-9.047279616720202,1.8821197627137771,-1.430341,-0.48808134,0.34238997,357.4213,33.46885,-24.550951
525763832000.0,-2.586064632691496,-8.5415062460603,1.1287303255468288,-1.2815952,-0.09896017,0.3915646,357.5155,34.092525,-24.566267
525768412000.0,-2.1674867090363987,-8.09329424099316,1.099096514888945,-1.1053606,0.09590584,0.48502702,357.62662,34.66462,-24.61291
525773398000.0,-1.7118034061227938,-7.605349905345832,1.066835776910734,-1.0213667,0.45875978,0.5338962,357.82617,35.253166,-24.727295
525778431000.0,-1.3894462490610329,-7.177985318661972,1.292217003169014,-0.83077675,0.745561,0.60903263,358.0213,35.747665,-24.885658
525783399000.0,-1.1660774082159624,-6.801050417957747,1.692419578521127,-0.659429,0.9645562,0.6786713,358.2683,36.212486,-25.112257
525788417000.0,-1.0630256,-6.525902614856802,2.1210874579355607,-0.4978552,1.1475104,0.7315111,358.50046,36.58558,-25.345812
525793408000.0,-1.0630256,-6.340529102476133,2.56788514298926,-0.3912592,1.3264939,0.7809912,358.7669,36.916035,-25.632885
525798580000.0,-1.2185797661663338,-6.239672612884108,2.9468105532822264,-0.3472769,1.5103643,0.8222246,359.00516,37.15178,-25.920294
525803709000.0,-1.5002025399987118,-6.214358224067513,3.2537477159311985,-0.34269542,1.6722436,0.8594874,359.27103,37.361233,-26.24396
525808695000.0,-1.773973479817046,-6.189749617586807,3.552127262230239,-0.3885103,1.7889189,0.8900307,359.51715,37.507404,-26.577253
525813472000.0,-2.008076458137931,-6.149771373689655,3.668047404655172,-0.47586402,1.8216002,0.9104946,359.7775,37.654663,-26.925655
525818421000.0,-2.2164537618275864,-6.088483725637931,3.5822449704310344,-0.5714644,1.7632625,0.91232723,0.044455275,37.809055,-27.27491
525823441000.0,-2.424529734927662,-6.011772248557199,3.479604599754921,-0.67256266,1.6053538,0.8979719,0.27164206,37.91172,-27.64432
525828457000.0,-2.606819914957704,-5.821886768282078,3.255539614064353,-0.76174897,1.3631458,0.8790351,0.46946424,38.029625,-27.97661
525833358000.0,-2.784930794608269,-5.636354723061111,3.036611684465176,-0.80481493,1.0461067,0.8848383,0.62665975,38.14547,-28.312033
525838412000.0,-2.969925774948454,-5.419524884536083,2.6284879284536085,-0.8512407,0.70616025,0.90285885,0.72624654,38.27822,-28.585749
525844273000.0,-3.185606674939081,-5.145978227179007,1.997226479081537,-0.8927795,0.40317106,0.9450085,0.7552984,38.409542,-28.803356
525848530000.0,-3.437769652877185,-5.019550129664641,1.2862645388251182,-0.93615097,0.15332718,1.003957,0.7304342,38.52389,-29.04259
525853404000.0,-3.815979254467702,-4.942507470965563,0.2356825600270087,-0.9492846,0.013744468,1.0910053,0.64599,38.623978,-29.25324
525858463000.0,-4.20854437027534,-4.862540542291244,-0.8547758377447674,-0.9728029,-0.008246681,1.1988231,0.5680674,38.72819,-29.546465
525863391000.0,-4.581586905000969,-5.075930447131227,-1.5710697391936423,-0.99082345,0.046731193,1.3518448,0.44829842,38.805004,-29.850801
525868350000.0,-4.954411138282613,-5.370507783465788,-2.1970465488660595,-0.9602802,0.35735616,1.4633276,0.37300453,38.858864,-30.211128
525873464000.0,-5.445108187574171,-5.849884731588133,-2.436165868586388,-0.90377516,0.9242391,1.7446312,0.48657516,38.904037,-30.90605
525878532000.0,-5.97450686834206,-6.39622397626527,-2.508163972774869,-0.7125743,1.6368134,2.1096232,0.6802236,38.862377,-31.724949
525883470000.0,-6.561726101112997,-7.063378394265233,-2.2214433216185623,-0.4334089,2.3948972,2.5176811,1.0847682,38.765896,-32.822384
525888446000.0,-7.244940288021128,-7.908406637992831,-1.4753015554612336,-0.12461651,3.1202996,2.9028316,1.6134793,38.53194,-34.10962
525893334000.0,-7.937487699666889,-8.790432519653566,-0.4249707033882174,0.16768251,3.6713002,3.211013,2.33399,38.19058,-35.626305
525898547000.0,-8.730986526382411,-9.864268843437708,1.508885294061102,0.419359,3.903429,3.334408,3.1644702,37.72751,-37.23788
525903479000.0,-9.41108863125,-10.786760923611112,3.307532002175926,0.62949663,3.7446039,3.2531629,4.0356584,37.182816,-38.84871
525908483000.0,-9.84372091875,-11.382092131944445,5.019572337453704,0.7290677,3.242778,3.0225613,4.923945,36.602676,-40.398243
525914140000.0,-10.332809817708334,-12.055111445601852,6.955026409529321,0.7272351,2.4120014,2.6438248,5.5169263,36.01749,-41.61654
525918482000.0,-10.550598134530032,-12.277399650359996,8.17495437464247,0.63071835,1.4144585,2.1673498,5.9937587,35.510807,-42.609745
525923568000.0,-10.733149367195976,-12.402303864582306,9.481639271476478,0.45356745,0.3857614,1.6227635,6.314788,35.127167,-43.32556
525928404000.0,-10.462402178537513,-11.621678126305794,8.895025306267806,0.2706133,-0.50243664,1.0613784,6.123943,34.827538,-43.55678
525933380000.0,-9.878604437986706,-10.200651137511873,7.03501848005698,0.0729984,-1.1475104,0.51159966,5.8266344,34.691322,-43.529236
525938470000.0,-9.13563251072827,-8.842149100117462,5.191187913038371,-0.082161374,-1.4563028,0.07360926,5.232563,34.61607,-43.20676
525943468000.0,-8.25011352411903,-7.609918667599843,3.4435763035826152,-0.15332718,-1.3616186,-0.20433442,4.6972694,34.651943,-42.77506
525948507000.0,-7.501162297320719,-6.621581492828748,2.1563370103832087,-0.14874569,-0.9691377,-0.27397305,4.410085,34.69477,-42.528664
525953405000.0,-6.945495801741135,-5.9652238696454125,1.4738741920655114,-0.08277224,-0.47647488,-0.2180789,4.2267256,34.773144,-42.2919
525958391000.0,-6.379845914652568,-5.297073786102719,0.779149893957704,0.014660766,-0.032375857,-0.08979719,4.288556,34.83715,-42.263615
525963417000.0,-6.109712705232342,-4.973028420148699,0.8857202323327138,0.15607607,0.14294247,0.04428773,4.3987617,34.86633,-42.290554
525968333000.0,-5.873439830994424,-4.688625575836431,1.065112702184015,0.32803464,0.34391713,0.099265605,4.6341105,34.86138,-42.41276
525973584000.0,-5.813122,-4.684371728854932,1.6577169188727925,0.40866885,0.4071417,0.1853976,4.8811364,34.79936,-42.630283
525978370000.0,-5.813122,-4.766235598749752,2.3126267857709863,0.5323691,0.37965274,0.2501493,5.1531644,34.694126,-42.87398
525983648000.0,-5.892292028555252,-5.01151946544305,2.997378746126262,0.6246097,0.33353242,0.31795537,5.3306794,34.52726,-43.12385
525988386000.0,-5.986492830989903,-5.276994966264037,3.6011216041238088,0.66339964,0.27366763,0.3747658,5.4839387,34.33761,-43.377384
525993469000.0,-6.047137583608737,-5.612512694207028,4.152288886837606,0.64965516,0.19456059,0.41722095,5.459922,34.10106,-43.567234
525998613000.0,-6.084564409211776,-5.982102987844254,4.65287307008547,0.60139686,0.12705997,0.46670106,5.4081984,33.852203,-43.760906
526003398000.0,-6.051260317207759,-6.304343309552951,4.932296927808319,0.5296202,0.023518313,0.49266282,5.1890507,33.59467,-43.867844
526008394000.0,-5.956968473664558,-6.621958322269474,5.061327838875635,0.4269948,-0.06078109,0.52870387,4.9465566,33.34145,-43.976475
526013489000.0,-5.835652196138294,-6.902489470582288,4.924724551678124,0.3359759,-0.15241088,0.5467244,4.578576,33.113163,-43.99269
526018412000.0,-5.702200376101901,-7.145562346744844,4.619691848604933,0.26297748,-0.21746802,0.5564982,4.1961446,32.898712,-44.00181
526023581000.0,-5.61310980246668,-7.314478071314899,4.1538421707778,0.21624629,-0.23365596,0.5497787,3.7899761,32.73933,-43.952908
526028420000.0,-5.557797731848021,-7.425101731251243,3.637597686413368,0.19364429,-0.21960606,0.5366451,3.3825314,32.592663,-43.896862
526033421000.0,-5.443577581349754,-7.424000805655172,3.2219095060000003,0.2012801,-0.23579398,0.535118,3.0409565,32.514877,-43.821236
526038462000.0,-5.29137548782266,-7.347899783724138,2.879454212,0.23609942,-0.28527406,0.559858,2.6956732,32.43624,-43.744034
526043477000.0,-5.2261627138686855,-7.133595316679772,2.580847752555534,0.27275133,-0.36346483,0.6160576,2.4426763,32.400116,-43.696598
526048531000.0,-5.22140542648909,-6.819610922007077,2.309679391379988,0.33108896,-0.41447207,0.70096785,2.1713512,32.344173,-43.655293
526053392000.0,-5.321819900669838,-6.449702932734686,2.055642417396369,0.41508293,-0.40042216,0.8231409,1.9190717,32.273933,-43.6492
526058392000.0,-5.512407513522959,-6.012745404339384,1.7999757830890204,0.49296826,-0.35124752,0.9611965,1.6379015,32.17427,-43.659866
526063470000.0,-5.741121106201778,-5.613778443656607,1.5580021670182636,0.56138515,-0.14508049,1.0699304,1.406003,32.01184,-43.77776
526068477000.0,-6.003379247602306,-5.2672230390272485,1.3378927550346713,0.61391956,0.18906279,1.1108584,1.2105563,31.827074,-43.94209
526073532000.0,-6.306226861160178,-4.865151649784498,1.4453887358510564,0.6545421,0.6469063,1.1701124,1.1032311,31.538208,-44.29246
526078462000.0,-6.6464935244117855,-4.411462904783438,1.939108920617537,0.6762278,1.1316279,1.2003502,1.1022731,31.24557,-44.711433
526083352000.0,-6.983999403377376,-3.961455204366565,2.4288232620999084,0.65026605,1.5677856,1.1976013,1.2435455,30.884117,-45.30819
526088472000.0,-7.0595952490564216,-3.59941401305526,3.1124160162585888,0.6032294,1.9107865,1.1731668,1.504945,30.524334,-45.975815
526093473000.0,-6.952989784351108,-3.316678148824156,3.891098577334752,0.5488624,2.1474967,1.1108584,1.8847525,30.182825,-46.69018
526099444000.0,-6.545864025265349,-3.029926312091572,4.812506107554631,0.5018258,2.2656991,1.0616838,2.1116095,29.66196,-47.4968
526103391000.0,-6.1643274140166495,-2.8607915298959417,5.418244681415192,0.45906523,2.2608123,1.0742066,2.378691,29.156006,-48.311974
526108388000.0,-5.778288963362798,-2.722374458153093,5.969891921158548,0.4279111,2.1798725,1.131017,2.3132358,28.535698,-49.049114
526113481000.0,-5.448048622879443,-2.630641070152341,6.391865553855558,0.39645153,2.0210476,1.2040154,2.2235088,27.931042,-49.761303
526118462000.0,-5.263657398453903,-2.5675458475281543,6.6006937101546095,0.3979787,1.8148806,1.3075571,1.9243788,27.34175,-50.32437
526123428000.0,-5.21826859448368,-2.531234662168353,6.605232590551632,0.3924809,1.5485435,1.4156802,1.5344828,26.75334,-50.847668
526128487000.0,-5.275522725274725,-2.53806421941392,6.424704164835164,0.42821655,1.2788464,1.5283848,0.99421954,26.189499,-51.251347
526133442000.0,-5.482228342589843,-2.6085321583308585,5.978407594446094,0.4804455,1.0451905,1.6303993,0.34873244,25.61145,-51.616917
526138412000.0,-5.710679653478854,-2.664919629902797,5.517556176671215,0.5491679,0.8698721,1.7128662,359.59326,25.012194,-51.944912
526143413000.0,-5.976120179809004,-2.6975892337994543,5.031596111869032,0.60231316,0.73792523,1.822211,358.73785,24.38872,-52.246063
526148600000.0,-6.259215470837004,-2.748476108546256,4.508153094273128,0.6792821,0.70280045,1.9318613,357.8723,23.713102,-52.61396
526153414000.0,-6.632173267104525,-3.03650283751702,3.7474670623948736,0.74128497,0.8790351,1.9837849,357.02466,23.037422,-52.99442
526158418000.0,-7.019851042867441,-3.3358974681297555,2.956758108610332,0.75625116,1.0012082,1.9969184,356.13333,22.284477,-53.463276
526163438000.0,-7.451622308554869,-3.5037851780773592,2.448716143278317,0.7852673,1.3090842,2.008525,355.3593,21.535437,-54.004013
526169138000.0,-7.984639097013985,-3.562245116341187,2.156416523774726,0.8029824,1.642922,2.0622811,354.62924,20.797577,-54.572
526173522000.0,-8.394594465541136,-3.607207988156734,1.9316022199319645,0.84757555,1.9178114,2.1536055,354.3296,20.1294,-55.374546
526178365000.0,-8.727002724320178,-3.734946524558861,1.8562032614610864,0.89827734,2.1453588,2.2424862,354.0906,19.45625,-56.235916
526183446000.0,-8.847293482738044,-4.017008076259484,2.1050811317705227,0.9388999,2.3710735,2.2516494,353.92526,18.787025,-57.145683
526188714000.0,-8.95811556806765,-4.29343482037006,2.3751949510465504,0.9251554,2.5909848,2.2369885,353.93448,18.078451,-58.249332
526193475000.0,-8.877949878767582,-4.3354262902880105,2.776023277963831,0.87964594,2.718045,2.2366831,353.97174,17.374897,-59.366486
526198445000.0,-8.794265048727395,-4.379261116058272,3.194447303332217,0.8527679,2.715296,2.2879958,353.99207,16.712029,-60.426895
526203458000.0,-8.563700318659873,-4.402281468936355,3.697820886045755,0.85918194,2.6465738,2.352442,354.02136,16.059067,-61.4812
526208415000.0,-8.249723841916946,-4.412575829870974,4.243419543261411,0.9059132,2.5124888,2.4416285,353.98264,15.396676,-62.510178
526213438000.0,-7.967866584493584,-4.190586345618345,4.9550184007644,0.9737192,2.2867742,2.590374,353.63934,14.716732,-63.399372
526218454000.0,-7.696839994703795,-3.902074187059787,5.711269660824461,1.0626001,1.9935588,2.758362,353.1426,14.014008,-64.23773
526223473000.0,-7.414486520981132,-3.620479231641509,6.287312629188679,1.1517864,1.6673567,2.910162,352.2393,13.287086,-64.89302
526228399000.0,-7.129654233660377,-3.348998495547169,6.727912611396226,1.2684617,1.3497068,3.0161471,351.13696,12.531924,-65.477325
526233466000.0,-6.81901315647947,-3.2032868681352777,7.036782789326714,1.4330899,1.0238101,3.050661,349.37402,11.687179,-65.79775
526238353000.0,-6.499546595263212,-3.212967616351225,7.172314174123487,1.6392568,0.7266242,2.9626966,-37.211052,10.858442,-66.018715
526243465000.0,-6.093538022106754,-3.12604521667454,6.60014804768068,1.8353447,0.51007247,2.8322768,-37.306755,10.021894,-66.079636
526248498000.0,-5.6290689128011335,-2.95300772867265,5.393438773037317,1.9743165,0.42455134,2.6914723,-37.34545,9.218183,-66.06175
526253403000.0,-5.339266685416485,-2.658837687720067,4.473239599623369,2.0647244,0.43401974,2.572659,-37.370956,8.45164,-65.93101
526258437000.0,-5.280150012017168,-2.173236407296137,3.9031859034334766,2.1276436,0.46028697,2.4755313,-37.3504,7.7219667,-65.75312
526263399000.0,-5.219047241857164,-1.7005284873778574,3.371935278133871,2.1465805,0.46883908,2.4431555,-37.28324,6.948249,-65.75523
526268407000.0,-5.1366405756686095,-1.266998071385029,3.060223343515613,2.182316,0.46303585,2.3695462,-37.17057,6.2243953,-65.735985
526273476000.0,-5.0532301541610645,-0.828187033312416,2.7447145981921413,2.2036965,0.44318274,2.3182335,-37.037243,5.408837,-65.86763
526278392000.0,-4.9137179298245615,-0.3111142283709273,2.344301547117795,2.2363777,0.4184427,2.2495112,-36.86807,4.6311693,-65.97444
526283447000.0,-4.696334453947368,0.3359802860244362,1.8134817827067669,2.273335,0.44715336,2.194228,-36.677094,3.8791294,-66.07496
526288421000.0,-4.527027743642948,0.94884060561613,1.3585839573749634,2.3087652,0.59620446,2.144748,-36.454475,3.0366483,-66.298904
526293405000.0,-4.396220207497308,1.54214708290692,0.9614890623568562,2.3377812,0.8738427,2.104736,-36.202335,2.2224722,-66.55102
526298498000.0,-4.241999089179655,2.1719664654864985,0.6063603044115194,2.3289237,1.2415836,2.0778582,-35.886036,1.3159448,-66.96568
526303398000.0,-4.073448203412225,2.80102221752293,0.3144062233391059,2.3112087,1.7143933,2.0448713,-35.539143,0.43536898,-67.46544
526309092000.0,-3.8775851945224806,3.5320106771342443,-0.0248563353601436,2.2748623,2.2547035,1.9990565,-35.11667,-0.53625613,-68.14709
526313343000.0,-3.7635808420275394,3.973695419656755,-0.1893440388585112,2.2220223,2.758973,1.9410243,-34.67536,-1.477525,-68.91596
526318413000.0,-3.681219597565356,4.327364394112951,-0.2377918701895829,2.1905627,3.1722233,1.8903224,-34.210987,-2.3909996,-69.77031
526323430000.0,-3.618168450960022,4.635610459419349,-0.2648816380113162,2.171015,3.4275649,1.8579466,-33.64278,-3.4528441,-70.75967
526328434000.0,-3.587052956070865,4.871199484927187,-0.2559914826899174,2.1792617,3.590055,1.8536706,-33.048923,-4.4911985,-71.76129
526333464000.0,-3.575249764473153,5.10810948180864,-0.2532228292369802,2.1908681,3.616933,1.8671097,-32.421734,-5.5697722,-72.702126
526338486000.0,-3.633499287605975,5.344991119176424,-0.2726393572224465,2.1664336,3.5897496,1.9135354,-31.78191,-6.6354,-73.55265
526343384000.0,-3.690310550908357,5.576023827226484,-0.2915764647638272,2.129171,3.5063665,1.9981402,-31.120144,-7.742278,-74.23689
526348448000.0,-3.7487281206924186,5.813588555185126,-0.2232076044128866,2.0570886,3.4077117,2.1361957,-30.459608,-8.854148,-74.73765
526353458000.0,-3.806405434524764,6.048142798813912,-0.1232336574758775,1.8945986,3.2623258,2.3286183,-29.82092,-9.97896,-75.013466
526358405000.0,-3.883797842518653,6.275806828715466,-0.041099736530248,1.6636915,3.1697798,2.4306328,-29.19209,-11.143696,-75.06841
526363481000.0,-4.030839039977818,6.4963689063924175,-0.0116914668424077,1.5445728,2.9898798,2.6710083,276.66632,-12.380946,-74.82605
526368409000.0,-4.400004878400339,6.736684615629195,-0.0856864746787253,1.2675453,2.8732047,2.9318478,271.01425,-13.6649475,-74.32892
526373461000.0,-5.456321322376882,7.061441867943192,-0.4685584707335546,0.97249746,2.8420506,3.1838295,265.82813,-14.9929695,-73.611824
526378557000.0,-6.521837672041263,7.389027568218752,-0.854765060578252,0.70646566,2.8997774,3.3735032,261.10547,-16.387257,-72.68275
526383537000.0,-7.770902191801948,7.943043522727272,-1.3623163732142858,0.50518554,3.0256155,3.522249,256.8736,-17.81619,-71.59945
526388477000.0,-9.263721924553572,8.778254375,-2.0247251633928576,0.40103304,3.3368514,3.5989125,252.96217,-19.255419,-70.418205
526393464000.0,-10.947015574192449,9.709503757180602,-2.484252999838064,0.38789943,4.005138,3.6661077,248.72433,-20.718431,-69.16269
526398435000.0,-12.829682154223132,10.740101831841814,-2.6992989343560896,0.37720928,4.9825225,3.728416,244.6019,-22.162971,-67.824295
526403431000.0,-14.6276462935646,11.783761996839033,-2.807164085066461,0.34238997,5.8722477,3.6551123,240.26279,-156.39702,-66.37458
526408492000.0,-15.65687927816502,12.907275693305236,-2.00577674208948,0.35521814,6.396981,3.3130276,236.16458,-155.07477,-64.9047
526413339000.0,-16.642592037769493,13.983282586561842,-1.2382753685645973,0.3717115,6.661791,2.699719,232.2554,-153.86507,-63.41033
526418467000.0,-16.923760925553648,14.988350854049196,-0.5688922066315274,0.4184427,6.8105364,2.0189097,228.62558,-152.84265,-61.98122
526423419000.0,-16.764865138024025,15.883588038980143,-0.0030709564427555,0.52778757,6.9153,1.5088371,225.28116,-152.00458,-60.632225
526428477000.0,-16.149659887782807,16.33461457285068,0.4684228574339777,0.59589905,7.1095552,1.3368785,222.51942,-151.17726,-59.292
526433490000.0,-13.736397151131222,14.936423091402716,0.5118694911904565,0.42088616,7.2876225,1.3545936,219.91615,-150.47758,-58.031
526438416000.0,-11.365016293212667,13.56249705158371,0.5545621139481695,-0.026267206,7.2451673,1.393689,217.69289,-149.6705,-56.69488
526443473000.0,-10.22114316420788,12.13487599857502,0.4167219449052808,-0.5674938,6.9473705,1.3558154,215.64807,-148.90057,-55.40286
526448461000.0,-9.492393855574182,10.721422717435038,0.2245243456295054,-1.0809261,6.556722,1.2391402,213.7769,-148.1442,-54.15979
526453575000.0,-8.856727117341329,9.063416887896052,0.2252842145747126,-1.4990633,6.3352833,1.1355985,211.86392,-147.37688,-52.88735
526458495000.0,-8.409331183308346,7.1608056303248375,0.517269135954023,-1.6673567,5.894239,0.8491027,210.23903,-146.67969,-51.784134
526463368000.0,-8.00506838646253,5.5803921495568085,0.6494711048186945,-1.9385809,5.4067683,0.4529566,208.62788,-146.12045,-50.85377
526468415000.0,-7.6545387145312915,4.476872852162234,0.5109902544704091,-2.0971005,5.0885077,0.07819075,207.13452,-145.62952,-50.038765
526473789000.0,-7.284806568145646,3.4796801706381384,0.2828005176141141,-2.1810944,4.8371363,-0.17806722,205.82932,-145.36357,-49.5343
526478470000.0,-6.975176586891892,3.240726682567568,-0.2018376732702702,-2.221106,4.7473392,-0.27488935,204.5757,-145.14537,-49.11593
526483470000.0,-6.644445993798799,2.985489032417417,-0.7195029060030029,-2.175902,4.7351217,-0.21960606,203.50912,-145.07455,-48.875885
526488414000.0,-6.359231941180403,2.784642045220132,-1.3586106023779962,-2.1239784,4.730846,-0.12797627,202.48323,-145.01761,-48.669174
526494150000.0,-6.081185380660873,2.616764756709005,-2.2609505624964186,-2.1252003,4.724737,0.023518313,201.50885,-144.93082,-48.44266
526498377000.0,-6.129835600055127,2.6602351700110254,-3.089745124035281,-2.076331,4.672203,0.19761491,200.21396,-144.80113,-48.035336
526503690000.0,-6.597325269211687,2.982803098842337,-4.39404122629548,-1.8463402,4.299575,0.30879238,199.0967,-144.6707,-47.661278
526508416000.0,-7.032438965750408,3.30714245408646,-5.443236720603589,-1.4584408,3.7586539,0.3313944,197.84514,-144.53857,-47.175385
526513417000.0,-7.567628241582382,3.795454085464927,-6.122966521924959,-0.9447031,3.0744848,0.25900686,196.8195,-144.44858,-46.768555
526518345000.0,-8.095005316427406,4.2766377926101145,-6.792774252561174,-0.36163223,2.111761,0.15271631,195.9094,-144.45169,-46.393295
526523524000.0,-8.883427704105662,4.840699763489301,-7.827509084079042,0.16462818,1.1374311,0.087659165,195.26343,-144.52365,-46.136093
526528524000.0,-9.721778784273576,5.404502876011057,-8.935504271956589,0.64965516,0.19150625,0.009162978,194.93098,-144.69751,-46.055206
526533430000.0,-10.434106814323382,5.809681096198009,-9.92802769932806,1.0577132,-0.6249151,-0.0983493,194.80045,-144.95137,-46.076096
526538395000.0,-11.12972666760228,6.185801066853789,-10.910793219869014,1.3799446,-1.2611313,-0.20311269,194.91928,-145.27185,-46.234528
526543410000.0,-11.872092729076003,6.485644083999595,-11.71983104928651,1.582141,-1.7146988,-0.28344148,195.12436,-145.66518,-46.455475
526548465000.0,-12.670691154842627,6.686518559761158,-12.302857079040583,1.6417004,-2.0851886,-0.35246924,195.49754,-146.09193,-46.781242
526553633000.0,-13.121347458030405,6.910563554527429,-12.63786861278444,1.593442,-2.277611,-0.35277468,195.83966,-146.55565,-47.098637
526558424000.0,-13.19499522934567,7.135838717779246,-12.702851780757246,1.459968,-2.2858577,-0.33475417,196.237,-147.00876,-47.449955
526564177000.0,-13.28067269171139,7.295139738342278,-12.51186506400318,1.3735305,-2.2336287,-0.21655174,196.6405,-147.45848,-47.80465
526568408000.0,-13.341077344066786,7.307220668813358,-12.11722108298549,1.1368202,-2.2119431,-0.18203785,197.04651,-147.86594,-48.172485
526573486000.0,-13.609972371641012,7.313372993529872,-11.811510360422648,1.0781772,-2.081218,-0.17287487,197.41454,-148.22311,-48.46079
526578420000.0,-14.22943780941821,7.304127246490999,-11.820755978737282,0.9624182,-1.8228219,-0.24923302,197.72206,-148.53967,-48.729046
526583426000.0,-14.857942872554135,7.2947465797547615,-11.830136514870858,0.84207773,-1.4236214,-0.2855795,197.97554,-148.81163,-48.9633
526588346000.0,-15.031811174110723,7.31775615715432,-11.724331915752876,0.7593055,-0.95447695,-0.2415972,198.11902,-149.06258,-49.134037
526593403000.0,-13.93083685816172,7.434329812784167,-11.283942369706695,0.75716746,-0.52778757,-0.10842858,198.15784,-149.2868,-49.226707
526598752000.0,-12.732455228855006,7.546191614873418,-10.810632155350978,0.8390234,-0.2941316,0.11178834,198.1146,-149.52289,-49.318317
526603530000.0,-11.356819750575374,7.542900691772152,-10.32027409781358,0.9822713,-0.31337386,0.38056904,198.07062,-149.71419,-49.337845
526608425000.0,-9.94749876560702,7.53952918306962,-9.817908528193325,1.153619,-0.5412266,0.63713247,198.1284,-149.77689,-49.223766
526613403000.0,-8.520999901691816,7.498377782464563,-9.356016518099375,1.353372,-0.88514376,0.8246681,198.29295,-149.81354,-49.09522
526618413000.0,-7.105957816643805,7.341150947759488,-9.041562657788448,1.5076154,-1.2363913,0.9098838,198.5824,-149.83017,-48.980522
526623761000.0,-5.595449818472794,7.173316793667124,-8.705894145823807,1.5589281,-1.4770721,0.98837996,199.06209,-149.69511,-48.746082
526628536000.0,-3.512399711688312,6.759783052727273,-8.768051842857142,1.5784758,-1.6001616,1.0906999,199.64445,-149.55296,-48.532043
526634009000.0,-0.7260695867099569,6.142615398121212,-9.03579360904762,1.5155567,-1.6279559,1.1325442,200.27292,-149.40448,-48.34105
526638355000.0,0.8542597733019639,5.679308051442308,-9.221885124590834,1.4110987,-1.4990633,1.1065824,200.91553,-149.15175,-48.01192
526643406000.0,1.3094833183306056,5.199344061538461,-9.380223847790509,1.2629639,-1.2232577,1.0036516,201.50029,-148.89587,-47.666164
526648448000.0,1.6123662734408897,4.813140067204447,-9.36368285140998,1.1093313,-1.0567969,0.8555168,201.9653,-148.50586,-47.064667
526653451000.0,1.6480929908148048,4.592284104074023,-9.042142428958783,0.9254609,-0.72082096,0.7800749,202.2822,-148.10321,-46.38532
526658491000.0,1.6840839273657808,4.369794786828904,-8.718224034164859,0.82833326,-0.4184427,0.63285637,202.45287,-147.77646,-45.709896
526663466000.0,1.5944367825130052,4.184401736534613,-8.150119509803922,0.655153,-0.17531833,0.5235115,202.54057,-147.42523,-44.990067
526668411000.0,1.3338673884053622,4.047010481832733,-7.245232990196079,0.48747048,-0.019242255,0.43096542,202.54439,-147.09702,-44.258484
526673528000.0,0.7889707055265756,3.964798,-6.088977984167489,0.301462,0.05497787,0.35979962,202.48717,-146.77745,-43.558598
526678643000.0,-0.1330011576483856,3.964798,-4.631778917446778,0.1133155,0.06994407,0.28405234,202.39456,-146.45755,-42.86116
526683439000.0,-0.9974737003242632,3.964798,-3.2654589323064984,-0.093462385,0.016187929,0.19486602,202.33966,-146.13469,-42.279846
526688468000.0,-2.1353356780658026,4.081575877567298,-2.55391569110668,-0.33414328,-0.093767814,0.06811147,202.27939,-145.80295,-41.729446
526693471000.0,-3.4346649078265203,4.28220765004985,-2.367614745264208,-0.5580254,-0.22174409,-0.08155051,202.2221,-145.46677,-41.215736
526698440000.0,-4.773650091595679,4.575850054641258,-2.507283969553,-0.763887,-0.2938262,-0.19914207,202.2677,-145.1579,-41.026993
526703907000.0,-6.286362654158251,4.975868288952314,-2.925693879379995,-0.9263771,-0.2443461,-0.24465153,202.29517,-144.83717,-40.854553
526708378000.0,-7.551360955685279,5.284900227766497,-3.303779597664975,-1.022283,-0.07147124,-0.17531833,202.28508,-144.53139,-40.801586
526713479000.0,-9.064014965401016,5.5923904238781725,-3.8245292427817263,-1.0567969,0.15027285,-0.031154128,202.25038,-144.2084,-40.725613
526718338000.0,-10.245064716681778,5.691366788304624,-4.229049911423391,-1.0296134,0.3417791,0.124311075,202.1581,-143.9555,-40.73797
526723543000.0,-10.895836475974615,5.338865595648232,-4.445973736808703,-0.929126,0.4538729,0.23151793,202.0432,-143.69577,-40.707077
526728396000.0,-11.422819242591023,4.999862522218459,-4.657741035588484,-0.7812967,0.41141775,0.23854288,201.89339,-143.55028,-40.791943
526733482000.0,-11.311463404318374,4.558565590364099,-4.9588128993141405,-0.59803706,0.27000242,0.1685988,201.74489,-143.42679,-40.869827
526738428000.0,-11.203172807366638,4.129416037679933,-5.251597295300592,-0.41905355,0.11881329,0.071776666,201.55164,-143.4464,-41.067745
526743466000.0,-10.898576794633644,3.871915767373185,-5.726583130539017,-0.24220806,0.019547688,-0.007330383,201.37321,-143.50885,-41.290333
526748466000.0,-10.533659353973167,3.674252037913789,-6.254953536191157,-0.12583824,-0.015271631,-0.0720821,201.20186,-143.60959,-41.542652
526753430000.0,-10.07834445683802,3.547812042967992,-6.766371858389912,-0.06811147,-0.022907447,-0.109650314,200.9923,-143.80933,-41.82527
526758455000.0,-9.312072572744908,3.648944432638216,-7.240915929679923,0.009162978,-0.029321533,-0.15302174,200.77736,-144.04367,-42.124397
526763423000.0,-8.554492727934043,3.748929648933075,-7.710077112997091,0.057726767,-0.0580322,-0.19120082,200.52538,-144.31177,-42.35871
526768466000.0,-8.146780320793981,3.8731812285897234,-7.7213927646870495,0.076052725,-0.11056661,-0.2144137,200.27702,-144.58911,-42.60044
526773953000.0,-7.8271351226188575,4.016180160429006,-7.574187981911317,0.07544186,-0.16065755,-0.21502456,200.03412,-144.86958,-42.845795
526778409000.0,-7.582173925371409,4.128385538208344,-7.443154632594965,0.07147124,-0.19975294,-0.20555615,199.80975,-145.09547,-42.94091
526783573000.0,-7.340202189298105,4.247171779290099,-7.258376137443288,0.08124508,-0.24495697,-0.18081611,199.60765,-145.31628,-43.040462
526788707000.0,-7.107340293787158,4.361318719678954,-7.076915726218787,0.10567969,-0.27916542,-0.13988814,199.46222,-145.47786,-43.09353
526793463000.0,-6.9922533998216405,4.415477245541022,-6.9381346141498215,0.13072516,-0.3100141,-0.087659165,199.33957,-145.62994,-43.144627
526798441000.0,-6.8717944935642095,4.472163776605232,-6.792875493906064,0.16768251,-0.321926,-0.048258353,199.26874,-145.73409,-43.16281
526803419000.0,-6.756000078701826,4.521010381338742,-6.553935380121703,0.19608775,-0.33261612,-0.0106901415,199.22012,-145.82727,-43.174305
526808472000.0,-6.648494270230851,4.553729447068482,-6.10988996142181,0.20525073,-0.34605515,0.004886922,199.18092,-145.9176,-43.18381
526813347000.0,-6.5696893,4.5777135,-5.7843914,0.19333886,-0.35827246,0.010995574,199.18343,-145.96971,-43.176064
526819247000.0,-6.5696893,4.5777135,-5.7843914,0.15760323,-0.3576616,0.00061086525,199.1861,-146.01862,-43.168064
526823472000.0,-6.611091013315887,4.631661188238916,-5.734207500307882,0.10903945,-0.35918877,-0.011911872,199.23438,-146.02737,-43.176987
526828428000.0,-6.7316473536176105,4.788749756342364,-5.588078589100985,0.04520403,-0.35277468,-0.04337143,199.27194,-146.03438,-43.19003
526833355000.0,-6.85149825932112,4.944919121767241,-5.442804750215517,-0.016187929,-0.33108896,-0.07544186,199.3048,-146.03552,-43.2027
526838477000.0,-6.946687895171857,5.125788648603971,-5.365457885193025,-0.076052725,-0.2929099,-0.10262536,199.32323,-146.0327,-43.21626
526843447000.0,-7.028246592077411,5.308096474327185,-5.317482181130934,-0.14477506,-0.27550024,-0.1301143,199.33253,-146.02606,-43.236076
526848425000.0,-7.088409319551447,5.457735514227016,-5.262603846259203,-0.22540927,-0.24709499,-0.14874569,199.35178,-145.98412,-43.26319
526853568000.0,-7.143219954947783,5.60108600719055,-5.203577333247732,-0.25259277,-0.20555615,-0.17440203,199.3519,-145.94876,-43.291824
526858419000.0,-7.182250603703704,5.7085573318518525,-5.1659426222222224,-0.31887165,-0.16462818,-0.20005837,199.36253,-145.87418,-43.314
526863408000.0,-7.204650348288795,5.7802365145241446,-5.152502494796062,-0.39064834,-0.10354166,-0.2144137,199.3494,-145.79959,-43.32809
526868338000.0,-7.223416275534679,5.824764034179492,-5.174042409874075,-0.4615087,-0.047036625,-0.23823744,199.34053,-145.70087,-43.339893
526873420000.0,-7.233144247451529,5.795579966060364,-5.2956428968618825,-0.52503866,0.040011674,-0.24953845,199.30156,-145.59529,-43.336216
526878558000.0,-7.243556952323168,5.757359765479802,-5.350746780488584,-0.58276546,0.15668693,-0.25625798,199.23883,-145.47646,-43.31838
526883432000.0,-7.25473625693757,5.701463008941402,-5.250132883314705,-0.6102544,0.24098633,-0.24740042,199.15901,-145.35492,-43.29132
526888361000.0,-7.266041712917133,5.644935492942679,-5.148383622098036,-0.63041294,0.28893927,-0.24953845,199.03972,-145.24515,-43.25248
526893413000.0,-7.236959194984461,5.468792018387431,-4.980323861075621,-0.64843345,0.3454443,-0.24678956,198.89531,-145.13123,-43.19638
526898446000.0,-7.195350092714088,5.256585288328729,-4.793082748791436,-0.66156703,0.38728857,-0.25870144,198.7369,-145.02206,-43.140717
526903436000.0,-7.139501775071341,5.100278009580106,-4.627817320729719,-0.655153,0.3817908,-0.24281894,198.58957,-144.91179,-43.097355
526908455000.0,-7.066021149561761,5.007202976865063,-4.485755119088871,-0.6411031,0.34055737,-0.226631,198.43823,-144.80649,-43.05804
526913443000.0,-6.988170727250866,4.921869862591381,-4.3759918864948055,-0.61269784,0.28771752,-0.20891592,198.28987,-144.72356,-43.054436
526918465000.0,-6.904897938620624,4.8432232460657945,-4.29734531827626,-0.5885687,0.20922135,-0.19883664,198.1647,-144.6428,-43.06236
526923424000.0,-6.829562012532947,4.783611313705851,-4.257327485925145,-0.53878313,0.10903945,-0.18448131,198.07341,-144.56757,-43.089794
526928541000.0,-6.761751411195308,4.748091457248287,-4.27024379736426,-0.4896085,0.030848695,-0.17592919,198.00044,-144.49765,-43.127113
526933449000.0,-6.6967104826502375,4.7140223824986816,-4.282632551818661,-0.4370741,-0.040011674,-0.17562376,197.95827,-144.43652,-43.182175
526938479000.0,-6.607565556378132,4.675241916079933,-4.30780310319942,-0.3726278,-0.1020145,-0.17989981,197.93777,-144.38625,-43.248447
526943475000.0,-6.483715399202734,4.630655797421826,-4.352389014940981,-0.30940324,-0.11911872,-0.17959438,197.9254,-144.34479,-43.31785
526948461000.0,-6.403636477115926,4.590770164495647,-4.405098528631275,-0.25778514,-0.160963,-0.18967366,197.93008,-144.3181,-43.39587
526953580000.0,-6.374755626634811,4.555471280225175,-4.469278196367088,-0.24037547,-0.1853976,-0.2098322,197.93141,-144.29947,-43.47541
526959153000.0,-6.343313356712706,4.517041766249919,-4.5391499073051,-0.19730948,-0.17745635,-0.24678956,197.92657,-144.29642,-43.54643
526963472000.0,-6.354185501980506,4.5170431415906265,-4.57810177548735,-0.16401732,-0.15943582,-0.25809056,197.92665,-144.29382,-43.61771
526968441000.0,-6.41339806184156,4.55651819867275,-4.6027736539610125,-0.15271631,-0.12461651,-0.28985557,197.90471,-144.30869,-43.697002
526973434000.0,-6.480458548894704,4.602247477687487,-4.6022203735762,-0.14508049,-0.06994407,-0.31673363,197.85805,-144.33813,-43.76295
526978488000.0,-6.557121857330762,4.655578541443426,-4.572221728524206,-0.14966199,-0.013744468,-0.33475417,197.79442,-144.3726,-43.82704
526983390000.0,-6.6314795023552096,4.707305663432271,-4.543125298360994,-0.15149458,0.022296581,-0.35613444,197.71089,-144.41724,-43.89348
526988465000.0,-6.706602201610154,4.795230983765864,-4.545258688103807,-0.16646078,0.06994407,-0.37965274,197.60168,-144.46344,-43.9523
526993458000.0,-6.779065868819853,4.908455463781019,-4.572432563307445,-0.21777347,0.14263703,-0.4034765,197.46881,-144.50842,-44.00504
526998432000.0,-6.882030955330198,5.077444965787072,-4.56768371812057,-0.2406809,0.20066923,-0.40469822,197.33253,-144.5512,-44.061604
527003461000.0,-7.023991412485087,5.31742567641238,-4.523743655610921,-0.2764165,0.23060162,-0.4034765,197.17842,-144.58902,-44.11508
527008448000.0,-7.164766278230051,5.555402173506913,-4.480170561211313,-0.301462,0.2779437,-0.3943135,197.01213,-144.61116,-44.148052
527013378000.0,-7.259139826136694,5.713118139660688,-4.460061417644208,-0.33383787,0.31948254,-0.36957347,196.84377,-144.62274,-44.173153
527018395000.0,-7.324351147193408,5.820251201434804,-4.455403365390208,-0.38453966,0.3567453,-0.34972036,196.6645,-144.62689,-44.19031
527023421000.0,-7.372165341397849,5.889478115537634,-4.441190598958333,-0.41447207,0.39370266,-0.31337386,196.52126,-144.58098,-44.18553
527029010000.0,-7.408136265591398,5.929046132150537,-4.4160109895833335,-0.43890667,0.4166101,-0.27672195,196.37634,-144.52548,-44.17366
527033471000.0,-7.436847357526882,5.96062833327957,-4.395913255208333,-0.46517387,0.42241332,-0.23396139,196.24895,-144.44601,-44.147984
527038422000.0,-7.494459344224085,5.940418246861582,-4.3397424821099975,-0.4718934,0.41416663,-0.20280726,196.12518,-144.36267,-44.11718
527043407000.0,-7.572546500122674,5.876972681128604,-4.256775254804744,-0.48288897,0.3830125,-0.19211712,196.01262,-144.27264,-44.08643
527048457000.0,-7.639848585293816,5.755792481283971,-4.205440020110759,-0.48441613,0.3594942,-0.16707164,195.91661,-144.1686,-44.05002
527053414000.0,-7.698269811814173,5.600002069428777,-4.17622910183571,-0.4783075,0.32986724,-0.13775012,195.83586,-144.0641,-44.01855
527058336000.0,-7.777206149742346,5.431439940436496,-4.135226621188239,-0.4615087,0.28985557,-0.12308934,195.7565,-143.9741,-44.014694
527063331000.0,-7.86904066565626,5.2526043546529255,-4.086892665444074,-0.4370741,0.2452624,-0.10415252,195.69533,-143.88152,-44.01025
527068325000.0,-7.942754534335504,5.052994510379165,-4.040222108492914,-0.40408736,0.20830505,-0.094989546,195.6212,-143.82214,-44.037746
527073324000.0,-8.00692946009192,4.84213416311758,-3.9943829920528535,-0.3830125,0.16340645,-0.09896017,195.565,-143.76584,-44.073124
527078356000.0,-8.037666759013282,4.657417476470588,-3.9580197335863376,-0.35430184,0.13897185,-0.106901415,195.4899,-143.74799,-44.145016
527083332000.0,-8.042425838609807,4.49560350247678,-3.929464361490063,-0.32375857,0.105068825,-0.11148291,195.43204,-143.73523,-44.22541
527088324000.0,-8.050022732861972,4.358421589486627,-3.872871849677221,-0.2968805,0.053450707,-0.1142318,195.35481,-143.76532,-44.349556
527093314000.0,-8.059816355671687,4.2408975533148885,-3.7945223558766266,-0.26389378,0.007330383,-0.11636983,195.28601,-143.80215,-44.477783
527098307000.0,-8.05051299981856,4.207799600181438,-3.705789744243854,-0.24312437,-0.03726278,-0.12308934,195.21262,-143.86496,-44.63413
527103388000.0,-8.028441095255374,4.229871504744625,-3.608673271976776,-0.22510384,-0.095294975,-0.1337795,195.15755,-143.93346,-44.79941
527108356000.0,-7.994945822408132,4.305049111013449,-3.5196493158530124,-0.20525073,-0.14966199,-0.13072516,195.10788,-144.01685,-44.98681
527113355000.0,-7.944247502806311,4.457144016880228,-3.4385320044900984,-0.19883664,-0.20677789,-0.12705997,195.0759,-144.10301,-45.18359
527118348000.0,-7.891798014937759,4.619196206450396,-3.3621383053187475,-0.18692477,-0.25228736,-0.11484267,195.07364,-144.18025,-45.384354
527123375000.0,-7.837317641701245,4.791717878234628,-3.2894975864390794,-0.17440203,-0.3051272,-0.09254608,195.09517,-144.25494,-45.588913
527128315000.0,-7.79373487755102,4.975181486981,-3.2370684514426458,-0.18142697,-0.3717115,-0.0842994,195.16476,-144.30028,-45.78345
527133351000.0,-7.764643535276968,5.183670317502765,-3.212825632462049,-0.18509217,-0.39370266,-0.07147124,195.2411,-144.34166,-45.969604
527138349000.0,-7.751608840848056,5.361157352508834,-3.206597243907117,-0.20861048,-0.43157628,-0.06627888,195.36812,-144.34555,-46.141228
527143955000.0,-7.762449220494699,5.51292425229682,-3.2282781729934378,-0.21563543,-0.46700647,-0.04917465,195.50423,-144.34662,-46.30668
527148329000.0,-7.800731204281883,5.59821425669102,-3.2878718753352447,-0.23487769,-0.5027421,-0.02443461,195.67992,-144.30638,-46.44412
527153433000.0,-7.8820998586053825,5.656980635531305,-3.40992502202904,-0.2574797,-0.52015173,-0.007330383,195.85918,-144.26534,-46.578815
527158383000.0,-7.956595232494923,5.682827148882987,-3.513981842743321,-0.2938262,-0.54275376,0.015577064,196.06456,-144.19617,-46.69161
527163409000.0,-8.020511764114982,5.626430105296048,-3.58165837356663,-0.32559118,-0.5626069,0.03481932,196.2727,-144.12502,-46.80052
527168339000.0,-8.083207446742698,5.571110283393219,-3.648042236869239,-0.344528,-0.56138515,0.042760566,196.46634,-144.05704,-46.898598
527173479000.0,-8.133327410524435,5.48244429032431,-3.699266410524435,-0.36896262,-0.5665775,0.055283304,196.66925,-143.98187,-46.992195
527178401000.0,-8.175440346823908,5.385584448887697,-3.741379346823908,-0.37568212,-0.56046885,0.064751714,196.86348,-143.90881,-47.080383
527183477000.0,-8.21341697348987,5.280552621870858,-3.774878532455975,-0.39187005,-0.56382865,0.08155051,197.0413,-143.8518,-47.17714
527188450000.0,-8.244981068736982,5.1723334182919904,-3.797424274417724,-0.3921755,-0.5439755,0.081855945,197.20247,-143.80052,-47.269188
527193461000.0,-8.263054451055297,5.064659186944896,-3.8167577384777,-0.37720928,-0.5381723,0.07238753,197.34805,-143.77225,-47.37657
527198431000.0,-8.258508783019769,4.960110958026932,-3.830394457797727,-0.36713,-0.5384777,0.06658431,197.4858,-143.74435,-47.47882
527203462000.0,-8.251199767446996,4.861129782059776,-3.8152542448616016,-0.34605515,-0.54092115,0.060170226,197.60503,-143.74042,-47.59648
527208472000.0,-8.237071523189046,4.779891916556243,-3.7269521834658415,-0.3371976,-0.5510005,0.035430185,197.71928,-143.74387,-47.71894
527214314000.0,-8.220597031581272,4.685163052230565,-3.6239859873233216,-0.2959642,-0.5540548,0.01038471,197.81148,-143.77205,-47.852142
527218409000.0,-8.212129492216855,4.6352824514224364,-3.603264604079442,-0.2874121,-0.5693264,-0.023823744,197.90274,-143.80702,-47.99437
527223421000.0,-8.203541207371623,4.583753639112542,-3.607558656825908,-0.26175576,-0.57787853,-0.0729984,197.98227,-143.85933,-48.14359
527228388000.0,-8.203674459615685,4.552540088150288,-3.609270508076863,-0.24953845,-0.5925393,-0.102319926,198.0697,-143.92389,-48.316315
527233497000.0,-8.22278392344946,4.564005806358382,-3.605448615310108,-0.22937989,-0.5873469,-0.13591751,198.14009,-144.00595,-48.4978
527238388000.0,-8.241077990314015,4.574982284682081,-3.6017898019371977,-0.22388211,-0.5858198,-0.14966199,198.21304,-144.09471,-48.685955
527243409000.0,-8.251868169178083,4.593308597260274,-3.58528423760274,-0.21899518,-0.5861252,-0.17806722,198.27327,-144.19751,-48.882397
527248530000.0,-8.260266083047945,4.614302943493151,-3.5642898036815067,-0.204029,-0.5839872,-0.19120082,198.3306,-144.30052,-49.074394
527253455000.0,-8.259178833228447,4.633070958149779,-3.5268383013215856,-0.20311269,-0.57451874,-0.1872302,198.38374,-144.40399,-49.266064
527258429000.0,-8.246330861098624,4.65020136406545,-3.466882350157332,-0.1908954,-0.57543504,-0.19822577,198.43298,-144.51637,-49.46232
527263381000.0,-8.229363232069783,4.669256849271305,-3.396843643585325,-0.17989981,-0.569021,-0.19333886,198.48479,-144.61697,-49.64644
527268409000.0,-8.194793701593797,4.696912654138847,-3.2827635613109343,-0.18784106,-0.56107974,-0.18387043,198.53357,-144.71732,-49.828568
527273436000.0,-8.160231046521645,4.724562958647427,-3.168706167994831,-0.18600847,-0.5564982,-0.15974127,198.59163,-144.80766,-50.001904
527278445000.0,-8.108543527672955,4.730600133647799,-3.0751112120676103,-0.19730948,-0.5342017,-0.14172074,198.63852,-144.89394,-50.167797
527284287000.0,-8.0205755,4.703110125,-2.998139015625,-0.20708331,-0.5161811,-0.11728613,198.68965,-144.9714,-50.322685
527288410000.0,-7.947508079289531,4.665670450277063,-2.967012355046507,-0.21594086,-0.49663344,-0.089186326,198.7656,-145.02391,-50.464302
527293410000.0,-7.843268172303582,4.594597572778548,-2.962274229180685,-0.21105394,-0.48563787,-0.067500606,198.83917,-145.07187,-50.597435
527298448000.0,-7.753520583950023,4.515314684629642,-2.9628406248850143,-0.21838433,-0.4728097,-0.04520403,198.92325,-145.10323,-50.716362
527303419000.0,-7.691426798173954,4.42380829003913,-2.9726448960733163,-0.21563543,-0.47342056,-0.030543262,199.00876,-145.13257,-50.829803
527308507000.0,-7.627871541278232,4.3301481541154665,-2.9826799256058214,-0.20433442,-0.49480084,-0.029321533,199.1058,-145.15668,-50.936382
527313474000.0,-7.589956260558659,4.2251911175419,-3.014671783128492,-0.19303341,-0.52503866,-0.04062254,199.20483,-145.18098,-51.041756
527318413000.0,-7.580347359553072,4.105079553966481,-3.072325289497207,-0.17928895,-0.56382865,-0.054367006,199.31363,-145.20738,-51.1492
527323432000.0,-7.657539017823963,4.001852327052508,-3.1471927982244856,-0.14202617,-0.61178154,-0.0842994,199.42737,-145.25519,-51.273945
527328477000.0,-7.830436941573188,3.9187283920170666,-3.2402916401830573,-0.10629055,-0.6618725,-0.11759156,199.55257,-145.30872,-51.405754
527333473000.0,-8.001655579244373,3.836411805409125,-3.3324862515656184,-0.061086524,-0.68203104,-0.12767084,199.6768,-145.38316,-51.55113
527338476000.0,-8.156601919753086,3.83811230617284,-3.390485180246914,-0.034208454,-0.73273283,-0.13439035,199.8269,-145.46637,-51.71076
527343470000.0,-8.299453489844684,3.9000144377538826,-3.423817097252091,-0.01863139,-0.7651087,-0.15393804,199.97115,-145.55765,-51.873516
527348430000.0,-8.39908195521325,3.984284157385807,-3.423625285798237,0.015882496,-0.75441855,-0.17440203,200.07951,-145.69907,-52.07609
527354065000.0,-8.475962501469148,4.099604826248775,-3.3947951687561213,0.05375614,-0.7180721,-0.18295415,200.18701,-145.84192,-52.27748
527358397000.0,-8.505980533681463,4.206263449608356,-3.354087865639687,0.09101892,-0.6826419,-0.17562376,200.29404,-145.99025,-52.481247
527363469000.0,-8.480615766266318,4.368598172950392,-3.2678474975143605,0.100792766,-0.6160576,-0.15363261,200.37117,-146.13489,-52.671535
527368360000.0,-8.436389173160173,4.490747437928738,-3.178979964135864,0.10751228,-0.54367006,-0.13072516,200.44878,-146.26645,-52.84541
527373433000.0,-8.359542007575758,4.563549253438229,-3.0778662305944056,0.12095132,-0.49205196,-0.096516706,200.51114,-146.38751,-53.001648
527378553000.0,-8.281002545469969,4.636012720113675,-2.9751380336868,0.118202426,-0.42241332,-0.06719518,200.57343,-146.46918,-53.11725
527383495000.0,-8.168583364947404,4.668132659662368,-2.850673713378012,0.12736541,-0.39522982,-0.03604105,200.63695,-146.54123,-53.219776
527388344000.0,-8.058279721411605,4.699648156803528,-2.7285515990159483,0.13408493,-0.3631594,0.00030543262,200.71185,-146.57755,-53.287403
527393410000.0,-7.84732108153699,4.726438256855867,-2.586286034390944,0.14660765,-0.34300083,0.028405234,200.78261,-146.60797,-53.34574
527398467000.0,-7.580925787707271,4.749603138632016,-2.435714625358737,0.15241088,-0.3643811,0.061086524,200.86366,-146.62656,-53.39307
527403446000.0,-7.326781778800095,4.77656260374674,-2.3132336125444626,0.15271631,-0.39461896,0.086437434,200.98859,-146.6145,-53.41945
527408468000.0,-7.121492454066872,4.829785641451269,-2.3512502438463363,0.1469131,-0.43279803,0.10293079,201.1281,-146.59631,-53.44209
527413407000.0,-6.919596003477986,4.8821290471109,-2.3886385636392378,0.13439035,-0.49388456,0.12095132,201.34264,-146.52539,-53.427673
527418416000.0,-6.786151047174887,4.926585055757847,-2.470974265659193,0.13652839,-0.54428095,0.1459968,201.56853,-146.45047,-53.40989
527423815000.0,-6.693406395695067,4.968320197345292,-2.5915423610044845,0.108123146,-0.61911196,0.16493362,201.82893,-146.37085,-53.39783
527428398000.0,-6.646304,4.991301326293409,-2.720607226080794,0.10140363,-0.6646214,0.15241088,202.11574,-146.25732,-53.343758
527433461000.0,-6.646304,4.996210390999291,-2.9071536840639878,0.09773844,-0.7473936,0.14935656,202.44987,-146.13678,-53.293987
527438451000.0,-6.679150561012107,4.999093,-3.0561099006529724,0.105374254,-0.8200866,0.13713925,202.79169,-146.00778,-53.226994
527443433000.0,-6.760281729560604,4.999093,-3.1534673706842606,0.093767814,-0.872621,0.12339478,203.15224,-145.88095,-53.167522
527448436000.0,-6.84175488015236,4.999093,-3.251235219453136,0.090713486,-0.9074403,0.10751228,203.51227,-145.76389,-53.106804
527453436000.0,-6.983089187864175,5.003518709262608,-3.3305523631504923,0.10903945,-0.9129381,0.10354166,203.87416,-145.65,-53.04846
527458479000.0,-7.196572945428973,5.01322255787623,-3.3887752521800283,0.106595986,-0.8912524,0.093462385,204.22762,-145.54231,-52.996185
527463451000.0,-7.620521151570013,5.071549041188119,-3.3762781582178216,0.10629055,-0.8454375,0.06505715,204.54858,-145.45638,-52.953552
527468417000.0,-8.27974671747289,5.183662309438944,-3.286587609174917,0.10262536,-0.77854776,0.04550946,204.84335,-145.37177,-52.90673
527473396000.0,-8.79585505507014,5.282477601923848,-3.190820840232465,0.09743301,-0.6954701,0.022907447,205.08965,-145.32042,-52.88553
527478450000.0,-9.036406008817634,5.356194698997996,-3.082184917795592,0.081855945,-0.6209445,0.0033597588,205.30228,-145.27345,-52.86287
527483477000.0,-9.275671866452903,5.429517976993988,-2.974129361386774,0.06352998,-0.5626069,-0.022602014,205.48804,-145.29112,-52.91829
527488477000.0,-9.490718952329573,5.508405346934772,-2.841904071839137,0.04886922,-0.51343226,-0.045814894,205.63853,-145.3121,-52.970505
527493450000.0,-9.70093466208926,5.587820181461501,-2.7064319911231,0.030543262,-0.49846604,-0.056199603,205.77342,-145.33463,-53.022537
527498434000.0,-9.798294699824313,5.61873250999749,-2.593483143888564,0.02076942,-0.49632803,-0.08735373,205.9032,-145.38655,-53.11384
527503539000.0,-9.87191723056973,5.639183260436711,-2.483048963389944,0.008246681,-0.52503866,-0.10781772,206.03783,-145.43582,-53.20419
527508446000.0,-9.91971882944855,5.621351488345651,-2.3958985154633314,0.0009162979,-0.55771995,-0.12980886,206.19568,-145.50024,-53.322453
527513455000.0,-9.93789959152928,5.5531732745878335,-2.332265421034679,-0.03145956,-0.6206391,-0.16493362,206.37233,-145.57007,-53.45178
527518401000.0,-9.94747308413833,5.478373955177744,-2.278955199082303,-0.04520403,-0.6805039,-0.2049453,206.57387,-145.65321,-53.60307
527523422000.0,-9.938183361089644,5.385473814528593,-2.246440198357805,-0.081855945,-0.76144356,-0.2284636,206.8076,-145.73636,-53.762386
527528397000.0,-9.931149,5.302357368501827,-2.242799517052376,-0.11301007,-0.8136725,-0.2593123,207.06282,-145.84279,-53.95034
527533490000.0,-9.931149,5.246909093804304,-2.3338930846122614,-0.11728613,-0.88789266,-0.28099802,207.3596,-145.95065,-54.14537
527538354000.0,-9.931149,5.193953977344702,-2.420890750548112,-0.1469131,-0.94806284,-0.3203988,207.6696,-146.07857,-54.365593
527543471000.0,-9.93406465990398,5.11107086413195,-2.5703855751122813,-0.16432275,-0.98440933,-0.34605515,207.99802,-146.20705,-54.58566
527548435000.0,-9.937745569304631,5.022721466052347,-2.732359272990553,-0.16493362,-1.0238101,-0.38056904,208.34547,-146.3461,-54.81729
527553405000.0,-9.93548661667898,4.947467264138554,-2.864962002158746,-0.16035213,-1.0381655,-0.42332962,208.67874,-146.50107,-55.057053
527558489000.0,-9.90751188894361,4.92748513691209,-2.872954894779611,-0.15515977,-1.0381655,-0.44715336,209.01814,-146.65764,-55.296146
527563345000.0,-9.880791732003612,4.908399139702865,-2.880589333522121,-0.15485434,-1.03786,-0.47800204,209.32268,-146.84308,-55.551662
527568503000.0,-9.811406909986385,4.894427741242892,-2.861858533434772,-0.15149458,-1.0354166,-0.49449542,209.62218,-147.0279,-55.802914
527573535000.0,-9.73036257459758,4.8828500308560905,-2.8348436206454712,-0.13958271,-1.044885,-0.5158757,209.9202,-147.2194,-56.058216
527578391000.0,-9.649205955213436,4.871408018124563,-2.7996476017144856,-0.13041973,-1.0580186,-0.5323691,210.21889,-147.40948,-56.30925
527583435000.0,-9.556245811756474,4.858731658992302,-2.7362658501749477,-0.12705997,-1.073901,-0.5369505,210.51999,-147.59866,-56.55726
527588807000.0,-9.451752320565705,4.845331003329404,-2.6674849437536827,-0.12889257,-1.1010846,-0.54611355,210.8457,-147.78214,-56.799614
527593411000.0,-9.266629875662936,4.835587757807896,-2.586290914555097,-0.13622294,-1.1246029,-0.54641896,211.17528,-147.9607,-57.035305
527598416000.0,-9.065383603565117,4.82499589337802,-2.498025033551856,-0.13530666,-1.1450669,-0.5332854,211.53899,-148.12616,-57.2593
527603449000.0,-8.889634608003858,4.820176955271617,-2.4233801024108006,-0.1386664,-1.1771374,-0.52015173,211.9172,-148.28802,-57.479366
527609316000.0,-8.772239445756991,4.833722492888139,-2.382743348119576,-0.13347405,-1.1881329,-0.5177083,212.2916,-148.44647,-57.692715
527613401000.0,-8.690501038090646,4.8431538072163285,-2.354449306653809,-0.13652839,-1.210124,-0.5045747,212.7232,-148.5701,-57.87452
527618409000.0,-8.601052489915897,4.830873914109578,-2.3043446568955663,-0.13652839,-1.2186762,-0.49388456,213.14816,-148.69183,-58.050705
527623418000.0,-8.514881084592146,4.811289448036254,-2.2495080700906347,-0.12492194,-1.2379184,-0.48258355,213.5862,-148.80785,-58.21948
527628401000.0,-8.434048235054584,4.795359997244844,-2.2030713403569573,-0.12492194,-1.2461652,-0.47739118,214.04463,-148.90324,-58.366333
527633478000.0,-8.362434031363716,4.786934869260094,-2.173583392410328,-0.13225232,-1.2507466,-0.46395215,214.50638,-148.99168,-58.5036
527638702000.0,-8.287073493441415,4.774533011525423,-2.1440121108327195,-0.12889257,-1.2449434,-0.441961,214.99277,-149.067,-58.626564
527643411000.0,-8.197344660943257,4.714713546949152,-2.1273956218128225,-0.12736541,-1.2412782,-0.44409904,215.4739,-149.1439,-58.748283
527648424000.0,-8.101823183493,4.65103230338983,-2.109706418275608,-0.12492194,-1.2525792,-0.4364632,215.9796,-149.20381,-58.851307
527653395000.0,-8.0257760959607,4.605425659606986,-2.0830643109606988,-0.124005646,-1.2525792,-0.43066,216.4681,-149.26392,-58.95067
527658490000.0,-7.993814982969432,4.601874363027656,-2.033347122969432,-0.11636983,-1.244638,-0.42332962,216.95023,-149.32076,-59.04361
527663481000.0,-7.962506265611354,4.598395556113537,-1.9846447706113537,-0.113926366,-1.2449434,-0.4175264,217.4502,-149.3759,-59.13324
527668472000.0,-7.960379659027778,4.587562921354166,-1.923702835017361,-0.11148291,-1.2412782,-0.408058,217.93529,-149.42717,-59.215546
527673445000.0,-7.981050417013889,4.571026401302083,-1.8534222146961803,-0.10629055,-1.2351695,-0.40683624,218.41,-149.47835,-59.294888
527679083000.0,-8.01671480156146,4.5598987394583,-1.7549220411899653,-0.11789699,-1.2458596,-0.40622538,218.91183,-149.52094,-59.365204
527683491000.0,-8.063574715422185,4.5630227010952416,-1.648706138577666,-0.129198,-1.2473868,-0.39828414,219.39603,-149.56055,-59.429283
527688437000.0,-8.116153920039961,4.566527944801303,-1.5295264983053356,-0.1386664,-1.2568552,-0.3933972,219.91414,-149.60605,-59.4989
527693467000.0,-8.152827293594305,4.540962672004745,-1.4518347916963226,-0.14172074,-1.2611313,-0.38728857,220.4205,-149.64832,-59.56238
527698429000.0,-8.175375257295373,4.492108495587189,-1.4104966424199288,-0.14844026,-1.2666291,-0.37201694,220.9232,-149.68588,-59.618767
527703638000.0,-8.200137900096061,4.441007212391931,-1.3658955473583094,-0.15057829,-1.2718215,-0.35979962,221.4769,-149.72908,-59.680275
527708491000.0,-8.240724932145664,4.396361519517946,-1.3050149569033274,-0.15424347,-1.2825116,-0.34880406,222.02577,-149.76796,-59.734455
527713342000.0,-8.281295237621169,4.351734225858004,-1.2441594563269585,-0.15241088,-1.287704,-0.3371976,222.60092,-149.81554,-59.79491
527718476000.0,-8.375096625821415,4.251272321762659,-1.111615924845767,-0.14569137,-1.2922854,-0.32253686,223.17017,-149.8588,-59.847836
527723424000.0,-8.484998839969077,4.1340435483571705,-0.9577532305187476,-0.13744467,-1.2999213,-0.30848694,223.73233,-149.89868,-59.894257
527728430000.0,-8.59197135163074,4.028649216988541,-0.8156393991441622,-0.11453723,-1.2962561,-0.30634892,224.31206,-149.95192,-59.95119
527733489000.0,-8.67350277778668,4.005354546966904,-0.7574026997660068,-0.105374254,-1.2852604,-0.30482176,224.87984,-29.999063,-60.000805
527738373000.0,-8.752213883804792,3.982865681897588,-0.7011805136100648,-0.08368854,-1.2724323,-0.30298916,225.49825,-29.907373,-60.08961
527743468000.0,-8.834029080717132,3.986778854501992,-0.640260299689243,-0.070249505,-1.2498302,-0.30848694,226.09332,-29.815176,-60.175472
527748879000.0,-8.920740032350597,4.007424298645419,-0.574194835314741,-0.042455133,-1.1936307,-0.3023783,226.65005,-29.728172,-60.25354
