timestamp,acc_x,acc_y,acc_z,gyro_x,gyro_y,gyro_z,ori_azimuth,ori_pitch,ori_roll
556019858000.0,-3.026563801858736,9.280219033743208,-0.9595620758936232,-5.989839,-1.8854356,3.5231652,257.81982,-20.37772,-64.17365
556023745000.0,-3.012370712763321,9.266025611190544,-0.9844000837003146,-5.989839,0.75716746,0.03481932,257.73694,-19.422287,-65.44164
556028875000.0,-2.993638902354399,9.247293360690117,-1.017180886388333,-1.1890492,0.7657196,0.037873644,256.4367,-20.948893,-63.980648
556033800000.0,-2.977290314251818,9.228751288557214,-1.0537412774588597,-1.1887437,0.75808376,0.03634648,255.11964,-21.125479,-63.78035
556038837000.0,-2.9699059527363185,9.206598512437813,-1.1202005696517412,-1.1936307,0.7641924,0.03604105,253.81685,-21.678593,-63.56427
556043761000.0,-2.9626872519020284,9.184942711442789,-1.185168914848833,-1.196685,0.7535023,0.03573562,252.55885,-22.236685,-63.313732
556048796000.0,-2.9614355299828325,9.18779433390558,-1.2360747998025752,-1.1902709,0.73639804,0.035124753,251.33618,-22.788683,-63.049015
556053725000.0,-2.9654873372188844,9.212105092703863,-1.2725414880171677,-1.1643091,0.72143185,0.035124753,250.15344,-23.335957,-62.769653
556058702000.0,-2.9790626881440616,9.23670130394504,-1.3061740431560322,-1.1450669,0.7156286,0.028405234,249.00409,-23.88982,-62.463818
556063728000.0,-3.0341749989590925,9.261752306755492,-1.3262148454043927,-1.1307116,0.7626653,0.0580322,247.86139,-24.44957,-62.142258
556068706000.0,-3.0869357092449223,9.286896434921214,-1.340753,-1.5008959,0.78893244,0.056505036,246.78122,-24.98945,-61.791733
556073701000.0,-3.1348633689133805,9.313039315875765,-1.340753,-1.2504412,0.79290307,0.052534413,245.72104,-25.573805,-61.427254
556078803000.0,-3.185390159689544,9.338649201015327,-1.340753,-1.255328,0.79229224,0.064446285,244.69913,-26.134647,-61.02599
556083710000.0,-3.249620169237528,9.352412801864688,-1.340753,-1.2534955,0.7831292,0.064751714,243.72598,-26.701538,-60.62095
556089022000.0,-3.318604222342065,9.367793822033898,-1.3415911544530048,-1.2571607,0.7849618,0.07971791,242.81894,-27.297522,-60.159966
556093692000.0,-3.3737334883923986,9.386170403954802,-1.3507793734565998,-1.2541064,0.7663304,0.08093964,241.97392,-27.88234,-59.695843
556098704000.0,-3.431611681757935,9.40317903753924,-1.3595951118242064,-1.2589933,0.75869465,0.087659165,241.20427,-28.495098,-59.176723
556103789000.0,-3.4740759545169166,9.386193195413323,-1.3553486845483085,-1.2586879,0.7165449,0.09682214,240.50311,-29.099848,-58.651646
556110122000.0,-3.52484965657024,9.364362908914728,-1.3485752302892795,-1.2098186,0.6258314,0.09682214,239.94739,-29.747799,-58.044155
556113931000.0,-3.53174661841558,9.34367177131783,-1.3278843447532616,-1.0528263,0.5946773,0.09101892,239.41937,-30.390898,-57.44342
556118770000.0,-3.5405086027604464,9.317385498062016,-1.301598391718661,-0.9810496,0.5323691,0.082161374,239.08716,-31.078232,-56.741478
556123761000.0,-3.5371023034885987,9.305497885792242,-1.273920677489768,-0.8405506,0.4718934,0.07391469,238.79877,-31.762465,-56.04947
556128811000.0,-3.527676686649776,9.300784978951471,-1.2456437777626193,-0.71593404,0.42058071,0.06536258,238.56288,-32.43258,-55.36643
556133715000.0,-3.4798866495129057,9.29020348729537,-1.2206153728733553,-0.6010914,0.20158553,0.013744468,238.62543,-33.170555,-54.53925
556138770000.0,-3.4069570166415586,9.275617753640654,-1.1963054783268052,-0.18142697,0.07880162,-0.022602014,238.67517,-33.919376,-53.73294
556143767000.0,-3.36877004817198,9.26738822521205,-1.184563387042995,0.039095376,0.10140363,-0.014049901,238.74716,-34.660465,-52.91931
556148766000.0,-3.3501000966461927,9.262720639855708,-1.1798958991615482,-0.017715093,0.106901415,-0.016798794,238.89635,-35.382374,-52.12035
556153818000.0,-3.32468160136547,9.269583880624806,-1.1720726004551567,-0.05100725,0.09712757,-0.009162978,239.0499,-36.14422,-51.288315
556159234000.0,-3.292488644129513,9.285680051101686,-1.1613416147098377,-0.054367006,0.08582657,-0.0067195175,239.20862,-36.887077,-50.47342
556163780000.0,-3.303448551335783,9.2646969905651,-1.168095559479591,-0.04734206,0.07238753,-0.005192355,239.39731,-37.652992,-49.61559
556168801000.0,-3.3321020604330123,9.226492710696196,-1.182422289095243,-0.05497787,0.06261369,-0.00061086525,239.59122,-38.403187,-48.771065
556173778000.0,-3.377387884209596,9.1939974652293,-1.1983186268887516,-0.050701816,0.04337143,-0.0061086523,239.84201,-39.19447,-47.855354
556178848000.0,-3.43316294659362,9.163964536007777,-1.215480198329946,-0.044593163,0.040011674,-0.0012217305,240.08716,-39.970963,-46.954403
556183777000.0,-3.48558621197065,9.12894608375262,-1.2371005840356395,-0.040317107,0.02321288,-0.005497787,240.39227,-40.779896,-45.98463
556188825000.0,-3.5362610414884696,9.083338938259958,-1.2675053653354298,-0.035430185,0.026267206,-0.01282817,240.68582,-41.568653,-45.037086
556193795000.0,-3.5625722,9.04070182219101,-1.3106746757022472,-0.039095376,0.019547688,-0.009162978,241.05118,-42.411118,-43.98342
556198801000.0,-3.5625722,9.0003018085206,-1.3690304332865169,-0.035430185,0.021380283,-0.01740966,241.40451,-43.22324,-42.962402
556203812000.0,-3.5637105590524536,8.968914587563452,-1.4146206662013536,-0.025961773,0.03359759,-0.0125227375,241.7262,-43.994045,-41.996334
556208852000.0,-3.567113482910321,8.95530296319797,-1.4350382448815566,-0.02321288,0.040927973,-0.017104227,242.0455,-44.737263,-41.05784
556213860000.0,-3.5704948009024253,8.941777761844332,-1.455326188141568,-0.02443461,0.047036625,-0.017715093,242.33844,-45.459755,-40.150455
556218855000.0,-3.569687582508584,8.962236386790547,-1.4603285907190466,-0.0290161,0.048258353,-0.028405234,242.62962,-46.157887,-39.268715
556223861000.0,-3.564845988810341,9.015493513027671,-1.4506454538780045,-0.029321533,0.05131268,-0.02687807,242.9143,-46.839695,-38.405678
556229175000.0,-3.570668079714693,9.07828599743224,-1.4272074576414646,-0.019547688,0.036651913,-0.016798794,243.20883,-47.510277,-37.549183
556233867000.0,-3.58348814978602,9.13811334807418,-1.397293871564432,-0.0290161,0.018936822,-0.011301007,243.50206,-48.158688,-36.714245
556238922000.0,-3.6065163646815552,9.178927653742765,-1.359499568103805,-0.025961773,0.004886922,-0.0070249503,243.79909,-48.804535,-35.881245
556243862000.0,-3.640755999090157,9.18871009997932,-1.3154772320822994,-0.019242255,-0.016798794,-0.013133603,244.10411,-49.430172,-35.06724
556248845000.0,-3.654175041251778,9.189568971728306,-1.28870381950569,-0.0067195175,-0.04428773,-0.004886922,244.39838,-50.03733,-34.283432
556253822000.0,-3.645699981934566,9.181094177898292,-1.2802287159406118,0.003970624,-0.06291912,0.0009162979,244.69801,-50.62683,-33.51939
556258834000.0,-3.643195296676364,9.173578804901702,-1.2646957324781805,0.022296581,-0.08124508,-0.00030543262,245.00464,-51.192413,-32.785423
556263879000.0,-3.660233101842546,9.169319264656616,-1.2263606708542714,0.03634648,-0.10934488,0.0018325958,245.31943,-51.746956,-32.06342
556269172000.0,-3.678171737611824,9.165139590353949,-1.1853546968105797,0.053145275,-0.13836098,0.008857546,245.6516,-52.296116,-31.34238
556274797000.0,-3.699124479735512,9.16933022629327,-1.1183058345001946,0.07147124,-0.172264,0.0067195175,245.99487,-52.832413,-30.637123
556278808000.0,-3.714065181719176,9.172318429093735,-1.070495525748736,0.07513642,-0.18448131,0.010995574,246.33148,-53.347343,-29.962427
556283814000.0,-3.7253778,9.161266714948557,-1.0323930706273956,0.07941248,-0.20708331,0.019547688,246.68182,-53.854195,-29.298159
556288878000.0,-3.7253778,9.127024185999597,-1.027501309965705,0.092240654,-0.21380283,0.014966198,247.03261,-54.3499,-28.652138
556293853000.0,-3.729466661086757,9.109587473238864,-1.0206294389132429,0.105374254,-0.22602014,0.020158553,247.3833,-54.829037,-28.025877
556298856000.0,-3.739235797675604,9.114472143541644,-1.010860302324396,0.1133155,-0.22510384,0.0143553335,247.7346,-55.2961,-27.418829
556303808000.0,-3.7445314,9.10977592879151,-1.0085023284833965,0.11759156,-0.2321288,0.009162978,248.09253,-55.747395,-26.83589
556308847000.0,-3.7445314,9.093255047175624,-1.01511068112975,0.112399206,-0.23243423,0.016187929,248.44832,-56.191593,-26.265203
556313820000.0,-3.7445314,9.076950553372132,-1.0216324786511468,0.115453534,-0.23487769,0.0106901415,248.80688,-56.626305,-25.710516
556318851000.0,-3.754819904823989,9.066663820078228,-1.0247183,0.11301007,-0.22327125,0.0067195175,249.1615,-57.053406,-25.16786
556323864000.0,-3.774079156012436,9.061848906729516,-1.0247183,0.095294975,-0.21685717,-0.00030543262,249.52057,-57.469055,-24.639214
556328819000.0,-3.77540952121798,9.059659,-1.0197655808119863,0.098043874,-0.20341812,-0.00030543262,249.86304,-57.877377,-24.137403
556333821000.0,-3.76151783820203,9.059659,-1.0105044588013534,0.08582657,-0.18081611,-0.006414085,250.20425,-58.270664,-23.651901
556338870000.0,-3.75181995506272,9.059659,-1.0032764550627196,0.087659165,-0.1685988,-0.008552114,250.5333,-58.657524,-23.189882
556344827000.0,-3.7460950180230808,9.059659,-0.9975515180230808,0.095294975,-0.14721853,-0.018936822,250.85704,-59.034737,-22.745146
556348862000.0,-3.733545817682927,9.06625025762195,-0.976213842652439,0.103847094,-0.13927728,-0.01985312,251.1982,-59.412846,-22.2918
556353815000.0,-3.710949642759146,9.079807773818596,-0.935540708913872,0.11178834,-0.12950343,-0.024740042,251.53607,-59.78385,-21.855276
556358779000.0,-3.680469356959453,9.096478021520271,-0.901707628343955,0.11301007,-0.12522738,-0.028710667,251.86742,-60.152046,-21.428566
556363837000.0,-3.6357298590375913,9.118847770481205,-0.8793378513530987,0.13133603,-0.113926366,-0.038789943,252.1973,-60.51784,-21.01648
556368786000.0,-3.590534489999108,9.135410997680436,-0.8593263770006245,0.13469578,-0.10354166,-0.038179077,252.52066,-60.874348,-20.6174
556373866000.0,-3.5384510977250425,9.13107108511018,-0.8463055515924703,0.12950343,-0.10262536,-0.048258353,252.84799,-61.223946,-20.233294
556379294000.0,-3.474595631208459,9.130484306646526,-0.8354100368126888,0.12614368,-0.09773844,-0.05681047,253.17725,-61.57361,-19.851727
556383863000.0,-3.306047464297583,9.186666787386708,-0.8684586939463746,0.11942416,-0.0852157,-0.061391957,253.50665,-61.915955,-19.48181
556388901000.0,-3.1201981176359515,9.248616303247736,-0.9048997389539276,0.11789699,-0.06414085,-0.06780604,253.85541,-62.26112,-19.096737
556393764000.0,-2.953802542289576,9.313633449928323,-0.9455404997747286,0.100792766,-0.058337633,-0.08002335,254.20709,-62.595074,-18.724274
556398818000.0,-2.8100758594101984,9.392931465492524,-1.000057484405079,0.093767814,-0.03848451,-0.07666359,254.54897,-62.928207,-18.362644
556403812000.0,-2.691453843944539,9.461227093378607,-1.0392271377758913,0.076052725,-0.011911872,-0.086437434,254.92181,-63.292057,-17.941765
556408979000.0,-2.6109418882640067,9.51373486672326,-1.0532292472198643,0.0693332,0.020158553,-0.08460484,255.28613,-63.65353,-17.53212
556413833000.0,-2.5353070841468592,9.56306189049236,-1.0663831545628184,0.057726767,0.040317107,-0.08002335,255.68768,-64.03661,-17.074392
556418819000.0,-2.4557836790530416,9.6301466865448,-1.046859521456398,0.047647487,0.064751714,-0.05589417,256.07584,-64.41504,-16.62995
556423791000.0,-2.3749257281989813,9.71100438907202,-0.999295942073719,0.046731193,0.06536258,-0.04428773,256.46487,-64.78421,-16.202196
556428808000.0,-2.350227007316215,9.767170483907844,-0.8105067590837144,0.059253927,0.076358154,-0.021380283,256.88263,-65.17973,-15.721347
556434007000.0,-2.376496678367921,9.802196986282096,-0.4865139208582483,0.059253927,0.06811147,0.009468411,257.30096,-65.5669,-15.251961
556438794000.0,-2.384013510475401,9.823539896259444,-0.3643730704072231,0.06994407,0.047647487,0.027794369,257.72144,-65.962364,-14.772647
556443802000.0,-2.3442450350746267,9.814702303482589,-0.7399631965174129,0.08032878,0.007941248,0.058948494,258.14246,-66.35614,-14.29792
556448764000.0,-2.3250913439306355,9.800465484624278,-1.0450721172786126,0.0852157,-0.022907447,0.08277224,258.51657,-66.689995,-13.889223
556453798000.0,-2.5405950410404623,9.722438290635838,-0.5769090736208092,0.08460484,-0.052839845,0.09682214,258.8972,-67.0215,-13.48539
556458788000.0,-2.754215114258189,9.645093098342969,-0.1128380390851638,0.09254608,-0.07147124,0.1020145,259.33868,-67.41732,-13.024868
556463750000.0,-2.887598448954373,9.605537,-0.1036698384125475,0.07452556,-0.10781772,0.09621128,259.78998,-67.79909,-12.577694
556468872000.0,-2.938888900798479,9.605537,-0.5885985430304183,0.0729984,-0.12644911,0.1020145,260.23682,-68.181435,-12.143685
556473718000.0,-3.0153407802615013,9.598643595060532,-0.7922147753220339,0.051618114,-0.12522738,0.10445796,260.5525,-68.42608,-11.878874
556478816000.0,-3.143012425995157,9.579729397869247,-0.5747002238644068,0.04520403,-0.129198,0.1001819,260.87445,-68.6709,-11.619179
556484565000.0,-3.301408347150871,9.53694736344848,-0.439368171789194,0.038179077,-0.09896017,0.09987647,261.2424,-68.97831,-11.329267
556488875000.0,-3.4354610224534987,9.482107798937111,-0.4546014354074402,0.005497787,-0.087964594,0.09010262,261.61774,-69.27271,-11.049982
556493787000.0,-3.5882375285060526,9.419608508709771,-0.471962407772365,-0.007941248,-0.05009095,0.07452556,261.93057,-69.52058,-10.842185
556498851000.0,-3.656008154322685,9.32481517315002,-0.7034278979094217,-0.013133603,-0.007941248,0.06383542,262.23987,-69.76,-10.642537
556503810000.0,-3.6675305201617463,9.213431982531338,-1.0606214996037202,-0.030543262,0.0290161,0.059864793,262.5411,-69.99011,-10.453333
556508856000.0,-3.675104328505596,9.110548940915075,-1.3754570787360103,-0.034513887,0.052839845,0.04550946,262.82727,-70.19937,-10.31645
556513799000.0,-3.659522326398947,9.067698353768929,-1.4144120840026333,-0.034208454,0.07513642,0.035430185,263.10425,-70.4045,-10.185997
556518727000.0,-3.643987609348256,9.024977800773534,-1.4532488766293614,-0.026572637,0.087659165,0.032070424,263.4343,-70.664566,-10.03671
556523796000.0,-3.6189017749122674,9.006703687821997,-1.4677870031359666,-0.022907447,0.09162979,0.018936822,263.76276,-70.91952,-9.898383
556528805000.0,-3.5902478863436125,8.999540066079295,-1.4713687392070485,-0.018936822,0.0888809,0.018936822,264.08936,-71.176575,-9.762147
556533955000.0,-3.5615942987727047,8.993109958271969,-1.472872405203731,0.0027488936,0.07819075,0.015271631,264.42456,-71.44207,-9.626521
556543795000.0,-3.530752798527246,9.008530949926362,-1.411189646244477,0.017104227,0.0852157,0.0143553335,264.7558,-71.705734,-9.495684
556548794000.0,-3.5085149700168445,9.027524923959252,-1.3757139663752305,0.044898596,0.092240654,0.0061086523,265.09418,-71.97889,-9.361907
556553804000.0,-3.481575178888265,9.054464875832196,-1.3372285906633512,0.05009095,0.07880162,0.010995574,265.43564,-72.25009,-9.228407
556558851000.0,-3.44936269793373,9.08343917200298,-1.286716800698064,0.06078109,0.07422013,0.014049901,265.7716,-72.522545,-9.100101
556563801000.0,-3.374354441232316,9.127561621742368,-1.136700333367461,0.06169739,0.062308256,0.011301007,266.11362,-72.7917,-8.9752
556568954000.0,-3.2962700883469847,9.173493537602385,-0.9805316755584512,0.069027774,0.06261369,0.018020526,266.44635,-73.06334,-8.845731
556573853000.0,-3.259402072777725,9.222732209262272,-0.9286826793608268,0.07238753,0.054367006,0.013133603,266.78592,-73.3298,-8.7235155
556578776000.0,-3.2233124458329345,9.272355069467038,-0.8790593952062004,0.06719518,0.04184427,0.016187929,267.12555,-73.595825,-8.601711
556583796000.0,-3.192266340696118,9.316412091566264,-0.8970301164524765,0.05955936,0.037873644,0.027183503,267.44144,-73.8405,-8.487368
556588775000.0,-3.162477879071843,9.358967544578311,-0.9268186447300312,0.04550946,0.01863139,0.027794369,267.76544,-74.079056,-8.377282
556593797000.0,-3.140265691805332,9.378320006888533,-0.9831682759572374,0.020158553,0.0033597588,0.028710667,268.0908,-74.30773,-8.263579
556598795000.0,-3.123137459062444,9.38260215449991,-1.0559633321837538,0.013439035,-0.013439035,0.026267206,268.4214,-74.53496,-8.153591
556603773000.0,-3.117606930449827,9.37155187802768,-1.1442047562283737,-0.004581489,-0.025961773,0.029321533,268.75482,-74.76238,-8.039497
556608949000.0,-3.1319003320645904,9.333435841887734,-1.2633165358515956,-0.0106901415,-0.04337143,0.04062254,269.0929,-74.98975,-7.9268036
556613751000.0,-3.1526992582253346,9.295711135137958,-1.3709577848035115,-0.016798794,-0.046731193,0.042455133,269.44443,-75.22685,-7.806099
556618800000.0,-3.193128355288461,9.250228447115385,-1.4770844086538462,-0.0106901415,-0.045814894,0.049785517,269.79706,-75.46565,-7.68489
556623853000.0,-3.235226043204698,9.217714261661074,-1.562452102885906,-0.005497787,-0.049480084,0.05009095,270.16742,-75.71484,-7.5682597
556628810000.0,-3.279034362416107,9.205766311409397,-1.6142254727516778,0.0021380284,-0.04886922,0.06047566,270.53348,-75.966194,-7.452207
556634271000.0,-3.3291760332618026,9.194135610604434,-1.669577217739628,0.019547688,-0.033292156,0.054061573,270.90784,-76.22907,-7.345404
556638779000.0,-3.3870786813304723,9.197995867757507,-1.7004586300429183,0.043066,-0.023518313,0.056505036,271.28076,-76.495316,-7.23804
556643725000.0,-3.4506071856223177,9.202231189824747,-1.7343404989985691,0.054061573,-0.021685716,0.05375614,271.65598,-76.76339,-7.145649
556648809000.0,-3.547426163710033,9.177512063859773,-1.7075050439267154,0.076052725,-0.022907447,0.047647487,272.02783,-77.03615,-7.058628
556653806000.0,-3.6528064807539855,9.143790566634369,-1.6611376991456002,0.0870483,-0.036651913,0.04734206,272.401,-77.30574,-6.974787
556658879000.0,-3.690340291044776,9.108543819029853,-1.61948086119403,0.10842858,-0.043676864,0.03726278,272.7794,-77.57795,-6.9071856
556663784000.0,-3.6596668369402985,9.073488168376866,-1.5844254850746269,0.12095132,-0.04917465,0.03573562,273.1592,-77.84785,-6.840896
556669587000.0,-3.60385431487543,9.060176870843325,-1.5509245500990303,0.129198,-0.05681047,0.02687807,273.51694,-78.09496,-6.811276
556673808000.0,-3.544860020765141,9.07703227030126,-1.5340690186385906,0.124311075,-0.05589417,0.018325957,273.87292,-78.337326,-6.784947
556678809000.0,-3.491335169589864,9.086667140046682,-1.5175461885961987,0.122783914,-0.052534413,0.014049901,274.2174,-78.5724,-6.762117
556683843000.0,-3.4591847119706567,9.082648668556184,-1.5054897669889964,0.1160644,-0.056505036,0.0067195175,274.56345,-78.79852,-6.7447987
556688932000.0,-3.4270901980554407,9.081063556061231,-1.493700479023583,0.09621128,-0.058337633,0.00061086525,274.9101,-79.01962,-6.718933
556693808000.0,-3.402940229458006,9.119703384774514,-1.4888704752172115,0.08857546,-0.048563786,0.00061086525,275.25336,-79.23703,-6.6965
556698782000.0,-3.378941287002528,9.159188120516902,-1.4831512902518962,0.06719518,-0.03634648,-0.00580322,275.58685,-79.44245,-6.675313
556703804000.0,-3.3609266078752693,9.199721054499484,-1.469640280906452,0.06536258,-0.03176499,-0.010079277,275.91833,-79.64619,-6.656182
556709154000.0,-3.341221529716981,9.242837698113208,-1.4556746,0.058337633,-0.035430185,-0.005192355,276.25742,-79.84549,-6.627062
556713777000.0,-3.3096987673371303,9.278300996084017,-1.4556746,0.06078109,-0.03390302,-0.004581489,276.5924,-80.04009,-6.603568
556718732000.0,-3.275912202856889,9.31631108508366,-1.4556746,0.04734206,-0.05131268,-0.008857546,276.92255,-80.22214,-6.586216
556723805000.0,-3.229333609453837,9.342958925909532,-1.434466103726653,0.054367006,-0.05467244,-0.00061086525,277.24612,-80.40659,-6.5681443
556728815000.0,-3.17836815712136,9.364194549526422,-1.4047362306630078,0.051923547,-0.062308256,0.005497787,277.57434,-80.580055,-6.5534887
556733878000.0,-3.128892445387063,9.389615818663838,-1.3727264450335808,0.033292156,-0.07269296,0.0070249503,277.9035,-80.751495,-6.5341067
556739875000.0,-3.0730640638918345,9.425143115058324,-1.3321240628490632,0.021991149,-0.0852157,0.009162978,278.23315,-80.92012,-6.515081
556743791000.0,-3.04159431927219,9.448477257760258,-1.3088307760610969,0.008857546,-0.09254608,0.016798794,278.5696,-81.08223,-6.4856157
556748790000.0,-3.0213756566974026,9.47880518124868,-1.2919818553952276,-0.0018325958,-0.09193522,0.0061086523,278.9051,-81.23446,-6.4635177
556753806000.0,-3.0010882369184206,9.509236240304077,-1.2750756369395368,-0.00580322,-0.09101892,0.005497787,279.23203,-81.384834,-6.432698
556758805000.0,-2.9961906111568224,9.540440744343227,-1.2608477355372711,-0.013133603,-0.099265605,0.011911872,279.55872,-81.5273,-6.405418
556763785000.0,-3.0195486599373105,9.57314220775786,-1.251504516025076,0.0009162979,-0.102319926,0.014660766,279.8809,-81.66754,-6.3821855
556768772000.0,-3.041896221052632,9.592936684210526,-1.2434727736842104,0.0012217305,-0.11026118,0.024129177,280.20874,-81.80531,-6.3485856
556773858000.0,-3.062241973746868,9.582763621971596,-1.2383863487886382,0.01038471,-0.109650314,0.023518313,280.53204,-81.94095,-6.320185
556778806000.0,-3.080603252101989,9.56262081844282,-1.227670197477613,0.0143553335,-0.12675454,0.026572637,280.84924,-82.06881,-6.2976384
556783874000.0,-3.0971919534486294,9.526125606193178,-1.2077637558616447,0.03023783,-0.15485434,0.036651913,281.1665,-82.19687,-6.275501
556788778000.0,-3.1132438459908403,9.490811375555404,-1.1885014848109918,0.04062254,-0.17501289,0.04520403,281.4793,-82.314766,-6.261479
556793754000.0,-3.122039,9.426351577837227,-1.1779473,0.040011674,-0.2012801,0.056199603,281.79883,-82.43127,-6.2454114
556798858000.0,-3.122039,9.325764598929933,-1.1779473,0.033292156,-0.23487769,0.062308256,282.12335,-82.544014,-6.2301006
556803799000.0,-3.1242161358341303,9.247268303486049,-1.1823015262018604,0.033292156,-0.24678956,0.058643065,282.4416,-82.64482,-6.222563
556809724000.0,-3.1291490344258017,9.173275597235504,-1.1921672203685991,0.032986723,-0.26725355,0.063224554,282.76874,-82.74296,-6.212276
556813813000.0,-3.1316159,9.12308596657427,-1.2190792982227294,0.020463986,-0.2657264,0.06047566,283.08682,-82.83025,-6.2090073
556818863000.0,-3.1316159,9.063943409913582,-1.3176502671612589,0.0143553335,-0.25534168,0.053450707,283.40536,-82.913376,-6.2075543
556823811000.0,-3.1316159,9.005995415783467,-1.4142302977172672,0.0106901415,-0.23854288,0.029321533,283.72296,-82.97974,-6.219525
556828800000.0,-3.128271157893781,9.066204697684975,-1.476657521098502,-0.009773844,-0.19730948,0.025350908,284.0275,-83.04154,-6.229951
556833797000.0,-3.123926557866546,9.161785081706762,-1.52879222240581,-0.019242255,-0.18051068,0.015882496,284.33194,-83.09195,-6.2501235
556838846000.0,-3.124883114972655,9.311386418635848,-1.5912599235476217,-0.052839845,-0.14446963,0.0021380284,284.63953,-83.14243,-6.2703733
556843951000.0,-3.129928009668765,9.503090731400269,-1.6618877644825096,-0.065973446,-0.121256754,0.004276057,284.94287,-83.190346,-6.2903323
556848848000.0,-3.1479103288414634,9.623096564557926,-1.7064679799390243,-0.09162979,-0.10262536,0.0036651916,285.24405,-83.2276,-6.316242
556853807000.0,-3.1732487021951217,9.709970911890244,-1.7390458885365854,-0.1160644,-0.096516706,0.0018325958,285.53897,-83.25841,-6.343278
556859081000.0,-3.2000955085923217,9.797794020608276,-1.770988194449061,-0.12339478,-0.105068825,0.008552114,285.8391,-83.29418,-6.3644066
556863863000.0,-3.2229289029250454,9.809210976067808,-1.7595714774139937,-0.10873401,-0.09590584,0.0143553335,286.1288,-83.32314,-6.387798
556868828000.0,-3.2466360971663617,9.821064841366129,-1.7477178596642844,-0.07971791,-0.08979719,0.014049901,286.42468,-83.349495,-6.412147
556873852000.0,-3.2408178556324456,9.792661703135948,-1.70473784590925,-0.06994407,-0.09254608,0.027183503,286.71667,-83.37436,-6.4322786
556879157000.0,-3.214115944849334,9.734807183601962,-1.6379829063069375,-0.034208454,-0.09407325,0.035124753,287.00323,-83.394684,-6.45532
556883774000.0,-3.155792696927374,9.63395220670391,-1.5136050778708876,0.004581489,-0.09285152,0.032375857,287.2922,-83.40301,-6.484378
556888783000.0,-3.016834921787709,9.415589655493482,-1.2356894757707428,0.017715093,-0.09468412,0.035430185,287.579,-83.40868,-6.510769
556893746000.0,-2.914436058279706,9.262251498323211,-1.0244649063174114,0.018325957,-0.10873401,0.036651913,287.85544,-83.40694,-6.538048
556898787000.0,-2.870679465512553,9.21411961180096,-0.9194489922958398,0.01985312,-0.11453723,0.038789943,288.12695,-83.40039,-6.5654526
556903812000.0,-2.835393253852733,9.16997314742244,-0.8279161073166939,0.01985312,-0.1432479,0.03176499,288.37637,-83.39042,-6.586663
556908781000.0,-2.8390933255656634,9.14407222043387,-0.798315185887567,-0.004886922,-0.16065755,0.034513887,288.62155,-83.38002,-6.605565
556913811000.0,-2.842838819772957,9.117853330767437,-0.7683508802348185,-0.027183503,-0.18203785,0.027183503,288.86395,-83.37309,-6.6178603
556918800000.0,-2.8595700533644943,9.115172070464768,-0.7692830104030337,-0.047647487,-0.18875736,0.016493361,289.10443,-83.36336,-6.6314497
556923793000.0,-2.884872264705882,9.127823,-0.7903682129411764,-0.076358154,-0.17379116,0.005192355,289.34204,-83.349045,-6.6483107
556928794000.0,-2.9100000932343235,9.146146146245874,-0.8324256010519802,-0.102319926,-0.16371189,-0.004886922,289.57214,-83.32785,-6.6710024
556933806000.0,-2.934752012376238,9.175848552599009,-0.9165821985024752,-0.118507855,-0.13652839,-0.0143553335,289.7904,-83.30239,-6.6972995
556938745000.0,-2.9569518436304154,9.210148485079806,-0.99826272947358,-0.14569137,-0.11056661,-0.027183503,290.01788,-83.276344,-6.723646
556943797000.0,-2.976137723911966,9.25331661554476,-1.0798027707544364,-0.16279559,-0.084910266,-0.03726278,290.2349,-96.75257,-6.7524333
556948851000.0,-2.9782065435741614,9.288288439117714,-1.1440019886563133,-0.17715092,-0.07086037,-0.048563786,290.4557,-96.78999,-6.789154
556953809000.0,-2.953270470605447,9.309662630429887,-1.179624934098582,-0.18234327,-0.062002823,-0.04917465,290.66797,-96.827965,-6.825884
556958871000.0,-2.9278113335809137,9.331485171055592,-1.215995113571911,-0.18448131,-0.049785517,-0.051923547,290.89185,-96.870544,-6.866313
556963786000.0,-2.8700483220058164,9.388264771745837,-1.312622610989689,-0.19853121,-0.047036625,-0.057726767,291.11285,-96.91495,-6.908045
556968781000.0,-2.7983805268617257,9.459932698951263,-1.434879406926941,-0.20280726,-0.05222898,-0.05467244,291.32977,-96.95853,-6.9481926
556973756000.0,-2.754111793786183,9.5362694722115,-1.5155841395696643,-0.204029,-0.061391957,-0.058643065,291.55408,-96.99988,-6.985196
556978813000.0,-2.7447660049787728,9.620381376302586,-1.543621554785797,-0.20799962,-0.06994407,-0.058643065,291.77655,-97.04028,-7.02069
556983855000.0,-2.742477332884097,9.700660099730458,-1.5662854493261456,-0.21777347,-0.082161374,-0.064446285,292.02542,-97.06376,-7.0367303
556988788000.0,-2.7515728959183674,9.773424698979593,-1.579928793877551,-0.21746802,-0.08735373,-0.053145275,292.27045,-97.08518,-7.049421
556994625000.0,-2.7778670969933854,9.845550705351773,-1.5897499,-0.21899518,-0.09896017,-0.050701816,292.53064,-97.10877,-7.0634594
556998811000.0,-2.814026367428342,9.88170980797755,-1.5897499,-0.21013765,-0.09285152,-0.04428773,292.78226,-97.13122,-7.0748577
557003883000.0,-2.864954042288074,9.903495161282487,-1.575178822176342,-0.20586158,-0.086437434,-0.021685716,293.03427,-97.1512,-7.0826344
557008811000.0,-2.929912830791029,9.87674726524168,-1.5293255198040645,-0.19456059,-0.086437434,-0.0030543262,293.28143,-97.17396,-7.091461
557013815000.0,-2.9958734187920006,9.849586861063882,-1.4827650642296168,-0.17195857,-0.089186326,0.0061086523,293.52158,-97.20562,-7.107441
557018796000.0,-3.078949900490597,9.791082605887164,-1.3706710005451077,-0.15118915,-0.071776666,0.016187929,293.7518,-97.23476,-7.1190863
557023727000.0,-3.1647557515126734,9.726728284818751,-1.2462526016807485,-0.13530666,-0.06627888,0.031154128,293.98227,-97.26347,-7.128222
557028796000.0,-3.2449553864406777,9.665897832330964,-1.1126680837215237,-0.11026118,-0.060170226,0.049480084,294.20132,-97.30383,-7.1480346
557033892000.0,-3.320557569491525,9.608084655002736,-0.9748053372443958,-0.105068825,-0.086437434,0.059864793,294.42493,-97.34401,-7.166995
557038813000.0,-3.397457164718504,9.553514205476652,-0.8239889833432104,-0.095294975,-0.10873401,0.070554934,294.63483,-97.393394,-7.1981764
557043816000.0,-3.4806814332890568,9.499663072851742,-0.6477491146214366,-0.09896017,-0.1414153,0.08674286,294.85272,-97.43892,-7.225615
557048796000.0,-3.5517680009735093,9.441843259945708,-0.5067953334082187,-0.09987647,-0.17531833,0.08399397,295.06036,-97.49888,-7.2733846
557053797000.0,-3.6100491484601696,9.37907914172049,-0.4036826247533465,-0.112399206,-0.22174409,0.089491755,295.27896,-97.55132,-7.314646
557058785000.0,-3.644320362183236,9.321095675763482,-0.3248211455750487,-0.12034045,-0.24281894,0.086132,295.48123,-97.60965,-7.3687367
557064836000.0,-3.628183014146477,9.261924725610324,-0.2871673110219994,-0.15088372,-0.3051272,0.08155051,295.70673,-97.66431,-7.422226
557068796000.0,-3.608021952347572,9.232673172909822,-0.3022872486513326,-0.1695151,-0.32711834,0.07819075,295.9144,-97.72815,-7.4895635
557073856000.0,-3.540791973231106,9.23621166286966,-0.4933618528280394,-0.18784106,-0.36774087,0.062002823,296.1432,-97.79459,-7.562061
557078805000.0,-3.4750368019569184,9.239672529828406,-0.6802448994822928,-0.21746802,-0.38728857,0.052534413,296.36197,-97.8557,-7.631741
557083833000.0,-3.4252779692048385,9.250148390838786,-0.8556743130676185,-0.23915374,-0.3903429,0.042455133,296.58524,-97.92076,-7.70573
557088836000.0,-3.3967755022109856,9.269149969363475,-1.0124382684404123,-0.24617869,-0.3735441,0.032375857,296.80588,-97.98738,-7.7815795
557093857000.0,-3.3764192696842104,9.290409294736842,-1.1348818644210523,-0.24556783,-0.32589662,0.028405234,297.04794,-98.054405,-7.8481693
557098856000.0,-3.366820387839599,9.314407000501252,-1.211672969293233,-0.24831672,-0.27091873,0.013439035,297.2794,-98.12641,-7.919959
557103803000.0,-3.3486943572125627,9.34624827537626,-1.233286854594186,-0.21655174,-0.21105394,0.0067195175,297.51566,-98.197784,-7.9813914
557109044000.0,-3.317649779417222,9.391090503333103,-1.1815460356745242,-0.19333886,-0.14813483,-0.0076358155,297.73148,-98.27465,-8.048323
557113834000.0,-3.289276658325888,9.43207395532953,-1.1342576321971,-0.15699236,-0.10934488,-0.021685716,297.944,-98.360115,-8.117604
557118858000.0,-3.226410964000808,9.51145141078461,-1.0286242928647884,-0.14782938,-0.089491755,-0.040011674,298.14078,-98.45035,-8.191271
557123861000.0,-3.134485145834596,9.622729891850954,-0.8738016559345653,-0.1591304,-0.1133155,-0.049785517,298.33643,-98.54293,-8.265999
557128801000.0,-3.028813219865643,9.692419643570055,-0.7101891435566219,-0.1908954,-0.17165314,-0.04886922,298.52786,-98.62344,-8.3333
557134785000.0,-2.885819165355086,9.736417549136275,-0.501197851671785,-0.2415972,-0.26419923,-0.038789943,298.7336,-98.70134,-8.400777
557138862000.0,-2.8031341495712536,9.703436219273172,-0.4176566953042058,-0.30818152,-0.36132678,-0.03726278,298.9376,-98.74865,-8.449149
557143862000.0,-2.7151479307064106,9.605673867292772,-0.3687754886892609,-0.3717115,-0.43768495,-0.04428773,299.15912,-98.792046,-8.4975815
557148847000.0,-2.60201962775016,9.50910489901379,-0.4399195815394484,-0.43371433,-0.48624873,-0.047036625,299.3798,-98.799164,-8.523739
557153794000.0,-2.465269070525978,9.414139515234124,-0.6260522493906351,-0.4642576,-0.5112942,-0.030848695,299.61157,-98.80203,-8.546828
557159087000.0,-2.3261780161105814,9.317247485224025,-0.820930435386082,-0.47891834,-0.49571714,-0.01282817,299.83206,-98.79154,-8.5599785
557163834000.0,-2.310418872935263,9.301487848383742,-0.9312442483750758,-0.4633413,-0.48563787,-0.010995574,300.0567,-98.783104,-8.573447
557168726000.0,-2.294178357154,9.28524682385822,-1.044927663825288,-0.4642576,-0.42852196,0.010995574,300.2876,-98.74408,-8.5458975
557173853000.0,-2.296735147560501,9.274672866158276,-1.0979360951210022,-0.44226643,-0.35094208,0.034513887,300.50375,-98.70902,-8.518879
557178833000.0,-2.307868708528519,9.267250724690683,-1.1202032170570384,-0.41691554,-0.28160888,0.05100725,300.7005,-98.67239,-8.488953
557183830000.0,-2.319147246616541,9.262852162907269,-1.1339195167084375,-0.3848451,-0.22449298,0.06047566,300.89575,-98.634186,-8.44949
557188843000.0,-2.331179577368421,9.278895019298243,-1.0898013894152048,-0.3866777,-0.19517145,0.0711658,301.0742,-98.593544,-8.407441
557193725000.0,-2.3428974785714285,9.294518642857144,-1.0468361595238096,-0.38545597,-0.19425514,0.07788532,301.2471,-98.55647,-8.36498
557198854000.0,-2.30960762247191,9.317434307806032,-0.953008344825547,-0.40439278,-0.23884831,0.07513642,301.4206,-98.5208,-8.325306
557204683000.0,-2.251836665449438,9.34632013102454,-0.825087044633353,-0.4279111,-0.29626966,0.059864793,301.59354,-98.48946,-8.29029
557208962000.0,-2.2104551082635124,9.369245267537377,-0.738531158968293,-0.47219884,-0.3839288,0.050701816,301.78104,-98.46082,-8.2641325
557213837000.0,-2.179775364547396,9.422934939173649,-0.7577060268219156,-0.4999932,-0.47891834,0.044593163,301.98276,-98.437485,-8.244139
557218827000.0,-2.148371893543618,9.47789113639724,-0.7773332248915722,-0.52198434,-0.5458081,0.04337143,302.1852,-98.39856,-8.217768
557223852000.0,-2.114015311935808,9.5386152668004,-0.7901009759177533,-0.5207626,-0.5653558,0.04153884,302.39612,-98.36379,-8.195283
557228826000.0,-2.078181475125376,9.602319385155466,-0.7980640281293881,-0.4822781,-0.539394,0.045814894,302.60767,-98.33101,-8.173062
557233917000.0,-2.038319589586375,9.650855571776155,-0.7916244349343066,-0.41813725,-0.4804455,0.060170226,302.82346,-98.28968,-8.139578
557238872000.0,-1.9882879941281424,9.63930997972425,-0.7338956468321167,-0.33444872,-0.4089743,0.06811147,303.02216,-98.25479,-8.108502
557243727000.0,-1.939266118053528,9.627997396593674,-0.6773319200437956,-0.2602286,-0.36254853,0.09162979,303.21985,-98.20571,-8.06008
557248849000.0,-1.8702070117780845,9.47490042392982,-0.3756215063764113,-0.21655174,-0.355829,0.11026118,303.40338,-98.161674,-8.0134325
557253854000.0,-1.7962319653155714,9.272442461944603,0.0098272808463975,-0.20922135,-0.398895,0.13164146,303.58374,-98.11545,-7.962383
557258939000.0,-1.741751366150653,9.083736815272854,0.3155351964784225,-0.2415972,-0.4474588,0.15027285,303.7554,-98.05546,-7.9003444
557263876000.0,-1.7376624046700684,8.940623163452392,0.4095813703070138,-0.3200934,-0.5540548,0.14844026,303.95184,-97.996506,-7.842288
557269203000.0,-1.736255692058323,8.787747321293761,0.5066627473924951,-0.35308012,-0.6621779,0.13744467,304.1299,-97.904236,-7.767825
557273869000.0,-1.8090170425727183,8.69183479209533,0.4835114167552365,-0.44135013,-0.7528914,0.1328632,304.3288,-97.80778,-7.694761
557278808000.0,-1.886035540256088,8.590310578269559,0.459005539769077,-0.46761733,-0.81581056,0.099571034,304.54355,-97.72711,-7.637818
557283925000.0,-1.995094935880293,8.50634400477555,0.4224694939987265,-0.47616947,-0.8197812,0.061086524,304.7621,-97.65121,-7.585175
557288883000.0,-2.1764963330786373,8.479889499522447,0.358223182266794,-0.45906523,-0.7870999,0.040317107,304.98257,-97.58484,-7.5382643
557293724000.0,-2.3536169792741166,8.454059273638968,0.2954929694603629,-0.41538838,-0.70005155,0.033292156,305.2009,-97.551216,-7.51938
557298869000.0,-2.734678148793886,8.576226361595415,0.3582942628612371,-0.364992,-0.61483586,0.034513887,305.40558,-97.52514,-7.5043383
557303806000.0,-3.1675480672876364,8.745610150465728,0.463688698988934,-0.3036,-0.5338962,0.042455133,305.5822,-97.50293,-7.489496
557308971000.0,-3.53560157628866,8.917042368009998,0.5803025925492034,-0.24953845,-0.49938235,0.053450707,305.77145,-97.522484,-7.5133734
557313881000.0,-3.649447772164948,9.063940487347704,0.7088385236644799,-0.22876903,-0.50243664,0.04337143,305.94537,-97.54697,-7.540846
557318790000.0,-3.763270781443299,9.210808688534833,0.8373482763823805,-0.21594086,-0.56413406,0.040011674,306.1492,-97.64095,-7.6373463
557323857000.0,-3.7912440529445774,9.384377401916248,0.9670526116874536,-0.24251351,-0.6731735,0.014966198,306.36578,-97.74361,-7.741939
557328832000.0,-3.775502802841332,9.56540091517304,1.0929820783183284,-0.30024028,-0.8536842,-0.0030543262,306.6189,-97.84491,-7.844525
557333898000.0,-3.672503872932852,9.741503124682716,1.1953676325282672,-0.36377025,-1.0485502,-0.015577064,306.9045,-82.03476,-7.9650955
557338883000.0,-3.3310028072455964,9.892057333205138,1.2247440484962695,-0.44348818,-1.2311989,-0.020463986,307.236,-81.91092,-8.086652
557343742000.0,-2.9981334635797245,10.03880615952619,1.2533779512422123,-0.5112942,-1.3875804,-0.027183503,307.60477,-81.79223,-8.1980715
557348853000.0,-2.7055215951410267,10.01542886146934,1.2144058849321908,-0.6041457,-1.5143349,-0.008552114,308.01343,-81.67539,-8.300758
557353812000.0,-2.4526346278059736,9.896888172892918,1.1393300742407857,-0.6743952,-1.5622878,0.008246681,308.43948,-81.55202,-8.403038
557358930000.0,-2.2080631966029047,9.741315752202556,1.0382827775775854,-0.70341134,-1.6355917,0.027183503,308.88876,-81.50266,-8.4201
557363875000.0,-2.016363612985157,9.50075145186126,0.8766537315025001,-0.7693848,-1.6670512,0.044593163,309.33228,-81.44711,-8.43127
557368805000.0,-1.8252455245654415,9.260916871338994,0.7155149656480674,-0.8014552,-1.6759088,0.071776666,309.78632,-81.43842,-8.3885
557373848000.0,-1.6892645065175098,8.952085934500648,0.5680313597827497,-0.8200866,-1.6508633,0.07941248,310.22998,-81.41875,-8.346651
557378822000.0,-1.577282009143969,8.623861609597924,0.429018599695201,-0.8008443,-1.6129897,0.07971791,310.6627,-81.39791,-8.299741
557383902000.0,-1.4656393293089751,8.302026622081017,0.2720756432724384,-0.7495316,-1.5326608,0.060170226,311.08365,-81.40655,-8.228094
557389870000.0,-1.343068412581414,7.966091457283559,0.0405527194535345,-0.6640105,-1.2385293,0.02443461,311.42142,-81.41019,-8.166585
557393796000.0,-1.262436137267673,7.74509925604448,-0.1117527428308181,-0.56779927,-1.1078042,0.014966198,311.79437,-81.43758,-8.092206
557398852000.0,-1.3155617820652172,7.79697810923913,-0.1026904369293478,-0.5589417,-0.8533788,0.009773844,312.03836,-81.453285,-8.03535
557403839000.0,-1.4224405019741049,7.964930280890345,-0.0225313683001118,-0.5519168,-0.6588182,0.0018325958,312.25482,-81.472115,-7.9859204
557408950000.0,-1.5308006831717782,8.160002267440012,0.0726120704894327,-0.5720753,-0.5366451,-0.02107485,312.44275,-81.51097,-7.932786
557413795000.0,-1.630339063991737,8.40700507154775,0.1979566909315906,-0.6188065,-0.5213735,-0.06414085,312.60104,-81.537445,-7.8921585
557418733000.0,-1.7317880886540602,8.658749105951056,0.3257073071840934,-0.68111473,-0.58459806,-0.0983493,312.76663,-81.53188,-7.8719296
557423856000.0,-1.7734507481199353,8.949096111993518,0.3497707499643436,-0.75747293,-0.6759224,-0.1255328,312.93253,-81.50934,-7.8630366
557428807000.0,-1.7888202329092384,9.241115640923825,0.3305589280810372,-0.8155051,-0.7669413,-0.1423316,313.11267,-81.47515,-7.8608613
557433940000.0,-1.74162484904271,9.539324479381444,0.2640815019955817,-0.8668178,-0.8200866,-0.1386664,313.31796,-81.39691,-7.877378
557438853000.0,-1.5337418542562593,9.81303682628866,0.0804515244734904,-0.89827734,-0.8686504,-0.100792766,313.54282,-81.31918,-7.8869605
557443865000.0,-1.3216698880706923,10.092264646907216,-0.1068787110935198,-0.89369583,-0.89461213,-0.024740042,313.78983,-81.25584,-7.8784795
557448849000.0,-1.12983794172211,10.17045555235671,-0.154967237938471,-0.8552113,-0.93126404,0.051923547,314.0467,-81.20267,-7.858067
557453801000.0,-0.9550092877345738,10.083041646976216,-0.0883658574718686,-0.78954333,-0.956615,0.093767814,314.30032,-81.16363,-7.8264284
557459901000.0,-0.7811425732040572,9.922223369779235,0.0568094346129176,-0.7486154,-1.0323622,0.21227567,314.5919,-81.219696,-7.7065783
557463831000.0,-0.7109664789618139,9.765028938842484,0.2140039174298926,-0.6075055,-1.0650436,0.2574797,314.8702,-81.28632,-7.6006646
557468828000.0,-0.6217374858502387,9.565156019913486,0.4138769023246569,-0.56779927,-1.142318,0.3286455,315.17886,-81.38094,-7.4290733
557473847000.0,-0.6545133585652056,9.22443625959706,0.785008742444868,-0.49357912,-1.2528846,0.3827071,315.4961,-81.50078,-7.254668
557478783000.0,-0.7735598583038389,8.790077162673565,1.270847225129322,-0.4596761,-1.3451253,0.41141775,315.8193,-81.624825,-7.0730095
557484102000.0,-0.901843556057038,8.322014756568201,1.7943834669037573,-0.46303585,-1.4129313,0.42424592,316.1537,-81.73771,-6.864169
557488843000.0,-1.0151708222015103,8.120369277267947,2.0767444725934423,-0.5122105,-1.4401149,0.4260785,316.49097,-81.84383,-6.656657
557493866000.0,-1.134730346353121,8.014605140999905,2.283674402542778,-0.6291912,-1.4425583,0.41355577,316.82922,-81.928535,-6.4560976
557498848000.0,-1.1821157296397196,8.009367047265545,2.308345122427297,-0.763887,-1.425454,0.41416663,317.14957,-81.9017,-6.2626233
557503804000.0,-1.1724182319893754,8.083714304229382,2.188742932684056,-0.91446525,-1.3799446,0.4260785,317.45374,-81.837906,-6.0732417
557508856000.0,-1.162532889348226,8.159501701763945,2.06682399350269,-1.0464121,-1.3078625,0.4428773,317.75256,-81.70227,-5.893988
557513825000.0,-1.1279220716435074,8.300429749640633,1.8158313945951123,-1.1304061,-1.2180653,0.46975538,318.02502,-81.53614,-5.712291
557518862000.0,-1.0770718792525156,8.485339781504551,1.4783708338284618,-1.1737776,-1.1129965,0.5015204,318.26437,-81.34152,-5.5290885
557523848000.0,-0.9924846417094016,8.65145793162393,1.3071605155555557,-1.2067643,-1.0070114,0.5369505,318.50174,-81.14315,-5.3424983
557529782000.0,-0.8557645679012346,8.831352617283951,1.274779434567901,-1.2366967,-0.9025534,0.5635232,318.70142,-80.929695,-5.1555734
557533823000.0,-0.7626594418043684,8.953859261158595,1.2527282130864197,-1.2800682,-0.8558222,0.6010914,318.91574,-80.75632,-4.9596786
557538866000.0,-0.6649200845055526,9.038723500898994,1.2978796671496562,-1.3213016,-0.8918633,0.65270954,319.11426,-80.576256,-4.756584
557543858000.0,-0.5991880367001586,9.008385551454255,1.4647379139185617,-1.3457361,-0.9819659,0.70341134,319.3057,-80.38936,-4.5463047
557548850000.0,-0.5787758969410826,8.876558150817928,1.4277440913153343,-1.352761,-1.0231993,0.75869465,319.4992,-80.22002,-4.289942
557553820000.0,-0.6072617834286475,8.636010877909296,1.1713712451256817,-1.3720033,-1.0748174,0.7993172,319.7096,-80.03826,-4.025117
557558814000.0,-0.6358852275169571,8.39430200851177,0.9137603811677084,-1.3607023,-1.0913107,0.86742866,319.925,-79.83077,-3.7217195
557563875000.0,-0.7116289683521189,8.19862499206599,0.7857890705497135,-1.3161092,-1.0445796,0.93309665,320.12488,-79.622856,-3.4147573
557568863000.0,-0.837962498306152,8.060259737736919,0.806844643171085,-1.2275337,-0.9773844,0.999681,320.31015,-79.42888,-3.095732
557573938000.0,-0.9664995200617088,7.919481135948618,0.8282674641521315,-1.0995574,-0.9108001,1.0482447,320.51843,-79.29913,-2.7900975
557578813000.0,-1.0524925126514784,7.850070798351915,0.9393440920988853,-0.9611965,-0.8921687,1.0931433,320.70776,-79.19472,-2.4760535
557583851000.0,-1.049151475437989,7.940278942663251,1.2767890948687763,-0.8594874,-0.92087936,1.1239921,320.88074,-79.11064,-2.1618202
557588836000.0,-1.0458455860951457,8.0295380929991,1.6106841601343396,-0.7800749,-1.0128145,1.1279627,321.0931,-79.02737,-1.8702499
557593859000.0,-0.9381965348638168,8.13473582816342,1.734004347266881,-0.74464476,-1.1453724,1.1343768,321.3152,-78.956116,-1.5738204
557599229000.0,-0.6609726717561945,8.270916163892567,1.53459777170418,-0.7312057,-1.2858714,1.1355985,321.55743,-78.89508,-1.2809072
557603701000.0,-0.4187681876157095,8.361162138671698,1.3392735180641682,-0.73975784,-1.3704761,1.1233811,321.80975,-78.733795,-0.9665089
557608808000.0,-0.1110830404700279,8.400721538060573,1.0359838102723105,-0.77488256,-1.4037683,1.0861185,322.0805,-78.56424,-0.6615713
557613884000.0,0.1913824943103832,8.434396197081105,0.7632968592301693,-0.81092364,-1.3603969,1.0323622,322.36414,-78.417114,-0.33494064
557618696000.0,0.4378188187889928,8.398457912321748,0.8505764123718805,-0.86284715,-1.2541064,0.98471475,322.6303,-78.25175,-0.028463107
557623722000.0,0.6727170910929432,8.37803367383821,0.9543757768932876,-0.9767735,-1.1325442,0.9431759,322.92877,-78.081924,0.30294424
557628739000.0,0.8381106994492256,8.410193229106904,1.0967980591508892,-1.1340714,-0.9935723,0.9221011,323.18655,-77.882324,0.61161584
557633705000.0,0.9993644659010966,8.452187100144839,1.235029633022967,-1.3115277,-0.8188649,0.95386606,323.395,-77.611374,0.95538455
557638714000.0,1.1482478445272088,8.55144261680116,1.3590990806641838,-1.4908166,-0.591623,0.9923506,323.54437,-77.29532,1.2765124
557643700000.0,1.2403887502828983,8.624903063058952,1.4784743605219932,-1.6606371,-0.48472157,1.070236,323.66663,-76.88904,1.647257
557648719000.0,1.1307291423434933,8.607357632049643,1.5837475878079943,-1.7779233,-0.26297748,1.1160508,323.68826,-76.45028,1.9912027
557653896000.0,1.011923550714924,8.584554916443253,1.690802787533512,-1.8121318,-0.090713486,1.1884383,323.6864,-75.950745,2.3850393
557658719000.0,0.8220494713243968,8.497873236461126,1.7692290345308312,-1.8362609,-0.02565634,1.2073752,323.64975,-75.42803,2.7613952
557663661000.0,0.6274905452725648,8.409052821268991,1.8495903268096516,-1.8121318,0.0027488936,1.1930199,323.588,-74.89783,3.1286867
557668726000.0,0.5262774792130948,8.377701620374136,1.9562692342720616,-1.8188512,0.0106901415,1.1679744,323.5097,-74.361115,3.487178
557673657000.0,0.454261547702318,8.363298648637658,2.0666937053680354,-1.8637499,0.0009162979,1.1508701,323.42557,-73.83034,3.8354945
557678774000.0,0.4630802085439173,8.36806846087365,2.102775392616252,-1.9257526,-0.0580322,1.1585059,323.37372,-73.29487,4.1637626
557683707000.0,0.4897081440112729,8.376944153593236,2.120527334147487,-1.9727893,-0.03940081,1.1621711,323.30017,-72.764534,4.473827
557688720000.0,0.4710238025202429,8.271825339676113,2.179991459757085,-2.019826,0.055283304,1.1389582,323.23953,-72.19818,4.7718983
557693698000.0,0.4324219065587045,8.117417655060729,2.2571952012955467,-2.0711386,0.1554652,1.0821478,323.1696,-71.63483,5.0521736
557698714000.0,0.3871592666782724,7.89929520882036,2.373385665456354,-2.1035144,0.20830505,1.0097603,323.103,-71.061646,5.321782
557703821000.0,0.3385059449705712,7.651974244300754,2.507182334021388,-2.1025982,0.18845193,0.91415983,323.0327,-70.50556,5.561276
557708900000.0,0.3237929221780848,7.375596875455766,2.4298432327192474,-2.0778582,0.22357668,0.83658,322.9413,-69.9368,5.777
557714895000.0,0.3843899703166378,6.978961647092689,1.851416733390904,-2.105958,0.47678033,0.7715228,322.8015,-69.37667,5.9463
557718733000.0,0.4837822130682901,6.802696917112888,1.6213892610944032,-2.2715025,0.80909103,0.71593404,322.63455,-68.746025,6.089421
557723795000.0,0.8073704869507812,6.816920494755373,1.763625891520575,-2.4110851,1.0803152,0.6759224,322.42145,-68.133965,6.1961174
557728796000.0,1.127059336750532,6.830972670138634,1.9041484890633025,-2.4801128,1.2501358,0.6621779,322.20035,-67.55169,6.277756
557734053000.0,1.3705368206355633,6.957801624815302,2.3681502196640016,-2.5121834,1.3338243,0.6795876,321.93347,-66.95651,6.3361044
557738787000.0,1.5173612006173465,7.159685141301488,3.033448067189556,-2.5302038,1.3707817,0.6976081,321.6389,-66.36181,6.3766537
557743789000.0,1.644078391152815,7.488343972117962,3.708689177747989,-2.5405886,1.3613132,0.72051555,321.30774,-65.69214,6.4831777
557748810000.0,1.746321027613941,7.9195409257927345,4.362152901950633,-2.5305092,1.2296717,0.73456544,321.00262,-65.037636,6.599405
557753811000.0,1.822673404551228,8.28942469676122,4.698371382091448,-2.5164595,0.97035944,0.76083267,320.70703,-64.280685,6.7844567
557758991000.0,1.8576775506138865,8.569457755609653,4.502348295723963,-2.4352143,0.70096785,0.788627,320.44968,-63.56352,6.9870763
557763794000.0,1.890134097629128,8.829110030059272,4.320591754445385,-2.3087652,0.6041457,0.7831292,320.16403,-62.781754,7.192841
557768801000.0,1.9727428219446388,9.06505280468672,4.17371661297092,-2.225993,0.62980205,0.7174612,319.92407,-62.03361,7.4014726
557773855000.0,2.098497877205956,9.27303270765464,4.062471542720096,-2.2052236,0.62796944,0.6356053,319.72144,-61.323883,7.614101
557778795000.0,2.132337630489193,9.415494106370875,4.0328814835039815,-2.19209,0.5888741,0.5580254,319.61523,-60.72245,7.8202047
557784965000.0,2.0806276633937166,9.529255742408331,4.079420248709198,-2.1746802,0.63255095,0.43982297,319.50467,-60.154263,7.9792414
557788758000.0,1.9662167881284405,9.514942562385322,4.060474425027524,-2.2153027,0.67011917,0.39370266,319.41455,-59.596466,8.133905
557793849000.0,1.5770672403211008,9.255509405963304,3.899447122568808,-2.239432,0.7687739,0.3115413,319.32053,-59.07451,8.231929
557798839000.0,1.211828973241769,9.00808664104812,3.7323677516754334,-2.271808,0.90194255,0.2144137,319.22324,-58.545883,8.282093
557803795000.0,1.0361440835865965,8.841648365186051,3.459593924089227,-2.3237314,1.0299188,0.11575896,319.11728,-58.025574,8.296523
557809160000.0,0.8555096181593067,8.669116851423855,3.211487134585225,-2.4055874,1.1930199,0.01282817,319.01224,-57.51022,8.203323
557813836000.0,0.7889755224102353,8.59149370755262,3.4443564504085846,-2.5360072,1.353372,-0.0888809,318.8952,-56.986847,8.069581
557818780000.0,0.7186280952538177,8.509421675196037,3.690572425051589,-2.7116308,1.4688255,-0.19242255,318.77954,-56.45876,7.8556314
557823845000.0,0.5385479814325196,8.446609885152771,3.874567375433748,-2.856406,1.5473217,-0.28802297,318.65417,-55.91976,7.6048307
557828800000.0,0.2908273200080608,8.399251709964686,4.009356460955013,-2.9608638,1.5848899,-0.39858958,318.53604,-55.361637,7.3196216
557834041000.0,0.0176747741193629,8.345936000432788,4.1440795113823246,-3.0198123,1.6484199,-0.5140431,318.4077,-54.730984,6.989325
557838845000.0,-0.5040005081889553,8.21850359032286,4.076381325491215,-3.0503557,1.7486018,-0.6374379,318.29013,-54.099228,6.626356
557843728000.0,-1.0342545472213278,8.088975601445512,4.007569868016965,-3.0674598,1.7907515,-0.6988298,318.2023,-53.432556,6.209197
557848852000.0,-1.9261910465623335,8.114758548697106,4.0993476441236805,-3.0729575,1.8081611,-0.81183994,318.13654,-52.783142,5.749786
557854727000.0,-3.135842209860974,8.234441310035706,4.295969384038593,-3.0818152,1.6978999,-0.96486163,318.118,-52.145443,5.293663
557858859000.0,-3.9579292565376782,8.324058759429736,4.423801255861507,-3.0616567,1.6536123,-1.0033462,318.1102,-51.514412,4.735025
557863830000.0,-4.493136679307535,8.517974735885947,4.412166321572301,-3.0534098,1.5439619,-1.0836749,318.1854,-50.89659,4.177786
557868803000.0,-5.028559433971487,8.711968731242361,4.40052670615886,-3.030808,1.4159856,-1.153619,318.28418,-50.28389,3.4059448
557873848000.0,-5.462892192446154,8.99080957476923,4.227455921246154,-2.992018,1.3182472,-1.2113458,318.42023,-49.683662,2.6522179
557878821000.0,-5.818251411053846,9.320524065230767,3.9490301602538462,-2.977968,1.2657127,-1.2403619,318.58823,-49.08848,1.9229096
557884138000.0,-6.134535919360685,9.66603226314055,3.677725766452464,-3.0051515,1.2629639,-1.2165382,318.8183,-48.511715,1.1199329
557888870000.0,-5.45503541670786,9.867642050914483,3.8345334787938703,-3.0030136,1.169807,-1.1869112,319.08688,-47.952747,0.36083102
557893853000.0,-4.739492093648048,10.079945848986654,3.9996587599851705,-2.9791899,0.98654735,-1.1365148,319.34686,-47.43973,-0.47640178
557898847000.0,-3.9851895026356,10.05520399381207,3.881364789320092,-2.9119947,0.76174897,-1.0467176,319.6181,-46.938393,-1.2518803
557903788000.0,-3.2116015922841865,9.856385174637127,3.5560241347440797,-2.781575,0.52106804,-0.9309586,319.91205,-46.46373,-1.9529487
557909265000.0,-2.3595967913926583,9.620526778906186,3.2043439303587777,-2.670703,0.3036,-0.8539896,320.21332,-45.98598,-2.4843528
557913875000.0,-1.7679042699575462,9.0692601161242,3.1124661660201447,-2.5130997,0.16615535,-0.79534656,320.52438,-45.566612,-2.9507365
557918857000.0,-1.1284656274868892,8.473509462332474,3.013174404212104,-2.3295345,0.12034045,-0.7706065,320.81354,-45.19006,-3.2641308
557923979000.0,-1.3108425493818587,7.221072922155855,4.091825417696903,-2.155438,0.122783914,-0.7556403,321.10706,-44.86383,-3.5434327
557928793000.0,-2.088934471593277,5.581636501319629,5.958605880677872,-2.083356,0.2648101,-0.7620544,321.37668,-44.567013,-3.835514
557933829000.0,-2.9029084890957075,3.86659665600778,7.911473851507154,-2.0427334,0.24098633,-0.81031275,321.65317,-44.238888,-4.0047317
557938864000.0,-4.117990678108642,2.597812902617352,9.183207347635802,-1.7690657,-0.657291,-0.85062987,322.07394,-44.00499,-4.019295
557943855000.0,-5.516691766326268,1.555965187797134,10.114307457907836,-0.9718866,-1.2791518,-0.8240572,322.43658,-43.93892,-4.0770655
557948774000.0,-6.792657586947404,0.8714894,10.56397106148813,-0.44409904,-2.4306328,-0.77824235,322.97116,-43.2816,-4.0168834
557953819000.0,-7.891002035819143,0.8714894,10.06546065002936,0.5476407,-3.3686163,-0.8338311,323.5974,-42.990593,-3.8820386
557959242000.0,-9.03790105946565,0.9444909824580152,9.619438098549615,1.2638801,-3.805996,-0.9193522,324.28,-42.510788,-3.8589032
557963874000.0,-9.210599345267177,2.752744083770992,11.38705632572519,1.5580118,-3.736968,-0.9095783,325.0315,-42.2044,-3.7352664
557969947000.0,-9.437023501068705,5.123538791083969,13.704574782900764,1.5354098,-3.678936,-0.8533788,325.89462,-42.044636,-3.750172
557973776000.0,-9.296407310526316,7.225089890902256,13.825829022030074,1.464244,-4.010941,-0.8051204,326.8199,-41.95989,-3.6940844
557978787000.0,-8.607236568421053,11.057023820150375,11.595946455338346,1.4315627,-4.594623,-0.5748242,327.7316,-41.890865,-3.548514
557983765000.0,-7.922604368421053,14.86372250300752,9.380748806766915,1.3338243,-5.0051246,-0.24556783,328.64832,-41.828728,-3.3400853
557988868000.0,-7.739327370018797,16.14378491691729,8.069606446710527,1.1835514,-4.3218718,-0.1337795,329.45956,-41.75696,-3.2292607
557993860000.0,-7.811218269266917,16.125811840225563,7.251847878289473,0.8173377,-2.4254405,-0.38728857,330.11725,-41.609566,-3.2927063
557998852000.0,-7.165011887367343,15.47869922705269,7.790248167287284,0.09743301,-0.19303341,-0.85154617,330.83633,-42.22289,-3.496905
558003781000.0,-5.952171970005585,14.33616923254515,9.407368087693166,-0.75808376,1.1569787,-1.3060299,331.39362,-42.64741,-3.951226
558008984000.0,-4.824340269212833,12.831957245569855,10.202879191662005,-1.4193454,1.4731015,-1.5974126,331.7891,-42.95462,-4.7062397
558013785000.0,-3.983849904141018,11.052347622831562,9.739751949076664,-1.7779233,1.4895949,-1.7687603,332.02216,-43.051914,-5.7113595
558018732000.0,-3.208654207540984,9.271494791803278,9.266800973770492,-2.0454822,1.505172,-1.9101756,332.17035,-42.628136,-6.6215887
558023788000.0,-2.715132605944405,7.625272363292943,8.797437682537419,-2.2321017,1.534188,-2.0769417,332.35715,-42.113678,-7.5489287
558028801000.0,-2.2258082806272275,5.993050639771917,8.332066207270135,-2.4278839,1.7211128,-2.2656991,332.5345,-41.34181,-8.426303
558034022000.0,-1.658153789242733,4.086573515247176,7.885585362895759,-2.7134633,2.1853704,-2.470339,332.7085,-40.492287,-9.38422
558039624000.0,-0.9777288119052028,1.7870354406128497,7.453490791149787,-3.1022792,2.5030203,-2.698192,332.93936,-39.557327,-10.369656
558043790000.0,-0.4305021632853899,0.140420772885555,7.448443829536852,-3.318831,3.0818152,-2.8209758,333.09454,-38.392536,-11.461186
558048794000.0,0.3247256844057532,-1.6866370141628244,8.193778110453513,-3.731165,3.451694,-3.0482175,333.3445,-37.062828,-12.613039
558053794000.0,1.0793498327781983,-3.512234323363843,8.938516600578074,-3.9623773,3.5604281,-3.2348368,333.54846,-35.55947,-13.795782
558058997000.0,1.5454858867006394,-4.842959888988808,9.700278989308552,-3.9687915,3.4666603,-3.3396003,333.8111,-34.002598,-15.01809
558063868000.0,1.531502446902478,-5.285767566706635,10.394787317945642,-3.8524218,3.148094,-3.3719761,334.1763,-32.418118,-16.20555
558068795000.0,1.2902161434914228,-5.562322343794148,10.99357463420787,-3.658472,2.6639833,-3.3622024,334.74182,-30.500326,-17.17248
558073814000.0,0.6645337265388495,-5.557472196932391,11.430097474470232,-3.4263432,2.1126773,-3.345098,335.44238,-28.644188,-18.012938
558078807000.0,-0.0262585331366764,-5.349475291396264,11.54509950442478,-3.1673362,1.5711454,-3.3319645,336.29352,-26.758411,-18.689445
558084033000.0,-0.8593438627616238,-4.804630362487709,11.15140530214918,-2.9269607,1.131017,-3.3319645,337.2529,-24.957193,-19.212559
558088844000.0,-1.6262733539261132,-4.303051917600786,10.788974608091024,-2.7430904,0.81092364,-3.3368514,338.29962,-23.182608,-19.672258
558093850000.0,-2.555869495049505,-3.263036018811881,10.004729178217822,-2.6401596,0.5720753,-3.3078353,339.4057,-21.481777,-19.996437
558098856000.0,-3.591509213021302,-1.805468902640264,8.892375351435145,-2.588236,0.43401974,-3.22995,340.53876,-19.84848,-20.2222
558103797000.0,-4.561404021298348,0.0107223298006475,7.746416394615778,-2.6117544,0.28099802,-3.1355712,341.6556,-18.32208,-20.531784
558110153000.0,-5.754123828420514,2.7436058775259844,6.221809204975294,-2.7036896,0.0888809,-3.0201178,342.76828,-16.823553,-20.750868
558113793000.0,-6.242316884533011,3.9710387236241735,5.59984908483099,-2.8023443,-0.15821409,-2.8835895,343.78888,-15.551977,-21.058783
558118857000.0,-6.183609096470807,4.400055437359158,5.685652738802496,-2.8484647,-0.42119157,-2.7388144,344.78976,-14.301977,-21.273977
558123954000.0,-6.09223779389313,4.794325032824427,5.78972829389313,-2.8371637,-0.6417139,-2.5799894,345.6307,-13.45667,-21.579365
558128796000.0,-5.645342908969465,4.7500780236641225,6.0861833014694655,-2.7797422,-0.80939645,-2.4120014,346.43237,-12.646679,-21.802025
558134223000.0,-5.142683465948276,4.706691103663793,6.420898036422414,-2.681393,-0.9447031,-2.3044891,347.18457,-11.908703,-21.94863
558138877000.0,-4.669513648611111,4.816978681712963,6.765991802083334,-2.5665503,-1.003957,-2.2629502,347.9022,-11.217541,-22.05418
558144641000.0,-4.083490694779694,4.953570344771712,7.193391988002873,-2.5124888,-1.2724323,-2.2369885,348.62433,-10.540695,-21.956806
558148849000.0,-3.507739307803078,5.298717519746198,7.085489791656917,-2.3793201,-1.3833044,-2.2137756,349.3162,-9.934864,-21.880146
558153788000.0,-2.686132679398794,5.9457859513275135,6.544847008532085,-2.3661866,-1.4645494,-2.147802,349.98935,-9.334612,-21.729908
558158934000.0,-1.825516301498963,6.664103248751762,5.992375462204528,-2.4196372,-1.2168436,-2.0738876,350.64334,-8.769855,-21.509207
558163859000.0,-0.9883698065603383,7.481690542647425,5.495564279696442,-2.6688702,-0.5681047,-1.9666806,351.24112,-8.181189,-21.375816
558168751000.0,-0.1568326180852617,8.293799586655055,5.0020819842995765,-3.170696,-0.048563786,-1.8741345,351.76114,-7.6294513,-21.172432
558173791000.0,-0.9072777306908322,5.858566225154855,8.337035188790447,-3.6841283,-0.70371675,-1.8637499,352.28992,-7.02217,-20.81644
558178982000.0,-2.079253082858552,2.5379690726748843,12.726197855624036,-3.7015378,-1.6001616,-1.6603317,352.7081,-6.4549947,-20.523106
558184047000.0,-3.8255982082144895,-0.5552745211523102,16.0776447387336,-3.3588426,-2.122146,-1.4230106,353.06866,-6.0250363,-20.01017
558188834000.0,-7.064690101051259,-3.092002961635563,16.791216508230786,-2.6548204,-1.7571539,-1.2098186,353.37692,-5.717062,-19.490583
558193727000.0,-10.375506192893814,-5.684902953130144,17.52058911490506,-1.5219707,-0.364992,-0.75869465,353.81564,-4.9490128,-19.033302
558198793000.0,-12.366905638548308,-6.937279266143534,17.993983718162497,-0.09865474,0.30757064,-0.014049901,354.07773,-4.530562,-18.492645
558203813000.0,-13.871968850907308,-7.711423666993625,18.371231342815104,1.0543534,-0.70554936,0.9059132,354.13638,-4.4204783,-17.871082
558208996000.0,-13.807556085769116,-8.712776623068596,17.71876361942722,1.666135,-1.920255,2.053729,353.98874,-4.091265,-18.029291
558214045000.0,-10.733426894892236,-10.0642519587639,15.144299836433422,1.9889772,-2.1606305,2.6123652,353.74628,-4.0598316,-18.1382
558218759000.0,-7.806905856095543,-10.906563929479889,12.788462535725364,2.019215,-1.6136005,2.3887885,353.46252,-3.9991937,-18.355555
558223815000.0,-4.522473989442664,-10.726320744700653,10.385219374935376,1.8829921,-1.2959507,2.0097466,353.06943,-4.051926,-18.3894
558228804000.0,-1.672093694729104,-9.871396281518784,8.2379077913622,1.6221527,-1.59558,1.6627752,352.73764,-3.9268143,-18.068773
558233789000.0,0.4582019514151287,-7.772686545247373,6.504191157862236,1.310306,-1.8307631,1.4001031,352.48392,-3.738904,-17.859798
558238738000.0,2.5731133160626336,-5.689132987613027,4.782994845085643,1.1279627,-2.3295345,1.29198,352.22174,-3.53647,-17.173075
558243772000.0,3.3901896,-4.8841715,4.1180267,0.6936375,-2.6624563,1.0968086,352.05228,-3.1465275,-16.479374
558248835000.0,3.3901896,-4.8841715,4.1180267,0.17898351,-2.7693577,0.95630956,351.8865,-2.677064,-15.716273
558253845000.0,4.5874941000167535,-2.6404036972692246,6.086037140224493,-0.2929099,-2.7678304,0.9245446,351.67953,-2.388708,-14.563763
558258821000.0,6.615331810051936,1.1597966384654042,9.41919573469593,-0.71959925,-3.186884,1.0204504,351.45724,-1.9587399,-13.265038
558263780000.0,8.257065164556963,4.785741799335962,12.475136696669434,-1.1780536,-4.499328,1.1407908,351.2306,-1.3621459,-11.711109
558268803000.0,8.267047582278481,7.755451137372899,14.411686907760949,-1.7373008,-5.7598486,0.9987647,351.01633,-0.60168207,-10.06021
558273779000.0,7.793242622850235,10.40195101541484,15.55754641400937,-1.8930714,-5.5478783,0.3827071,350.74887,-0.45819172,-8.026138
558278798000.0,5.930022611341999,12.22521900566722,14.500632203679915,-1.4300356,-4.1383066,-0.4792238,350.6161,-0.3186594,-6.0249557
558283984000.0,4.004806636111531,14.109153613646669,13.408550694461235,-0.9239337,-1.9926424,-1.1988231,350.69275,-0.5422778,-4.369934
558288773000.0,2.885037143043725,15.18188905205376,11.34289485190233,-0.77366084,0.183565,-1.3329079,350.87402,-0.77721655,-3.1844578
558293796000.0,2.101964991737649,15.910327687677457,8.547509638586032,-1.1273518,1.87444,-0.70157874,351.0498,-0.99412817,-2.512394
558298792000.0,1.8768452873600667,15.07460218847118,5.930926997635757,-1.9703459,3.2281175,0.28069258,351.20007,-1.4578869,-2.7633157
558303797000.0,2.2011965911612363,12.688017486716792,3.4722637312614872,-2.9938505,4.06317,0.8524625,351.25308,-1.7429388,-3.3393874
558308826000.0,2.4736364806779663,10.049628771872676,1.0564416458371229,-3.6997054,4.7058005,0.95722586,351.10806,-1.9874781,-4.3679204
558313807000.0,2.3316543420338984,5.585077383910707,-0.9155332478544852,-4.107458,5.1633387,0.90010995,350.80597,-2.024159,-5.5635033
558318725000.0,2.1914680023728814,1.1769939215543612,-2.86256647957007,-4.3233986,5.1990743,0.83108217,350.4705,-1.5691967,-6.7607603
558323850000.0,2.194690761073105,-0.9795281060496313,-3.187951289926224,-4.34203,4.9483137,0.8445212,350.1162,-1.0742563,-8.003805
558328879000.0,2.26575440991281,-1.987339571133468,-2.7324980666934944,-4.270559,4.5967607,0.88361657,349.76602,-0.562032,-9.226349
558333820000.0,2.335574550878605,-2.977515838578136,-2.2850145956270964,-4.1099014,4.416556,0.89675015,349.54572,0.6246579,-10.453007
558338811000.0,2.390541431352402,-3.8200412225307785,-1.56578446718319,-3.9999456,4.0295725,0.906524,349.3449,1.7992935,-11.526493
558343801000.0,2.4392010678422658,-4.598596699713043,-0.7385692426529669,-3.6957347,3.678936,0.89827734,349.16995,2.869627,-12.564799
558348796000.0,2.4040122763940346,-5.277154385199962,0.1585890629600075,-3.3173037,3.3454034,0.8536842,349.1726,4.1714892,-13.3826685
558353931000.0,2.29656775492543,-5.889121314999525,1.139604477000095,-2.83808,2.9944615,0.7733554,349.2132,5.3566957,-14.090537
558358775000.0,2.0949883307195574,-6.476271561070111,2.1238070259225093,-2.3182335,2.6267207,0.67103547,349.64505,6.7530456,-14.42452
558363827000.0,1.7577622041512917,-7.101131567712177,3.224751076476015,-1.7907515,2.2266037,0.552833,350.08987,7.97384,-14.643997
558368800000.0,1.3539647904401713,-7.581784955691242,4.21267957030894,-1.3475688,1.8099937,0.44135013,350.33603,9.008797,-14.882717
558373848000.0,0.8693380668823476,-7.929835009897019,5.115847691041648,-1.03786,1.3622295,0.35216382,350.59598,9.9283,-14.989473
558378819000.0,0.2071370549052186,-8.185311242353295,6.008094954051809,-0.9288206,0.88178396,0.26816985,350.84268,10.828142,-14.994815
558383821000.0,-0.8890540594517031,-8.239578088059814,6.912542986919417,-0.97005403,0.42241332,0.17165314,351.09186,11.680056,-14.872549
558388777000.0,-1.975164247926894,-8.293345878407976,7.808673424922588,-1.1795808,0.03970624,0.08307768,351.334,12.567534,-14.686422
558393802000.0,-2.7293660557939914,-8.18488822067239,8.055707743204577,-1.5048665,-0.27885997,0.015577064,351.56137,13.488263,-14.388343
558399507000.0,-3.3693225944206007,-7.9601706987660945,7.923808184012875,-1.8240436,-0.46273044,-0.020463986,351.7743,14.452547,-14.022305
558403828000.0,-3.8351722355897433,-7.900820174358974,7.587331601435897,-2.126422,-0.4605924,-0.04886922,352.0087,15.454044,-13.824431
558408840000.0,-4.352083956,-7.9697416,6.903038872,-2.381458,-0.1908954,-0.07727446,352.24652,16.505177,-13.652068
558413760000.0,-4.758783337756332,-8.224547405307598,6.211269588661037,-2.574797,0.36468655,-0.08979719,352.5223,17.573778,-13.67861
558418787000.0,-5.053988455217129,-8.708490146260555,5.480516206473663,-2.6896396,1.1456778,-0.1386664,352.85526,18.663994,-13.832034
558423758000.0,-5.082213700547723,-9.20906305225824,5.076921632306726,-2.7317894,1.9685133,-0.19486602,353.28558,19.807455,-14.2575245
558429473000.0,-4.767693188740235,-9.813531679806053,5.032692345694532,-2.7458394,2.6203065,-0.28221974,353.80692,20.947058,-14.822617
558433801000.0,-4.335185643676443,-10.186729051746685,5.133488697627499,-2.7027733,2.830444,-0.33353242,354.42612,22.162737,-15.549615
558438846000.0,-3.2566052166728934,-10.37175793741827,5.647957921100318,-2.6554313,2.963002,-0.44165558,355.16748,23.357014,-16.384766
558443784000.0,-2.1841404476723425,-10.434008452732764,6.063198861288107,-2.4975226,2.7253752,-0.5558874,355.923,24.583284,-17.095524
558448800000.0,-0.9439584531104092,-9.428009632188958,5.690484643765449,-2.3069327,2.2492058,-0.6337727,356.69788,25.759783,-17.742224
558453844000.0,0.3031464074498764,-8.416395188244987,5.315689884358692,-2.112983,1.7776178,-0.66248333,357.40454,26.903318,-18.084259
558458808000.0,1.2808191401450295,-7.45227885444657,4.843060300523718,-1.9489655,1.452943,-0.6407976,358.07355,27.975733,-18.32485
558463778000.0,1.218500926326921,-6.618173500231645,3.937049472847215,-1.8102992,1.289842,-0.57543504,358.69125,28.973038,-18.479536
558469047000.0,1.086201009511335,-5.8785180507808565,3.003419784856423,-1.7110336,1.3057245,-0.5015204,359.17682,29.820877,-18.353294
558473817000.0,0.7778229846246851,-5.6207693585894205,2.234776073420655,-1.641395,1.491733,-0.39950588,359.63202,30.609612,-18.241787
558478811000.0,0.4644643966944801,-5.445011044929397,1.5816114551508345,-1.5097535,1.840537,-0.2507602,0.08060574,31.299274,-18.275444
558483833000.0,0.1827799493068036,-5.599358572528884,1.4581333927792042,-1.2718215,2.3273966,-0.049480084,0.54124975,31.91117,-18.406286
558488818000.0,-0.0968291646373555,-5.752568931964056,1.3355650652358797,-0.9923506,2.864958,0.20250183,1.0514454,32.48183,-18.771587
558493799000.0,-0.7020809519821984,-6.4382795962616814,1.9498549162972851,-0.698219,3.3628132,0.46883908,1.5918444,32.951416,-19.268566
558498790000.0,-1.4295781655273698,-7.323188560747663,2.839018069692924,-0.47769663,3.7333028,0.7626653,2.1448762,33.325726,-19.897892
558503962000.0,-2.396670167339998,-8.309380693599918,4.060073576646398,-0.39522982,3.9080105,1.0983357,2.7214303,33.65704,-20.708235
558508845000.0,-3.5147926722663096,-9.307015890652377,5.501102485375657,-0.4999932,3.880827,1.4312572,3.2747242,33.933563,-21.594793
558513781000.0,-4.541779211409535,-10.09139605579846,6.450469246866541,-0.81581056,3.6587775,1.754405,3.7917268,34.21621,-22.572023
558518796000.0,-5.496733360483031,-10.696366584114095,6.980443598261503,-1.221425,3.3347135,2.0182989,4.2370687,34.493725,-23.549112
558523790000.0,-6.268218033424709,-11.228361487806032,6.881379870441441,-1.6142114,2.9709432,2.2696698,4.6025143,34.760822,-24.551908
558528788000.0,-6.92879763195009,-11.717009650108706,6.392731802627848,-1.8909334,2.8011227,2.3942864,4.9257655,35.04969,-25.524218
558533823000.0,-7.495893531933954,-12.21516293619357,5.950015602933427,-1.9764545,2.4523184,2.6141977,5.1178894,35.30776,-26.506147
558538771000.0,-7.957851171069735,-12.710414670428596,5.562969971104866,-2.024102,2.097406,2.734233,5.280578,35.580498,-27.425718
558543772000.0,-8.433330504247442,-13.280869277281637,5.180937786604225,-1.9569068,1.7192802,2.776077,5.456577,35.8666,-28.397161
558548803000.0,-8.942320642561533,-14.10469908876062,4.829367046536702,-1.824349,1.361924,2.7290404,5.5635157,36.104,-29.273836
558553798000.0,-9.439120716027874,-14.662951710940767,4.613428610425087,-1.6615535,1.1343768,2.5631905,5.746847,36.37518,-30.150808
558558828000.0,-9.925869609756097,-14.814011549268294,4.606714804780488,-1.5030339,0.97219205,2.3084598,5.9025106,36.606323,-30.913822
558563808000.0,-10.407780045296168,-14.963569798745644,4.60006773676655,-1.3811663,0.8035932,1.9669861,6.1657867,36.908134,-31.615385
558568798000.0,-11.168740561462815,-14.5982198537185,4.711294267854948,-1.2803736,0.5656612,1.5506815,6.4481926,37.20822,-32.181385
558573793000.0,-12.187990471573448,-13.755378842655194,4.931805148617086,-1.2030991,0.1554652,0.99296147,6.7542562,37.551308,-32.562866
558578822000.0,-12.239543893443429,-12.270692312395555,4.802137339290279,-1.1838568,-0.44837508,0.24556783,7.1377225,37.97292,-32.800434
558583806000.0,-11.554524865034896,-10.318857869851566,4.408017042661949,-1.1917981,-1.0800097,-0.43951756,7.5031395,38.4551,-32.83708
558588799000.0,-10.477271449216776,-8.444872333319859,3.768034707427994,-1.2034045,-1.6358972,-0.8527679,7.8307056,38.8618,-32.80736
558593804000.0,-9.053120069732188,-6.638039716038404,2.910636983830217,-1.2082914,-2.083356,-0.9569204,8.07815,39.318695,-32.59653
558598792000.0,-7.916575266439177,-5.26024600798672,2.012233461698792,-1.1881329,-2.389705,-0.8695667,8.174012,39.66157,-32.298286
558603781000.0,-7.0088547142857145,-4.224739971428571,1.0780748214285716,-1.144456,-2.5250115,-0.68416905,8.180562,39.985283,-31.955843
558608850000.0,-6.323848001225894,-3.418053874547765,0.2609518736769323,-1.1187997,-2.531731,-0.4615087,8.009828,40.238476,-31.599491
558613786000.0,-6.019967208760652,-3.008168220548662,-0.3326755686014351,-1.0390818,-2.4401011,-0.22693644,7.781944,40.424828,-31.287148
558618780000.0,-5.712515693855583,-2.5934662440349827,-0.9332783738563312,-0.91599244,-2.2452352,-0.002443461,7.5106063,40.564217,-31.048391
558623796000.0,-5.751618450331643,-2.697822790265314,-1.311468904629991,-0.7724391,-2.1227567,0.17928895,7.204607,40.6417,-30.85955
558628918000.0,-5.93981547881389,-3.026369913051112,-1.6017386865782286,-0.5867361,-1.7760907,0.30085114,6.973325,40.650524,-30.787893
558633996000.0,-6.126395820600859,-3.352094686480686,-1.8895149366237485,-0.4083634,-1.2904528,0.33292156,6.803415,40.634815,-30.819147
558638868000.0,-6.056500914785101,-3.8860202987870105,-1.473761713745941,-0.3304781,-0.6936375,0.30940324,6.7422543,40.587765,-30.952063
558643864000.0,-5.855430095071633,-4.548640255959885,-0.6877574198624641,-0.20005837,-0.01863139,0.20250183,6.8422775,40.50159,-31.180616
558648850000.0,-5.580696180222748,-5.128000310057374,0.1350384755450556,-0.10048734,0.59742624,0.06383542,7.1389165,40.45696,-31.545174
558654847000.0,-5.177527767397908,-5.744382697057036,1.1623425240418492,-0.039095376,1.063211,-0.051923547,7.5943036,40.40444,-31.988613
558658884000.0,-4.906126919878502,-6.159312778150523,1.8538927064299695,-0.016187929,1.3329079,-0.14660765,8.095912,40.42467,-32.38283
558663867000.0,-4.507825353978159,-6.66577498476014,2.981435751209048,-0.043676864,1.3842206,-0.24129178,8.6900015,40.46089,-32.7944
558668859000.0,-4.064991342121685,-7.169207233122075,4.30061477897816,-0.12370021,1.2247849,-0.31673363,9.318222,40.512875,-33.1969
558673852000.0,-3.65934971922556,-7.488630246801052,5.527505493267468,-0.26358834,0.8912524,-0.3481932,9.763247,40.64137,-33.377937
558678944000.0,-3.2785847999043902,-7.651815235407537,6.696997641144132,-0.42424592,0.43279803,-0.35338554,10.139236,40.795517,-33.49466
558684022000.0,-2.9187044414563186,-7.8088742448848,7.77175030270504,-0.6133087,-0.07941248,-0.34483343,10.2025,40.9706,-33.369545
558688890000.0,-2.8820449601321068,-7.871195286577023,7.37949350802076,-0.79137594,-0.5317582,-0.32925636,10.15347,41.17004,-33.176277
558693861000.0,-2.8446098159943385,-7.934834953432413,6.978937113941968,-0.95478237,-0.82527894,-0.32711834,9.786068,41.362915,-32.76983
558698850000.0,-2.87131616179983,-7.996308036905771,6.483201709877495,-1.0433578,-0.93279123,-0.31764993,9.349894,41.56948,-32.329174
558704877000.0,-2.986941781570229,-8.067462300177208,5.762765316665383,-1.044885,-0.88086766,-0.27672195,8.879372,41.78193,-31.880375
558709553000.0,-3.0819718053622944,-8.123878456813168,5.206789724673341,-0.9560041,-0.7266242,-0.18875736,8.431999,42.013203,-31.479105
558713787000.0,-3.336559143085016,-8.213328442558968,4.797385526726625,-0.799928,-0.52564955,-0.081855945,8.003284,42.21549,-31.114492
558718816000.0,-3.638949252061768,-8.319574068046835,4.311109260436111,-0.57879484,-0.32589662,0.019242255,7.7028513,42.42773,-30.854362
558724527000.0,-4.053724601206897,-8.48274527183908,3.9610166833908047,-0.3539964,-0.23518312,0.10567969,7.4079394,42.584995,-30.633371
558728812000.0,-4.4035577884195405,-8.628181209099616,3.807719043496169,-0.24801129,-0.1133155,0.14019357,7.164385,42.709194,-30.465445
558733783000.0,-4.75971370339224,-8.822026833841154,3.729056439488117,-0.05009095,-0.06536258,0.19608775,7.009941,42.785995,-30.393742
558738768000.0,-5.050636349085923,-9.04991616453382,3.7823922941499086,0.08124508,-0.05375614,0.23548855,6.873902,42.849876,-30.340801
558743862000.0,-5.232489887308424,-9.263138050185317,3.834276087308425,0.16493362,-0.070554934,0.24617869,6.792399,42.87926,-30.357065
558748800000.0,-5.279860656015226,-9.447884443854552,3.881646856015226,0.17684549,-0.099571034,0.24953845,6.7045174,42.89033,-30.379124
558753839000.0,-5.260095534462953,-9.563228671165996,3.881362628891442,0.15607607,-0.10140363,0.25320363,6.641893,42.891098,-30.42749
558758824000.0,-5.164121161018572,-9.595219810836683,3.8265200888761246,0.11789699,-0.08093964,0.2678644,6.5750413,42.89077,-30.476412
558763784000.0,-5.010208167355968,-9.478052376454746,3.8026950441281135,0.08674286,-0.05100725,0.28069258,6.5102773,42.9062,-30.519167
558768797000.0,-4.756243570020198,-9.108649194286814,3.830400343060498,0.08552113,-0.014966198,0.29260445,6.4498396,42.9206,-30.568058
558773755000.0,-4.5979745117842326,-8.76285984536653,3.854941639723375,0.11301007,0.01038471,0.29046643,6.4000797,42.95509,-30.6032
558778797000.0,-4.669213020442601,-8.460096694974643,3.872751220396496,0.14905111,0.036651913,0.26847526,6.361497,42.989155,-30.641384
558783804000.0,-4.741307413146735,-8.164296234096692,3.8900680932994063,0.21563543,0.08368854,0.2611449,6.2989907,42.987892,-30.674578
558788796000.0,-4.82240560754877,-7.902570166088365,3.9048132195543217,0.28588495,0.1469131,0.25961772,6.251386,42.98205,-30.710161
558794588000.0,-4.916500307463953,-7.598900817950497,3.921921346811628,0.36041048,0.21624629,0.24037547,6.214395,42.928524,-30.782526
558798808000.0,-5.026029810199876,-7.327898822367608,3.918578543746136,0.4166101,0.29810223,0.226631,6.197762,42.86514,-30.867128
558803804000.0,-5.183773903338142,-6.972975024593035,3.9037900543169175,0.45478916,0.38728857,0.2144137,6.2059736,42.795464,-30.959274
558808811000.0,-5.3157209121162,-6.5959664985940245,3.91246271365657,0.46700647,0.49602258,0.19608775,6.2430763,42.68211,-31.101656
558813770000.0,-5.428643540225369,-6.208101233216169,3.937011122216479,0.43768495,0.5925393,0.172264,6.305668,42.57572,-31.251135
558818863000.0,-5.516745402564828,-5.847897056558227,3.960765900801509,0.3631594,0.6817256,0.15974127,6.3952456,42.42949,-31.465578
558823812000.0,-5.588252175898161,-5.517178183224894,3.983111767468176,0.24984388,0.72418076,0.15393804,6.5034833,42.303593,-31.681572
558828940000.0,-5.65601443152632,-5.174976683923145,3.998825165572003,0.1853976,0.8032878,0.16462818,6.6333313,42.12805,-31.962486
558833818000.0,-5.71554821946868,-4.849830894549554,4.007984195157338,0.05222898,0.87598073,0.18142697,6.7759976,41.992252,-32.245083
558838776000.0,-5.818837914987029,-4.556325963220914,4.015028898902415,-0.08124508,0.93767816,0.21991149,6.9215555,41.81883,-32.580887
558843864000.0,-5.969559380562762,-4.29377866487727,4.019890878387548,-0.22052236,0.97127575,0.29260445,7.072798,41.66533,-32.92971
558848792000.0,-6.144678086093289,-4.169979369585573,4.018190236622161,-0.32436943,0.9981538,0.36713,7.2365127,41.49398,-33.324642
558853815000.0,-6.353210670357204,-4.17832097257673,4.009848851378533,-0.3866777,0.9969321,0.4560109,7.388008,41.325127,-33.732265
558858797000.0,-6.567617719706691,-4.229979109379774,4.007596410937977,-0.39584067,0.98868537,0.5363397,7.55366,41.127,-34.189457
558864163000.0,-6.834533511396272,-4.491661097362257,4.033764609736226,-0.36102137,0.9642508,0.5919284,7.704376,40.919907,-34.64913
558868726000.0,-7.038744372021046,-4.751508090374497,4.048951740596307,-0.30787608,0.93584555,0.63529986,7.8693466,40.684513,-35.146603
558873851000.0,-7.180524300835654,-5.186974470752089,4.03882472367688,-0.21288654,0.9239337,0.6606508,8.027394,40.429085,-35.64106
558878858000.0,-7.258945842286841,-5.584646933464761,4.042936947264662,-0.10048734,0.93187493,0.6618725,8.188982,40.15476,-36.149
558883857000.0,-7.192879610172499,-5.9149785867915226,4.08068907990143,-0.0021380284,0.9630291,0.6450737,8.357299,39.869175,-36.64898
558888909000.0,-7.066884988364601,-6.215322379495926,4.110947177942013,0.095294975,1.0348058,0.63804877,8.562627,39.598804,-37.136307
558893849000.0,-6.788963275080539,-6.421522070418798,4.119912337123366,0.17348573,1.1136073,0.63071835,8.786618,39.323586,-37.61545
558898837000.0,-6.490337168980596,-6.599074031784641,4.10862788507789,0.23671028,1.1841623,0.6273586,9.021146,39.07581,-38.057816
558903865000.0,-6.0867662170265096,-6.603460672068871,3.9814153626400657,0.26236662,1.2831224,0.6374379,9.288295,38.824547,-38.51038
558909226000.0,-5.652698976075033,-6.604173696598044,3.857275378189333,0.28008172,1.3435981,0.6795876,9.533863,38.608234,-38.90786
558913866000.0,-5.172343722915508,-6.494681055949448,4.069196728797393,0.24678956,1.3552046,0.7440339,9.788256,38.39236,-39.31339
558918854000.0,-4.655961825769016,-6.376976467252206,4.297012180701057,0.14385876,1.3368785,0.7696902,10.028643,38.228245,-39.670044
558923851000.0,-4.340600357448489,-6.288864201599631,4.437001190540451,0.040011674,1.3054191,0.79076505,10.256465,38.05854,-40.03304
558928861000.0,-4.2805901810282405,-6.238329293627806,4.465427127805937,-0.023518313,1.25319,0.8530733,10.458795,37.88583,-40.397457
558934011000.0,-4.218903073530379,-6.186382232539003,4.494647402639721,-0.13530666,1.2156218,0.9309586,10.542287,37.759045,-40.660564
558938868000.0,-4.221805111600587,-6.196668276274386,4.4474011739039225,-0.19272798,1.2110404,1.0189233,10.605283,37.61904,-40.931023
558943855000.0,-4.31197387958884,-6.291846536500944,4.292110052968324,-0.1554652,1.2556335,1.094976,10.659126,37.46869,-41.212063
558948850000.0,-4.416919122778675,-6.449197974151858,4.209958131502424,-0.03726278,1.3271047,1.1707232,10.668943,37.287094,-41.506588
558953937000.0,-4.538908916558966,-6.67350180177706,4.202087909709208,0.14508049,1.3878858,1.2287555,10.6792145,37.07955,-41.812683
558959199000.0,-4.652056474291248,-6.922825481158655,4.215463862334918,0.3585779,1.4049901,1.2718215,10.712266,36.841248,-42.150272
558963805000.0,-4.628754364236661,-7.303425530639197,4.429065956576862,0.6032294,1.3842206,1.3087788,10.743346,36.562725,-42.495613
558968723000.0,-4.603873822063743,-7.709806564800141,4.657136972530375,0.8338311,1.3371841,1.3332134,10.779765,36.267944,-42.840782
558973795000.0,-4.542869536695479,-7.744428577672872,4.761277162134308,1.0235047,1.2760975,1.3548992,10.7997,35.940872,-43.18046
558979939000.0,-4.452888409886968,-7.611412856821809,4.827784940857713,1.1554517,1.1786644,1.3680327,10.792137,35.5919,-43.502537
558983749000.0,-4.397089566602394,-7.528927522114362,4.869027557546542,1.2281445,1.0711522,1.3982705,10.7041855,35.263554,-43.749405
558988875000.0,-4.326666929630666,-7.248970122467823,4.890829315193061,1.2302825,1.0112875,1.4376713,10.598823,34.92934,-43.987373
558993863000.0,-4.259838476021264,-6.914827017039731,4.899739747761611,1.212262,0.9437868,1.4724907,10.455049,34.590202,-44.205986
558998851000.0,-4.230274115993629,-6.595815934498266,5.066489572753677,1.1838568,0.8399397,1.5079209,10.233424,34.234665,-44.406265
559004026000.0,-4.225630531715544,-6.275414922599082,5.349742395296543,1.1459832,0.6713409,1.5714508,9.960816,33.878616,-44.59137
559008855000.0,-4.251896434605094,-5.94843248616589,5.590636976513725,1.1163563,0.42638394,1.6719382,9.586985,33.479958,-44.78226
559013962000.0,-4.314904344435636,-5.570384571697552,5.818435189773065,1.1355985,0.18112154,1.7757853,9.1530485,33.07645,-44.949627
559018842000.0,-4.405951532960788,-5.320515686796742,5.969664860011366,1.1826351,0.063224554,1.8723019,8.595017,32.621964,-45.113583
559023857000.0,-4.537870637715476,-5.202243195984088,6.042447909357834,1.2174544,-0.18509217,1.9208658,7.922438,32.16917,-45.21058
559028847000.0,-4.822809518227461,-4.999036470908826,6.338805524412429,1.278541,-0.49296826,2.0097466,7.1057963,31.627554,-45.317635
559033862000.0,-5.42040363992578,-4.62160869484101,7.090166231317762,1.3243558,-0.9615019,2.1471913,6.1570315,31.075623,-45.354027
559038843000.0,-6.013946276053263,-4.2467397511533145,7.836432967328823,1.3900238,-1.488984,2.3380868,5.0579185,30.458769,-45.36157
559043853000.0,-6.532211136660125,-4.136302441351275,8.068907228744978,1.5076154,-1.8918496,2.5054638,3.8529356,29.817377,-45.307186
559049645000.0,-7.066113918680497,-4.229605926857303,7.908218388748715,1.6630806,-2.1337523,2.6493225,2.5283897,29.13964,-45.194035
559053825000.0,-7.3661830641156305,-4.436489177300102,7.843269927990364,1.8356501,-2.1951442,2.7284296,0.98345494,28.274168,-45.08088
559058873000.0,-7.634933289632169,-4.839614702659131,7.820874075863986,1.992337,-2.1496348,2.6984973,359.43124,27.393764,-44.922035
559063776000.0,-7.8340983154771,-5.230680779083969,7.791557602270992,2.0851886,-2.0912971,2.5485299,357.98654,26.499851,-44.81582
559068862000.0,-7.871279790248092,-5.635028649923664,7.740433304980916,2.1529946,-2.0555615,2.310598,356.6274,25.63087,-44.67189
559073807000.0,-7.867624393668324,-5.990014998067366,7.643559488864348,2.1978931,-2.0002782,2.044566,355.4427,24.850876,-44.52333
559078845000.0,-7.681133082422234,-6.176506262948647,7.328300124608872,2.2427917,-1.9443841,1.785559,354.38474,24.131708,-44.33301
559083965000.0,-7.485058412539283,-6.354282022988686,7.003072700502829,2.2800546,-1.8390098,1.5714508,353.51157,23.539122,-44.1302
559088875000.0,-7.134091936580767,-6.232367317064739,6.570829908233815,2.2815816,-1.7348573,1.4089607,352.75528,23.008512,-43.906067
559093815000.0,-6.7809810626021365,-6.109707714770584,6.135946121307354,2.266921,-1.6337591,1.3020593,352.1262,22.557587,-43.69623
559098851000.0,-6.194889389566929,-5.604746851968503,5.421256918346457,2.2482896,-1.5570955,1.2315043,351.58102,22.148375,-43.488304
559103844000.0,-5.357150728198818,-4.672880066141732,4.404675139940945,2.2440135,-1.5195273,1.1844677,351.09775,21.769453,-43.285374
559108834000.0,-4.8841715,-3.90890011113381,3.637463994637385,2.284636,-1.4767667,1.128879,350.64606,21.390043,-43.108925
559113855000.0,-4.8841715,-3.358794427579163,3.190502934422881,2.325564,-1.4636332,1.071763,350.2299,21.033468,-42.92915
559119662000.0,-4.691588924899638,-2.8033356977969257,2.7064686367962403,2.3738225,-1.3976597,0.9795224,349.82092,20.599333,-42.834713
559123860000.0,-4.439653228336434,-2.449051051287575,2.375802991383531,2.4220808,-1.3570372,0.9211848,349.43527,20.175547,-42.735058
559128843000.0,-4.2681725579235374,-2.054986741410929,2.0453193096945945,2.4352143,-1.2525792,0.79381937,349.10678,19.692564,-42.747623
559133915000.0,-4.260988718597944,-1.6886106732603712,1.7902927885972049,2.4465153,-1.1191051,0.6560693,348.83078,19.228456,-42.77041
559138851000.0,-4.253997505878873,-1.332058569082304,1.542104518065518,2.4449883,-0.96669424,0.5329799,348.5748,18.726437,-42.851868
559143847000.0,-4.345139127558733,-0.8883090066149131,1.2601277599877423,2.4220808,-0.78038037,0.44043383,348.3981,18.261095,-42.965313
559148768000.0,-4.47029870555669,-0.4213667872196118,0.971297561709908,2.3671029,-0.5516113,0.36254853,348.30276,17.836338,-43.118267
559154069000.0,-4.6211165956711655,-0.0357798868361692,0.8031843740230784,2.293799,-0.28924468,0.29046643,348.23788,17.345428,-43.403454
559158818000.0,-4.760471989764652,0.278510945583154,0.6905140750244475,2.19209,0.004581489,0.21746802,348.25137,16.89855,-43.74888
559163832000.0,-4.907603585044658,0.6103395902979334,0.5715566357363584,2.0775528,0.3915646,0.17898351,348.28302,16.364859,-44.28808
559168860000.0,-5.931718903982985,1.5121114783449343,0.1001546809938128,1.9159788,0.8881981,0.19486602,348.39023,15.87562,-44.92973
559173904000.0,-7.328018157424594,2.656236185846868,-0.5209416041183295,1.7470746,1.5085317,0.25900686,348.57785,15.418406,-45.703312
559178883000.0,-8.631137610807032,3.4586112915801035,-0.9592455796444266,1.5668694,2.2091942,0.3463606,348.787,14.850913,-46.662666
559183842000.0,-9.888151290531365,4.080002768837395,-1.3007737719936077,1.3701707,2.983466,0.45631635,349.06903,14.310183,-47.80936
559189552000.0,-11.433092104523896,4.64152294795695,-1.6505090546333454,1.181108,3.7998872,0.62888575,349.39362,13.488381,-49.544106
559193854000.0,-12.631798261218533,5.009777640094856,-1.8985171965705947,1.0170907,4.6486845,0.8155051,349.77402,12.6887045,-51.481598
559198854000.0,-14.126735354297248,5.44198264887921,-2.1604687448209923,0.88208944,5.537493,0.9605856,350.20496,11.737009,-53.912098
559204247000.0,-15.877039720599171,5.913851528619993,-2.407376991490492,0.79168135,6.4348545,1.0253373,-25.59953,10.814944,-56.521038
559208666000.0,-16.867189498081196,6.34231117098566,-2.3179895321551203,0.73273283,6.914384,1.0067059,-25.388279,9.791125,-59.447132
559213686000.0,-17.644011937992325,6.861810854483943,-1.9878402233286203,0.70646566,7.9174247,0.97158116,-25.168507,8.818176,-62.646877
559218710000.0,-18.005154905470203,7.003399019101673,-1.1178829672570705,0.68844515,8.81112,0.91232723,-24.902105,7.8096147,-66.00495
559223705000.0,-18.02387919013602,6.834879675036696,0.1881436355905663,0.7834347,9.475131,0.816116,-24.583166,6.877701,-69.40849
559229738000.0,-17.67873769227699,6.404074516822989,2.8266238083416484,0.9810496,9.872193,0.73456544,-24.216421,5.9320903,-72.83981
559233710000.0,-17.28400007862702,6.016927616324087,5.047024837038515,1.2235631,9.961685,0.7058548,-23.793373,5.0560265,-76.20078
559238688000.0,-16.784569504988028,5.777197335355147,8.065406177174781,1.425454,9.786061,0.7189884,-23.32633,4.2582583,-79.23294
559243681000.0,-16.278922158719073,5.781967583000798,11.328257957701515,1.5283848,8.999267,0.7284568,-22.804953,3.516265,-81.99054
559248684000.0,-15.71250338492443,6.084848755079396,13.758754593648366,1.6245961,7.465995,0.75900006,-22.264229,2.855347,-83.97093
559253714000.0,-15.081216732925196,6.697703781863401,15.334667450927876,1.7928895,5.1175237,0.8173377,-21.66665,2.2186403,-85.486084
559258756000.0,-14.380321427692849,7.177342839008961,16.561261609031806,2.0045543,2.5341744,0.88453287,-21.123137,1.6077847,-86.13385
559263726000.0,-13.594151439992972,7.4617022928835,17.27634208258654,2.0069978,0.29840767,0.86437434,-20.592138,1.0281632,-86.21191
559268685000.0,-12.702927359197462,7.725412814013717,17.942971511925478,1.6001616,-1.4679092,0.7171558,-20.186464,0.422486,-85.46277
559273711000.0,-11.05726966874808,7.8535177801515,18.292796340669465,0.9663888,-2.8634307,0.5158757,-19.84635,-0.1424292,-84.140495
559278716000.0,-9.393451904903024,7.957484310987497,18.32472328305602,0.29443705,-3.890906,0.3304781,-19.665348,-0.67698306,-82.33839
559283956000.0,-7.530816184513144,7.952543636378852,16.8326393448853,-0.30024028,-4.562858,0.21319197,-19.63718,-1.1394608,-80.29796
559288749000.0,-5.901452827749695,7.924359271631514,15.37422993080007,-0.80573124,-5.0588803,0.1881465,-19.79276,-1.5469656,-78.01064
559293723000.0,-4.614468345860206,7.766599849128464,13.352418143803382,-1.1902709,-5.554598,0.24556783,-20.07444,-1.8993043,-75.591995
559298682000.0,-3.3313649993202024,7.609316178804253,11.33670349729824,-1.3857478,-6.0460386,0.36774087,-20.447119,-2.2425392,-73.18611
559303876000.0,-2.4727717370677262,7.079955801538851,8.537915990141203,-1.2962561,-6.367354,0.54550266,-20.851696,-2.592198,-70.71536
559308780000.0,-1.7421132623911388,6.520049199898537,5.782063163287394,-0.8738427,-6.4489045,0.7287622,-21.227612,-2.9736323,-68.20259
559313790000.0,-1.4618374068992024,5.929733071154031,2.9104805692514653,-0.23060162,-6.3881235,0.829555,-21.525513,-3.4181097,-65.8484
559318803000.0,-1.6463613752474295,5.320803763659075,-0.0188379701835303,0.10934488,-6.0231314,1.029308,-21.82556,-3.9424267,-63.55868
559323792000.0,-2.0365977588799384,4.881478747871117,-2.7191078355964717,0.72326446,-5.46816,1.2583824,-21.891762,-4.584215,-61.654495
559328931000.0,-2.730368031923667,4.664380539700805,-5.196858698110855,1.1908818,-4.643492,1.5396858,-21.94841,-5.319943,-59.916454
559333787000.0,-3.5633526491671623,4.344192715615705,-7.70827848364069,1.6606371,-3.3099732,1.7632625,-21.854992,-6.1595817,-58.818993
559338965000.0,-4.81216586041047,3.768951979803688,-10.731980054491371,2.352442,-1.6404786,1.9113973,-21.61375,-7.15625,-58.026993
559343744000.0,-6.453762178887304,3.48939492382311,-11.995861934522113,3.1609223,-0.0693332,2.05434,-21.220577,-8.3004675,-57.898144
559348798000.0,-9.275438496718971,3.751769380504042,-9.94289709410366,3.8133264,1.1365148,2.251344,-20.687456,-9.570286,-58.086987
559353886000.0,-11.822540193066668,3.8033917828266666,-8.144556162133332,4.180456,1.9636264,2.5060747,-19.947851,-10.901954,-58.987057
559358819000.0,-13.337896154057145,3.162695020708572,-7.273496230399999,4.300797,2.497828,2.74981,318.25912,-12.30888,-60.03129
559363801000.0,-14.868304302780952,2.5156341512838094,-6.393783970133334,4.1783185,3.9223657,2.6929994,315.04755,-13.528086,-61.50499
559368805000.0,-16.020664652685152,1.575758684036504,-5.181806901798877,3.4012976,5.9336395,2.1496348,311.3287,-14.557698,-63.150173
559374677000.0,-17.06187083309933,0.2384747628290626,-3.494164576912952,2.0977113,7.5353284,1.317331,307.00507,-15.3668375,-64.91896
559378908000.0,-17.641788501648186,-0.5844004513874738,-2.178202615852562,0.7648033,8.605869,0.38606682,302.21725,-15.5897255,-67.1085
559383849000.0,-18.014015930776146,-1.2934055817261012,-0.4624102341923879,-0.5357288,9.00843,-0.4447099,296.5628,-15.489723,-69.36244
559388748000.0,-18.38307931375487,-1.996383953215463,1.238797391339527,-1.7504344,8.819061,-1.0351112,290.68216,-14.981484,-71.53452
559393807000.0,-18.660795251444565,-2.285191631076201,3.188799050695197,-2.8799243,8.232631,-1.4110987,283.991,-14.282027,-73.56349
559398804000.0,-18.8768270749368,-2.324077368327916,5.223815976688336,-3.8854084,7.362148,-1.6383406,276.67,-13.477231,-75.33878
559403894000.0,-17.691557684614637,-1.6565866307901644,7.706944825153075,-4.6480737,6.2971044,-1.7467692,270.1719,-12.529216,-76.83754
559409078000.0,-14.65170069404218,-0.0546303668189329,10.770927644863448,-5.0185633,5.1789155,-1.7018706,263.8178,-11.618288,-78.08681
559413766000.0,-12.365797600627138,1.0710189790763969,12.731614304874572,-4.722599,4.582711,-1.625207,-20.042633,-10.73468,-79.12996
559418797000.0,-10.69933526054732,1.7302789435575827,13.459546797890535,-4.217719,3.1077769,-1.4187346,-21.363493,-9.9470215,-79.95882
559423724000.0,-9.26708195467316,2.297377143182244,13.883055652416184,-2.9956832,1.4059063,-1.1808025,-22.527643,-9.454749,-80.41553
559429012000.0,-8.361233391271774,2.6578195146375725,13.42301723286196,-1.8182404,-0.22571471,-0.9098838,-23.535458,-9.041973,-80.70822
559433805000.0,-7.621931297263406,2.941461433097293,12.920444909050676,-0.8961393,-1.72264,-0.64843345,-24.361147,-8.793883,-80.67093
559438874000.0,-7.389179433502987,2.9522037721619827,11.813979461163974,-0.2669481,-3.0057623,-0.37598756,-24.91589,-8.631114,-80.29535
559444644000.0,-7.124239947628531,2.9644316862285165,10.554499162425316,0.16584991,-3.9978075,-0.10751228,-25.251148,-8.602589,-79.51532
559448849000.0,-6.995642352614245,2.928048459263071,9.573630808974888,0.46089783,-4.6767845,0.13622294,-25.440683,-8.651459,-78.35869
559454037000.0,-6.913823669754358,2.829184095848772,8.288393693014958,0.66645396,-5.0607133,0.36041048,-25.533209,-8.778187,-76.88216
559458819000.0,-6.838407913887745,2.7380566120694385,7.103736042953204,0.8170323,-5.2015176,0.54733527,-25.513315,-8.9898405,-75.29473
559463822000.0,-6.771183161509623,2.4764339349412645,5.168732593741565,0.9593639,-5.1224103,0.68691796,-25.450739,-9.259816,-73.59286
559468881000.0,-6.714673377064067,2.0485741625093725,2.52891847504124,1.0708468,-4.8362203,0.7519751,-25.368351,-9.566596,-71.866646
559473782000.0,-6.661125674230101,1.6616455656218587,0.1293407113478936,1.1643091,-4.3640213,0.7657196,-25.203695,-9.91549,-70.360054
559478975000.0,-6.615678785698621,1.5116713649639038,-0.9250234390569314,1.2400564,-3.748269,0.7360926,-25.02713,-10.274371,-68.96874
559483804000.0,-6.573417467632277,1.3722095095860367,-1.905482611463036,1.3066407,-3.036611,0.66920286,-24.757227,-10.629952,-68.091896
559488784000.0,-6.5083985033527405,1.3642845107809676,-2.644284963501305,1.3494014,-2.2840252,0.59498274,-24.480614,-10.970397,-67.41369
559493791000.0,-6.441010927855852,1.369097905440675,-3.3614812704075487,1.3640621,-1.4914275,0.55741453,-24.197784,-11.296982,-66.951225
559498805000.0,-6.46929468334604,1.466783078077086,-3.501250541922914,1.2990049,-0.7324274,0.54061574,306.95334,-11.612556,-66.799545
559503957000.0,-6.506910742439644,1.5754516108005083,-3.593200889199492,1.1713341,-0.04795292,0.5516113,306.35416,-11.913203,-66.83386
559508783000.0,-6.6052675626841575,1.6534805846619576,-3.446531394409687,0.98807454,0.2828306,0.56779927,305.42545,-12.236023,-67.02178
559514634000.0,-6.780550297416751,1.7269862076185671,-3.062040457184662,0.8677341,1.1496484,0.5684101,304.00116,-12.543249,-67.49211
559519105000.0,-6.855613434056761,1.7941084192543126,-2.6119581202003337,0.40378192,1.3903292,0.5543602,302.5958,-12.823833,-67.87253
559523810000.0,-6.909941521841959,1.8693319522723055,-2.0728563663049524,0.22174409,1.7993035,0.5503896,300.68506,-13.11561,-68.46259
559529029000.0,-6.99461770452358,2.004953861982676,-1.5156794256015398,-0.14905111,2.1319196,0.539394,298.6582,-13.349355,-69.027664
559533836000.0,-7.100274546679499,2.1890012828163177,-1.0487443432368402,-0.5122105,2.4193318,0.52748215,296.38403,-13.564845,-69.63236
559538759000.0,-7.20848104427334,2.3774900393721774,-0.5705414286370032,-0.8362745,2.6823094,0.52595496,293.96716,-13.756047,-70.19818
559543799000.0,-7.442194163832199,2.5335730819161,-0.1310241735175736,-1.07665,2.8900034,0.5225952,291.3564,-13.922685,-70.765785
559548753000.0,-7.720113376606197,2.672532688303099,0.2813720947571806,-1.2211196,2.9953778,0.5323691,288.57007,-14.077688,-71.30988
559554083000.0,-8.074708319183408,2.806266629293584,0.6909902143980882,-1.2770138,2.9458976,0.55741453,285.77777,-14.241012,-71.75103
559558830000.0,-8.42089629228775,2.916752054439404,1.037178137509721,-1.2006557,2.754086,0.605062,282.9708,-14.412794,-72.127754
559563803000.0,-8.8002059844062,3.0333880772273463,1.3830996493201482,-1.0348058,2.4584272,0.66614854,280.32306,-14.597858,-72.39853
559568852000.0,-9.29215246933536,3.1575241536940197,1.6267741253399255,-0.8078693,2.0705278,0.73792523,277.90073,-14.803429,-72.57265
559573967000.0,-9.782246709834538,3.2752678,1.8603603837762337,-0.5128214,1.6554449,0.81183994,275.84293,-15.029119,-72.636765
559578990000.0,-10.144036910751378,3.2752678,1.898262212635198,-0.17531833,1.237613,0.87964594,274.14587,-15.278419,-72.6116
559584244000.0,-10.522465283360791,3.2752678,1.9379070879736409,0.13775012,0.8872818,0.93737274,272.82773,-15.547735,-72.50461
559588738000.0,-10.88580055582623,3.227784279902558,1.9135533100284208,0.41325033,0.6215554,0.960891,271.83566,-15.829202,-72.344154
559593856000.0,-11.433055121599676,3.013857646224117,1.6896764469346326,0.62980205,0.44776422,0.93523467,271.10428,-16.113129,-72.15212
559598758000.0,-12.062260900257217,2.725164043869677,1.4332474719977135,0.763887,0.36835176,0.8695667,270.57184,-16.37921,-71.95836
559603965000.0,-13.03849713310946,2.1729135525578736,1.0377649288168047,0.7819075,0.355829,0.73914695,270.18427,-16.614426,-71.78218
559608799000.0,-13.944801329308373,1.660223159817091,0.6706125159617032,0.7247916,0.38331795,0.6462954,269.81396,-16.814266,-71.64676
559613861000.0,-14.593824389528905,1.2840604009463077,0.4930134522032503,0.66614854,0.50610185,0.43035457,269.47397,-16.937399,-71.59086
559618857000.0,-14.908792846636494,1.0872049482411028,0.5422273307961325,0.48288897,0.7058548,0.20280726,269.0876,-17.020033,-71.57638
559623847000.0,-15.008632931522111,0.9806188809950293,0.7472642555536511,0.2415972,0.8921687,-0.00580322,268.52805,-16.945189,-71.75004
559629026000.0,-14.919366199691463,0.9508633111158724,1.100080301576963,-0.039095376,1.0201449,-0.16920967,267.90903,-16.814098,-71.97876
559633815000.0,-14.793984387035724,0.9444131572036906,1.4247035422758456,-0.33475417,1.0586295,-0.26908615,267.2937,-16.618336,-72.26146
559638778000.0,-14.490388194069869,1.0231233197184764,1.7545365930604842,-0.57696223,1.0415252,-0.35246924,266.65927,-16.38057,-72.579506
559643732000.0,-14.187342548300608,1.1016907477052282,2.0837715182241148,-0.77366084,0.9786061,-0.42088616,266.21036,-16.11939,-72.887375
559648798000.0,-13.76428831132559,1.261407280073454,2.360814549248377,-0.8698721,0.86467975,-0.45234573,265.84113,-15.848947,-73.19164
559654139000.0,-13.253140287154082,1.4754776894943629,2.618572723778613,-0.91813046,0.72082096,-0.46211955,265.57852,-15.569224,-73.490456
559658796000.0,-12.760451291339365,1.7097480186039573,2.8169390050710947,-0.90133166,0.5323691,-0.43890667,265.64087,-15.321343,-73.718925
559663788000.0,-12.132970243710847,2.061517784060853,2.9738095151635675,-0.83199847,0.3118467,-0.40042216,265.87927,-15.081793,-73.92171
559668723000.0,-11.385687418774967,2.479477434325661,3.0719517845253947,-0.70432764,0.067500606,-0.33841935,266.39645,-14.911505,-74.0213
559673860000.0,-10.28609923035952,3.0924396257180904,3.0298397685942557,-0.52381694,-0.183565,-0.27580565,267.11652,-14.759316,-74.08158
559679122000.0,-9.35059295184903,3.5968564694084795,2.960042082432089,-0.3268129,-0.4352415,-0.22266038,268.06146,-14.698114,-74.01761
559683795000.0,-9.024900234746552,3.7180443596851993,2.8274928348565624,-0.13561209,-0.68325275,-0.17012598,269.17984,-14.658872,-73.90726
559688820000.0,-8.674674276381484,3.848360890530592,2.684959137217568,0.030543262,-0.88606006,-0.12156218,270.23984,-14.723251,-73.68681
559693844000.0,-8.460154612837071,3.879628080181517,2.3126153957936992,0.13041973,-1.0656544,-0.09621128,271.4327,-14.796161,-73.432686
559698722000.0,-8.276700052491492,3.891858370014836,1.909015533310062,0.2144137,-1.1337659,-0.09010262,272.6247,-14.878636,-73.16136
559704155000.0,-8.150851462470795,3.8403480207359815,1.3841273361331776,0.24220806,-1.183246,-0.10354166,273.74576,-14.973251,-72.87737
559708818000.0,-8.094335058119158,3.753399685397196,0.8841745849766355,0.22357668,-1.1695015,-0.11301007,274.8042,-15.069738,-72.59156
559713780000.0,-8.098106568697856,3.63981259564896,0.3546483045854894,0.21013765,-1.0952814,-0.12461651,275.5831,-15.180452,-72.33498
559718859000.0,-8.170021968951316,3.5011182952793325,-0.1847183880832189,0.17287487,-0.9660834,-0.13683382,276.26855,-15.284215,-72.09507
559723802000.0,-8.261110779164273,3.386632770371891,-0.5217248738141368,0.10567969,-0.8020661,-0.14294247,276.58218,-15.39618,-71.91311
559729035000.0,-8.372195499220098,3.2796628354158117,-0.748007496604548,0.0290161,-0.6169739,-0.1414153,276.7625,-15.501748,-71.76036
559733808000.0,-8.47728165750957,3.182350722472416,-0.9135510261540194,-0.049480084,-0.41874814,-0.12705997,276.58554,-15.607648,-71.67677
559738887000.0,-8.608712743301059,3.080126269308714,-0.8770422721864445,-0.14905111,-0.24556783,-0.12339478,276.2921,-15.703812,-71.62177
559743730000.0,-8.734036773324327,2.982651761202432,-0.8422299281295503,-0.24037547,-0.10995574,-0.11942416,275.7818,-15.787925,-71.62023
559748796000.0,-8.917956002295334,2.827737309487376,-0.5596386756082632,-0.31429017,-0.01282817,-0.1255328,275.18283,-15.864821,-71.638
559753970000.0,-9.162275422851314,2.6129051144520954,-0.0078149887222647,-0.36865717,0.070554934,-0.12461651,274.49905,-15.940107,-71.667534
559758997000.0,-9.370144145354868,2.434960221329085,0.480186960460809,-0.39858958,0.1432479,-0.12156218,273.7992,-15.991491,-71.72042
559763814000.0,-9.441914519039855,2.397366102207734,0.7399285721143873,-0.39370266,0.21074851,-0.12675454,273.05634,-16.039349,-71.781395
559769470000.0,-9.526185483034524,2.353224034997777,1.0449106264039116,-0.3747658,0.2519819,-0.12186762,272.5588,-16.033346,-71.84695
559773798000.0,-9.574168475313446,2.344081143121487,1.29825641511457,-0.34880406,0.2773328,-0.12644911,272.03906,-16.024075,-71.919716
559779078000.0,-9.613519427323824,2.361570292797233,1.6305504872287075,-0.32467487,0.27672195,-0.118507855,271.5135,-16.020803,-71.98659
559783864000.0,-9.64222409143127,2.3907166612558037,1.930394551255016,-0.29046643,0.21746802,-0.11148291,271.15204,-16.0032,-72.03708
559788877000.0,-9.630891295538596,2.5002647732158314,2.2363738870170744,-0.24251351,0.14721853,-0.10262536,270.81146,-15.990041,-72.0812
559793809000.0,-9.619741614839878,2.6080428079628613,2.537409211967897,-0.20341812,0.057726767,-0.090713486,270.68018,-15.967725,-72.0988
559798847000.0,-9.607175509249636,2.674606463541884,2.628613496715859,-0.16615535,0.010995574,-0.069027774,270.5733,-15.952235,-72.10746
559804185000.0,-9.59300778486801,2.7135679090071365,2.5684002797547287,-0.12705997,-0.08277224,-0.046731193,270.58148,-15.941424,-72.09533
559809106000.0,-9.579946831012265,2.7494857196355573,2.512890867865309,-0.093462385,-0.103847094,-0.032986723,270.68582,-15.939858,-72.05353
559813834000.0,-9.55743106116237,2.7484323980214973,2.3639153664986208,-0.08307768,-0.15088372,-0.004581489,270.87155,-15.947692,-71.98855
559818828000.0,-9.530135309806909,2.7347846173499475,2.1728457245505566,-0.074830994,-0.18448131,0.02076942,271.05542,-15.958122,-71.92167
559823794000.0,-9.526388696378833,2.7129573604456825,1.9940299788300837,-0.064751714,-0.21166481,0.03756821,271.227,-15.978378,-71.84791
559829096000.0,-9.538868768638377,2.6838377565295755,1.8109925677863343,-0.06261369,-0.22021692,0.052534413,271.3964,-16.003149,-71.76869
559833947000.0,-9.549491667427043,2.6411316164555965,1.65259844145363,-0.08582657,-0.21685717,0.063224554,271.50757,-16.03463,-71.694595
559839677000.0,-9.558124302524975,2.511637988437033,1.5101554100684338,-0.089186326,-0.19761491,0.06994407,271.6056,-16.068,-71.62134
559843790000.0,-9.56432081703768,2.418687326649886,1.4079096529851334,-0.100792766,-0.17654006,0.064751714,271.64795,-16.09955,-71.56296
559848846000.0,-9.572062573066365,2.34363708059099,1.405815135846924,-0.10934488,-0.16432275,0.04734206,271.68475,-16.127623,-71.509514
559854035000.0,-9.580086963991604,2.2914795450347167,1.482045341450024,-0.116675265,-0.16218472,0.03145956,271.71512,-16.152435,-71.4604
559858858000.0,-9.586971752472012,2.245847678417913,1.5594982120699517,-0.13225232,-0.15851954,0.016798794,271.7268,-16.156712,-71.439865
559863868000.0,-9.590892711040288,2.214480664934216,1.6771245535752226,-0.13591751,-0.17898351,-0.007941248,271.76825,-16.153154,-71.42346
559868725000.0,-9.594693927760073,2.1840715662335537,1.7911587133938056,-0.14782938,-0.19608775,-0.03970624,271.86362,-16.135374,-71.41023
559873855000.0,-9.614600970460126,2.168609446487685,1.8984049234655895,-0.14996742,-0.21868975,-0.052839845,271.98102,-16.11586,-71.3953
559879070000.0,-9.642287511602122,2.160698935360735,2.00124160941633,-0.15790866,-0.2434298,-0.0720821,272.12833,-16.08483,-71.38724
559883868000.0,-9.672695888462409,2.1515489705125312,2.092390576495823,-0.16340645,-0.28069258,-0.08674286,272.3726,-16.042572,-71.37099
559888855000.0,-9.726612688643034,2.1335767037856552,2.171468587627004,-0.15760323,-0.31581733,-0.11148291,272.6424,-15.992545,-71.358635
559893859000.0,-9.780713283811243,2.1155431720629188,2.250816164867916,-0.16432275,-0.35460728,-0.11636983,272.9857,-15.938253,-71.33272
559898851000.0,-9.819584707493116,2.099506344088102,2.2999435838678477,-0.17165314,-0.37018433,-0.12858713,273.34384,-15.875795,-71.312614
559904019000.0,-9.845364332762854,2.084775140635464,2.322040389046804,-0.16707164,-0.39767328,-0.13958271,273.73285,-15.813196,-71.28556
559909824000.0,-9.873475456705984,2.0691215493577984,2.347061685993884,-0.16279559,-0.44868052,-0.15057829,274.20883,-15.739429,-71.25054
559913845000.0,-9.86674603477501,2.085944823119266,2.3706141708868502,-0.1572978,-0.46578476,-0.15057829,274.66675,-15.666921,-71.21584
559918841000.0,-9.85838488283093,2.106847353761468,2.399877591559633,-0.15241088,-0.49510628,-0.16371189,275.1854,-15.584948,-71.17687
559923794000.0,-9.826385892020266,2.154675439677011,2.4012919071564283,-0.15027285,-0.5296202,-0.16798794,275.70084,-15.506668,-71.13154
559928970000.0,-9.77144825744142,2.22923372827739,2.37774717150095,-0.1469131,-0.5513059,-0.17928895,276.22253,-15.424156,-71.087654
559934059000.0,-9.716559537019918,2.300268544079334,2.353830176308933,-0.15760323,-0.5729916,-0.18845193,276.77228,-15.344134,-71.03104
559938784000.0,-9.651910545508024,2.330691643289352,2.319604204588621,-0.14844026,-0.5873469,-0.19547687,277.31903,-15.263906,-70.973755
559943743000.0,-9.584059889654592,2.362621410269771,2.2836832323640643,-0.15393804,-0.59864795,-0.20433442,277.8376,-15.191591,-70.91075
559948795000.0,-9.51664636748689,2.38469685497378,2.2383449965227915,-0.14446963,-0.60231316,-0.20738874,278.34424,-15.121217,-70.846954
559953943000.0,-9.449028768455022,2.4006069369100445,2.1866372717628075,-0.14782938,-0.61117065,-0.21044308,278.8499,-15.048244,-70.782394
559958829000.0,-9.38406166033547,2.415752349769775,2.1386131584114456,-0.1572978,-0.6102544,-0.21166481,279.3265,-14.985219,-70.713234
559963783000.0,-9.313844148248643,2.4313561462999504,2.0957025244696594,-0.15118915,-0.6056729,-0.21533,279.79327,-14.922165,-70.64494
559968725000.0,-9.24379672298964,2.446922145987502,2.052895832313764,-0.15271631,-0.59315014,-0.20891592,280.22556,-14.866513,-70.57605
559973796000.0,-9.136211706550908,2.4354900567324385,2.018296504782952,-0.14905111,-0.58093286,-0.19914207,280.64026,-14.812225,-70.50877
559979199000.0,-9.005525631254933,2.4109864922415154,1.985625028602999,-0.16035213,-0.56169057,-0.19792034,281.02948,-14.756999,-70.446365
559983830000.0,-8.913885610559745,2.3857161093290986,1.97455964930528,-0.15393804,-0.5381723,-0.18997909,281.3563,-14.713691,-70.38686
559988786000.0,-8.902580657800714,2.3404955900119093,2.0348536488289004,-0.1328632,-0.50976706,-0.1872302,281.65927,-14.670032,-70.33367
559993737000.0,-8.891287110361255,2.295320692687574,2.095086819055181,-0.13530666,-0.49877146,-0.18875736,281.95068,-14.631036,-70.27633
559998794000.0,-8.89242535386621,2.256111681838181,2.162811009443494,-0.13408493,-0.48655418,-0.18906279,282.21225,-14.595135,-70.22476
560004062000.0,-8.90064649001874,2.2191154102175505,2.236803509761265,-0.13897185,-0.46853364,-0.20280726,282.46365,-14.554885,-70.18053
560008911000.0,-8.913162083717712,2.177100208809963,2.3031622834409595,-0.1600467,-0.45540005,-0.20616703,282.75803,-14.501489,-70.13622
560013865000.0,-8.942340336331489,2.107802325384379,2.3651656608394838,-0.1731803,-0.44868052,-0.21135938,283.04514,-14.444867,-70.097855
560018775000.0,-8.971259436116236,2.039119925784133,2.426618342112546,-0.17562376,-0.44318274,-0.22449298,283.37015,-14.375315,-70.05996
560023816000.0,-8.999855400065991,1.9871143278231465,2.5068972161593663,-0.19853121,-0.44257188,-0.22632557,283.6812,-14.306312,-70.02122
560028926000.0,-9.028112355440072,1.9467468874206053,2.599742413387775,-0.20097467,-0.43463063,-0.22327125,283.9801,-14.237526,-69.986725
560033894000.0,-9.055430204778704,1.9107772438502248,2.6772772728672223,-0.18967366,-0.42363504,-0.22999077,284.33118,-14.150683,-69.95373
560038837000.0,-9.08199922610648,1.8880038932488772,2.703846135663887,-0.17989981,-0.4202753,-0.23090707,284.667,-14.067579,-69.918655
560043727000.0,-9.108283368184734,1.8654747238293776,2.7301301209108404,-0.15943582,-0.4297437,-0.23182335,285.04333,-13.971466,-69.88281
560048802000.0,-9.13963885839116,1.8466410120191896,2.7586708039664183,-0.14844026,-0.42730024,-0.22815818,285.39795,-13.8782625,-69.8487
560053916000.0,-9.173203837059882,1.8298584350638225,2.788040313638311,-0.14538592,-0.43310347,-0.22602014,285.75375,-13.787096,-69.81098
560058858000.0,-9.208946149640008,1.806071340182915,2.8212165202374004,-0.13591751,-0.4343252,-0.2275473,286.12543,-13.689639,-69.77597
560063790000.0,-9.25030575384316,1.769307114263475,2.8625763163845104,-0.1255328,-0.4361578,-0.23060162,286.4894,-13.5946045,-69.739
560068725000.0,-9.295012835647205,1.7292627276949777,2.91139818117599,-0.11942416,-0.46028697,-0.24801129,286.8979,-13.490015,-69.69875
560073804000.0,-9.349632306247448,1.6796091772764394,2.9809130791751737,-0.12156218,-0.473726,-0.25259277,287.28348,-13.390408,-69.65789
560079074000.0,-9.393288242028676,1.6218228413224909,3.052994961031457,-0.1151481,-0.48533243,-0.2648101,287.71796,-13.276038,-69.61831
560083945000.0,-9.413253470004992,1.5585998047078964,3.119545524060204,-0.12003502,-0.5204572,-0.28008172,288.16357,-13.161008,-69.57141
560088791000.0,-9.433116228118982,1.4957012550395892,3.1857545218917185,-0.12461651,-0.5448918,-0.29443705,288.64447,-13.035502,-69.52178
560094504000.0,-9.439735739174877,1.4742399947593383,3.2387803877717896,-0.15088372,-0.5717699,-0.30451632,289.136,-12.907696,-69.46509
560098860000.0,-9.4358593767887,1.4858688390633712,3.2659143578145327,-0.15424347,-0.6096435,-0.3173445,289.63995,-12.779465,-69.40285
560104076000.0,-9.42303494187246,1.4939818,3.273459488374492,-0.17195857,-0.62949663,-0.33322698,290.20038,-12.627316,-69.33838
560108904000.0,-9.400591377040229,1.4939818,3.2482103754080454,-0.18906279,-0.6545421,-0.33292156,290.7605,-12.479164,-69.2625
560113881000.0,-9.37745516698016,1.4939818,3.222182033396032,-0.20066923,-0.65148777,-0.344528,291.34305,-12.324413,-69.18426
560118798000.0,-9.354223670911722,1.4991956876121564,3.1972051995658464,-0.2171626,-0.63591075,-0.34391713,291.90234,-12.174581,-69.10028
560123867000.0,-9.326121897829234,1.5624234299710564,3.179641958176556,-0.22235495,-0.6252206,-0.34238997,292.44867,-12.025107,-69.017
560129236000.0,-9.296356969898698,1.6293931969319826,3.161039266714906,-0.21471913,-0.6032294,-0.34605515,292.98398,-11.873157,-68.94433
560133807000.0,-9.275492056168988,1.6663644,3.159635511099376,-0.2302962,-0.59712076,-0.34605515,293.49933,-11.72356,-68.86883
560138847000.0,-9.26158910849736,1.6663644,3.187441793576572,-0.23793201,-0.59437186,-0.34666604,293.99106,-11.577473,-68.79769
560143757000.0,-9.24338729091558,1.6595326086917723,3.224821778618597,-0.24098633,-0.59803706,-0.34666604,-33.47062,-11.444195,-68.72143
560148858000.0,-9.208512401213635,1.6290168753614136,3.298931351677673,-0.25625798,-0.61269784,-0.33658674,-33.584435,-11.314714,-68.64151
560154296000.0,-9.17251374445202,1.5948476583049307,3.3731032483526477,-0.27030787,-0.63499445,-0.34208453,-33.695236,-11.1732,-68.56312
560158803000.0,-9.152898753389382,1.5523486247898204,3.392718171142922,-0.26939157,-0.675617,-0.3436117,-33.806046,-11.038549,-68.47435
560164710000.0,-9.127190798606378,1.496648205226085,3.418426036446262,-0.26847526,-0.7107417,-0.34788775,-33.923565,-10.891921,-68.37217
560168793000.0,-9.108387340618556,1.441644094350515,3.445962118762887,-0.27580565,-0.743423,-0.36010507,-34.041794,-10.745204,-68.262115
560173790000.0,-9.083719675876289,1.347906968329897,3.4952974482474226,-0.269697,-0.7715228,-0.3643811,-34.155464,-10.603881,-68.14439
560178955000.0,-9.061472995458262,1.2424091665001362,3.51844251619584,-0.25625798,-0.77671516,-0.37110063,-34.26718,-10.446296,-68.023895
560183834000.0,-9.044495990008176,1.1320579663002996,3.505709695630848,-0.26267207,-0.77182823,-0.38423425,-34.381454,-10.287932,-67.90086
560188786000.0,-9.023396967976849,1.030691033421716,3.494592903370367,-0.24740042,-0.76052725,-0.3921755,-34.489826,-10.1193695,-67.77164
560193798000.0,-8.987546498366166,0.9679531374194752,3.490111629763794,-0.24587326,-0.74220127,-0.39584067,-34.602673,-9.950328,-67.64691
560198853000.0,-8.953495871853786,0.9061149637389034,3.490048377420365,-0.23701571,-0.71776664,-0.39736784,-34.716187,-9.762219,-67.53659
560204064000.0,-8.943072239164492,0.8592070927937336,3.5421682824020886,-0.23487769,-0.6780604,-0.40225476,-34.829998,-9.576154,-67.43537
560208812000.0,-8.92822927090179,0.821525841994341,3.601134655951077,-0.23304509,-0.643852,-0.4071417,-34.94244,-9.38142,-67.34022
560213856000.0,-8.884138928441036,0.8082987438599853,3.7245877069185833,-0.22266038,-0.59681535,-0.40591997,-35.05126,-9.192831,-67.25771
560219200000.0,-8.837085950652131,0.7944555079355655,3.8498764,-0.22602014,-0.5757405,-0.40225476,-35.163826,-8.991326,-67.17341
560223801000.0,-8.789909354876386,0.7858779747868405,3.8498764,-0.22510384,-0.55863625,-0.39767328,-35.271626,-8.796977,-67.09888
560229550000.0,-8.725964233634212,0.7790054273823503,3.8529078084304618,-0.22602014,-0.5705481,-0.39492437,-35.38831,-8.592735,-67.00473
560233750000.0,-8.61316749364648,0.8248290652756113,3.895206530715976,-0.21410827,-0.5729916,-0.38728857,-35.50084,-8.3976,-66.915436
560238882000.0,-8.47534061992814,0.8808211866251863,3.946891540899133,-0.2144137,-0.5934556,-0.3830125,-35.612007,-8.203077,-66.81235
560243867000.0,-8.381195722960726,0.9249633150936556,3.930775767009064,-0.20341812,-0.6123924,-0.37048978,-35.717182,-8.019992,-66.70685
560248862000.0,-8.308935225981873,0.9635019986586104,3.8777851047734138,-0.20189096,-0.6356053,-0.3555236,-35.824833,-7.842191,-66.59389
560254088000.0,-8.230821199385591,1.0000726187592903,3.819616072222773,-0.18600847,-0.65118235,-0.344528,-35.91955,-7.673743,-66.461105
560258814000.0,-8.159058685462293,1.0314689293528887,3.7657938121098007,-0.17501289,-0.65240407,-0.32711834,-36.01651,-7.514473,-66.32487
560263797000.0,-8.095529026328716,1.0614619256115532,3.703488240239709,-0.16707164,-0.6429357,-0.31520647,-36.09018,-7.3640213,-66.18562
560268801000.0,-8.03903333048433,1.0897096752136752,3.637576824501424,-0.14080444,-0.6078109,-0.30115658,-36.157547,-7.225358,-66.05298
560273792000.0,-8.005660219367053,1.13424503532594,3.618051325128482,-0.13561209,-0.58551437,-0.27977628,-36.211136,-7.0932627,-65.919304
560279073000.0,-7.987420271030565,1.1935252245334056,3.631731357803624,-0.12003502,-0.5467244,-0.2565634,-36.256584,-6.9725466,-65.800224
560283772000.0,-7.975700981638274,1.2382841870447825,3.658755393308171,-0.1020145,-0.5155703,-0.24312437,-36.283226,-6.865259,-65.68364
560288808000.0,-7.9707810824237475,1.2727228137100888,3.712873154483321,-0.086132,-0.49480084,-0.22235495,-36.309647,-6.7700424,-65.57433
560293751000.0,-7.977093916243306,1.2981209208018674,3.778668912632157,-0.08307768,-0.45814893,-0.20861048,-36.32486,-6.6836653,-65.47441
560298856000.0,-8.00058897253879,1.3115465871481533,3.8659358139777567,-0.07544186,-0.42455134,-0.1881465,-36.337875,-6.6088533,-65.37934
560304152000.0,-8.024963079912125,1.3254745653988742,3.956467745324729,-0.06291912,-0.38087448,-0.16646078,-36.343704,-6.5399323,-65.2873
560308785000.0,-8.072445542994737,1.3241440844206136,4.038065229907656,-0.06169739,-0.3408628,-0.1518,-36.352585,-6.475812,-65.20456
560313821000.0,-8.14906740040711,1.3097774580280013,4.129054063747393,-0.064446285,-0.33169982,-0.13500121,-36.362106,-6.420417,-65.125404
560318806000.0,-8.207003418973942,1.2354809222855592,4.261286643729641,-0.07086037,-0.2968805,-0.1282817,-36.375954,-6.363768,-65.04854
560323789000.0,-8.245864461726384,1.0973086714983715,4.438319621661238,-0.06688975,-0.2657264,-0.115453534,-36.39048,-6.3152323,-64.97343
560328900000.0,-8.278805795651829,0.9848758482137452,4.589249635987895,-0.063224554,-0.25534168,-0.1020145,-36.40606,-6.2665515,-64.88714
560333795000.0,-8.293738722704468,0.947543320078044,4.660181565748188,-0.061086524,-0.23640485,-0.09743301,-36.42184,-6.2202983,-64.81344
560338767000.0,-8.308906549733218,0.90962353869077,4.73222927867325,-0.053145275,-0.22479841,-0.101098195,-36.46063,-6.151381,-64.71284
560343811000.0,-8.321985038886998,0.8753749093958475,4.77494121817563,-0.06505715,-0.23151793,-0.09712757,-36.505524,-6.085066,-64.61362
560348763000.0,-8.334091566456772,0.8430914679390742,4.807224617494894,-0.06994407,-0.23518312,-0.10293079,-36.545197,-6.018558,-64.5214
560353898000.0,-8.353597170541102,0.8053081551370066,4.842974849549906,-0.06841691,-0.24740042,-0.10629055,-36.591248,-5.9421835,-64.41186
560358810000.0,-8.381517680185974,0.7634275072865763,4.880202017578395,-0.06811147,-0.2519819,-0.09743301,-36.639645,-5.8685665,-64.3052
560363823000.0,-8.412515373338872,0.7218080521594684,4.885768236918604,-0.08307768,-0.27091873,-0.10567969,-36.68792,-5.775755,-64.190155
560368808000.0,-8.44721060070598,0.6821566003322259,4.841160457122093,-0.092240654,-0.29016098,-0.11056661,-36.735836,-5.6889706,-64.07517
560373728000.0,-8.471680219720845,0.6607997,4.797859665916255,-0.0983493,-0.29840767,-0.10934488,-36.786057,-5.5906563,-63.95525
560378893000.0,-8.485042709590275,0.6607997,4.753317412877082,-0.1020145,-0.30085114,-0.11026118,-36.8374,-5.492212,-63.83445
560383908000.0,-8.504580092654292,0.6637853277962875,4.718380361811835,-0.1001819,-0.31123585,-0.1151481,-36.881996,-5.3931847,-63.714153
560388851000.0,-8.542132149135332,0.6750509447405997,4.7071147056560365,-0.116980694,-0.32620203,-0.11881329,-36.93268,-5.2939324,-63.594227
560393735000.0,-8.579235981596065,0.6861820944788196,4.695983517174361,-0.118202426,-0.3378085,-0.11728613,-36.97394,-5.2005568,-63.48195
560398800000.0,-8.650660542479656,0.6593978098818795,4.695648727123983,-0.113926366,-0.34391713,-0.11759156,-37.01778,-5.1067486,-63.36959
560403899000.0,-8.736113518593053,0.6166712950564354,4.6999213759296525,-0.13133603,-0.3652974,-0.12308934,-37.067448,-5.011386,-63.252182
560408790000.0,-8.786111364795143,0.5749542874355084,4.712661039301973,-0.13500121,-0.3827071,-0.118507855,-37.101208,-4.9218793,-63.137764
560413905000.0,-8.796022097723824,0.5303545403945372,4.737438647799697,-0.1337795,-0.39828414,-0.11636983,-37.137726,-4.831118,-63.02067
560419610000.0,-8.783591270185113,0.4900767635801497,4.770505966049626,-0.13561209,-0.39950588,-0.11911872,-37.168472,-4.731346,-62.906723
560423803000.0,-8.759868369436786,0.4663535284157148,4.798183110210713,-0.14019357,-0.41416663,-0.11942416,-37.200554,-4.635082,-62.786884
560428766000.0,-8.72388252305873,0.4382644335277887,4.823056722467482,-0.1386664,-0.4175264,-0.124005646,-37.2318,-4.5304413,-62.668602
560433861000.0,-8.67580034331888,0.4094151005804099,4.837481326182499,-0.1337795,-0.4343252,-0.12583824,-37.264065,-4.428979,-62.54481
560438741000.0,-8.616642621540613,0.3871406699710261,4.8458643,-0.11911872,-0.43401974,-0.12797627,-37.295753,-4.3282595,-62.4159
560443890000.0,-8.532889190228794,0.3723606787051653,4.8458643,-0.12156218,-0.43860126,-0.13103059,-37.33082,-4.2277775,-62.28389
560448794000.0,-8.44514127598186,0.3657327349203899,4.85130652476117,-0.112704635,-0.4266894,-0.13316862,-37.362232,-4.124942,-62.154697
560453894000.0,-8.341453251278589,0.3704458180044389,4.865445774013317,-0.1151481,-0.4202753,-0.13469578,-37.397476,-4.022273,-62.025616
560458788000.0,-8.249175366847826,0.3764584714790372,4.862742666459628,-0.12003502,-0.40683624,-0.13164146,-37.43161,-3.9175706,-61.89823
