timestamp,acc_x,acc_y,acc_z,gyro_x,gyro_y,gyro_z,ori_azimuth,ori_pitch,ori_roll
537152968000.0,-1.1727262635342424,9.75964653592249,-0.7818223706579737,-7.7750926,3.8841867,9.744828,234.57071,-19.009907,-24.561382
537157968000.0,-1.173189968213511,9.761269487774054,-0.7829816330824392,-7.7750926,1.5042557,-0.9807441,239.0664,-18.100134,-24.179129
537163030000.0,-1.1736594228308026,9.76291256422858,-0.784155270360968,-7.098865,0.7538077,0.02321288,235.5998,-18.504534,-23.611053
537168091000.0,-1.1741287847071584,9.764555316092732,-0.7853286757870118,-1.1988231,0.75533485,0.035124753,235.71991,-18.838282,-23.854675
537173187000.0,-1.174601392516269,9.766209428619849,-0.786510196050027,-1.1963795,0.75319684,0.03604105,235.63113,-17.934713,-23.804762
537178017000.0,-1.1750493312364425,9.76777720010846,-0.7876300435520607,-1.1795808,0.7489208,0.032070424,235.53967,-18.553585,-23.754515
537182945000.0,-1.17550635856833,9.769376781453362,-0.7887726125976138,-1.176221,0.73456544,0.034208454,235.44998,-19.157604,-23.70187
537187994000.0,-1.1759746075534552,9.771015638233072,-0.7899432357938391,-1.149343,0.7272351,0.025350908,235.36713,-19.757599,-23.652565
537192986000.0,-1.1764375703052372,9.772635993361677,-0.7911006433984253,-1.1499538,0.732122,0.03481932,235.2814,-20.341555,-23.60144
537198118000.0,-1.1769135167880385,9.774301791142122,-0.7922905103508967,-1.1456778,0.7996226,0.06169739,235.18924,-20.922867,-23.564545
537203238000.0,-1.1773883503796096,9.775963693838124,-0.7934775950735493,-1.561677,0.77396625,0.059253927,235.11661,-21.381021,-23.507233
537207905000.0,-1.177821172327239,9.777478557096376,-0.7945596506205453,-1.2455542,0.766025,0.05955936,235.02727,-22.022089,-23.469011
537213013000.0,-1.1782948930275798,9.779136564707931,-0.7957439531133793,-1.2522738,0.7583892,0.06811147,234.94203,-22.462301,-23.424347
537217981000.0,-1.178755629996901,9.780749129667647,-0.7968957962583282,-1.2473868,0.7501425,0.0720821,234.86166,-22.97625,-23.37804
537223186000.0,-1.1792383465680198,9.782438622545127,-0.7981025884421966,-1.2473868,0.7360926,0.07788532,234.79309,-23.463362,-23.304277
537227989000.0,-1.1796837812829253,9.78399763009374,-0.7992161759271382,-1.2400564,0.7076874,0.0888809,234.72815,-23.944738,-23.224308
537232946000.0,-1.1801434981019523,9.785606624559382,-0.8003654686947532,-1.2363913,0.68325275,0.10323623,234.66528,-24.416592,-23.141308
537237997000.0,-1.1806119325689497,9.787246130519833,-0.8015365555959482,-1.2431108,0.6407976,0.09743301,234.61491,-24.877083,-23.048426
537242969000.0,-1.1810730405020142,9.78885999384103,-0.8026893261508367,-1.1685852,0.5635232,0.10140363,234.57,-25.353325,-22.938162
537248183000.0,-1.1815565917415556,9.79055240803184,-0.8038982050070692,-1.0534371,0.49021935,0.09743301,234.53833,-25.827843,-22.820976
537252965000.0,-1.182000078896808,9.792104599182675,-0.805006923589828,-0.93309665,0.46120325,0.09896017,234.51306,-26.315535,-22.695267
537258008000.0,-1.1824677714363183,9.793741508420164,-0.8061761556711439,-0.86162543,0.39828414,0.087659165,234.51302,-26.809757,-22.54617
537262999000.0,-1.1829306414471643,9.795361538958398,-0.8073333314232453,-0.743423,0.3472769,0.084910266,234.51785,-27.339928,-22.392635
537267969000.0,-1.1833915638983576,9.796974753098851,-0.8084856382731639,-0.6206391,0.15149458,0.036957346,234.57547,-27.874458,-22.197193
537273736000.0,-1.183926400875426,9.798846665764447,-0.8098227315535423,-0.2415972,-0.0036651916,0.0033597588,234.6377,-28.49913,-21.99946
537278012000.0,-1.1843229611171366,9.800234614187907,-0.8108141327789452,0.0421497,0.007941248,0.003970624,234.71432,-29.121386,-21.798643
537283004000.0,-1.1847859238689185,9.80185496931651,-0.8119715403835315,0.014660766,0.033292156,0.010079277,234.82826,-29.749437,-21.569693
537288002000.0,-1.1852494430663154,9.803477271987331,-0.8131303391030272,-0.01985312,0.034208454,0.013439035,234.95288,-30.44,-21.340258
537292976000.0,-1.185710736481252,9.80509178448927,-0.8142835733628854,-0.027183503,0.028710667,0.007330383,235.08298,-31.121239,-21.118223
537298158000.0,-1.186191320010846,9.806773811788233,-0.8154850329396014,-0.027488936,0.025045475,0.005497787,235.21814,-31.787638,-20.897947
537303028000.0,-1.1866429683684536,9.808354566891657,-0.8166141545410307,-0.02076942,0.029321533,0.007330383,235.36078,-32.445217,-20.680914
537307965000.0,-1.1871008303687636,9.809957069549892,-0.8177588102589479,-0.027183503,0.025961773,0.0036651916,235.5144,-33.090126,-20.46474
537313004000.0,-1.1875681519445305,9.8115926804259,-0.8189271149303242,-0.015577064,0.028710667,0.01038471,235.67015,-33.734722,-20.251245
537317978000.0,-1.1880294453594669,9.813207192927836,-0.8200803491901825,-0.017104227,0.025350908,0.0070249503,235.83783,-34.36454,-20.040197
537323162000.0,-1.1885102143709327,9.81488986940754,-0.8212822724718682,-0.015577064,0.02321288,0.0036651916,236.00989,-34.991005,-19.831259
537328018000.0,-1.1889605643554384,9.816466080245778,-0.822408148138509,-0.0143553335,0.018020526,0.003970624,236.18965,-35.60918,-19.623158
537332942000.0,-1.1894172207235822,9.8180643632292,-0.8235497897741226,-0.013439035,0.020463986,0.003970624,236.3757,-36.21953,-19.419277
537337991000.0,-1.1898854697087078,9.81970322000891,-0.8247204129703478,-0.011301007,0.020158553,0.014660766,236.56697,-36.824215,-19.21399
537343507000.0,-1.190397028710877,9.821493660491557,-0.8259993112770181,-0.003970624,0.0143553335,0.008857546,236.76888,-37.421062,-19.013403
537348058000.0,-1.1908190927099471,9.82297087126685,-0.8270544719357666,-0.0030543262,0.018020526,0.009162978,236.97113,-38.01137,-18.81417
537353025000.0,-1.1912797369383328,9.824583111636196,-0.8282060832282305,-0.0018325958,0.011301007,0.014049901,237.18283,-38.596237,-18.614038
537358003000.0,-1.191741401317013,9.826198922499612,-0.8293602448980284,-0.005192355,0.016493361,0.019242255,237.39711,-39.173016,-18.419554
537363000000.0,-1.1922048277734738,9.827820900580068,-0.8305188117650392,-0.008552114,0.013439035,0.01740966,237.62057,-39.742767,-18.224726
537367982000.0,-1.192666863115897,9.829438009804967,-0.8316739008447765,-0.0036651916,0.01038471,0.013744468,237.84778,-40.30719,-18.032845
537373237000.0,-1.1931542167338085,9.831143732200962,-0.8328922856528898,-0.0027488936,0.015271631,0.016187929,238.07848,-40.863316,-17.843626
537378007000.0,-1.1935965909978308,9.832692028267354,-0.8339982220058297,0.0018325958,0.011911872,0.016798794,238.31796,-41.41426,-17.6556
537383002000.0,-1.19405983197242,9.834313357167067,-0.8351563251678708,0.005497787,0.008552114,0.01160644,238.56232,-41.958107,-17.471748
537388993000.0,-1.1946154429191198,9.836257978075611,-0.8365453534048652,0.005192355,0.003970624,0.01985312,238.80966,-42.497135,-17.286648
537392984000.0,-1.194985571994112,9.837553418243532,-0.8374706766720735,-0.0036651916,0.0070249503,0.01740966,239.06436,-43.026512,-17.108107
537398235000.0,-1.19547255464828,9.839257842278045,-0.8386881340702471,-0.007941248,0.003970624,0.0125227375,239.32489,-43.551247,-16.928814
537403004000.0,-1.1959148361713663,9.840805813754068,-0.8397938385707023,0.0018325958,0.007941248,0.014049901,239.58705,-44.071484,-16.75324
537407994000.0,-1.196377613441277,9.84242551970193,-0.8409507824703188,0.003970624,0.004886922,0.003970624,239.85922,-44.580505,-16.581654
537412998000.0,-1.1968416890842888,9.844049769914976,-0.8421109723047239,-0.004581489,-0.0009162979,0.002443461,240.13339,-45.08428,-16.41076
537417976000.0,-1.1890985233588516,9.842956578181818,-0.8527619572229665,0.00061086525,0.0030543262,0.01038471,240.41043,-45.586086,-16.24377
537423239000.0,-1.1698055740861244,9.838133756363636,-0.876878111077512,-0.005192355,-0.0036651916,0.009773844,240.69717,-46.07568,-16.078297
537427960000.0,-1.1634064921357772,9.839993811857116,-0.892180685360015,0.0012217305,-0.0027488936,0.0070249503,240.99326,-46.56388,-15.888043
537432958000.0,-1.1768341187488311,9.85342120478773,-0.8966565453188704,-0.005192355,-0.00030543262,0.01038471,241.29375,-47.041878,-15.698822
537438011000.0,-1.1866216271387209,9.863208508291654,-0.8975124357620426,-0.013439035,0.0009162979,0.01282817,241.60454,-47.51366,-15.48078
537442976000.0,-1.1824495808107398,9.85903637483548,-0.884996270639642,-0.01282817,0.004276057,0.01282817,241.9186,-47.98039,-15.267243
537448633000.0,-1.179109891636216,9.854068977913114,-0.8707918450182703,-0.013133603,-0.0033597588,0.01038471,242.2541,-48.43074,-15.023754
537453014000.0,-1.1961443864799026,9.847255393422657,-0.8605711481120585,-0.006414085,-0.0027488936,0.00580322,242.59186,-48.877304,-14.787479
537462987000.0,-1.223851236469756,9.83736089812522,-0.8387988646692607,-0.0125227375,0.00030543262,0.01160644,242.94344,-49.307278,-14.518878
537467982000.0,-1.2196209467633534,9.841590834453484,-0.8303382675875486,-0.010079277,0.004276057,0.0106901415,243.30122,-49.73477,-14.258425
537473134000.0,-1.2162545,9.844066789748046,-0.8280567868288444,-0.017104227,0.008552114,0.007941248,243.68633,-50.134518,-13.961087
537478020000.0,-1.2162545,9.840371320511808,-0.8465356920843535,-0.016798794,0.0067195175,0.009162978,244.0756,-50.53246,-13.669186
537482937000.0,-1.2162545,9.836652404786353,-0.8651318396777505,-0.014660766,0.004276057,0.01863139,244.49481,-50.908497,-13.324284
537487988000.0,-1.2136418701934752,9.83276831563183,-0.8532009804419979,-0.009773844,0.004276057,0.017715093,244.91931,-51.28009,-12.989813
537492973000.0,-1.209777193758601,9.828903558487816,-0.8261482292560511,-0.0125227375,0.0143553335,0.0143553335,245.34442,-51.646812,-12.663185
537498183000.0,-1.207609771115394,9.825804,-0.8072479772392194,-0.0143553335,-0.0021380284,0.015577064,245.80118,-52.00029,-12.28237
537503014000.0,-1.2113249819722156,9.825804,-0.8183936253272304,-0.009773844,-0.00580322,0.0143553335,246.25677,-52.35036,-11.916519
537507918000.0,-1.2150963324259214,9.825804,-0.8297076924403758,-0.005192355,-0.00580322,0.022296581,246.75015,-52.673115,-11.484375
537512993000.0,-1.20251782320553,9.825804,-0.8276875178072503,-0.0009162979,0.0015271631,0.023518313,247.24628,-52.993046,-11.066958
537518009000.0,-1.1832118072904108,9.825804,-0.8199650953138815,-0.004886922,0.0067195175,0.025045475,247.7437,-53.309696,-10.659249
537523181000.0,-1.170390870118628,9.822773381532542,-0.8170591193972427,-0.013133603,0.004581489,0.023823744,248.2761,-53.604565,-10.183982
537528966000.0,-1.179272208368067,9.809451095944212,-0.8303811453190125,-0.0033597588,0.009468411,0.018325957,248.80728,-53.90043,-9.726211
537532916000.0,-1.1853363891952549,9.800354634738698,-0.8394774292241103,-0.011301007,0.00061086525,0.01985312,249.39273,-54.15563,-9.161372
537537993000.0,-1.1847758308187963,9.78882830724501,-0.8482555383624077,-0.013133603,0.005497787,0.01985312,249.97417,-54.412544,-8.621244
537543006000.0,-1.181003357268584,9.777511044161558,-0.855800485462832,-0.0027488936,0.004581489,0.01863139,250.55836,-54.669056,-8.097865
537548174000.0,-1.1779473,9.770059185997573,-0.8636287501578309,-0.009162978,0.005497787,0.013439035,251.19449,-54.88177,-7.4617248
537553043000.0,-1.1779473,9.77760761384055,-0.8711770203642251,-0.013133603,-0.006414085,0.014966198,251.82971,-55.097855,-6.8482356
537557909000.0,-1.1779473,9.785151390772969,-0.8787206397571834,-0.00580322,0.003970624,0.021380283,252.48691,-55.28759,-6.140375
537562991000.0,-1.1779473,9.782007950216798,-0.8591104479235587,-0.010995574,0.00030543262,0.021685716,253.14621,-55.47274,-5.4614806
537568005000.0,-1.1779473,9.774296519672394,-0.8282653538044001,-0.009162978,0.005497787,0.020463986,253.79591,-55.663006,-4.814779
537573159000.0,-1.1742379969132075,9.76927034271698,-0.8220709172241509,-0.012217305,-0.0030543262,0.01038471,254.48758,-55.81252,-4.0328
537578054000.0,-1.160085979290566,9.772808411773584,-0.8892928771713208,-0.0076358155,-0.005192355,0.014966198,255.16786,-55.96725,-3.2894702
537583003000.0,-1.1457778413509434,9.77638551162264,-0.9572564072588678,-0.0076358155,0.005192355,0.014660766,255.79395,-56.125713,-2.5225973
537587992000.0,-1.133583263964693,9.771863137477013,-0.9520895662861346,-0.009162978,0.00061086525,0.015271631,256.42072,-56.286106,-1.7903371
537592995000.0,-1.1230103922324384,9.761290044942994,-0.8921765749496138,-0.003970624,0.0015271631,0.012217305,257.04227,-56.45004,-1.0976223
537598792000.0,-1.1112074069376314,9.749844176506656,-0.8243796585975823,-0.0061086523,-0.004581489,0.0021380284,257.61322,-56.642952,-0.39846107
537603024000.0,-1.1289583782060266,9.78889638743868,-0.87053221725911,-0.0076358155,0.0018325958,0.004581489,258.18164,-56.83722,0.26835054
537608001000.0,-1.1498342250875964,9.834823337771548,-0.924809458388227,0.008246681,0.004276057,0.0061086523,258.6553,-57.07214,0.8652248
537612989000.0,-1.1569228442739727,9.850792605753425,-0.9200424965287672,0.002443461,0.008246681,0.00580322,259.1329,-57.297997,1.4376392
537617988000.0,-1.1536437741917809,9.844234671027396,-0.870856414480137,-0.0033597588,0.005192355,0.003970624,259.61743,-57.52638,1.9883956
537623158000.0,-1.150252537479452,9.837452410068494,-0.8199878319253424,-0.006414085,0.00030543262,0.0061086523,260.1161,-57.761646,2.5227466
537628009000.0,-1.16707848200646,9.844311701121033,-0.798497879467984,0.007330383,0.0036651916,0.002443461,260.6201,-57.99905,3.0335324
537632941000.0,-1.194002019798594,9.857773259167775,-0.7895233871746152,-0.00061086525,0.008246681,0.013439035,261.12756,-58.228138,3.5288243
537637933000.0,-1.2004105294117646,9.859932799019608,-0.7957434608578432,-0.0027488936,0.005192355,0.013744468,261.6251,-58.462353,3.9818907
537643018000.0,-1.188474738235294,9.851975438725493,-0.8156364586151961,-0.009162978,0.009773844,0.009468411,262.12344,-58.692417,4.4175024
537647973000.0,-1.1786580928938015,9.844601633241217,-0.836025373801816,-0.004581489,0.017104227,0.009773844,262.60834,-58.936054,4.81549
537653072000.0,-1.1863694396288986,9.840746281958152,-0.8668707848985393,-0.01038471,0.025961773,0.013744468,263.09656,-59.17449,5.1980386
537658005000.0,-1.1938297403632057,9.837016443189894,-0.896712011205685,-0.013133603,0.016798794,0.013744468,263.604,-59.409306,5.584471
537662932000.0,-1.1971009,9.835381,-0.90979666,-0.004276057,0.017104227,0.007941248,264.1112,-59.645905,5.953142
537668642000.0,-1.1971009,9.835381,-0.90979666,-0.0030543262,0.022602014,0.015577064,264.62128,-59.87899,6.311468
537672981000.0,-1.19638537855926,9.834426951488602,-0.9093196457061736,-0.003970624,0.020158553,0.016493361,265.13324,-60.124367,6.648666
537678028000.0,-1.1846223925285957,9.818742642573213,-0.901477655019064,-0.009773844,0.011301007,0.008857546,265.64917,-60.36886,6.9727054
537683010000.0,-1.1730109012655148,9.80326033089965,-0.8937366608436765,-0.01160644,0.015271631,0.012217305,266.16473,-60.61393,7.2835674
537687940000.0,-1.163647163508978,9.801796410471557,-0.8835580774576272,-0.008857546,0.002443461,0.013439035,266.69125,-60.859653,7.5832157
537693027000.0,-1.1554717253566036,9.809971976673936,-0.8712949586440678,0.0009162979,0.004581489,0.0106901415,267.21594,-61.107224,7.8681498
537698237000.0,-1.1533498240176818,9.8131272832351,-0.8670788730091683,0.0076358155,0.014966198,0.017715093,267.7266,-61.36088,8.131405
537703019000.0,-1.1683453633595289,9.801880814669286,-0.8858232717419777,-0.0012217305,0.009162978,0.009162978,268.24606,-61.614464,8.38146
537707908000.0,-1.1836764365176815,9.790382699901768,-0.904987087175835,-0.0076358155,0.0018325958,0.0106901415,268.7524,-61.87298,8.619113
537718070000.0,-1.1808655747490469,9.787497,-0.8631869415267295,-0.019242255,0.009162978,0.0070249503,269.26074,-62.128647,8.842584
537723227000.0,-1.175046433471646,9.789430843706777,-0.8446929042876902,-0.004581489,0.01160644,0.007941248,269.7737,-62.388954,9.05978
537728018000.0,-1.16384735890489,9.796896633553006,-0.8521589280123668,-0.009468411,0.008246681,0.0125227375,270.2916,-62.64315,9.265909
537732910000.0,-1.1524121944756327,9.804519811162638,-0.8597823444308844,-0.015882496,0.0067195175,0.007941248,270.79395,-62.907516,9.441968
537738022000.0,-1.1492168,9.809500342922991,-0.8562120332035286,-0.0125227375,0.008552114,0.010079277,271.29654,-63.17177,9.612973
537743070000.0,-1.1492168,9.813342407295558,-0.8485280649288723,-0.012217305,0.009468411,0.011911872,271.80188,-63.433758,9.775191
537748209000.0,-1.1502674752765127,9.817277697218609,-0.8364549450496097,-0.014660766,0.0018325958,0.015271631,272.30002,-63.70487,9.919306
537753017000.0,-1.1540122096942096,9.821022509840596,-0.8139865268127847,-0.016493361,0.004581489,0.016187929,272.7965,-63.975616,10.055019
537757942000.0,-1.1578480701366298,9.824858450390373,-0.7909713521421601,-0.010079277,0.0106901415,0.016187929,273.2926,-64.24551,10.187948
537763007000.0,-1.173204483799625,9.822921769068458,-0.7824160082877462,-0.014966198,0.011911872,0.013439035,273.7904,-64.51156,10.313752
537768023000.0,-1.1919749312519536,9.819167609018445,-0.7786619383971554,-0.017715093,0.009773844,0.014966198,274.28772,-64.77866,10.433573
537773257000.0,-1.2019828276859503,9.817165992111194,-0.7719655001878287,-0.021991149,0.011911872,0.013439035,274.7805,-65.04253,10.539399
537778018000.0,-1.1848546383471077,9.820591694365138,-0.7582629415627348,-0.015882496,0.0070249503,0.016798794,275.2754,-65.30689,10.641707
537783781000.0,-1.1641216504958678,9.824738369872277,-0.7416765426220886,-0.015271631,0.006414085,0.015271631,275.7566,-65.57696,10.72172
537788010000.0,-1.1655502464698333,9.814542961745827,-0.7554317753170732,-0.0125227375,0.014660766,0.01863139,276.23608,-65.84714,10.7981205
537793037000.0,-1.1779103854086437,9.793942801882755,-0.7883920569105691,-0.015271631,0.015882496,0.013744468,276.71893,-66.11646,10.8674
537798239000.0,-1.1845616254588986,9.780882422984837,-0.8150160480766161,-0.0125227375,0.005192355,0.008246681,277.1983,-66.383606,10.934909
537803020000.0,-1.173599093894653,9.791844763766958,-0.8186702125458899,-0.01038471,0.009162978,0.005497787,277.67355,-66.64916,10.995104
537807932000.0,-1.1623361875897846,9.80310747406225,-0.8224245015802074,-0.014660766,0.012217305,0.009468411,278.169,-66.91134,11.054695
537812961000.0,-1.1401088801280002,9.81465790432,-0.8316131082368,-0.01740966,0.009468411,0.0015271631,278.6657,-67.17581,11.105157
537818053000.0,-1.112800443392,9.82636176448,-0.8433167402752,-0.0106901415,0.022602014,-0.004581489,279.15567,-67.44004,11.150024
537823169000.0,-1.0954470663972191,9.83353542825964,-0.8523358,-0.019242255,0.02687807,0.0021380284,279.65155,-67.697464,11.1949835
537828030000.0,-1.1104993094818527,9.826009149543289,-0.8523358,-0.016798794,0.011301007,-0.00061086525,280.1494,-67.96074,11.2311735
537832913000.0,-1.1256196762751596,9.818448808261255,-0.8523358,-0.009162978,0.02076942,-0.0061086523,280.65118,-68.215164,11.274496
537837993000.0,-1.1161591786505216,9.816227,-0.8718014444077113,-0.01160644,0.02565634,-0.004276057,281.15607,-68.46648,11.315222
537843064000.0,-1.096815614243607,9.816227,-0.8988824547757508,-0.018936822,0.024129177,-0.00580322,281.65887,-68.71916,11.347739
537848205000.0,-1.0791335580521908,9.81724223518413,-0.9203886639826032,-0.022296581,0.035124753,0.00061086525,282.1521,-68.97238,11.370694
537854044000.0,-1.0654959021217787,9.82178821542964,-0.9249345492927404,-0.016798794,0.037873644,-0.0061086523,282.64713,-69.22755,11.385578
537857914000.0,-1.0564570721079587,9.824801221689292,-0.9279474926306804,-0.0106901415,0.04428773,-0.0070249503,283.1446,-69.47619,11.412737
537862993000.0,-1.0505927860918816,9.822947926447451,-0.9118141516401824,-0.007941248,0.04337143,-0.015271631,283.6419,-69.72688,11.431052
537868075000.0,-1.0467641755191943,9.819119235918816,-0.8888424682150724,-0.01160644,0.040927973,-0.0125227375,284.13428,-69.97504,11.446502
537873117000.0,-1.043872,9.816227,-0.8789408660320155,-0.015882496,0.05009095,-0.009162978,284.63278,-70.21842,11.461481
537878053000.0,-1.043872,9.816227,-0.9095147948217316,-0.011301007,0.055283304,-0.008857546,285.12976,-70.46246,11.471512
537882914000.0,-1.043872,9.816227,-0.9396241683725444,-0.0015271631,0.05467244,-0.010995574,285.60623,-70.70822,11.468319
537887991000.0,-1.0466709890754315,9.813427952471033,-0.9565008318396784,-0.015882496,0.048258353,-0.014966198,286.0801,-70.94875,11.4603815
537893084000.0,-1.050515447371325,9.809583413888232,-0.9680342267990856,-0.012217305,0.05100725,-0.0143553335,286.54837,-71.194084,11.448235
537898175000.0,-1.0551978215216733,9.807524529023944,-0.9759597892391634,-0.008857546,0.05681047,-0.00580322,287.02957,-71.4341,11.439173
537903014000.0,-1.062221485541073,9.811036434374053,-0.9724479572294636,-0.0125227375,0.06261369,-0.015577064,287.5076,-71.675674,11.420506
537908004000.0,-1.0694643215519857,9.814657928008486,-0.9688265392240072,-0.01160644,0.06047566,-0.0076358155,287.9852,-71.91556,11.4015875
537912994000.0,-1.0726024,9.816227,-0.9626365716430644,-0.008246681,0.06383542,-0.015577064,288.4575,-72.1589,11.37064
537918072000.0,-1.0726024,9.816227,-0.9543391620969116,-0.015577064,0.062002823,-0.004276057,288.92596,-72.39412,11.34372
537923881000.0,-1.0894918204569222,9.813156135065562,-0.9404268495921486,-0.014049901,0.06872234,0.0009162979,289.3858,-72.63438,11.307824
537928076000.0,-1.1250418048105544,9.806692372697288,-0.924267784508889,-0.021991149,0.06872234,-0.003970624,289.84406,-72.8697,11.269163
537932960000.0,-1.1664306304561178,9.799166981658756,-0.9054547037301908,-0.025045475,0.06841691,0.004581489,290.28842,-73.102776,11.23022
537937994000.0,-1.1779473,9.799358272060257,-0.902505084336082,-0.028099801,0.070554934,0.004276057,290.72937,-73.33543,11.184171
537943096000.0,-1.1779473,9.8025309137069,-0.9056776597272904,-0.025045475,0.07391469,-0.0015271631,291.16614,-73.56681,11.135856
537948168000.0,-1.1779473,9.805684900071425,-0.9088315802259592,-0.020158553,0.07696902,0.0021380284,291.59644,-73.79768,11.078032
537953046000.0,-1.156156116438624,9.809763086591088,-0.9066836384206411,-0.027183503,0.07666359,0.0061086523,292.0236,-74.02641,11.016218
537958187000.0,-1.1224734722146208,9.814574986219702,-0.901871839280688,-0.03970624,0.06872234,0.003970624,292.44867,-74.25414,10.951584
537962990000.0,-1.1109096,9.816227,-0.9026015167125082,-0.04184427,0.0693332,0.00061086525,292.8689,-74.48088,10.885883
537968051000.0,-1.1109096,9.816227,-0.9065691153372626,-0.04428773,0.0693332,0.0012217305,293.28784,-74.703285,10.818944
537972984000.0,-1.1069996589726483,9.81753034089393,-0.9065383717278186,-0.050396383,0.06566802,0.007330383,293.69696,-74.92103,10.7528105
537978046000.0,-1.0827446081387593,9.825615526684455,-0.8863258040393596,-0.06291912,0.058337633,0.00580322,294.104,-75.136925,10.68294
537982926000.0,-1.05936162748499,9.83341001634423,-0.8668399624116078,-0.06505715,0.05009095,0.005192355,294.51685,-75.34618,10.620816
537987994000.0,-1.0406730355427976,9.84496266492693,-0.8778822838935282,-0.06627888,0.06352998,0.008246681,294.92157,-75.55152,10.556333
537993139000.0,-1.0235287193893527,9.857820689457204,-0.8993126499947808,-0.080634214,0.06383542,0.007941248,295.3288,-75.75358,10.489618
537997984000.0,-1.0129131351424288,9.866339411394302,-0.9053399302848576,-0.0693332,0.0580322,0.01038471,295.71448,-75.959045,10.416548
538003085000.0,-1.008030450804598,9.87122219770115,-0.8955745616091955,-0.08674286,0.063224554,0.01160644,296.09344,-76.155174,10.341033
538007957000.0,-1.0132833099868364,9.875617687757789,-0.9060802477349716,-0.07788532,0.05589417,0.010079277,296.48096,-76.35448,10.273175
538012938000.0,-1.0300282561298817,9.87980400078982,-0.9395700700816147,-0.08124508,0.0571159,0.016493361,296.86035,-76.54484,10.205548
538018203000.0,-1.043872,9.88059424410406,-0.9663672666261448,-0.07574729,0.059253927,0.015882496,297.2397,-76.73549,10.137499
538022977000.0,-1.043872,9.869478124969609,-0.9626619709619904,-0.06719518,0.057726767,0.01985312,297.61545,-76.92233,10.070891
538027973000.0,-1.043872,9.857845085339168,-0.9587843720641868,-0.058948494,0.0729984,0.014660766,297.99423,-77.11592,9.996385
538032935000.0,-1.0468610558984306,9.848556075471697,-0.9786040912890144,-0.052534413,0.06841691,0.012217305,298.37466,-77.30784,9.922844
538037949000.0,-1.0510947073884676,9.840089037735847,-1.0082396517192735,-0.041233405,0.06536258,0.004276057,298.74658,-77.50295,9.84393
538042970000.0,-1.0471467168467583,9.824877564636544,-1.0163155517092337,-0.03481932,0.06536258,0.00061086525,299.1164,-77.69487,9.763746
538052946000.0,-1.034420400948672,9.773914005991612,-0.9805898515877772,-0.022602014,0.0720821,-0.0067195175,299.48135,-77.89085,9.67861
538057953000.0,-1.058362450948672,9.740395005991612,-0.9662246515877772,-0.015271631,0.076052725,-0.018020526,299.84738,-78.09125,9.588971
538062933000.0,-1.0759698810924738,9.713724072977955,-0.9408432769561782,-0.01282817,0.08155051,-0.033292156,300.206,-78.2887,9.496352
538067986000.0,-1.0844693226310704,9.696725278651094,-0.8983460248880303,-0.010995574,0.07544186,-0.02443461,300.56216,-78.482475,9.406448
538073160000.0,-1.0911548171475434,9.68155080459256,-0.8625137828524566,-0.02321288,0.07238753,-0.030848695,300.9149,-78.679535,9.303494
538078008000.0,-1.0876933747856556,9.678089289942593,-0.8659752252143443,-0.016798794,0.076358154,-0.034208454,301.26276,-78.87547,9.202951
538082975000.0,-1.0841469671512711,9.674542808245732,-0.8695216328487289,-0.010995574,0.07880162,-0.043066,301.59348,-79.07077,9.093093
538087957000.0,-1.0763381304594026,9.674522063841447,-0.8753834585587724,-0.0106901415,0.07696902,-0.056199603,301.92096,-79.26622,8.980765
538093044000.0,-1.0629897383870672,9.678971620787287,-0.8842824144835145,-0.009468411,0.070249505,-0.053145275,302.24545,-79.45903,8.870415
538098156000.0,-1.0523980784657696,9.68635486419386,-0.8864401672801606,-0.021380283,0.07086037,-0.058643065,302.57388,-79.64888,8.758312
538102984000.0,-1.0489611654798183,9.700102444361852,-0.8726924938036126,-0.016493361,0.06841691,-0.059253927,302.9012,-79.83775,8.648445
538108858000.0,-1.044779635471642,9.716828477068312,-0.855966347573032,-0.017104227,0.077579886,-0.06261369,303.22092,-80.02437,8.535951
538113034000.0,-1.0295585815816588,9.72284461540443,-0.8857337430963421,-0.016798794,0.07513642,-0.059253927,303.5409,-80.20845,8.425447
538118102000.0,-1.0045532715009444,9.727012246865876,-0.9440794085952258,-0.016493361,0.07727446,-0.06078109,303.85352,-80.392525,8.312216
538123069000.0,-0.9814639252042288,9.73102545458914,-0.9874005339259972,-0.008552114,0.076358154,-0.06047566,304.1594,-80.57531,8.196796
538128010000.0,-0.9625150952306584,9.734815295771265,-0.9911902959634792,0.004581489,0.0842994,-0.06291912,304.4588,-80.757866,8.080143
538132933000.0,-0.9436352956030756,9.738591330610284,-0.9949662519461796,0.007941248,0.08827003,-0.063224554,304.77386,-80.93357,7.9743223
538138022000.0,-0.9304665564222908,9.729537380397648,-1.0100937884850183,0.005192355,0.0852157,-0.0693332,305.0847,-81.11032,7.8657737
538143090000.0,-0.9195933646597592,9.715945887146455,-1.0291219074208906,0.021685716,0.100792766,-0.06291912,305.38467,-81.28485,7.7599826
538148001000.0,-0.909057010132176,9.702775440548866,-1.0475605601624196,0.032375857,0.09590584,-0.06536258,305.68518,-81.45758,7.6530776
538152871000.0,-0.8987340218985642,9.691729,-1.063768516723479,0.035124753,0.1133155,-0.067500606,305.97073,-81.62741,7.5471354
538157866000.0,-0.8888515168164446,9.691729,-1.068709753785766,0.043676864,0.112704635,-0.077579886,306.25922,-81.79957,7.438465
538162843000.0,-0.877099185251441,9.684786682766848,-1.076569414748559,0.05955936,0.11209377,-0.0842994,306.54828,-81.968735,7.3313856
538167862000.0,-0.8579912706420195,9.6513476326774,-1.095677329357981,0.06719518,0.1282817,-0.0842994,306.82855,-82.13632,7.222914
538172908000.0,-0.8398030770109285,9.62272034626366,-1.1099242937087723,0.08460484,0.13255776,-0.09468412,307.10394,-82.312965,7.103846
538178253000.0,-0.8246840259328542,9.612640782416069,-1.1048846170325883,0.09162979,0.14019357,-0.100792766,307.3697,-82.48529,6.9859686
538182833000.0,-0.8108405447394821,9.606334021291842,-1.1005357953526462,0.095294975,0.13408493,-0.10048734,307.64273,-82.64813,6.8788095
538187827000.0,-0.7912575826102979,9.611229869178011,-1.0956400497082608,0.099571034,0.13133603,-0.103847094,307.90863,-82.81139,6.7685657
538192882000.0,-0.7748098305756336,9.61693715788557,-1.0963137995297396,0.099571034,0.124005646,-0.10903945,308.1727,-82.96892,6.660653
538197849000.0,-0.7706673188365409,9.62522226787425,-1.117026141948968,0.109650314,0.11789699,-0.106595986,308.4332,-83.123505,6.55389
538202897000.0,-0.7664572525472437,9.633642488374118,-1.1380762535922668,0.11789699,0.106595986,-0.116675265,308.68866,-83.27669,6.44529
538207878000.0,-0.8039285608927381,9.634268,-1.1648293885409726,0.12370021,0.09987647,-0.11484267,308.94064,-83.42326,6.3407545
538212849000.0,-0.8447067994289521,9.634268,-1.1920148966688873,0.12339478,0.082161374,-0.115453534,309.19534,-83.57002,6.2328305
538217923000.0,-0.868899368,9.624329664106844,-1.2434788668781305,0.1423316,0.07849618,-0.11484267,309.4429,-83.71879,6.1213584
538222882000.0,-0.888720491,9.612436756844742,-1.298977983130217,0.15699236,0.07360926,-0.121256754,309.69232,-83.8653,6.0081353
538227879000.0,-0.9087963984729116,9.607681179955645,-1.3311762,0.17104226,0.0720821,-0.12034045,309.946,-84.00931,5.896351
538232874000.0,-0.9290038558654558,9.612733151124722,-1.3311762,0.17379116,0.06566802,-0.11789699,310.19897,-84.14997,5.7834115
538237868000.0,-0.953064342189746,9.602999600383326,-1.3239075602299952,0.18387043,0.062002823,-0.12950343,310.45407,-84.30103,5.6570015
538242924000.0,-0.9809054593531386,9.5797986896023,-1.30998701376138,0.20097467,0.053450707,-0.13775012,310.70865,-84.44473,5.5326533
538248549000.0,-1.0178842603683895,9.556281891265598,-1.3270791732620322,0.21471913,0.04734206,-0.1518,310.96286,-84.58633,5.4048314
538252916000.0,-1.051017110586255,9.539715574272131,-1.3643535811051692,0.23182335,0.04184427,-0.15149458,311.21576,-84.71955,5.2791834
538257972000.0,-1.0829242800818957,9.520665539046504,-1.3803794959344835,0.23090707,0.03634648,-0.15699236,311.461,-95.14607,5.1455016
538262947000.0,-1.1061496773715511,9.502085318221702,-1.361799178102759,0.23701571,0.040317107,-0.16493362,311.7021,-95.019264,5.0119114
538268122000.0,-1.131813566608109,9.473625213126272,-1.3432503301103225,0.22693644,0.038789943,-0.17592919,311.95114,-94.89351,4.871177
538273201000.0,-1.1591570453165625,9.432609905839364,-1.3261606782235964,0.22235495,0.032375857,-0.17928895,312.1974,-94.77724,4.7311687
538277984000.0,-1.1849069682664606,9.393984937390204,-1.3100669973859884,0.20311269,0.02565634,-0.18570304,312.42834,-94.6592,4.5814466
538282929000.0,-1.2048933776844448,9.360109125999392,-1.310238277684445,0.1966986,0.023518313,-0.19211712,312.6572,-94.55069,4.4320407
538288001000.0,-1.2196409324663495,9.330614170428094,-1.3249858324663495,0.19394971,0.019547688,-0.19883664,312.88577,-94.44959,4.2820425
538293031000.0,-1.2284624484799698,9.307708548915617,-1.323282754560091,0.17379116,0.003970624,-0.20799962,313.10794,-94.34866,4.1245866
538298048000.0,-1.2330127662752155,9.289506660053036,-1.3096318011743535,0.1731803,-0.003970624,-0.21930063,313.3267,-94.25766,3.966271
538303057000.0,-1.2354081,9.289425893171344,-1.3000706573104317,0.16401732,-0.0143553335,-0.22357668,313.54697,-94.178116,3.8098056
538308000000.0,-1.2354081,9.309258205226223,-1.295112747549225,0.15821409,-0.030848695,-0.22632557,313.76886,-94.107864,3.6520965
538312982000.0,-1.233208240920502,9.327033005230126,-1.2840695407112972,0.14782938,-0.042455133,-0.23426682,313.98703,-94.043816,3.4926348
538318646000.0,-1.2286690781422591,9.345189798535564,-1.2659128422008368,0.15241088,-0.061391957,-0.24220806,314.2097,-93.99218,3.333877
538322990000.0,-1.222027737029099,9.35844275500783,-1.2583652695903058,0.13927728,-0.058948494,-0.25473082,314.4261,-93.937035,3.1678145
538328039000.0,-1.1981121835545296,9.370400365262553,-1.2822808646855164,0.13133603,-0.06719518,-0.26175576,314.64847,-93.89473,3.0027146
538332911000.0,-1.17503502440854,9.381938784189266,-1.3053580639930755,0.13683382,-0.073303826,-0.2657264,314.86334,-93.86489,2.8405054
538337992000.0,-1.140341184346371,9.376862331155898,-1.337248928479248,0.124005646,-0.0693332,-0.27000242,315.0752,-93.83992,2.6782982
538343093000.0,-1.1014251421174222,9.365187693220744,-1.3722732892774634,0.118507855,-0.079107046,-0.26847526,315.29044,-93.82909,2.5183978
538348130000.0,-1.04004125,9.3450487,-1.40300212,0.118507855,-0.07238753,-0.2724459,315.49823,-93.8324,2.3632698
538353018000.0,-0.9136243308578236,9.300430461397935,-1.421592903923749,0.12186762,-0.064751714,-0.2782491,315.70602,-93.84547,2.209803
538357909000.0,-0.7871298235901509,9.25578483844321,-1.4401950979030975,0.12156218,-0.06383542,-0.28405234,315.91022,-93.86914,2.0592535
538362990000.0,-0.6880465563104488,9.225542221579198,-1.470211455723799,0.119729586,-0.05131268,-0.28985557,316.1062,-93.90147,1.9092067
538368084000.0,-0.6029622585619153,9.20233734334866,-1.5050186115348023,0.10842858,-0.04917465,-0.2947425,316.30228,-93.93923,1.7594807
538373078000.0,-0.5259752250095097,9.18018547498553,-1.5370548383114198,0.11881329,-0.05375614,-0.3023783,316.48212,-93.99656,1.6332185
538378025000.0,-0.475045416158108,9.160597105846357,-1.5605609221863888,0.12522738,-0.04184427,-0.30176744,316.65433,-94.05574,1.509696
538382906000.0,-0.4247950832283139,9.141270073348217,-1.583753401546349,0.12186762,-0.03268129,-0.3118467,316.81406,-94.124565,1.3935966
538388017000.0,-0.373405672826923,9.100829816586538,-1.6370077554567306,0.113926366,-0.027488936,-0.31215215,316.96954,-94.19843,1.2818774
538393201000.0,-0.3216909195961538,9.053093401201924,-1.7006566831490384,0.11759156,-0.03023783,-0.3182608,317.12234,-94.2764,1.1669946
538398026000.0,-0.283779088029561,8.982575796545277,-1.7735297630487044,0.10934488,-0.021380283,-0.31795537,317.26242,-94.35933,1.0652685
538403028000.0,-0.2709832897159647,8.841822117531832,-1.8844266550440745,0.092240654,-0.02565634,-0.30695978,317.40524,-94.44282,0.9656602
538408197000.0,-0.2581346954887543,8.700926764057092,-1.9950493277681665,0.09407325,-0.026572637,-0.3036,317.5307,-94.53826,0.8639713
538413015000.0,-0.2514823024221453,8.63440297231834,-2.041616173010381,0.093462385,-0.03604105,-0.29352075,317.65857,-94.630325,0.76826555
538418153000.0,-0.2443880733693771,8.563460829945214,-2.091275876384083,0.069027774,-0.04917465,-0.28160888,317.7835,-94.73609,0.6670718
538423017000.0,-0.2413861638608724,8.48527503437652,-2.132932147105562,0.07086037,-0.044898596,-0.25625798,317.90527,-94.85046,0.57401186
538428026000.0,-0.2491646892630128,8.372485626155344,-2.1601570002270147,0.081855945,-0.06627888,-0.25228736,318.03632,-94.960434,0.47846025
538434271000.0,-0.2568739345630219,8.223304241988071,-2.190964004039761,0.0729984,-0.083383106,-0.22571471,318.1579,-95.07493,0.38853827
538438006000.0,-0.2227401423204771,7.967300956103379,-2.1482967303220675,0.11362094,-0.09101892,-0.20922135,318.2813,-95.206276,0.2977737
538443205000.0,-0.1752270001868787,7.610952607157057,-2.088905256143141,0.13500121,-0.1020145,-0.19333886,318.4036,-95.335625,0.20478657
538448034000.0,-0.130902707284242,7.313871173187704,-2.0424823906104117,0.16982053,-0.12370021,-0.17073683,318.53046,-95.47995,0.11886927
538453026000.0,-0.0845817695571214,7.094899575336916,-2.0172164420857923,0.22082779,-0.14202617,-0.14752395,318.65863,-95.63388,0.038187586
538458336000.0,-0.0376235221698224,6.862701104847861,-1.9917478985485888,0.27855456,-0.16218472,-0.12064589,318.78046,-95.792496,-0.02805671
538463006000.0,-0.0277383780307227,6.668293267818464,-1.988452852795992,0.35308012,-0.20066923,-0.09010262,318.91245,-95.96851,-0.08774065
538468159000.0,-0.0168308517461872,6.453778581691594,-1.984817013232152,0.42455134,-0.23304509,-0.06078109,319.03976,-96.155785,-0.13420308
538473028000.0,-0.0108679210327225,6.24139552578534,-1.9849812261780104,0.50701815,-0.27885997,-0.02443461,319.18204,-96.36446,-0.17230372
538478027000.0,-0.015343842703721,5.999695698532161,-1.993933062976814,0.5934556,-0.32436943,0.008552114,319.33322,-96.59114,-0.20516396
538482984000.0,-0.0433119450554414,5.763400332546201,-2.013385253769434,0.6918049,-0.35308012,0.038179077,319.48788,-96.84524,-0.23288105
538488008000.0,-0.2162057559137577,5.544636854928131,-2.098067949691992,0.7846564,-0.37934732,0.069027774,319.65488,-97.11814,-0.25417265
538493152000.0,-0.3932291960123203,5.320648135010266,-2.184773321472573,0.8875872,-0.38637227,0.095294975,319.8218,-97.42285,-0.27878037
538498274000.0,-0.5919834645689893,5.189849676113099,-2.2666085644725973,0.9801333,-0.37048978,0.11209377,319.9895,-97.7464,-0.2996332
538504050000.0,-0.8458879777058661,5.164459243358119,-2.3529361418892867,1.0815369,-0.33658674,0.13775012,320.1545,-98.0964,-0.31257153
538507957000.0,-1.0012311110173069,5.1623599506542845,-2.399606680751372,1.1695015,-0.2883284,0.15149458,320.33514,-98.50182,-0.37568867
538513004000.0,-1.1508513682636836,5.206565904277473,-2.4234098510412267,1.2550226,-0.226631,0.14508049,320.50208,-98.92966,-0.4381045
538518170000.0,-1.3039994263050514,5.251814161938934,-2.447774261129872,1.3338243,-0.14813483,0.13530666,320.67484,-99.40311,-0.54352206
538523170000.0,-1.4418897578002037,5.333877163799649,-2.427005370086103,1.3765849,-0.0720821,0.13713925,320.83133,-99.88356,-0.6475891
538528008000.0,-1.5620001737616886,5.462566754411629,-2.349791499259328,1.395827,-0.040317107,0.13255776,320.978,-100.37243,-0.7573244
538532914000.0,-1.664232420741043,5.625810290884965,-2.238870024242115,1.3997977,0.017715093,0.13103059,321.11853,-100.873474,-0.90544075
538537991000.0,-1.6989726366438709,5.91365794954578,-2.005614185250587,1.3979651,0.044898596,0.116675265,321.2592,-101.37045,-1.0605224
538543116000.0,-1.691445864634837,6.20727335558596,-1.7793848086431403,1.3616186,0.06291912,0.12034045,321.40216,-101.827415,-1.2347274
538547974000.0,-1.5860883219664088,6.492616772891112,-1.5862293901490847,1.3048081,0.049480084,0.1328632,321.54822,-102.26955,-1.4119614
538552962000.0,-1.4527877381051104,6.795035794962165,-1.3923568105110395,1.2525792,0.033292156,0.13805555,321.68082,-102.64795,-1.5816596
538558020000.0,-1.1716007407173217,7.156561941950866,-1.2216360717321446,1.1743884,-0.009162978,0.14477506,321.82703,-102.9954,-1.7498896
538562933000.0,-0.8465605253061839,7.432368361484709,-1.099419462807123,1.112691,-0.06078109,0.1459968,321.95236,-103.276794,-1.8775214
538568083000.0,-0.3092188354722368,7.436074240964761,-1.1364775223908634,1.0659598,-0.115453534,0.16646078,322.09253,-103.53399,-2.0005076
538572990000.0,0.2027686736569238,7.439605260500413,-1.171787017221429,1.0228939,-0.18142697,0.18325958,322.20758,-103.71604,-2.0547426
538577956000.0,0.5871643531181219,7.4188635222303745,-1.3353638416727809,0.9978484,-0.23762658,0.19914207,322.33563,-103.88545,-2.1070793
538582981000.0,0.8696204405303428,7.378512577360864,-1.6026883115920765,0.99112886,-0.2828306,0.2275473,322.47968,-104.04348,-2.1555507
538587935000.0,1.0196880889624993,7.349584242897952,-1.831788850872181,0.9941832,-0.31031954,0.24373524,322.57077,-104.151985,-2.0617056
538593173000.0,1.1050568875281104,7.3251931757855715,-2.054357529289491,1.0088439,-0.32742378,0.26725355,322.67166,-104.25868,-1.9647214
538598127000.0,1.1857970608946695,7.302124572029418,-2.264858719224457,1.0317514,-0.31795537,0.28099802,322.74405,-104.42071,-1.8135215
538602937000.0,1.2135918317920222,7.237604736019052,-2.521743027942052,1.0668762,-0.2779437,0.29229903,322.81354,-104.58766,-1.6604241
538607937000.0,1.1518243680095257,7.095064351022028,-2.8828450323079977,1.0913107,-0.22907446,0.28955013,322.87735,-104.75589,-1.5109907
538612933000.0,1.0430720257532835,6.952190245583312,-3.207874282685209,1.1209377,-0.15882497,0.27366763,322.9242,-105.00342,-1.3396721
538618090000.0,0.8353295255215041,6.803802916173062,-3.470732093141042,1.1548407,-0.0870483,0.26542094,322.95795,-105.256424,-1.167459
538623183000.0,0.6114617295115617,6.658368964912869,-3.7201457075234585,1.169807,-0.007330383,0.23609942,322.98938,-105.59501,-1.0299557
538628112000.0,0.0894327146430965,6.535771157037534,-3.7952862807975873,1.2018774,0.035124753,0.22266038,323.0125,-105.94342,-0.8904448
538632936000.0,-0.4214757795191018,6.415784988404825,-3.868826172352547,1.2092078,0.108123146,0.19211712,323.03802,-106.36477,-0.81983507
538637990000.0,-0.7454680861421572,6.403712374051316,-3.842546831221457,1.2348641,0.1872302,0.16249016,323.04932,-106.7937,-0.74967384
538643663000.0,-0.9665203349680312,6.466870109632152,-3.743298866810596,1.2379184,0.2501493,0.12858713,323.04242,-107.21146,-0.6851798
538647958000.0,-1.1332527038166609,6.508966412931335,-3.6609096275880098,1.2425,0.30176744,0.10781772,323.07315,-107.688675,-0.7659004
538652972000.0,-1.3257267768386196,6.538255932485187,-3.539567244911119,1.235475,0.3387248,0.09010262,323.08795,-108.15419,-0.8495632
538657955000.0,-1.5170108426280935,6.567364364064134,-3.418975084384803,1.212262,0.3491095,0.07544186,323.1125,-108.58939,-0.9832419
538662942000.0,-1.605189358447375,6.675394899676537,-3.31821777097122,1.1893547,0.3494149,0.044898596,323.1277,-109.01331,-1.1214348
538668084000.0,-1.686874615177905,6.793838611495397,-3.216111221381769,1.1554517,0.32375857,0.0571159,323.15076,-109.41733,-1.251204
538672979000.0,-1.6839906478749245,6.961941314612427,-3.117640132463064,1.1264355,0.310625,0.047647487,323.1823,-109.78706,-1.4367559
538677973000.0,-1.6065543873406194,7.184570519429266,-3.016005005768063,1.1108584,0.23976462,0.03176499,323.23883,-110.14255,-1.6252652
538682946000.0,-1.594050072944542,7.144882085448002,-3.022753694915567,1.1184943,0.17745635,0.020463986,323.30655,-110.458084,-1.822631
538687928000.0,-1.6380767107778906,6.876319783150318,-3.1240149941127617,1.1038336,0.12339478,0.029626964,323.39383,-110.75618,-2.0202234
538693123000.0,-1.643853147992511,6.670660189168573,-3.296336132230775,1.1016954,0.032986723,0.051923547,323.48883,-111.03644,-2.1834447
538698084000.0,-1.5878459658414812,6.588296615179252,-3.5631937266625062,1.1456778,-0.008552114,0.058643065,323.58588,-111.3197,-2.3454964
538702954000.0,-1.5328661276887872,6.507443842486651,-3.825156331960336,1.181108,-0.04917465,0.010995574,323.71194,-111.649414,-2.5391214
538707939000.0,-1.4872314691609747,6.340724722010399,-4.1373992922825975,1.2067643,-0.051923547,0.0033597588,323.8446,-111.97995,-2.7182038
538713131000.0,-1.451747809338363,6.072062567417677,-4.512512690998063,1.2104294,-0.0125227375,0.0012217305,323.97305,-112.30851,-2.905557
538718226000.0,-1.4114418206065034,6.014456017354767,-4.8590679798867376,1.2113458,0.021991149,-0.018020526,324.09024,-112.7399,-3.0850024
538723275000.0,-1.3672755224698576,6.116038687541103,-5.185898678333942,1.2195925,0.019242255,-0.032070424,324.20724,-113.16414,-3.261316
538727980000.0,-1.34370011420951,6.169672722155799,-5.452896171801711,1.2458596,0.005192355,-0.07574729,324.30792,-113.6848,-3.4568603
538732954000.0,-1.3524621859836292,6.147767268242435,-5.663185985873264,1.2858714,0.053450707,-0.10170906,324.39197,-114.20114,-3.6416276
538737991000.0,-1.3585414915018894,6.1482675617365325,-5.861646080349767,1.3069462,0.10293079,-0.122783914,324.47125,-114.76933,-3.8273387
538743238000.0,-1.3497095256700942,6.2719153600492135,-5.989709631022058,1.3139712,0.13622294,-0.14721853,324.53653,-115.33418,-4.012467
538748749000.0,-1.3461223413708794,6.404057029930023,-6.121113407832392,1.3252722,0.1685988,-0.19058995,324.58572,-115.94386,-4.2042212
538753023000.0,-1.4669042625242392,6.555897176882219,-6.155622759809459,1.3161092,0.1441642,-0.20219639,324.63953,-116.536446,-4.391723
538759042000.0,-1.636999345215412,6.769731019770677,-6.204221681089284,1.3136657,0.115453534,-0.2321288,324.6735,-117.14035,-4.5797186
538763006000.0,-1.7013071539262548,7.125191620262888,-6.1223394066234205,1.2880094,0.14721853,-0.23060162,324.69882,-117.72031,-4.7521834
538768229000.0,-1.7525393184107203,7.744246625341414,-5.93448794366678,1.2534955,0.13347405,-0.25595254,324.73398,-118.286446,-4.943025
538773091000.0,-1.814107066031292,8.245821157811136,-5.7692710825986815,1.1988231,0.08582657,-0.2574797,324.78482,-118.824554,-5.1490493
538778024000.0,-1.9341735278452865,8.444681275593679,-5.6417005134461125,1.131017,0.006414085,-0.25717425,324.84314,-119.336365,-5.361119
538782920000.0,-2.0533394303470733,8.642049841712334,-5.515086788213804,1.0442741,-0.03481932,-0.28924468,324.914,-119.70029,-5.549522
538787993000.0,-2.1502315522313515,8.83331346673111,-5.362534937683261,0.95142263,-0.06383542,-0.27855456,325.00836,-120.03009,-5.7314763
538793240000.0,-2.235235445972289,9.023560540196552,-5.192526896600612,0.83199847,-0.12889257,-0.2843578,325.11554,-120.32139,-5.931323
538798017000.0,-2.3105899287232328,9.193368995652872,-5.069507381838673,0.70646566,-0.23396139,-0.28160888,325.25253,-120.54746,-6.1333485
538803020000.0,-2.380017569022701,9.35536679616809,-5.088792815102238,0.56077427,-0.34574974,-0.2932153,325.40402,-120.73085,-6.345517
538807916000.0,-2.447960348736113,9.513899922556757,-5.10766578757044,0.47067168,-0.3454443,-0.26083946,325.54108,-120.87118,-6.5419297
538813006000.0,-2.273231336377437,9.704222117449666,-5.074497702293065,0.3463606,-0.3567453,-0.23884831,325.7044,-120.96222,-6.755233
538818248000.0,-1.9724066686721,9.912793909395974,-5.0143328525167785,0.21502456,-0.4184427,-0.23640485,325.88043,-121.02591,-6.9668717
538823104000.0,-1.7235873052627264,10.041888466349702,-5.00254969135175,0.11148291,-0.45081854,-0.24129178,326.04254,-121.07216,-7.169649
538829132000.0,-1.5532254704565949,9.904652762111647,-5.191840602442824,0.056505036,-0.45020768,-0.23701571,326.21136,-121.09703,-7.3677273
538832914000.0,-1.4463395283137963,9.818550334535615,-5.310602750045086,-0.0870483,-0.43585235,-0.2275473,326.34332,-121.0273,-7.4747367
538837992000.0,-1.2845463845922849,9.760109431508432,-5.427381434927235,-0.13591751,-0.38087448,-0.23548855,326.4607,-120.97406,-7.576864
538843273000.0,-1.1093034730499731,9.72116658034958,-5.532527133056133,-0.21960606,-0.37415496,-0.23884831,326.58603,-120.87594,-7.678088
538848096000.0,-0.9310782731411452,9.65112850279375,-5.646808947347964,-0.27580565,-0.34666604,-0.24831672,326.66565,-120.8162,-7.7446356
538853037000.0,-0.6590198751753178,9.409724102437444,-5.853726536091991,-0.3109304,-0.32711834,-0.26175576,326.74283,-120.74352,-7.8119793
538857913000.0,-0.3905404684800387,9.171495432909548,-6.057922076006155,-0.3463606,-0.24953845,-0.29932398,326.77493,-120.671745,-7.8368526
538862994000.0,-0.2588423878585138,9.055422315836893,-6.177338311097183,-0.39003745,-0.16920967,-0.3023783,326.80334,-120.58972,-7.8535404
538868272000.0,-0.1994436007452701,9.003943570566806,-6.252576843041247,-0.41813725,-0.118507855,-0.31703907,326.81198,-120.50913,-7.875571
538873068000.0,-0.1454692576238004,8.957165991499862,-6.320944406361393,-0.42852196,-0.06169739,-0.3304781,326.76215,-120.492065,-7.8204727
538878023000.0,-0.0897055232270359,8.908837612793294,-6.391578534020134,-0.42058071,-0.05131268,-0.31978795,326.7136,-120.47144,-7.765366
538883003000.0,-0.0336604380008226,8.8602653976654,-6.462569039719535,-0.40958515,-0.0421497,-0.35094208,326.63965,-120.46071,-7.7143025
538887999000.0,-0.0186704346784972,8.81893227986036,-6.529449534452664,-0.41722095,-0.054061573,-0.3494149,326.57596,-120.443115,-7.6567707
538893264000.0,-0.0354344226782478,8.781213200191171,-6.596505530213615,-0.4120286,-0.06811147,-0.35460728,326.50668,-120.43417,-7.6100035
538899159000.0,-0.2224757997687736,8.735595636181214,-6.546537259628,-0.40622538,-0.07819075,-0.36346483,326.42514,-120.45332,-7.54882
538903034000.0,-0.5633035580075635,8.701226506560161,-6.351778509531528,-0.40775254,-0.10934488,-0.36987892,326.35403,-120.47034,-7.495969
538908003000.0,-1.0003546885078336,8.657154195569962,-6.102034966504592,-0.40103304,-0.17715092,-0.33964106,326.2989,-120.506744,-7.4484873
538912997000.0,-1.2432693813350484,8.641996331392594,-5.928186646875635,-0.3933972,-0.21288654,-0.39706242,326.23196,-120.54767,-7.4263306
538918252000.0,-1.3454820308171418,8.648810470076501,-5.805531439035949,-0.39767328,-0.25778514,-0.3915646,326.19916,-120.578545,-7.3940306
538923104000.0,-1.4398561079412362,8.655102040180083,-5.692282520208517,-0.44837508,-0.26267207,-0.39584067,326.18063,-120.61523,-7.4634743
538928033000.0,-1.571120983738809,8.715792555128454,-5.498582030099261,-0.46731192,-0.29901853,-0.408058,326.18195,-120.658325,-7.5426416
538932938000.0,-1.7219725021798364,8.807217392370573,-5.260876785013624,-0.49693888,-0.3555236,-0.40775254,326.19168,-120.682915,-7.6215076
538937992000.0,-1.83357488869958,8.827613128298598,-5.045542317101196,-0.5384777,-0.40439278,-0.419359,326.20496,-120.69232,-7.7306037
538943245000.0,-1.9133069699500755,8.787747316625723,-4.846212093161106,-0.5867361,-0.4633413,-0.39492437,326.24072,-120.6893,-7.837276
538948104000.0,-1.9977029177818824,8.74530271295441,-4.65990592956091,-0.6536258,-0.54458636,-0.47158796,326.27243,-120.65919,-7.9999137
538953038000.0,-2.243662299983209,8.618356083368315,-4.44171592452355,-0.71593404,-0.5867361,-0.49938235,326.31973,-120.613815,-8.143275
538957914000.0,-2.486730388271346,8.49290173276803,-4.226090779699438,-0.7874053,-0.5885687,-0.5119051,326.369,-120.53471,-8.322649
538962994000.0,-2.6529558421648947,8.36446369409099,-4.124815690099355,-0.87781334,-0.63591075,-0.5329799,326.43488,-120.44084,-8.517853
538968647000.0,-2.7850680385915982,8.222914525100228,-4.087069425684155,-0.9324858,-0.6914995,-0.5647449,326.49973,-120.34415,-8.714563
538972987000.0,-2.916970243800153,8.103293809419183,-4.061886066497898,-0.9932669,-0.7254025,-0.5882632,326.58722,-120.21509,-8.975343
538978016000.0,-3.119407815418418,7.946864910011463,-4.038881850496752,-1.0662653,-0.8035932,-0.59528816,326.6973,-120.076416,-9.2466545
538982922000.0,-3.3472457416490484,7.790046010993657,-4.029126542241015,-1.14018,-0.9407325,-0.6450737,326.82956,-119.9483,-9.56882
538987932000.0,-3.668463709936575,7.617602799577167,-4.056176376067653,-1.1588113,-0.9737192,-0.6985244,326.95294,-119.82507,-9.882134
538993104000.0,-4.000068367019027,7.43958358012685,-4.084100875179704,-1.2614367,-1.0332786,-0.7333437,327.13016,-119.68966,-10.261368
538997984000.0,-4.26690678539626,7.3007173503710305,-4.157787434431582,-1.3161092,-1.1569787,-0.73975784,327.32788,-119.57483,-10.650452
539002976000.0,-4.479762464826358,7.196654524369249,-4.29496134146631,-1.3252722,-1.2907583,-0.79626286,327.53107,-119.46472,-11.060269
539007944000.0,-4.141505284634814,7.897542871342875,-4.149163101378657,-1.276403,-1.3347405,-0.8353582,327.78497,-119.41687,-11.54143
539012926000.0,-2.9816030913702374,9.800585970206273,-3.581764945979794,-1.2144,-1.5189165,-0.8426886,328.10498,-119.38544,-12.0531225
539018210000.0,-2.795107644265039,11.266765041941518,-3.622435267638082,-1.1511755,-1.7886134,-1.1569787,328.42242,-119.46602,-12.693518
539023249000.0,-3.526786220596633,12.183739014177414,-4.221081366525548,-0.93279123,-2.097406,-1.3884968,328.8064,-119.60669,-13.331094
539027959000.0,-4.317961550915473,13.386527256806756,-5.112501082439996,-0.84207773,-2.1713204,-2.07572,329.00162,-119.54152,-13.936928
539032941000.0,-5.268483007209943,15.025044716820036,-6.407020918698415,-0.4886922,-2.2626448,-2.8710666,329.23914,-119.66567,-14.659583
539038211000.0,-5.040441900175166,16.517923435376932,-6.369607408856512,0.1414153,-2.4501805,-3.3313537,329.5077,-120.00105,-15.54722
539043202000.0,-3.0099040893099778,17.57818554194974,-4.264733945485798,0.86254174,-1.8329011,-3.3991597,329.5343,-120.514496,-16.424072
539048552000.0,-0.9150121192977528,18.68188598455056,-1.988650275983146,1.3924674,-1.0705414,-3.499647,329.5202,-121.29432,-17.446627
539053013000.0,-1.038768310400281,18.85064429880618,0.3627172923103932,1.7763962,-0.39064834,-3.515224,329.36072,-122.19243,-18.365177
539057925000.0,-1.1750360554564607,19.036463810042136,2.9518043793890447,1.6221527,-0.14844026,-3.5140023,328.98373,-122.58616,-18.893518
539063004000.0,-1.4850003479586735,18.90098611464756,4.313442624162639,0.89919364,-0.3643811,-3.4794884,328.55945,-122.93296,-19.37932
539068116000.0,-1.89290434215964,18.57874142809532,4.937535705049158,-0.16920967,-0.6960809,-3.324634,328.1296,-123.14374,-19.809174
539073079000.0,-2.2265806963513914,18.056106750518055,5.305390741444642,-1.258077,-0.8762862,-3.0338624,327.84784,-122.96846,-20.279732
539078023000.0,-2.387770427434873,16.959316281601538,5.018052428123149,-2.0830505,-0.8570439,-2.727208,327.64438,-122.61824,-20.717321
539082953000.0,-2.548503715105092,15.865631610938426,4.731527775074008,-2.6306913,-0.7672467,-2.46759,327.58066,-122.107574,-21.20427
539087995000.0,-2.186856447508591,13.77325880734536,3.753877691795532,-2.994156,-0.66828656,-2.2617285,327.5573,-121.46731,-21.612457
539093120000.0,-1.364620908419244,10.804777573453608,2.168439084621993,-3.218038,-0.5207626,-2.0772474,327.53522,-120.753845,-21.932707
539098154000.0,-0.716670308330218,8.481506682398754,0.7723769138629284,-3.3056972,-0.37720928,-1.9297233,327.51648,-120.14406,-22.293112
539103020000.0,-0.56060864605919,7.980657526090343,-0.1022943550623052,-3.3078353,-0.28527406,-1.8032742,327.49393,-119.524216,-22.587584
539107916000.0,-0.4035848280404984,7.476720520482866,-0.982358171884735,-3.1743612,-0.25686884,-1.7583756,327.33057,-119.14037,-22.843275
539113000000.0,-0.3862023804476618,7.117021039274422,-1.6538806566650024,-3.0185907,-0.27000242,-1.6820174,327.1712,-118.74872,-23.04006
539118144000.0,-0.4517881279131303,6.846479939590614,-2.194963070044933,-2.538756,-0.29840767,-1.625207,327.01154,-118.447754,-23.217583
539123165000.0,-0.6361533897942719,6.553340749173054,-2.4293666843001214,-1.9095647,-0.3155119,-1.5445728,326.72263,-118.24484,-23.237345
539128026000.0,-1.1168928578257362,6.196541780475998,-1.9185809615248088,-1.31672,-0.37110063,-1.4526376,326.46332,-118.09682,-23.236406
539132947000.0,-1.6035661600645423,5.835338792416296,-1.4014905394352564,-0.9306532,-0.473726,-1.4052955,326.20505,-118.066635,-23.255264
539137996000.0,-3.202929931998104,5.972300046693529,-0.7777801677664535,-0.70188415,-0.59803706,-1.4199562,325.98218,-118.09354,-23.269281
539143165000.0,-5.197579647546812,6.277364159753496,-0.1089858295156831,-0.59986967,-0.72082096,-1.4902058,325.7981,-118.159195,-23.292192
539148214000.0,-6.907330241864982,6.57304144779019,0.2688234633074308,-0.63255095,-0.83077675,-1.6041322,325.76028,-118.33084,-23.551924
539154146000.0,-8.181109120446818,6.913329086449733,-0.1358427538950946,-0.75747293,-0.88331115,-1.8258762,325.7284,-118.5446,-23.858826
539157965000.0,-9.001163324307916,7.13240502914036,-0.3963653910320543,-0.95081174,-0.8579602,-1.91323,325.93887,-118.95665,-24.554005
539163034000.0,-9.664329946365005,7.339202604145242,-0.6279812564947393,-1.1111639,-0.8536842,-2.0638082,326.14816,-119.43303,-25.322365
539168203000.0,-10.204742128945494,7.523255969385334,-0.8276987035598449,-1.2654073,-0.94042706,-2.2049181,326.37323,-119.91103,-26.10506
539173153000.0,-10.597939050781566,7.611394602948084,-1.0336769600145783,-1.3707817,-1.1206323,-2.2898283,326.65317,-120.5493,-27.043571
539178043000.0,-10.654832083907024,7.463472479193326,-1.2764207264355714,-1.4416419,-1.3439035,-2.3127358,326.96674,-121.19731,-27.992437
539182963000.0,-10.712074154045515,7.314642857746821,-1.5206537184174294,-1.5439619,-1.4914275,-2.3545802,327.30878,-121.930466,-29.021935
539187990000.0,-10.430074306292044,7.014339816066482,-1.7803742279461814,-1.7256943,-1.5745052,-2.3695462,327.69907,-122.64795,-30.034645
539193043000.0,-10.039417618124258,6.665812990304709,-2.04464180880095,-1.9312505,-1.5714508,-2.375044,328.10437,-123.362946,-31.033588
539197955000.0,-9.613122902643392,6.417945978703242,-2.237654116389028,-2.1218405,-1.505172,-2.3952026,328.471,-124.106064,-32.032726
539202977000.0,-9.023033143640898,6.465920731421447,-2.2232616905735663,-2.2708917,-1.4001031,-2.415972,328.82108,-124.83454,-33.003174
539207937000.0,-8.416128714262133,6.508820974017828,-2.1752267282849127,-2.349693,-1.3368785,-2.4242187,329.08487,-125.539536,-33.906654
539212928000.0,-7.721805477385275,6.536436083096732,-2.009535950231099,-2.3554964,-1.2092078,-2.4712553,329.2875,-126.24942,-34.792152
539219125000.0,-6.856456168931877,6.563716278629201,-1.8058353823897275,-2.31915,-1.1160508,-2.5488353,329.43436,-126.90785,-35.61072
539224245000.0,-6.055112345034604,6.400176869974152,-1.691357723755524,-2.2091942,-1.1074986,-2.617863,329.56656,-127.57532,-36.416016
539227965000.0,-5.472885972984241,6.281355268373218,-1.6081825499041107,-2.1093178,-1.108415,-2.6615398,329.6573,-128.17831,-37.15092
539232939000.0,-4.658991405226481,6.088204847735192,-1.489518900522648,-2.0451767,-1.094976,-2.7705793,329.73447,-128.81769,-37.90437
539237989000.0,-3.779570636498258,5.840703160017421,-1.3578690736498258,-1.9065105,-1.0564915,-2.8863382,329.80255,-129.47375,-38.653175
539243158000.0,-3.208986984450932,5.5361510984742885,-1.1432586403936713,-1.7916678,-1.028697,-2.9950724,329.79892,-130.06908,-39.32605
539248205000.0,-2.876684053173856,5.203848024599736,-0.8792370845168582,-1.7302758,-1.0299188,-3.0992248,329.79025,-130.68964,-40.012917
539253008000.0,-2.9543021364172835,5.06355020775155,-0.5966289095019004,-1.7376062,-1.056186,-3.1560352,329.6932,-131.23181,-40.601143
539258000000.0,-3.4898523146129223,5.120930796189238,-0.2666917417803561,-1.7699821,-1.14018,-3.1841352,329.62326,-131.78397,-41.196693
539262999000.0,-4.596705605552531,5.796715526238432,0.2231964434730539,-1.8402315,-1.2403619,-3.1282408,329.58884,-132.32968,-41.795895
539268161000.0,-6.449078393322446,7.263363601125023,0.9273672218363272,-1.9581286,-1.4559973,-2.9651399,329.6441,-132.83713,-42.36242
539272966000.0,-8.602295056119162,9.082699746296296,2.037484245386473,-2.0958786,-1.9819523,-2.6606236,330.04022,-133.40913,-43.036358
539278046000.0,-12.221680122141708,12.427889153703704,4.634510681135265,-2.1746802,-2.6316075,-2.2018638,330.59137,-133.88257,-43.608273
539282914000.0,-15.690019984621578,15.63347616851852,7.123157273502415,-2.1615467,-3.1468723,-1.6975945,331.49786,-134.34308,-44.180855
539287990000.0,-17.031515259455194,16.927220289932887,8.003465074788789,-1.994475,-3.5167513,-1.2217305,332.61594,-134.68497,-44.61008
539293055000.0,-17.621330010343467,17.543844947651007,8.317522509372287,-1.6936239,-3.6871827,-0.8142834,333.8576,-134.90863,-44.888073
539297980000.0,-18.13034505074821,17.903887926154848,8.391987426366299,-1.3469579,-3.4758232,-0.5919284,335.52072,-44.907444,-45.09163
539302964000.0,-18.42924561548471,17.465243232595967,7.69326041849382,-1.010982,-3.1355712,-0.6979135,337.13718,-44.728577,-45.235332
539307939000.0,-18.727606432010408,17.02739063418998,6.995795156823357,-0.89949906,-2.176513,-0.82253003,338.3797,-44.600307,-45.296207
539312935000.0,-18.9109063239448,15.2183331684287,5.473968656476474,-0.97158116,-1.2330315,-1.1478158,339.44293,-44.37421,-45.436733
539318137000.0,-19.06368626373981,12.886418173997257,3.6204983235089983,-1.3967434,-0.2938262,-1.4630222,340.0864,-44.102726,-45.622272
539322974000.0,-18.66645375740353,10.610804232126831,1.980267715548908,-2.1734586,0.3933972,-1.7256943,340.3549,-43.667694,-45.980156
539328491000.0,-16.775153653604548,7.729073078671852,0.3313065318935089,-3.0106494,0.514654,-1.9703459,340.4804,-43.139687,-46.42065
539332905000.0,-15.033930772216548,5.71021527453524,-0.6687663489540348,-3.6661077,0.15760323,-2.1276436,340.4182,-42.338573,-47.14795
539337926000.0,-12.465132807967311,4.153219432522983,-0.98311257253524,-4.0139956,-0.3659083,-2.169488,340.3937,-41.502964,-47.883392
539343197000.0,-10.002094459568449,2.6990965587675984,-1.2322535619384505,-4.072944,-0.81214535,-2.108096,340.3214,-40.604748,-48.681557
539348240000.0,-8.057960697347012,1.6262353454729397,-1.3279226791298195,-3.8771617,-1.1523973,-1.9908098,340.44025,-39.725994,-49.431705
539352962000.0,-6.23757608001415,0.6216645246961443,-1.417502209444641,-3.5613444,-1.4541647,-1.8008307,340.59418,-38.972885,-50.0448
539357941000.0,-5.178225760755092,-0.0426508040158966,-1.3856035841231993,-3.1987958,-1.7779233,-1.5228871,340.90277,-38.30527,-50.557972
539362934000.0,-4.99769445752608,-0.3039458591058122,-1.2240757430700446,-2.8890872,-2.134974,-1.2629639,341.34973,-37.714012,-50.981773
539368047000.0,-5.0881307006237,-0.3990037398657311,-1.2123163742723493,-2.719572,-2.4333818,-1.0299188,341.88843,-37.24133,-51.26157
539373032000.0,-5.4561915945945945,-0.3162934481081081,-1.357059372972973,-2.6279423,-2.6041186,-0.83260936,342.49368,-36.852097,-51.448795
539378007000.0,-5.817189823238255,-0.2399727403644668,-1.5183085845264728,-2.5793786,-2.6896396,-0.6640105,343.21176,-36.482212,-51.579956
539382936000.0,-6.147195883892618,-0.1915718395227442,-1.7515129537658465,-2.5402832,-2.7043004,-0.5323691,343.93057,-36.167576,-51.64629
539388221000.0,-6.495704436661466,-0.1451648170163806,-1.9778608486349452,-2.47095,-2.660929,-0.4156938,344.63654,-35.84807,-51.705982
539393172000.0,-6.761996559157566,-0.1636573156536661,-1.9223833488611544,-2.3924537,-2.6328292,-0.3191771,345.31476,-35.568176,-51.722256
539398282000.0,-7.036840579750391,-0.1827436957862714,-1.8651242044773797,-2.2785273,-2.5809057,-0.23151793,346.05396,-35.238857,-51.76573
539402962000.0,-7.3140843567823985,-0.1847913849798143,-1.796030172930965,-2.1288655,-2.5433373,-0.20861048,346.75742,-34.93096,-51.79404
539408004000.0,-7.640606220710537,-0.17017100475979,-1.703434412878482,-2.0665572,-2.4471262,-0.1777618,347.3738,-34.655376,-51.802494
539412995000.0,-8.18014124020543,-0.0307750693788212,-1.5917290248471507,-1.9291124,-2.3561072,-0.1554652,347.93246,-34.37395,-51.839596
539418187000.0,-8.974603329126927,0.2489079734711013,-1.4539142055107197,-1.8212948,-2.264783,-0.15393804,348.43246,-34.10411,-51.8804
539423127000.0,-9.693825696301738,0.5048499397501837,-1.330620309331374,-1.72264,-2.1456642,-0.18661933,348.90347,-33.8062,-51.96311
539428000000.0,-9.873844437056086,0.6105753766256429,-1.322047982659809,-1.6276505,-2.0060816,-0.26511553,349.32718,-33.512455,-52.067245
539432945000.0,-10.056523007347538,0.7178629377479794,-1.3133489973548862,-1.5262468,-1.8536706,-0.32589662,349.77414,-33.16275,-52.23238
539437978000.0,-10.242452480406564,0.8270597618387214,-1.304495207053637,-1.4104879,-1.7067575,-0.38148534,350.17563,-32.812393,-52.428493
539444016000.0,-10.281743313985228,0.7774036054511881,-0.744200815641458,-1.2577715,-1.5894713,-0.45478916,350.54083,-32.46266,-52.656048
539448183000.0,-10.278539447655747,0.7133275835581245,-0.2668343371226718,-1.1676689,-1.5164729,-0.5363397,350.87784,-32.109024,-52.909016
539452931000.0,-10.234327774246127,0.6307658296169519,0.2353927683048085,-1.1136073,-1.459968,-0.63041294,351.25717,-31.709143,-53.209423
539458000000.0,-10.07607288734945,0.5164702673259078,0.6574071051869963,-1.1047498,-1.4089607,-0.7122689,351.62598,-31.303587,-53.5313
539463044000.0,-9.906500655257323,0.4048505930361979,1.0745243828613642,-1.105666,-1.3616186,-0.79443026,352.14835,-30.816103,-53.86585
539468236000.0,-9.58815685947632,0.3150614499614216,1.4704128699663466,-1.0867293,-1.2791518,-0.8555168,352.6482,-30.326944,-54.219913
539473073000.0,-9.291579636788969,0.2314115876631371,1.8392327105146515,-1.0479393,-1.1542299,-0.9059132,353.2666,-29.785727,-54.575558
539478034000.0,-8.987119287546143,0.3742676247522828,2.5639365219545365,-0.9819659,-1.0919216,-0.9166033,353.8795,-29.256903,-54.93014
539483001000.0,-8.682137574315135,0.6422823705187487,3.478883495201088,-0.90408057,-1.1948525,-0.8549059,354.5027,-28.752201,-55.26391
539487935000.0,-8.426037215340957,0.8556082603538936,4.314712474584759,-0.8741482,-1.4291192,-0.732122,355.30618,-28.22712,-55.525593
539493207000.0,-8.190048220766213,1.0410279457891662,5.149100971037476,-0.89766645,-1.7528778,-0.58032197,356.15823,-27.739239,-55.72585
539498230000.0,-7.996863303791431,1.044621031372705,5.955335418329227,-0.9728029,-1.9199494,-0.44165558,357.16772,-27.283731,-55.77
539503016000.0,-7.916713914362928,0.4799311892043558,6.760473687465225,-1.0662653,-2.209805,-0.39614612,358.32156,-26.8449,-55.7155
539507908000.0,-7.834789381750258,-0.0972653648883234,7.583444103807329,-1.1078042,-2.4178047,-0.37598756,359.5673,-26.445013,-55.501877
539513665000.0,-7.9258968915733075,-0.3869906961422309,7.996316200681929,-1.1933253,-2.5760188,-0.42119157,0.8699607,-26.027512,-55.2353
539518072000.0,-8.05952201154408,-0.4760741261519727,8.123088467851924,-1.2983941,-2.666427,-0.47952923,2.1743343,-25.607405,-54.92673
539523239000.0,-8.203531302870031,-0.5360583587150969,8.201878399393326,-1.3811663,-2.706744,-0.5589417,3.7204804,-25.05339,-54.5638
539527964000.0,-8.298558303725597,-0.4621485320448005,8.071656634984834,-1.4669929,-2.6661212,-0.66645396,5.2350955,-24.465687,-54.193657
539532959000.0,-8.399015418915766,-0.3840152867076301,7.933993626895854,-1.5351044,-2.5558603,-0.8228355,6.7809224,-23.804058,-53.839005
539537944000.0,-8.415572046004057,-0.2391684195845841,7.718549671594321,-1.5867225,-2.4339926,-0.96577793,8.278315,-23.114916,-53.49014
539543208000.0,-8.378759922352941,-0.0428364926588235,7.440412852705883,-1.6539177,-2.3564126,-1.1117748,9.750769,-22.381325,-53.162735
539548118000.0,-8.322031416758302,0.1612604851675097,7.045638865940914,-1.681712,-2.2904391,-1.2541064,11.182612,-21.616959,-52.877876
539552959000.0,-8.17248955179239,0.45014783267649,6.090611169804267,-1.675298,-2.214081,-1.3579534,12.575128,-20.832932,-52.61071
539557955000.0,-8.01815962876622,0.7482848267179826,5.105005226838208,-1.6676621,-2.150551,-1.4563028,13.916389,-20.048576,-52.3664
539562935000.0,-7.862437847423581,0.9759276366419214,4.329095460812226,-1.642922,-2.0873265,-1.5173893,15.215105,-19.266172,-52.133316
539568214000.0,-7.694653707598253,1.1172194261746726,3.80366672438428,-1.6071864,-2.028378,-1.5632042,16.485575,-18.482002,-51.91106
539573023000.0,-7.549155523112264,1.2268972024527602,3.3661904449129305,-1.565953,-2.0118847,-1.5796975,17.539362,-17.81063,-51.785667
539578024000.0,-7.439137006580215,1.2339951760429788,3.1426040915301963,-1.4892895,-2.0323486,-1.5745052,18.562052,-17.163816,-51.661148
539583827000.0,-7.311475048684699,1.2422314369396072,2.883161658280845,-1.4080443,-2.0549507,-1.5891659,19.494965,-16.573498,-51.574474
539587940000.0,-7.110230507969872,1.3105983476265546,2.7672659846382905,-1.3191634,-2.019215,-1.5748106,20.375652,-16.023832,-51.4893
539593219000.0,-6.725016819968471,1.469997054492906,2.696422156016816,-1.2049317,-1.9862283,-1.5402967,21.230345,-15.510542,-51.394833
539597997000.0,-6.286643780010992,1.627602991402999,2.7860635750569207,-1.0922271,-1.9737056,-1.5103643,22.104193,-15.001967,-51.291813
539603026000.0,-5.364019104734239,1.8620404257203425,3.670875713802309,-1.0415252,-1.9511036,-1.4957036,22.934763,-14.5215225,-51.19716
539607988000.0,-4.4536863072152,2.0933545138258616,4.543899740935856,-1.0021244,-1.9456058,-1.4443909,23.732153,-14.088818,-51.03218
539612935000.0,-3.7063070786431696,2.241474780076698,5.31098817754748,-0.9807441,-1.9465221,-1.3402383,24.470089,-13.689872,-50.866478
539618136000.0,-3.028665075,2.34152935,6.047753375,-0.9923506,-1.9483547,-1.2443326,25.162941,-13.313466,-50.700546
539622983000.0,-2.388415831330713,2.388531538573835,6.70400665047726,-1.024421,-1.9682078,-1.1572843,25.779123,-12.998254,-50.268394
539628039000.0,-1.7087367955830055,2.374937967321729,7.34743635214299,-1.0503827,-1.958434,-1.0839803,26.318874,-12.712628,-49.843143
539632988000.0,-1.05473906736668,2.33788833287616,7.941711131908027,-1.0803152,-1.9462167,-1.0137309,26.816635,-12.437191,-49.236164
539637937000.0,-0.4285968807404194,2.242294075736184,8.448360265530455,-1.106277,-1.9382755,-0.9388999,27.240847,-12.186644,-48.633
539643229000.0,0.154068804346471,2.119969113375262,8.903342901747031,-1.1215485,-1.9126191,-0.88331115,27.628256,-11.938574,-47.88499
539648001000.0,0.5213336579308178,1.9730631433962265,9.155637974842769,-1.1343768,-1.9043725,-0.81183994,27.938242,-11.717278,-47.138794
539653510000.0,0.9453198436802238,1.8034686361425576,9.446898150384348,-1.1508701,-1.9226984,-0.76083267,28.228409,-11.487931,-46.2735
539657935000.0,1.1328706617691306,1.595111231370976,9.655983743105004,-1.1707232,-1.9211712,-0.7357872,28.454727,-11.27683,-45.42766
539662934000.0,1.1616789095978337,1.2734194899207705,9.86244254337579,-1.187522,-1.8961257,-0.6994407,28.617874,-11.087174,-44.593906
539667989000.0,0.7767318734268793,0.78597531901959,9.992666003416858,-1.1988231,-1.8264871,-0.6759224,28.797644,-10.852099,-43.671978
539672998000.0,-0.1236660081612757,0.0997497674824601,10.023261979498862,-1.2055426,-1.7030923,-0.66798115,28.924314,-10.630338,-42.787304
539677960000.0,-0.79487497,-0.41180268,10.04607,-1.1914927,-1.5457945,-0.6960809,29.124348,-10.335218,-41.89561
539682939000.0,-0.79487497,-0.41180268,10.04607,-1.16492,-1.3475688,-0.75869465,29.288067,-10.047059,-41.06548
539687908000.0,-1.2680764227512025,-0.7992274335059029,10.043210793659815,-1.0760391,-1.1227703,-0.84757555,29.641897,-9.608421,-40.384308
539692995000.0,-2.678255561676432,-1.9537849736843027,10.0346901242676,-0.9309586,-1.0106765,-0.9633345,29.998768,-9.179881,-39.73823
539698099000.0,-3.971307041103072,-3.062909198091643,10.06643576135053,-0.7632761,-0.8136725,-1.1261301,30.377449,-8.740917,-39.17888
539702987000.0,-4.040024520394254,-3.651917400838838,10.483649907098668,-0.691194,-0.6264423,-1.2113458,30.7439,-8.316099,-38.655373
539707975000.0,-4.009804591567781,-4.245402430061129,10.867872633045666,-0.6068946,-0.48380527,-1.3399329,31.432049,-7.6776776,-38.382336
539712929000.0,-3.4596239240201365,-4.795583231211794,11.034206166846458,-0.5830709,-0.44501534,-1.4230106,32.113228,-7.0467486,-38.132347
539718594000.0,-2.830370071389668,-5.417795691442482,11.215848311355009,-0.58123827,-0.47647488,-1.4669929,32.892056,-6.330564,-37.879814
539723281000.0,-2.308089477124938,-5.828952768179567,11.238073076745335,-0.5540548,-0.537256,-1.4526376,33.661533,-5.6355886,-37.627472
539728012000.0,-1.7809058860290476,-6.24396965105628,11.260506480854929,-0.5296202,-0.6432411,-1.3582588,34.466167,-4.8797545,-37.26601
539732982000.0,-1.3636113079378258,-6.6897341714520175,11.1200036448156,-0.45631635,-0.7440339,-1.219287,35.230408,-4.1666527,-36.88478
539738000000.0,-1.0713199585151574,-7.149049229397567,10.823073014385017,-0.33628133,-0.83658,-1.0412198,35.928616,-3.5077899,-36.471733
539743054000.0,-0.9914154835729918,-7.528797824040565,10.422291372191086,-0.17867808,-0.86315256,-0.86529064,36.603035,-2.840249,-35.967384
539748034000.0,-1.1696100216674674,-7.803726625321591,9.905527125593808,-0.03176499,-0.86926126,-0.6646214,37.183994,-2.2463143,-35.44196
539752993000.0,-1.3470531370109422,-8.077496088283961,9.390942005337603,0.14660765,-0.8362745,-0.46120325,37.74328,-1.665038,-34.91052
539757914000.0,-1.523136534995463,-8.349167700955432,8.88030006607953,0.33322698,-0.76083267,-0.25870144,38.211,-1.1649946,-34.392166
539762929000.0,-1.7300824541310542,-8.304228440360873,8.429217905982906,0.52412236,-0.63132924,-0.080634214,38.597282,-0.7475844,-33.903255
539769128000.0,-2.001724689225589,-8.063338019079685,7.911560464646465,0.6795876,-0.50823987,0.08246681,38.90269,-0.40497124,-33.439613
539772989000.0,-2.126718555865273,-7.860389287456446,7.590114615563299,0.8170323,-0.40133846,0.21991149,39.267353,-0.042640872,-33.13524
539778008000.0,-2.229781409336192,-7.525434733422674,7.173568331323149,0.89461213,-0.31215215,0.32742378,39.576168,0.26994798,-32.864845
539782989000.0,-2.3526751363787,-7.124631454771409,6.773936544023499,0.9324858,-0.2565634,0.41905355,39.84907,0.5192679,-32.68059
539787970000.0,-2.60058082319048,-6.309057738766287,6.457766996904422,0.96852684,-0.22540927,0.47586402,40.09266,0.7365188,-32.518192
539793546000.0,-2.878099817300595,-5.396060541327107,6.103829756443473,1.0021244,-0.20005837,0.5198463,40.293232,0.89320886,-32.41303
539797944000.0,-3.0505800268980274,-4.8007146407703765,5.941954174246371,1.0351112,-0.19425514,0.52015173,40.48801,1.0391592,-32.313866
539803070000.0,-3.205872502130629,-4.229786312188314,5.868875384815779,1.0546589,-0.18509217,0.5338962,40.66253,1.1714675,-32.22585
539807929000.0,-3.326896612279839,-3.691949048115714,5.827278276079897,1.0968086,-0.16768251,0.52015173,40.751026,1.1557268,-32.20155
539812964000.0,-3.398065443038473,-3.14157707729017,5.8415120224146415,1.1395692,-0.1563815,0.50518554,40.837017,1.1362654,-32.18002
539818012000.0,-3.4640071072088725,-2.6272667846580404,5.88686845637708,1.1707232,-0.14080444,0.4810564,40.87606,1.0387954,-32.176933
539822994000.0,-3.5169221171534195,-2.2039471655452862,6.001517399020333,1.1820242,-0.118202426,0.4529566,40.923584,0.9429979,-32.18027
539827972000.0,-3.5878451624501784,-1.7929823436752674,6.140042818103629,1.1765264,-0.09040806,0.41172317,40.92017,0.77671355,-32.183094
539832944000.0,-3.772635117306482,-1.458362675959723,6.429713864002517,1.1722504,-0.0983493,0.35918877,40.93159,0.61888176,-32.182495
539838756000.0,-4.005760431759657,-1.1130140636051502,6.781217916909871,1.1765264,-0.13775012,0.3191771,40.893513,0.41023237,-32.15853
539843466000.0,-4.222582552789699,-0.9078073281545064,7.087091947296138,1.1847731,-0.20097467,0.27885997,40.87393,0.21584642,-32.125427
539848817000.0,-4.460735312962963,-0.6744894956687776,7.433755913586643,1.1969905,-0.25717425,0.24678956,40.830208,-0.0140701905,-32.066914
539852979000.0,-4.552522827777778,-0.4909147296085204,7.693820053022452,1.1893547,-0.35216382,0.2452624,40.789055,-0.23282981,-31.980091
539858105000.0,-4.665570112962963,-0.2648204838553061,8.014120095970062,1.162782,-0.4831944,0.25625798,40.737015,-0.47943282,-31.857065
539862939000.0,-4.525622141418764,-0.2101637893211289,8.273586548436308,1.1200215,-0.63499445,0.31703907,40.668198,-0.7202565,-31.702984
539868397000.0,-4.312979543859649,-0.1835834634697856,8.55711019688109,1.0790935,-0.81061816,0.39584067,40.589546,-0.9529312,-31.507706
539873249000.0,-4.06480133800206,-0.2252393915633367,8.825089483213182,1.0537425,-0.98532563,0.47800204,40.47317,-1.2230946,-31.24206
539877966000.0,-3.7717065838311017,-0.3229376138063852,9.099574676519053,1.0629056,-1.1557571,0.5699373,40.328545,-1.4984385,-30.933088
539882983000.0,-3.4761709368590386,-0.4503872314699376,9.37307817454253,1.0955868,-1.2858714,0.6768387,40.130276,-1.8073022,-30.52589
539887932000.0,-3.199783766639855,-0.598111368505932,9.62563889030766,1.1258247,-1.3371841,0.77396625,39.90678,-2.1233807,-30.101952
539893401000.0,-2.928744315850703,-0.7552725932234611,9.868043565971885,1.133155,-1.4450017,0.8546005,39.647995,-2.4551764,-29.562178
539897976000.0,-2.724860095055744,-0.882700292205526,10.046442397770235,1.1459832,-1.4700472,0.8866709,39.37507,-2.7958364,-29.04348
539903006000.0,-2.517979997098496,-1.0141731780203784,10.210080309267346,1.14018,-1.5231925,0.9202685,39.082817,-3.1459863,-28.438622
539908896000.0,-2.299028435041242,-1.1564916962154297,10.357872726540512,1.1249083,-1.5488489,0.9297369,38.79263,-3.4904408,-27.847122
539912934000.0,-2.1310413554137666,-1.26659104633604,10.395464632830626,1.0558805,-1.5528195,0.91232723,38.50244,-3.8028326,-27.206593
539918407000.0,-1.8776873812064965,-1.4338045825406032,10.354928242459398,1.0369438,-1.5149459,0.8707884,38.22118,-4.1150055,-26.58448
539922925000.0,-1.6505679833407971,-1.5833999202686968,10.298893229467083,0.960891,-1.4318681,0.81000733,37.960133,-4.3837867,-25.951303
539928064000.0,-1.355232668159427,-1.7773515337393642,10.188693093416928,0.9111055,-1.3142766,0.7470882,37.714817,-4.6424837,-25.35317
539932949000.0,-1.0643750404614725,-1.9493714760678256,10.078114991843744,0.8958339,-1.1362094,0.6808093,37.49432,-4.8723288,-24.781433
539937929000.0,-0.6702644569456965,-2.005672946769693,9.90921079351792,0.8863655,-0.93218035,0.6093381,37.293438,-5.0774574,-24.263876
539943418000.0,-0.2700360114758022,-1.8674665338170395,9.90541486603336,0.8921687,-0.70341134,0.55924714,37.10671,-5.2544627,-23.773182
539947991000.0,-0.0046927780387463,-1.3531592948462865,10.265757277881669,0.88606006,-0.46273044,0.52473325,36.93204,-5.415212,-23.354208
539952931000.0,0.2819452217817338,-0.7975770161418207,10.655018488144211,0.8374963,-0.20586158,0.5039638,36.74687,-5.566683,-22.959688
539957943000.0,0.499228152343949,0.2183898025902336,10.975197249681528,0.76144356,-0.018936822,0.4728097,36.57142,-5.7002487,-22.620804
539962932000.0,0.6564616352292993,1.5929147006157112,11.23387213312102,0.6780604,0.1695151,0.43096542,36.3986,-5.812086,-22.360851
539968428000.0,0.907324387948718,3.059474019587912,11.420789668131867,0.58032197,0.35827246,0.3652974,36.11129,-6.020408,-22.03213
539973021000.0,1.1449791625641026,4.267888155604396,11.541630993406594,0.45570546,0.5369505,0.33353242,35.823654,-6.1945343,-21.76032
539977949000.0,1.4289804644518274,5.441646584136213,11.59495991694352,0.34422258,0.6612616,0.30451632,35.40819,-6.550888,-21.458076
539982959000.0,1.74778311769103,6.507642936399502,11.57005347591362,0.24831672,0.74097955,0.28008172,35.001556,-6.8672113,-21.20121
539987927000.0,1.9642283054414111,7.282304664940426,11.373973461863214,0.16768251,0.7672467,0.26297748,34.441837,-7.3685865,-20.862127
539993047000.0,2.1068337310910965,7.852726079332021,11.03356047002533,0.11911872,0.7993172,0.26236662,33.894344,-7.8353515,-20.555874
539997972000.0,2.114081880171065,8.194154071242307,10.6053469934286,0.022602014,0.80878556,0.27366763,33.251484,-8.391268,-20.161137
540002986000.0,1.9538044304370503,8.27429282225931,10.039367489308438,-0.07360926,0.8216137,0.29260445,32.628998,-8.914899,-19.789114
540008019000.0,1.5795532017318925,7.919653731395205,9.4379604560815,-0.1518,0.8417723,0.30970868,31.9692,-9.486745,-19.406591
540012929000.0,1.0245648238837124,7.186485016026836,8.82163131830041,-0.21044308,0.8750645,0.3203988,31.330904,-10.020847,-19.043476
540018279000.0,0.41984225331594,6.387614827183501,8.150071056156044,-0.24648413,0.9315695,0.31978795,30.721252,-10.535835,-18.748821
540022943000.0,-0.1193030165118317,5.646463630148992,7.682370309377739,-0.27947086,0.9789116,0.3173445,30.127686,-11.023608,-18.467775
540027978000.0,-0.7297323838212096,4.740210699970786,7.456980880514169,-0.29046643,1.0280862,0.28099802,29.559265,-11.492198,-18.211712
540032917000.0,-1.3480344561733442,3.846552175919869,7.264044192661489,-0.33017266,1.0439687,0.24740042,29.163677,-11.77293,-18.189714
540037934000.0,-2.0404510141455434,2.923330030253475,7.1609182808667216,-0.38453966,1.0522153,0.18753563,28.788046,-12.038336,-18.179163
540043278000.0,-2.694835210837229,2.0818992968975776,7.0762141755206125,-0.45173484,1.0403035,0.116980694,28.554344,-12.1541195,-18.30647
540048032000.0,-3.123737568607452,1.5949500738234876,7.047190665420032,-0.5143485,1.0100657,0.041233405,28.343102,-12.24907,-18.428345
540053015000.0,-3.5733001367119988,1.0845445251112056,7.016769093936818,-0.55833083,0.97402465,-0.033292156,28.293768,-12.192588,-18.683882
540057999000.0,-4.011311426385277,0.5514460846709341,6.998401353770754,-0.5900958,0.91446525,-0.103847094,28.273266,-12.116294,-18.921368
540063003000.0,-4.437905579535907,-0.0093574605901181,6.993608264512903,-0.6206391,0.84971356,-0.16982053,28.279533,-12.022927,-19.144938
540068426000.0,-4.797016335099338,-0.4797536301192052,7.0513458384105965,-0.6282749,0.7690793,-0.23151793,28.423681,-11.814663,-19.482283
540073084000.0,-5.0206933188268685,-0.7709556083065279,7.152633541627247,-0.6392705,0.6908886,-0.28038713,28.591707,-11.595112,-19.798456
540077993000.0,-5.208160696782842,-1.0179174062280882,7.296028876830274,-0.63621616,0.593761,-0.3390302,28.864426,-11.281985,-20.182299
540083002000.0,-5.312035002144772,-1.1613631214889668,7.508724146215714,-0.6383542,0.5103779,-0.36071593,29.148785,-10.968229,-20.541576
540087962000.0,-5.406506462847222,-1.223786239409722,7.716096310763889,-0.61391956,0.46120325,-0.37293324,29.497763,-10.615927,-20.934639
540094215000.0,-5.510471363035301,-1.158808188100405,7.971676377531829,-0.6068946,0.32436943,-0.38789943,29.867144,-10.261936,-21.27402
540098054000.0,-5.574300125520834,-1.1189152184895832,8.128588559895833,-0.5885687,0.28680122,-0.3866777,30.248877,-9.896846,-21.633718
540103013000.0,-5.69867330404691,-0.8517070613034702,8.438349260117274,-0.5684101,0.21685717,-0.3744604,30.642267,-9.540823,-21.940126
540108002000.0,-5.845642347784294,-0.4705063235143709,8.805771869460733,-0.50946164,0.14905111,-0.3417791,31.031092,-9.209086,-22.23001
540112992000.0,-5.917830711025368,-0.2394020891357031,8.999654077497743,-0.42485678,0.08552113,-0.32070425,31.419245,-8.897986,-22.494923
540118434000.0,-5.934944798046137,-0.1110456743050652,9.068110872342173,-0.3118467,0.02443461,-0.26908615,31.789936,-8.623367,-22.733755
540122991000.0,-5.939919649449828,-0.0045988812011824,9.12595676342585,-0.19700404,-0.028710667,-0.21868975,32.103004,-8.437055,-22.947697
540128157000.0,-5.883044017162096,0.1091526311115125,9.1950198797011,-0.094989546,-0.041233405,-0.17806722,32.40214,-8.284902,-23.149754
540132911000.0,-5.8307043431597965,0.2138322070957464,9.258575058712433,-0.0018325958,-0.04550946,-0.12767084,32.656166,-8.192722,-23.33299
540137967000.0,-5.716764375943396,0.2932693717995283,9.25648673985849,0.08246681,-0.05589417,-0.07941248,32.89758,-8.129532,-23.505682
540143447000.0,-5.56410760235849,0.3634089386863207,9.21935413922956,0.14630222,-0.029626964,-0.03023783,33.12015,-8.090492,-23.681906
540148019000.0,-5.420925443409519,0.4204906113606946,9.163326280412877,0.18417588,0.014049901,0.017104227,33.29251,-8.087961,-23.841133
540153022000.0,-5.1814989622184,0.4754409534562136,8.971000337183582,0.22357668,0.058337633,0.058948494,33.449413,-8.105078,-24.002821
540157911000.0,-4.947528131408209,0.5291391790218727,8.783056796018677,0.22693644,0.10720685,0.093462385,33.556255,-8.139826,-24.15329
540163841000.0,-4.786989360768186,0.5660945983422503,8.684037866645372,0.22876903,0.14996742,0.12492194,33.64962,-8.185526,-24.309423
540168346000.0,-4.697415585634433,0.5867654507098938,8.64269622666294,0.24190263,0.20708331,0.15210545,33.731148,-8.235144,-24.478323
540173034000.0,-4.608161566328257,0.6166233660945936,8.60207693098864,0.23823744,0.25045475,0.16554448,33.769882,-8.304582,-24.627813
540178160000.0,-4.525097815397631,0.679910058251551,8.566478056683588,0.22785273,0.28527406,0.18051068,33.798782,-8.375044,-24.785866
540182914000.0,-4.448062101015228,0.7386039588590766,8.533462635605511,0.21563543,0.2947425,0.19242255,33.805035,-8.454067,-24.935032
540187997000.0,-4.383454282144545,0.8194811958904109,8.515152013541174,0.21838433,0.31581733,0.1966986,33.80859,-8.531167,-25.092777
540193458000.0,-4.3216937772083135,0.9141809205479452,8.502800058730909,0.2125811,0.34269542,0.19211712,33.812366,-8.5995,-25.250532
540198333000.0,-4.248696859819191,1.0310066015573958,8.501973351971435,0.18173242,0.34574974,0.19242255,33.79387,-8.666418,-25.387877
540203023000.0,-4.129268573410317,1.2323283878523132,8.529271054622807,0.17287487,0.35705075,0.19486602,33.776333,-8.733814,-25.53119
540207909000.0,-4.0048492541365945,1.44206362193269,8.557709556787966,0.17104226,0.3643811,0.19272798,33.73418,-8.810163,-25.661623
540213007000.0,-3.9305481465648855,1.5742151145038168,8.562615614503816,0.16829337,0.37965274,0.19792034,33.69014,-8.882058,-25.793018
540218416000.0,-3.901101469741757,1.6373151362676628,8.545789029884684,0.15057829,0.3857614,0.18967366,33.65321,-8.944661,-25.920746
540223031000.0,-3.878223187925029,1.6847507758500582,8.532935,0.13500121,0.39095375,0.1908954,33.55295,-9.051267,-26.01439
540228023000.0,-3.874258402255764,1.6768212045115276,8.532935,0.11942416,0.39645153,0.18784106,33.45874,-9.148245,-26.106802
540232939000.0,-3.870353977906784,1.6690123558135677,8.532935,0.112399206,0.40561453,0.18570304,33.349255,-9.257122,-26.195827
540237999000.0,-3.8937178000303914,1.624395088390822,8.478621736818113,0.106901415,0.41141775,0.17501289,33.245872,-9.357491,-26.282433
540243453000.0,-3.933401637745024,1.5569324814010028,8.391317128096034,0.09285152,0.42577308,0.15790866,33.146683,-9.449532,-26.370928
540248088000.0,-3.975542830119376,1.489232166073963,8.32352417188413,0.07666359,0.42485678,0.14355333,33.048088,-9.5379,-26.458017
540253013000.0,-4.14091248117539,1.268739393931046,8.343211426663327,0.071776666,0.41722095,0.13133603,32.956223,-9.620752,-26.544497
540257909000.0,-4.3053083820018365,1.0495449548626763,8.362782756490525,0.06047566,0.40683624,0.1282817,32.87898,-9.679049,-26.647257
540262991000.0,-4.413785862948585,0.9032674605482056,8.37013,0.060170226,0.39522982,0.11148291,32.812733,-9.733429,-26.74538
540268438000.0,-4.492303701259606,0.7958217931949616,8.37013,0.06414085,0.37293324,0.10842858,32.746597,-9.785511,-26.833681
540273035000.0,-4.556822877923676,0.7051940740869922,8.369607332375871,0.06658431,0.36041048,0.10354166,32.73514,-9.786314,-26.963274
540278002000.0,-4.61538028190398,0.6075986793352482,8.365703437505129,0.06352998,0.34116822,0.102319926,32.727,-9.786079,-27.081219
540282910000.0,-4.673242117767747,0.5111625614690193,8.361845914649159,0.05497787,0.3286455,0.09285152,32.74981,-9.759201,-27.213545
540287992000.0,-4.729512617669654,0.4393291222415173,8.378991393806018,0.062002823,0.3042109,0.083383106,32.776226,-9.73526,-27.33394
540293330000.0,-4.786786418693982,0.3779642884403009,8.407628038012165,0.070554934,0.27947086,0.06963864,32.808918,-9.707754,-27.44846
540298015000.0,-4.8267107,0.3418479622867448,8.428422482236249,0.06994407,0.25442538,0.06719518,32.865677,-9.6614895,-27.570534
540303794000.0,-4.8267107,0.3817717538791704,8.43341305779982,0.06658431,0.23090707,0.062002823,32.92968,-9.614895,-27.68426
540308323000.0,-4.826187126073895,0.4142896583358366,8.43795236362271,0.064446285,0.22082779,0.050396383,33.003765,-9.557169,-27.809837
540312998000.0,-4.812738180444578,0.4781722062481225,8.458125852282969,0.0580322,0.2098322,0.042455133,33.080215,-9.498071,-27.925978
540318403000.0,-4.7971891855512165,0.5520299969360168,8.481449425803545,0.06291912,0.18753563,0.03268129,33.15156,-9.441544,-28.034128
540323012000.0,-4.783921115380757,0.623644520400321,8.49313384579111,0.06352998,0.17287487,0.022296581,33.226055,-9.382078,-28.139345
540328032000.0,-4.769450651851109,0.7201140069659877,8.488310274004215,0.05681047,0.14935656,0.02107485,33.302666,-9.322803,-28.233614
540332918000.0,-4.7509354645496185,0.808598317248855,8.473400993282443,0.045814894,0.1469131,0.014660766,33.364815,-9.275655,-28.32163
540343389000.0,-4.7022123,0.95440969005918,8.395442010567844,0.031154128,0.1282817,0.00061086525,33.432137,-9.225313,-28.397135
540348215000.0,-4.7022123,0.9902272699309568,8.366136487670847,0.022602014,0.129198,-0.0106901415,33.483646,-9.1894865,-28.470522
540353016000.0,-4.7022123,1.025859304942229,8.336982775398056,0.013133603,0.1301143,-0.0125227375,33.52534,-9.167618,-28.533829
540357991000.0,-4.699699511780455,1.0564359410977242,8.312193637215529,0.008857546,0.13439035,-0.027488936,33.574596,-9.141644,-28.598236
540362996000.0,-4.694763677777778,1.081115111111111,8.29244988888889,-0.005192355,0.13041973,-0.021685716,33.618164,-9.1136875,-28.658245
540368421000.0,-4.712181373493976,1.1224710190361444,8.309067971084337,-0.02321288,0.12095132,-0.028405234,33.658478,-9.0902195,-28.722534
540373665000.0,-4.743555282463186,1.1717729963319945,8.349406756626506,-0.03573562,0.11362094,-0.027794369,33.694824,-9.066534,-28.784143
540377961000.0,-4.768797952616971,1.1986217201427438,8.367088296193497,-0.047036625,0.111177474,-0.025350908,33.722294,-9.046778,-28.84872
540382940000.0,-4.797158214214909,1.2033484139571768,8.35763471114195,-0.06719518,0.105068825,-0.027488936,33.75192,-9.021266,-28.908907
540387904000.0,-4.8229122829219815,1.1985880918419745,8.353287361437799,-0.070554934,0.09315695,-0.028099801,33.76439,-9.010665,-28.97285
540393397000.0,-4.8446968457843305,1.1680896583402351,8.362001368560543,-0.08155051,0.09285152,-0.010995574,33.772026,-8.99536,-29.035809
540398713000.0,-4.865335187510781,1.1391642162497844,8.370447179230636,-0.10751228,0.083383106,-0.008552114,33.784798,-8.975505,-29.099552
540403021000.0,-4.87245208228394,1.1284888183543211,8.377563888218043,-0.12003502,0.08032878,-0.00580322,33.792175,-8.958768,-29.162346
540408011000.0,-4.880695653527686,1.1161233969294464,8.385807244264274,-0.12095132,0.07788532,0.005192355,33.806183,-8.935249,-29.223768
540412990000.0,-4.8865409750430295,1.0919537749139416,8.398760850688468,-0.129198,0.0693332,0.02076942,33.818718,-8.908293,-29.2806
540418009000.0,-4.890677460344234,1.0588618493115318,8.415306705507746,-0.12797627,0.077579886,0.03359759,33.82815,-8.885072,-29.339483
540422996000.0,-4.891800345358497,1.0274772587547385,8.429537995322203,-0.1328632,0.0729984,0.04153884,33.835255,-8.8545685,-29.392508
540428046000.0,-4.883999258174047,1.000173453609162,8.437339245423018,-0.122478485,0.06291912,0.05955936,33.835274,-8.832031,-29.443565
540432946000.0,-4.876429886450521,0.9736806525768208,8.444908775223809,-0.1133155,0.05497787,0.073303826,33.83886,-8.800762,-29.49333
540437994000.0,-4.871409069010686,0.9003584841433988,8.43718714029645,-0.106901415,0.061086524,0.081855945,33.83851,-8.773953,-29.542173
540443247000.0,-4.867073804869011,0.8093168959841435,8.424181393140296,-0.0983493,0.064751714,0.0852157,33.836468,-8.751767,-29.586357
540447966000.0,-4.862873737513818,0.751134976052658,8.405148648980001,-0.089186326,0.06780604,0.09468412,33.82484,-8.724189,-29.632866
540452977000.0,-4.858051071751583,0.7173770207114862,8.376213157974073,-0.07849618,0.07269296,0.099265605,33.814022,-8.699645,-29.679567
540457934000.0,-4.851509787026878,0.6951756665021027,8.348759053208996,-0.059864793,0.08124508,0.099265605,33.811916,-8.670069,-29.735544
540462932000.0,-4.842757803757543,0.6864236375388554,8.32250241799232,-0.04795292,0.08399397,0.105068825,33.807163,-8.643687,-29.789152
540467990000.0,-4.835118069933704,0.6717672822092815,8.298413304156961,-0.03634648,0.086437434,0.10567969,33.800556,-8.6182785,-29.852282
540472990000.0,-4.830828157731589,0.6417378699175775,8.281253744938184,-0.033292156,0.08582657,0.10293079,33.79402,-8.594604,-29.91342
540478219000.0,-4.827120331353824,0.61291564,8.263555080274546,-0.026572637,0.08246681,0.095294975,33.787178,-8.576626,-29.97735
540482955000.0,-4.831631992032229,0.61291564,8.25001981557744,-0.029321533,0.087964594,0.09468412,33.779373,-8.557995,-30.041584
540488917000.0,-4.833024406497623,0.6153629567194928,8.233605713946117,-0.02565634,0.077579886,0.09407325,33.774113,-8.538824,-30.105827
540493161000.0,-4.820142016893819,0.6250247354706815,8.223944056259905,-0.014660766,0.07819075,0.089491755,33.770332,-8.520477,-30.173052
540497986000.0,-4.805496039080824,0.6360092035372426,8.212959725832013,-0.01985312,0.0711658,0.08399397,33.767864,-8.500402,-30.236805
540503023000.0,-4.782916618067356,0.6541990944927834,8.197280597809398,-0.008246681,0.06078109,0.092240654,33.763416,-8.488704,-30.297543
540507998000.0,-4.753653901310267,0.6785847427167572,8.177772221824137,0.0021380284,0.060170226,0.0888809,33.76515,-8.47317,-30.358215
540512931000.0,-4.725360266331658,0.6960269241206031,8.166850346733668,-0.0036651916,0.052534413,0.099571034,33.753323,-8.462496,-30.411383
540518298000.0,-4.695227078517588,0.7089411667336684,8.162545509296482,0.01282817,0.040927973,0.095294975,33.748566,-8.457198,-30.4626
540523204000.0,-4.6685859603583095,0.7221772908146095,8.16629342482431,0.018020526,0.027794369,0.09590584,33.73003,-8.45544,-30.507843
540528028000.0,-4.645721976591111,0.7404682868355934,8.198302858853806,0.028710667,0.025045475,0.08674286,33.717033,-8.45685,-30.552074
540532978000.0,-4.62100258227047,0.7572241177976827,8.227789794469865,0.027183503,0.015271631,0.09101892,33.692223,-8.463187,-30.586224
540537994000.0,-4.58826379344757,0.7619010946061727,8.237143455067667,0.036957346,0.008857546,0.09162979,33.672405,-8.472704,-30.620047
540542993000.0,-4.556229158742724,0.7658115231742336,8.24762786790842,0.04062254,0.008246681,0.08277224,33.6459,-8.480272,-30.645847
540548059000.0,-4.529871922561117,0.7620462093364377,8.270219829569267,0.032070424,0.01160644,0.07666359,33.619244,-8.487411,-30.669922
540553030000.0,-4.504008949592549,0.7583515044237485,8.29238813620489,0.027794369,0.0076358155,0.073303826,33.59379,-8.496894,-30.68405
540558866000.0,-4.484848355207382,0.7599046723963087,8.306428042084981,0.039095376,0.014660766,0.058948494,33.573746,-8.505347,-30.70242
540563001000.0,-4.476816701622553,0.7639204991887233,8.31044395274313,0.022907447,0.018936822,0.04642576,33.555187,-8.505611,-30.718376
540568240000.0,-4.475002721936206,0.7477063464465584,8.31793587884723,0.01985312,0.016493361,0.03726278,33.539158,-8.509812,-30.726198
540573047000.0,-4.479296293807126,0.7176513433501213,8.326522753590748,0.0106901415,0.014660766,0.03573562,33.52484,-8.507821,-30.735218
540578008000.0,-4.483906267241379,0.7089107362068965,8.331821,0.008857546,0.01985312,0.029626964,33.50969,-8.502273,-30.744516
540582998000.0,-4.488810642446634,0.7334326122331691,8.331821,0.013744468,0.025350908,0.014966198,33.49827,-8.494904,-30.753525
540587995000.0,-4.4967961381889765,0.7522647565452756,8.347642844980314,0.011301007,0.03268129,0.013439035,33.486,-8.478849,-30.766485
540593248000.0,-4.509174812007874,0.7646434734498031,8.384779641978346,0.01160644,0.044593163,0.0106901415,33.4786,-8.462821,-30.7826
540598202000.0,-4.522577563433357,0.7772008585484996,8.417591288729936,0.0143553335,0.04153884,0.006414085,33.471115,-8.453819,-30.796219
540602996000.0,-4.566630509281228,0.8052345513607816,8.409581494940683,0.0076358155,0.04337143,0.009468411,33.461502,-8.443501,-30.813755
540607910000.0,-4.611786157152826,0.8339699636427076,8.40137120568737,0.009162978,0.04153884,0.0070249503,33.444607,-8.437666,-30.832684
540612997000.0,-4.666752584892086,0.8710530604316546,8.385999069544365,0.0033597588,0.03023783,-0.004581489,33.430676,-8.427697,-30.849009
540618242000.0,-4.7269809387589925,0.9124599652765288,8.367177758093526,0.005497787,0.03726278,0.00580322,33.409863,-8.423158,-30.868326
540623050000.0,-4.781731714994392,0.9505246996203952,8.350249731084462,0.0027488936,0.034513887,0.0036651916,33.396908,-8.422045,-30.892462
540628566000.0,-4.836421348813735,0.9960994658528168,8.336577037097749,-0.003970624,0.026572637,-0.00580322,33.38348,-8.420775,-30.916048
540632905000.0,-4.879441349020793,1.0319495221766888,8.325821812440687,-0.014049901,0.024129177,-0.00061086525,33.367054,-8.422684,-30.9486
540638007000.0,-4.912834118884221,1.046598541487706,8.32497131372549,-0.013439035,0.022602014,0.008857546,33.353283,-8.424622,-30.978424
540643092000.0,-4.939358138842204,1.0503876815437283,8.328760137254902,-0.019242255,0.007330383,0.010995574,33.341698,-8.422118,-31.002827
540648006000.0,-4.965317757477145,1.0528014041432523,8.327936678939864,-0.0030543262,0.0076358155,0.013133603,33.32048,-8.435346,-31.041166
540653021000.0,-4.993514734831837,1.0487732525035645,8.30376810559423,-0.0106901415,-0.003970624,0.019242255,33.299614,-8.441808,-31.070354
540657909000.0,-5.020997651144846,1.0448471098884509,8.280211577874697,-0.023518313,-0.018020526,0.016493361,33.28425,-8.44844,-31.1023
540662995000.0,-5.035972014356871,1.0384395998828009,8.260780070612364,-0.02321288,-0.01863139,0.022296581,33.264713,-8.458128,-31.13293
540668257000.0,-5.047045880251978,1.0310570354673307,8.242323755933196,-0.028099801,-0.023823744,0.024740042,33.248882,-8.462176,-31.157648
540673058000.0,-5.055760559400434,1.0234487942121904,8.227270440599566,-0.024740042,-0.02321288,0.027794369,33.237545,-8.469909,-31.19038
540678135000.0,-5.041526291117747,1.0006739500966098,8.241504708882253,-0.027488936,-0.038789943,0.03390302,33.226204,-8.475403,-31.215794
540683008000.0,-5.027863972949236,0.9788142267609344,8.255167027050764,-0.030543262,-0.04337143,0.040317107,33.21859,-8.483229,-31.248367
540687996000.0,-5.013879231922244,0.9564386265150184,8.269151768077757,-0.026572637,-0.044593163,0.03481932,33.21412,-8.490749,-31.27684
540693252000.0,-4.963660305843707,0.9227859153959198,8.277173867219917,-0.033292156,-0.052534413,0.039095376,33.20547,-8.49691,-31.300451
540698533000.0,-4.893708512188796,0.8834380599974067,8.281545483402489,-0.028710667,-0.053145275,0.035430185,33.20137,-8.504325,-31.32562
540702961000.0,-4.84105195850825,0.8619126,8.298326191740701,-0.018325957,-0.05131268,0.039095376,33.199574,-8.510429,-31.34374
540708007000.0,-4.793873853656155,0.8619126,8.345504789221907,-0.024129177,-0.055283304,0.047036625,33.198215,-8.513468,-31.359455
540712927000.0,-4.7504117573946365,0.8582080990896552,8.380632143601533,-0.015577064,-0.053145275,0.040317107,33.199585,-8.5196905,-31.368721
540718367000.0,-4.71049007770115,0.842239410537931,8.384624394942529,-0.010995574,-0.043066,0.042455133,33.19537,-8.5258255,-31.37803
540722952000.0,-4.6768428531800765,0.828780506675862,8.387989187662836,-0.01740966,-0.05131268,0.03756821,33.19135,-8.527435,-31.370724
540728022000.0,-4.63524903111654,0.8293365477922547,8.392148647756063,-0.0143553335,-0.043676864,0.036651913,33.183983,-8.533167,-31.37039
540732941000.0,-4.592624685504887,0.8378614080130293,8.396411157980458,-0.005192355,-0.044593163,0.03970624,33.178017,-8.538536,-31.36537
540737990000.0,-4.549661280057276,0.8353688243061703,8.397012419422026,-0.002443461,-0.02687807,0.03145956,33.176506,-8.544256,-31.361412
540743308000.0,-4.505463221912696,0.8176895825878677,8.392592521305216,-0.002443461,-0.021991149,0.034208454,33.17121,-8.553333,-31.353054
540753068000.0,-4.405887163896676,0.7822912325390469,8.361582384060872,-0.005497787,-0.025045475,0.03940081,33.156845,-8.566227,-31.342787
540758009000.0,-4.354615035423408,0.7633125255663431,8.339982983211973,0.005497787,-0.01282817,0.035430185,33.143642,-8.581185,-31.338583
540763001000.0,-4.335275545455771,0.7439729682847896,8.330313002629449,0.007330383,-0.00580322,0.043676864,33.125877,-8.600749,-31.326735
540768358000.0,-4.314522010248112,0.723219360841424,8.319935982200647,0.013133603,0.0027488936,0.03481932,33.11172,-8.61811,-31.314302
540773019000.0,-4.303528304556921,0.7044334056554643,8.31408472040036,0.002443461,0.0027488936,0.032375857,33.09303,-8.633638,-31.300896
540778298000.0,-4.324097847082757,0.6797499030759216,8.322312296850843,0.007330383,0.006414085,0.026267206,33.07798,-8.652002,-31.291676
540782911000.0,-4.3420723308243145,0.6581804775408903,8.329501880136707,0.017715093,0.009162978,0.03756821,33.05951,-8.669847,-31.281042
540787932000.0,-4.342314526970443,0.6345554764876847,8.340155167159278,0.01038471,0.0067195175,0.03359759,33.04833,-8.680997,-31.27118
540793330000.0,-4.333825972536945,0.6090896536403941,8.352888774384237,0.004276057,0.0067195175,0.035430185,33.03143,-8.697092,-31.262003
540797947000.0,-4.326056928068216,0.5844525798923967,8.365872660542077,0.014966198,0.010079277,0.035124753,33.02425,-8.705013,-31.255714
540803030000.0,-4.316173792812912,0.5498619470510608,8.385638621459751,0.019547688,0.0067195175,0.02321288,33.020775,-8.708398,-31.248133
540807912000.0,-4.312431134949985,0.533894662503789,8.39886,0.022602014,0.01740966,0.03481932,33.016186,-8.712766,-31.240671
540812928000.0,-4.322138668626856,0.5581632432858442,8.39886,0.011301007,0.010995574,0.031154128,33.021656,-8.710601,-31.229088
540818109000.0,-4.3287168,0.5763252942535212,8.40572751247485,0.02687807,0.01160644,0.016493361,33.02944,-8.70488,-31.219063
540823056000.0,-4.3287168,0.5810915545633804,8.424792374547284,0.02687807,0.013133603,0.02076942,33.032326,-8.695211,-31.207022
540827994000.0,-4.331287769570962,0.5918981836126225,8.434596097543915,0.03176499,0.01985312,0.02107485,33.038116,-8.693378,-31.198849
540832938000.0,-4.338647858487486,0.6139785502720349,8.427236200761698,0.03145956,0.019547688,0.019547688,33.043278,-8.690694,-31.18926
540837951000.0,-4.346110667091559,0.6363670773884658,8.419773586973418,0.034208454,0.01985312,0.021685716,33.044365,-8.685102,-31.178095
540843315000.0,-4.331354797336083,0.6614646790762887,8.437832368659793,0.038789943,0.011911872,0.015882496,33.0489,-8.678699,-31.16527
540848060000.0,-4.3126159020371135,0.6839514395298969,8.460318776907217,0.035430185,0.0125227375,0.02076942,33.048546,-8.673151,-31.154558
540852957000.0,-4.301527910506868,0.7129807955689247,8.477015574893416,0.047647487,0.018020526,0.016187929,33.050518,-8.675864,-31.145155
540857968000.0,-4.306074413832307,0.7539002132828043,8.481562268119376,0.048258353,0.021685716,0.008246681,33.05198,-8.675157,-31.135588
540862940000.0,-4.3105451,0.7862802494904458,8.485051,0.029321533,0.026572637,0.004276057,33.04898,-8.674136,-31.117502
540868193000.0,-4.315122714285714,0.7908577681801637,8.485051,0.03848451,0.024129177,0.008246681,33.046047,-8.680072,-31.098812
540873104000.0,-4.318260084935898,0.796194850176282,8.485051,0.03176499,0.02565634,0.0076358155,33.038597,-8.680517,-31.08092
540878012000.0,-4.303912499771062,0.8177163515224358,8.485051,0.035430185,0.037873644,0.005192355,33.029926,-8.6859865,-31.065645
540883743000.0,-4.2871590338827845,0.8428466946794871,8.485051,0.03756821,0.03848451,-0.004581489,33.024204,-8.6886635,-31.048735
540887996000.0,-4.276883078381046,0.8641853297670287,8.475176402171767,0.04642576,0.05375614,0.004276057,33.01162,-8.696219,-31.038843
540893207000.0,-4.26703001875617,0.8937439222112538,8.450544267522211,0.040011674,0.05681047,0.004581489,33.005733,-8.697753,-31.026852
540897969000.0,-4.270029955768189,0.9131370405632786,8.43549677396642,0.04886922,0.064751714,-0.0012217305,32.99163,-8.710343,-31.015972
540903002000.0,-4.291784800686044,0.9218389739871818,8.431145714118072,0.04153884,0.07422013,0.0030543262,32.974045,-8.718716,-31.006012
540907968000.0,-4.314020865666212,0.9341510790541157,8.424618115416099,0.04550946,0.07880162,-0.0036651916,32.95347,-8.735651,-30.99948
540912929000.0,-4.339947561527967,0.9643988081718964,8.40733380190996,0.04886922,0.089491755,-0.0143553335,32.932293,-8.750277,-30.997232
540918368000.0,-4.368587928269641,0.9955969174222644,8.389283,0.048563786,0.09682214,-0.014660766,32.914467,-8.7600565,-30.99498
540922960000.0,-4.39642342677427,0.9886380337131102,8.389283,0.03726278,0.099571034,-0.016187929,32.900494,-8.765919,-30.994917
540927958000.0,-4.426719990695466,0.9810638828467444,8.389283,0.04184427,0.106595986,-0.020158553,32.88596,-8.778793,-31.001997
540932967000.0,-4.439615318484848,0.9788457907575758,8.393306065530304,0.03390302,0.10445796,-0.017104227,32.870388,-8.786352,-31.006672
540937934000.0,-4.430606234090909,0.9833503329545454,8.402315338068181,0.039095376,0.11056661,-0.02107485,32.857903,-8.796265,-31.015862
540943011000.0,-4.430987694673848,0.9880368444244964,8.400308277877517,0.032986723,0.1142318,-0.026572637,32.854015,-8.7928095,-31.026136
540947987000.0,-4.449999975224417,0.9927899021543986,8.376542989228007,0.034208454,0.11575896,-0.024740042,32.849037,-8.792838,-31.036983
540952925000.0,-4.472100324600472,0.9919986120775478,8.356563489913544,0.027488936,0.11575896,-0.022602014,32.8435,-8.795665,-31.04806
540957943000.0,-4.501477162867872,0.9794085197537332,8.343972696445725,0.0143553335,0.11209377,-0.01863139,32.837193,-8.797483,-31.057919
540963197000.0,-4.532068259445844,0.9650187358787682,8.329262427317786,0.0125227375,0.10720685,-0.023518313,32.83426,-8.795039,-31.071194
540968439000.0,-4.560621974811083,0.9364649608824246,8.296629731453644,0.0012217305,0.10842858,-0.040011674,32.834003,-8.785945,-31.085083
540973003000.0,-4.585482554156171,0.911604329618916,8.268217746729503,-0.0061086523,0.10842858,-0.034513887,32.834866,-8.776153,-31.102945
540982939000.0,-4.654073061096307,0.8930691583631519,8.248056149029312,0.004886922,0.10873401,-0.038789943,32.84435,-8.764421,-31.122074
540987964000.0,-4.698314403384823,0.8810921159821052,8.251360678906053,-0.004886922,0.110872045,-0.036651913,32.8499,-8.747923,-31.140606
540993481000.0,-4.756291707436482,0.8587931070330042,8.264740346923272,-0.0076358155,0.10048734,-0.04550946,32.87173,-8.728499,-31.166216
540998001000.0,-4.799303300349737,0.8409949976917312,8.27524297260388,-0.00580322,0.1020145,-0.04337143,32.892353,-8.7118635,-31.202726
541002978000.0,-4.8112103034973766,0.8251189769173121,8.283180726038804,-0.0067195175,0.10293079,-0.033292156,32.913857,-8.694041,-31.235422
541008000000.0,-4.823224964901324,0.8090994116512615,8.291190249396287,-0.011301007,0.10048734,-0.04184427,32.95343,-8.661945,-31.273779
541012936000.0,-4.8267107,0.7948825090816399,8.29112164105694,-0.004886922,0.092240654,-0.039095376,32.98609,-8.635981,-31.308784
541018463000.0,-4.8267107,0.7796800802728513,8.287320960436562,-0.003970624,0.087964594,-0.028405234,33.018642,-8.607986,-31.343407
541023704000.0,-4.827936778815762,0.7661445,8.286082677135427,0.005192355,0.08674286,-0.022907447,33.053894,-8.581043,-31.379818
541027977000.0,-4.8443087625025,0.7661445,8.314734172134427,0.004276057,0.083383106,-0.022602014,33.08752,-8.553164,-31.413332
541032960000.0,-4.863401108561712,0.7661445,8.348146388277655,0.008552114,0.08979719,-0.019242255,33.11932,-8.530502,-31.451258
541037934000.0,-4.884252730674197,0.7661445,8.358670052947405,0.030543262,0.09010262,-0.019242255,33.152527,-8.511793,-31.485846
541045085000.0,-4.917949820799394,0.7725384116167835,8.370466493275242,0.026572637,0.0852157,-0.004276057,33.17947,-8.490847,-31.519016
541047996000.0,-4.957556845993559,0.8227073515533245,8.37310674104944,0.044593163,0.08552113,0.00030543262,33.21014,-8.478369,-31.553545
541053020000.0,-5.0259133195681,0.9092922894582308,8.377663458609586,0.050396383,0.08032878,0.0009162979,33.238476,-8.459104,-31.58604
541057935000.0,-5.056554,0.94810385,8.379706,0.058948494,0.07544186,0.00580322,33.26373,-8.446393,-31.617489
541062937000.0,-5.056554,0.94810385,8.379706,0.065973446,0.07391469,0.01282817,33.288055,-8.435259,-31.647585
541069317000.0,-5.074995452913914,1.0541428782319298,8.37509599783059,0.061086524,0.07422013,0.0125227375,33.30756,-8.435315,-31.681452
541072990000.0,-5.088869983137758,1.1339219340893405,8.371627636919436,0.06994407,0.076358154,0.013133603,33.324493,-8.441181,-31.7142
541078131000.0,-5.061665286271451,1.1949270709828392,8.363490718603744,0.08002335,0.08460484,0.017715093,33.336063,-8.449251,-31.750809
541083008000.0,-5.016125062402496,1.231359250078003,8.354382483619345,0.082161374,0.06994407,0.01863139,33.350025,-8.456541,-31.780811
541087990000.0,-4.965512061206013,1.2579006830372397,8.33805997420567,0.08002335,0.070554934,0.013439035,33.340103,-8.474986,-31.816456
541093497000.0,-4.906952773701743,1.2804235510505635,8.315536682866416,0.07941248,0.063224554,0.011301007,33.330788,-8.494091,-31.844578
541098009000.0,-4.856729295135294,1.2983660476506789,8.29621969043665,0.07452556,0.060170226,0.015271631,33.305687,-8.523947,-31.869364
541103024000.0,-4.79573882175442,1.317132347152486,8.272761816059393,0.07147124,0.051923547,0.016493361,33.283726,-8.552278,-31.890026
541107965000.0,-4.740467138162653,1.3311762,8.247328650534739,0.070554934,0.047036625,0.015271631,33.248676,-8.58696,-31.904234
541112946000.0,-4.7000943644995,1.3311762,8.21429661460337,0.074830994,0.048258353,0.026267206,33.21022,-8.6231,-31.916515
541120086000.0,-4.641848019395867,1.3311762,8.16875208691044,0.070554934,0.050701816,0.029932396,33.16849,-8.663383,-31.9199
541123029000.0,-4.614465096581876,1.3311762,8.166262675940645,0.081855945,0.056199603,0.029321533,33.125298,-8.708135,-31.923687
541128029000.0,-4.567942971515633,1.3311762,8.162033299505389,0.076358154,0.0693332,0.029321533,33.07711,-8.748729,-31.92536
541132930000.0,-4.53415710990237,1.3311762,8.162938545327755,0.08735373,0.0720821,0.029321533,33.030426,-8.794662,-31.925295
541137932000.0,-4.519840616517235,1.3311762,8.172483106794182,0.08246681,0.08246681,0.0290161,32.983593,-8.834154,-31.930632
541143051000.0,-4.519713474451118,1.3112937373338585,8.187630474451117,0.086437434,0.099265605,0.03481932,32.927917,-8.881478,-31.931917
541147978000.0,-4.542941245249581,1.2601925930688196,8.21085824524958,0.07788532,0.111177474,0.029932396,32.87664,-8.921661,-31.934877
541152909000.0,-4.572674831845509,1.210304970231372,8.23071139059938,0.059253927,0.12064589,0.025350908,32.82662,-8.960817,-31.935509
541157957000.0,-4.6167117114228455,1.161864356713427,8.243922270541082,0.052534413,0.1255328,0.0125227375,32.781517,-8.997603,-31.938421
541162961000.0,-4.662792717828632,1.1099055321766895,8.261555575199575,0.04337143,0.13958271,0.0027488936,32.738308,-9.024669,-31.956789
541168472000.0,-4.730204654177754,1.0256408463757318,8.31211482075572,0.04153884,0.14110987,-0.010995574,32.702118,-9.048495,-31.973093
541173045000.0,-4.7871777280209145,0.953784310869481,8.336276677381873,0.024129177,0.14660765,-0.011911872,32.676285,-9.054338,-32.002125
541177974000.0,-4.851164528466305,0.871515377904725,8.317994325329202,0.011911872,0.13958271,-0.028405234,32.66159,-9.056163,-32.02864
541183004000.0,-4.918255247920304,0.7865354489842867,8.30010499198932,0.005497787,0.12492194,-0.038789943,32.65625,-9.0430355,-32.06508
541187945000.0,-4.991150855602341,0.6990606537978844,8.285526073431242,0.0030543262,0.11362094,-0.040011674,32.65407,-9.027064,-32.09969
541193211000.0,-5.083838629938612,0.6063778222320164,8.245318535495043,-0.0033597588,0.093767814,-0.05222898,32.681156,-8.997403,-32.14665
541198048000.0,-5.204148821580356,0.5225253665142453,8.150528791358413,-0.004886922,0.07452556,-0.04428773,32.702717,-8.971751,-32.188354
541203062000.0,-5.328861515583189,0.4356045037958445,8.052270412797103,-0.01160644,0.064751714,-0.05100725,32.75459,-8.924003,-32.244278
541208758000.0,-5.405710542079208,0.4160725431249999,7.965586041089109,-0.01282817,0.04642576,-0.057421334,32.80515,-8.879424,-32.290768
541212950000.0,-5.447115188943895,0.4202130164583333,7.907619535478548,-0.018325957,0.036957346,-0.0580322,32.85567,-8.8330555,-32.335987
541218393000.0,-5.495758004710998,0.4583575201558253,7.883893121833665,-0.023823744,0.01740966,-0.05467244,32.948036,-8.770738,-32.41308
541222958000.0,-5.535364900887842,0.4979644328755209,7.875971659884037,-0.025045475,0.0012217305,-0.05131268,33.040268,-8.709155,-32.486866
541228040000.0,-5.543676059964413,0.5307374111209964,7.869417085943061,-0.04337143,-0.01863139,-0.050701816,33.134903,-8.641987,-32.567463
541233172000.0,-5.524242135804665,0.5550297199308026,7.86455873173191,-0.044898596,-0.034208454,-0.046731193,33.227287,-8.580738,-32.642715
541237942000.0,-5.504258889965626,0.5746169680274992,7.866152913010312,-0.054061573,-0.056199603,-0.036957346,33.319324,-8.515266,-32.710342
541243631000.0,-5.47860441183783,0.5951405505297358,7.873849256448651,-0.058643065,-0.06383542,-0.03176499,33.410713,-8.451658,-32.77625
541248028000.0,-5.4587761924094735,0.6110031260724208,7.879797722277158,-0.0693332,-0.08368854,-0.015882496,33.49296,-8.392244,-32.825115
541253016000.0,-5.436282865480059,0.6289977876159534,7.886545720355983,-0.07086037,-0.092240654,-0.004581489,33.573788,-8.335223,-32.87401
541257972000.0,-5.412186387170562,0.631978718050721,7.898193986971655,-0.08124508,-0.10262536,0.004581489,33.650272,-8.276921,-32.915283
541262966000.0,-5.38364752726007,0.5986832655992044,7.921976403341621,-0.06627888,-0.10415252,0.014966198,33.721577,-8.227484,-32.955288
541268259000.0,-5.355266415611476,0.5578263494678635,7.950791049623337,-0.07086037,-0.10781772,0.03390302,33.77713,-8.187254,-32.98069
541273006000.0,-5.333406552893092,0.5104634518007694,7.983580767615003,-0.06688975,-0.10720685,0.044898596,33.830956,-8.153733,-33.006336
541279348000.0,-5.303195439604515,0.4467074435183285,8.02824303040761,-0.05681047,-0.113926366,0.06566802,33.877335,-8.124893,-33.023346
541283177000.0,-5.2724123653577095,0.402242867619625,8.065866946553493,-0.043676864,-0.09896017,0.0693332,33.923862,-8.097359,-33.046665
541287991000.0,-5.23371042766533,0.346339898599944,8.113169514410968,-0.04520403,-0.106901415,0.07971791,33.968834,-8.063639,-33.05432
541293517000.0,-5.176769080511182,0.2776968070607029,8.183947440894569,-0.030848695,-0.10934488,0.08155051,34.013683,-8.036675,-33.067825
541297968000.0,-5.126094880392302,0.220688512162865,8.247289943012111,-0.017104227,-0.10293079,0.07849618,34.056065,-8.010629,-33.081215
541302907000.0,-5.069864847953043,0.157429925665354,8.317577208336429,-0.004581489,-0.10873401,0.09560041,34.08812,-7.987609,-33.08677
541307890000.0,-5.020490789910136,0.1583000111887157,8.327315672278466,0.015577064,-0.11026118,0.09865474,34.124847,-7.967474,-33.096085
541312873000.0,-4.974309280614775,0.1716532275220624,8.33423408914229,0.023518313,-0.11148291,0.09162979,34.15916,-7.9487934,-33.10343
541318002000.0,-4.940215543629153,0.2252292205334655,8.348846526227069,0.04062254,-0.115453534,0.084910266,34.197304,-7.921396,-33.090855
541322852000.0,-4.905824699910243,0.2823052097865762,8.36196841567767,0.052534413,-0.11362094,0.08155051,34.2355,-7.8979254,-33.07099
541327831000.0,-4.858270209833449,0.3774142544928692,8.371479015757455,0.057421334,-0.11148291,0.081855945,34.27409,-7.8769116,-33.05103
541332850000.0,-4.808019849379416,0.4753109881096047,8.379706,0.073303826,-0.112399206,0.07574729,34.299206,-7.8679085,-33.024517
541337865000.0,-4.743823971061676,0.5853610645417224,8.379706,0.08093964,-0.11178834,0.059864793,34.32668,-7.856896,-33.00032
541343046000.0,-4.678706505584643,0.6993225090314137,8.380068689179756,0.090713486,-0.108123146,0.062002823,34.32672,-7.8697,-32.96592
541348025000.0,-4.628776606980803,0.811664455039267,8.384229586474696,0.086437434,-0.112704635,0.05222898,34.336178,-7.876296,-32.93158
541352861000.0,-4.58028072635253,0.920779869960733,8.388270980191972,0.09254608,-0.10903945,0.043676864,34.31706,-7.9087143,-32.88679
541357852000.0,-4.516923658771221,1.024923469139046,8.385624849232014,0.09621128,-0.09407325,0.040927973,34.298843,-7.938138,-32.845177
541362843000.0,-4.449303476556184,1.1263538181133792,8.380794735347616,0.089491755,-0.09285152,0.03573562,34.284836,-7.9640512,-32.80227
541367954000.0,-4.402414657406043,1.2125105586219602,8.397287579218865,0.10170906,-0.08735373,0.0290161,34.249283,-8.012584,-32.746857
541373013000.0,-4.362248732498158,1.2928425016396463,8.419601981945469,0.095294975,-0.07880162,0.025961773,34.214203,-8.053726,-32.693947
541377899000.0,-4.323444279004666,1.355185254587869,8.4336966407465,0.08399397,-0.08246681,0.025045475,34.161304,-8.111242,-32.6241
541382890000.0,-4.283798662488336,1.4096981001969933,8.443608264800416,0.08399397,-0.0693332,0.01863139,34.11029,-8.167207,-32.563156
541387855000.0,-4.262887730374193,1.4548385029591395,8.45511215311828,0.07238753,-0.058948494,0.009162978,34.038105,-8.2244625,-32.48914
541392951000.0,-4.250293311587097,1.49681985507957,8.46770639655914,0.06169739,-0.04795292,0.0067195175,33.965714,-8.280694,-32.42035
541397886000.0,-4.236936061925958,1.5301648850070568,8.462431952013896,0.058643065,-0.032070424,0.004276057,33.88313,-8.3463955,-32.350243
541402984000.0,-4.221034574704158,1.551366775724677,8.425329072196286,0.05100725,-0.021685716,0.00061086525,33.80241,-8.406433,-32.283115
541407890000.0,-4.220860797830844,1.5633747495480923,8.406081701265341,0.039095376,-0.020158553,-0.007941248,33.708412,-8.4703,-32.217373
541412872000.0,-4.234478517286652,1.5679139577680523,8.401542398249454,0.042760566,-0.010079277,-0.0106901415,33.613964,-8.534892,-32.157738
541418044000.0,-4.240723364608497,1.5687940269701834,8.393453256187179,0.03023783,0.0076358155,-0.009773844,33.5193,-8.594991,-32.101513
541422954000.0,-4.236751651963848,1.5648222313793394,8.381538035307036,0.016493361,0.014049901,-0.0070249503,33.426327,-8.654123,-32.045773
541428031000.0,-4.237874944228138,1.559503816026518,8.369372144165,0.010995574,0.02107485,-0.014049901,33.33611,-8.712385,-32.000225
541432914000.0,-4.3018467146164365,1.5398200797432389,8.359530096180153,-0.004276057,0.02565634,-0.016493361,33.24462,-8.764794,-31.95586
541437903000.0,-4.363032458704374,1.5185231114394755,8.352372392014873,-0.004886922,0.03268129,-0.01985312,33.16135,-8.814253,-31.91273
541443143000.0,-4.40231810113514,1.4890589180741756,8.362193994911438,-0.016798794,0.032070424,-0.028710667,33.082096,-8.855132,-31.869623
541447971000.0,-4.439438266729679,1.4584082423440454,8.371107563327032,-0.007941248,0.04795292,-0.022907447,33.01025,-8.894532,-31.84236
541452914000.0,-4.484181293572779,1.4014625718164633,8.379242404279086,-0.020463986,0.04153884,-0.022907447,32.945675,-8.922971,-31.809671
541457875000.0,-4.529087252741021,1.3443095328750645,8.387406868362262,-0.023518313,0.046731193,-0.020158553,32.887867,-8.950544,-31.789581
541462900000.0,-4.55489712687984,1.2909000177616787,8.383086863352487,-0.011301007,0.045814894,-0.021380283,32.83304,-8.977659,-31.766293
541468042000.0,-4.575400043692231,1.2375923912315765,8.374885953534848,-0.028710667,0.049785517,-0.01160644,32.77394,-8.998454,-31.7452
541472955000.0,-4.602409664915688,1.1839987216964742,8.37013,-0.028710667,0.048258353,-0.012217305,32.73738,-9.012343,-31.73253
541477920000.0,-4.641284676208482,1.1256863823505363,8.37013,-0.03023783,0.050396383,-0.0143553335,32.698288,-9.022693,-31.7215
541482899000.0,-4.669927742728184,1.0736878137412236,8.356076689067201,-0.025350908,0.05589417,-0.0076358155,32.668205,-9.030335,-31.720364
541487896000.0,-4.684327573069208,1.0304884229588769,8.322476500200603,-0.022907447,0.059253927,-0.0070249503,32.641384,-9.035642,-31.719404
541493161000.0,-4.7046312603505696,0.989570342427695,8.29909232971078,-0.027794369,0.050701816,-0.0027488936,32.62067,-9.034832,-31.72772
541498347000.0,-4.730747974531113,0.954748034127958,8.290386576511832,-0.019547688,0.056199603,0.003970624,32.598427,-9.038179,-31.740185
541503000000.0,-4.753342740728975,0.9231066532979436,8.284586301705401,-0.009773844,0.058337633,-0.002443461,32.5863,-9.037447,-31.75987
541507978000.0,-4.773269722170205,0.8872380658961712,8.288571781223876,-0.004886922,0.062308256,-0.004276057,32.57056,-9.039081,-31.780228
541512965000.0,-4.793232730697207,0.851304629702391,8.292564466309981,-0.005192355,0.061086524,0.004581489,32.567745,-9.034801,-31.803226
541518258000.0,-4.808602892077782,0.825054668778358,8.289973062027368,0.002443461,0.059253927,0.004886922,32.568512,-9.031925,-31.826935
541523078000.0,-4.821069630284479,0.8042767587495498,8.285817395840835,0.0033597588,0.061086524,0.008857546,32.565365,-9.029126,-31.849905
541528008000.0,-4.834904453989003,0.7976062279842306,8.267549663139329,0.00061086525,0.057726767,0.007941248,32.57492,-9.017142,-31.874424
541533866000.0,-4.852364989044506,0.803426420516651,8.232628957671956,0.007330383,0.06291912,0.004886922,32.583466,-9.007978,-31.901022
541537939000.0,-4.881182594616312,0.7950911832494978,8.226477,0.01740966,0.053450707,0.011301007,32.595924,-8.996935,-31.925367
541543263000.0,-4.926249431096826,0.7787032481558859,8.226477,0.016798794,0.063224554,0.005497787,32.6121,-8.982654,-31.956615
541547991000.0,-4.96028657170449,0.7661445,8.22547814340898,0.01740966,0.052839845,0.010079277,32.631016,-8.972595,-31.97936
541553018000.0,-4.956412148800902,0.7661445,8.217729297601803,0.015577064,0.0580322,0.008246681,32.652462,-8.959902,-32.009174
541557913000.0,-4.952639461290842,0.7661445,8.210183922581685,0.014966198,0.051923547,0.008552114,32.684444,-8.945492,-32.03966
541568599000.0,-4.957953151048728,0.7796325697105032,8.193835050003988,0.025045475,0.046120327,0.006414085,32.7174,-8.932563,-32.07115
541572989000.0,-4.961313520237806,0.786353220941519,8.1881695,0.010995574,0.047036625,0.004886922,32.74991,-8.913814,-32.10206
541577995000.0,-4.965191297492518,0.7941088523853433,8.1881695,0.02076942,0.042760566,0.002443461,32.7829,-8.893372,-32.12683
541582909000.0,-4.968997809164442,0.8017219512496967,8.1881695,0.016187929,0.04153884,0.009773844,32.813534,-8.865967,-32.1509
541593282000.0,-4.956947008548886,0.8111595707044087,8.201585051366521,0.024740042,0.028710667,0.0012217305,32.850945,-8.841687,-32.170975
541597985000.0,-4.952005002281617,0.81402856,8.207323,0.020463986,0.02076942,0.003970624,32.881638,-8.816511,-32.190636
541603947000.0,-4.956657713657106,0.81402856,8.207323,0.020463986,0.01985312,0.005192355,32.906307,-8.798063,-32.214676
541607910000.0,-4.959750416639505,0.81402856,8.207323,0.028099801,0.020158553,0.004581489,32.929157,-8.782825,-32.233936
