timestamp,acc_x,acc_y,acc_z,gyro_x,gyro_y,gyro_z,ori_azimuth,ori_pitch,ori_roll
596585518000.0,-0.5922430967585323,10.68951033676333,-1.746881060324693,-1.1731668,0.7431176,0.036957346,58.612274,-27.997879,11.192394
596590881000.0,-0.5829440083647063,10.671170448705956,-1.7414565959654789,-1.1731668,0.74067414,0.027794369,60.587822,-29.89205,11.140118
596595552000.0,-0.5748448023442772,10.655196997817276,-1.7367320624913245,-1.1704178,0.76083267,0.034513887,61.423435,-31.18655,10.897571
596600704000.0,-0.5659115740382933,10.63757866791394,-1.7315210163644046,-1.1835514,0.74464476,0.038179077,62.247868,-32.452106,10.635102
596605412000.0,-0.5577482124574369,10.621478687870283,-1.7267590588400374,-1.1756102,0.732122,0.040011674,63.046623,-33.699013,10.341528
596610347000.0,-0.5491912478436887,10.604602434362333,-1.7217674997103112,-1.1664472,0.7281514,0.036651913,63.825756,-34.917908,10.024992
596615369000.0,-0.5404834309662332,10.58742866635485,-1.716687943489544,-1.1566733,0.74128497,0.034208454,64.58179,-36.114395,9.68483
596620314000.0,-0.531909127011829,10.570518215777986,-1.7116862697516522,-1.1682798,0.77671516,0.035124753,65.312706,-37.283302,9.318908
596625311000.0,-0.5232446584860135,10.553429940442784,-1.7066320000512991,-1.210735,0.79504114,0.038789943,66.021996,-38.422173,8.933815
596630358000.0,-0.5144934932569178,10.53617067976302,-1.701527157310118,-1.2345587,0.75777835,0.32895094,66.64901,-39.522957,8.58761
596635333000.0,-0.5058671712805456,10.51915763797942,-1.6964951397477293,-1.1994339,0.78038037,0.04550946,67.36473,-40.636326,8.1017685
596640324000.0,-0.4972131063591237,10.502089880885563,-1.6914469388122757,-1.2443326,0.7696902,0.05467244,67.94435,-41.665573,7.7243423
596645311000.0,-0.4885659771739642,10.48503580261927,-1.686402783720088,-1.2409728,0.75991637,0.06963864,68.55727,-42.709656,7.2749352
596650307000.0,-0.4799032425822143,10.46795094699096,-1.6813495254805515,-1.244027,0.7452556,0.0720821,69.15162,-43.715996,6.8149333
596655415000.0,-0.4710463073751169,10.450483084190832,-1.6761829836295603,-1.2452488,0.7324274,0.083383106,69.7205,-44.699333,6.3492794
596660388000.0,-0.4624234532668759,10.433476881821017,-1.6711529889888048,-1.2486086,0.7104363,0.109650314,70.26899,-45.657265,5.881084
596665373000.0,-0.4537797919498476,10.416429642968508,-1.6661108568182503,-1.2541064,0.6979135,0.12308934,70.79708,-46.591267,5.403368
596670355000.0,-0.4451413324350162,10.39939266323667,-1.6610717590301458,-1.2626585,0.6536258,0.13622294,71.310425,-47.49954,4.9325385
596675424000.0,-0.4363520206564772,10.3820581690053,-1.6559446641510005,-1.2250903,0.589485,0.15393804,71.806854,-48.396023,4.4635463
596680394000.0,-0.427734368350433,10.36506222575616,-1.6509177038926943,-1.1472049,0.52412236,0.17287487,72.29067,-49.27862,3.9987965
596685438000.0,-0.4189884049235342,10.34781322419707,-1.645815895533963,-1.0430524,0.44959682,0.17715092,72.77079,-50.156906,3.5413127
596690391000.0,-0.4104002294966052,10.330875415965076,-1.640806130109539,-0.9211848,0.39370266,0.18784106,73.23799,-51.039284,3.0912464
596695364000.0,-0.4017773753883641,10.31386921359526,-1.635776135468783,-0.8222246,0.35094208,0.1872302,73.6611,-51.95105,2.555015
596700363000.0,-0.3931094389944174,10.296774098846274,-1.6307198428467968,-0.73761976,0.12064589,0.1591304,74.12115,-52.86556,2.0536284
596706214000.0,-0.3829641907765774,10.276765393826006,-1.624801785609101,-0.33353242,-0.009162978,0.13530666,74.5469,-53.87117,1.5389311
596710492000.0,-0.3755464208439301,10.262135887745558,-1.620474756235855,-0.11178834,0.02443461,0.14080444,74.967964,-54.82022,1.0325465
596715454000.0,-0.3669426400104107,10.245167302151543,-1.6154558876640817,-0.17989981,0.025350908,0.14538592,75.411354,-55.771828,0.54307306
596720434000.0,-0.3583076483637104,10.228137161833487,-1.61041881279761,-0.22174409,0.018936822,0.13805555,75.82988,-56.762936,0.043407563
596725463000.0,-0.3495876939477956,10.210939455877767,-1.605332176351127,-0.23671028,0.004581489,0.13194689,76.22992,-57.71086,-0.4570623
596730491000.0,-0.3408694734659465,10.193745169628937,-1.600246551365461,-0.23304509,0.0076358155,0.13500121,76.608315,-58.620865,-0.96101516
596735460000.0,-0.3322535550939678,10.176752646086683,-1.5952206025679714,-0.23335053,-0.002443461,0.13041973,76.97726,-59.49392,-1.4656793
596740464000.0,-0.3235769490296931,10.159640432803243,-1.5901592526419024,-0.23671028,-0.003970624,0.124311075,77.325294,-60.335552,-1.9724698
596745435000.0,-0.3149575627895833,10.14264106984721,-1.5851312809227798,-0.24190263,-0.016798794,0.12308934,77.66124,-61.144806,-2.4762533
596750532000.0,-0.3061197008572075,10.125210823822888,-1.5799758651407707,-0.2406809,-0.017104227,0.1151481,77.979294,-61.922638,-2.9842293
596755683000.0,-0.2971882064852892,10.107595913626442,-1.5747658304746674,-0.23518312,-0.022296581,0.110872045,78.28503,-62.668133,-3.488054
596760445000.0,-0.2889312124648903,10.091311269410664,-1.569949254066206,-0.21899518,-0.032986723,0.109650314,78.57693,-63.384487,-3.9907093
596765450000.0,-0.28025287246655,10.074195636420331,-1.5648868926793205,-0.20922135,-0.035124753,0.10415252,78.85346,-64.0676,-4.4937644
596770435000.0,-0.2716092111495217,10.05714839756782,-1.5598447605087662,-0.2049453,-0.04520403,0.089186326,79.12096,-64.72021,-4.9946823
596776482000.0,-0.2611241118548236,10.036469429996885,-1.5537284569510246,-0.19242255,-0.06780604,0.08246681,79.37721,-65.34481,-5.4901433
596780531000.0,-0.2541034128231992,10.022623036794512,-1.5496330521047708,-0.16554448,-0.07086037,0.077579886,79.6182,-65.94027,-5.9866824
596785451000.0,-0.2455724572204351,10.005798078889928,-1.544656664887293,-0.16371189,-0.07727446,0.07360926,79.852806,-66.4981,-6.477965
596790446000.0,-0.2369114565627508,9.988716642968509,-1.539604418108573,-0.15332718,-0.08582657,0.062002823,80.07662,-67.03055,-6.9679112
596795438000.0,-0.2282556577072633,9.97164546616776,-1.5345552057123029,-0.12767084,-0.09132435,0.049785517,80.28867,-67.532875,-7.454309
596800515000.0,-0.2194524744561996,9.95428361428126,-1.529420019146625,-0.11636983,-0.1020145,0.046120327,80.492,-67.99941,-7.9353657
596805666000.0,-0.2105209800842813,9.936668704084816,-1.5242099844805217,-0.09712757,-0.106901415,0.043676864,80.68395,-68.4391,-8.414382
596810446000.0,-0.2022327752507016,9.920322505144997,-1.519375201777362,-0.08032878,-0.11148291,0.04062254,80.86713,-68.84587,-8.888282
596815472000.0,-0.1935180226369836,9.903135058309948,-1.5142915997133288,-0.06872234,-0.11728613,0.03390302,81.04088,-69.2208,-9.357808
596820442000.0,-0.1849003703309394,9.886139115060804,-1.5092646394550229,-0.041233405,-0.10720685,0.018936822,81.20119,-69.567764,-9.825759
596825475000.0,-0.1761734801787622,9.868927730277518,-1.5041739571652737,-0.022907447,-0.10170906,0.019547688,81.35257,-69.88204,-10.284461
596830670000.0,-0.1671656927079574,9.85116235297786,-1.4989194182232417,-0.008857546,-0.10140363,0.014049901,81.49373,-70.164536,-10.743214
596835449000.0,-0.1588792218084432,9.834819573744934,-1.4940856469808987,0.008857546,-0.103847094,0.0067195175,81.62379,-70.417946,-11.196256
596840448000.0,-0.1502112854144965,9.817724458995947,-1.4890293543589126,0.028099801,-0.10048734,0.0027488936,81.74218,-70.641,-11.643903
596846222000.0,-0.1401995501197079,9.7979790714063,-1.483189179604092,0.038179077,-0.08979719,-0.0021380284,81.850006,-70.83154,-12.087552
596850470000.0,-0.1328337982090286,9.783452156532585,-1.4788924940553427,0.05955936,-0.082161374,-0.008552114,81.9486,-70.995415,-12.525963
596855757000.0,-0.1236664888041884,9.76537216619894,-1.4735449007181871,0.064446285,-0.08124508,-0.010079277,82.036804,-71.126434,-12.957769
596860471000.0,-0.1154927236189384,9.749251667913938,-1.468776874428921,0.07452556,-0.07452556,-0.013133603,82.11274,-71.23088,-13.3856735
596865471000.0,-0.1068230532909261,9.73215313345806,-1.463719570346118,0.082161374,-0.062002823,-0.02107485,82.17845,-71.30505,-13.808669
596870439000.0,-0.0982088688530131,9.7151640296227,-1.458694633009445,0.090713486,-0.05375614,-0.028099801,82.23513,-71.35271,-14.225191
596875519000.0,-0.0894004837997525,9.697791918615527,-1.4535564120613176,0.08460484,-0.05375614,-0.03145956,82.28263,-71.37145,-14.635849
596880654000.0,-0.0804967323728839,9.680231723729342,-1.448362560768279,0.09193522,-0.03726278,-0.03848451,82.315636,-71.36629,-15.043528
596885460000.0,-0.0800529345995464,9.670978568815311,-1.4460979,0.0983493,-0.01863139,-0.04184427,82.34026,-71.33623,-15.443706
596890450000.0,-0.0867370086906008,9.667875260824824,-1.4460979,0.100792766,-0.009162978,-0.04734206,82.35576,-71.28233,-15.839297
596895465000.0,-0.0934545701268008,9.664756405199112,-1.4460979,0.0983493,0.0027488936,-0.05467244,82.27541,-71.12689,-16.308407
596900444000.0,-0.1001239097859911,9.66165993816812,-1.4460979,0.1001819,0.0036651916,-0.06352998,82.18936,-70.953735,-16.769127
596905665000.0,-0.1071174069461905,9.658412970028174,-1.4460979,0.109650314,0.01863139,-0.06688975,82.08939,-70.76555,-17.221245
596910452000.0,-0.113529563794663,9.655435908835695,-1.4460979,0.11056661,0.04062254,-0.065973446,81.98108,-70.56178,-17.664705
596915931000.0,-0.1208686503567646,9.652028489100246,-1.4460979,0.093767814,0.043982297,-0.06505715,81.867935,-70.344246,-18.098795
596920454000.0,-0.1269271808404999,9.64921561093572,-1.4460979,0.08552113,0.04550946,-0.06627888,81.74275,-70.11674,-18.52429
596925451000.0,-0.1336206313881951,9.64610794960737,-1.4460979,0.07696902,0.04734206,-0.06963864,81.61067,-69.87789,-18.940613
596930661000.0,-0.1405993941165304,9.642867822426918,-1.4460979,0.07422013,0.06169739,-0.0711658,81.4686,-69.63119,-19.347658
596935443000.0,-0.1470048534959737,9.639893870761483,-1.4460979,0.062308256,0.056505036,-0.06994407,81.326355,-69.3763,-19.744835
596940483000.0,-0.1537559022773193,9.63675946750055,-1.4460979,0.0571159,0.062002823,-0.055283304,81.170746,-69.11974,-20.130001
596945445000.0,-0.1604024705418107,9.63367357286151,-1.4460979,0.047036625,0.046731193,-0.05222898,81.018105,-68.85488,-20.508152
596950444000.0,-0.1670986000771175,9.63056466772234,-1.4460979,0.03634648,0.051923547,-0.04886922,80.852066,-68.59051,-20.873722
596955677000.0,-0.1741081711629868,9.627310236717486,-1.4460979,0.025961773,0.047036625,-0.034513887,80.68855,-68.32713,-21.22579
596960454000.0,-0.180506933073401,9.624339394579096,-1.4460979,0.017715093,0.05131268,-0.020158553,80.51584,-68.06268,-21.568537
596965478000.0,-0.1872365499538534,9.621214941804704,-1.4460979,0.0106901415,0.043066,-0.019547688,80.343925,-67.797066,-21.902288
596970434000.0,-0.1938750812555098,9.618132778598117,-1.4460979,0.005192355,0.042760566,-0.010995574,80.16338,-67.537125,-22.221672
596975562000.0,-0.2007440054917677,9.614943647661198,-1.4460979,-0.00061086525,0.042455133,-0.0015271631,79.98115,-67.27757,-22.532389
596980682000.0,-0.2076022137775791,9.61175949196755,-1.4460979,-0.010079277,0.048258353,0.004581489,79.79292,-67.0199,-22.833801
596985477000.0,-0.2140250865764981,9.6087774555318,-1.4460979,-0.009773844,0.048258353,0.023518313,79.60229,-66.76978,-23.121035
596990448000.0,-0.2206837102852419,9.60568596374408,-1.4460979,-0.017715093,0.055588737,0.036651913,79.40375,-66.52072,-23.40079
596995432000.0,-0.2273597474134613,9.602586387186046,-1.4460979,-0.028710667,0.06078109,0.04337143,79.20199,-66.27688,-23.669615
597000561000.0,-0.2342300111435251,9.599396634343716,-1.4460979,-0.03940081,0.070554934,0.052534413,78.99276,-66.03926,-23.926975
597005454000.0,-0.2407841543354147,9.596353651177893,-1.4460979,-0.042760566,0.07666359,0.0580322,78.77946,-65.80461,-24.176506
597010483000.0,-0.2475204686848962,9.593226088876456,-1.4460979,-0.055283304,0.076052725,0.06872234,78.5617,-65.57622,-24.415165
597015443000.0,-0.2541643579617759,9.590141438048237,-1.4460979,-0.07544186,0.082161374,0.063224554,78.33656,-65.34726,-24.650295
597020441000.0,-0.2608591480032769,9.587033154814474,-1.4460979,-0.07880162,0.0888809,0.06780604,78.10806,-65.12693,-24.87302
597025427000.0,-0.267537864119108,9.58393233444562,-1.4460979,-0.090713486,0.09254608,0.06811147,77.87539,-115.093315,-25.092175
597030496000.0,-0.2743277582208224,9.580779895927828,-1.4460979,-0.10476339,0.09132435,0.06780604,77.63894,-115.309364,-25.303967
597035498000.0,-0.2810279062375467,9.57766912507243,-1.4460979,-0.12186762,0.0888809,0.062002823,77.39853,-115.52364,-25.511139
597040471000.0,-0.2876892089339021,9.574576389473894,-1.4460979,-0.12156218,0.089491755,0.059253927,77.154465,-115.7339,-25.711506
597045443000.0,-0.2943491721364517,9.571484275780763,-1.4460979,-0.14019357,0.07941248,0.053450707,76.91148,-115.94288,-25.908598
597050440000.0,-0.3010426226841469,9.568376614452417,-1.4460979,-0.13927728,0.086437434,0.046731193,76.6598,-116.14967,-26.100788
597055550000.0,-0.3078874360319,9.565198677812855,-1.4460979,-0.14844026,0.08368854,0.040011674,76.411415,-116.354095,-26.289063
597060665000.0,-0.3147389468486822,9.562017631646253,-1.4460979,-0.15974127,0.08582657,0.03481932,76.15623,-116.556274,-26.473034
597065457000.0,-0.3211578011661838,9.559037460926728,-1.4460979,-0.14294247,0.07849618,0.034513887,75.90203,-116.75572,-26.652048
597070494000.0,-0.3279048314661119,9.55590492338202,-1.4460979,-0.13652839,0.08093964,0.027183503,75.64095,-116.95444,-26.82888
597075476000.0,-0.3345781896067197,9.552806590634802,-1.4460979,-0.13927728,0.070249505,0.025961773,75.383675,-117.14796,-26.998869
597080489000.0,-0.341293072055308,9.549688978819908,-1.4460979,-0.122783914,0.062002823,0.016187929,75.12174,-117.34304,-27.167944
597085733000.0,-0.3428597749430369,9.552522615371537,-1.4416522806495495,-0.10445796,0.05681047,0.016187929,74.85965,-117.53202,-27.329393
597090473000.0,-0.3394544369452974,9.560468398501657,-1.433706490407794,-0.090713486,0.049480084,0.010995574,74.597885,-117.72197,-27.490032
597095442000.0,-0.3358845794535743,9.56879806018384,-1.4253768212703923,-0.07269296,0.048563786,0.004886922,74.2153,-117.97106,-27.708344
597101439000.0,-0.3315761803032698,9.578850984536444,-1.4153238879202217,-0.05100725,0.04184427,0.005192355,73.83559,-118.21396,-27.9185
597105521000.0,-0.3286435664410814,9.585693745451453,-1.4084811208808026,-0.03726278,0.04153884,-0.002443461,73.4523,-118.45485,-28.124624
597110723000.0,-0.324906315752423,9.594413990987926,-1.399760867539534,-0.027794369,0.03359759,-0.003970624,73.07237,-118.68841,-28.321472
597115471000.0,-0.3214952303487802,9.602373184722486,-1.3918016666813369,-0.010995574,0.036651913,-0.0036651916,72.68734,-118.91841,-28.512075
597120443000.0,-0.3179232175798434,9.610707875381337,-1.3834669685627694,0.007330383,0.027183503,-0.010079277,72.30717,-119.14548,-28.698227
597125445000.0,-0.3143296520387689,9.619092855806835,-1.3750819806325456,0.022296581,0.021685716,-0.0061086523,71.92342,-119.36448,-28.873957
597130523000.0,-0.3106814861416125,9.627605236974505,-1.3665695918461247,0.03145956,0.015271631,-0.011911872,71.54098,-119.58307,-29.047499
597135696000.0,-0.3069650697993538,9.636276869069883,-1.3578979519894576,0.040317107,0.009468411,-0.009162978,71.159,-119.79343,-29.210701
597140648000.0,-0.3034074255451754,9.64457803321764,-1.3495967804119948,0.04734206,0.013439035,-0.009468411,70.77403,-120.00131,-29.369501
597145445000.0,-0.2999611372803745,9.652619366904387,-1.3415554395280915,0.046731193,0.011301007,-0.013439035,70.39137,-120.20425,-29.52228
597150436000.0,-0.2963754744224172,9.66098590774878,-1.333188891195475,0.048258353,-0.00030543262,-0.018936822,70.008865,-120.40306,-29.669249
597155565000.0,-0.2926906688126269,9.66958378151975,-1.3245910097292375,0.052839845,-0.002443461,-0.027488936,69.62211,-120.59893,-29.81156
597160655000.0,-0.2890338818066155,9.678116278594077,-1.316058505018154,0.04520403,0.0018325958,-0.027183503,69.23561,-120.78816,-29.946768
597165470000.0,-0.2855746618785321,9.686187786140811,-1.307986990247257,0.036957346,0.002443461,-0.031154128,68.84888,-120.97621,-30.07959
597170721000.0,-0.2818022083287156,9.694990171629474,-1.2991845968802824,0.04153884,-0.0030543262,-0.02687807,68.461525,-121.15735,-30.203955
597175488000.0,-0.2783774728360523,9.702981215549576,-1.291193545808036,0.04428773,-0.00061086525,-0.027488936,68.06934,-121.33548,-30.324474
597180478000.0,-0.2747925284038329,9.711346080068417,-1.2828286738024746,0.040317107,0.004886922,-0.03390302,67.67627,-121.509186,-30.439653
597185544000.0,-0.2711529836155316,9.719838345329425,-1.2743364009407163,0.04062254,0.008246681,-0.044593163,67.28122,-121.68013,-30.550426
597190449000.0,-0.2676291053710353,9.7280607221761,-1.266114016734849,0.029321533,0.009773844,-0.03848451,66.88386,-121.842514,-30.652393
597195455000.0,-0.2640326661270092,9.736452407903815,-1.257722323496404,0.021380283,0.009162978,-0.042760566,66.48337,-122.00641,-30.754576
597200425000.0,-0.2604620902095482,9.74478374591156,-1.2493909780319474,0.024129177,0.012217305,-0.03756821,66.08035,-122.16157,-30.846579
597205542000.0,-0.256785905708613,9.753361503775867,-1.2408132124903728,0.025350908,0.014966198,-0.029626964,65.67595,-122.3121,-30.933617
597210512000.0,-0.2532153297911519,9.76169284178361,-1.232481867025916,0.013439035,0.016493361,-0.03756821,65.26863,-122.46054,-31.018255
597215474000.0,-0.2496505012795943,9.770010769186912,-1.224163932177901,0.026572637,0.024129177,-0.0290161,64.85819,-122.600266,-31.090363
597220453000.0,-0.246073459530492,9.778357194124649,-1.2158174997699471,0.01282817,0.02321288,-0.02321288,64.447815,-122.73574,-31.160704
597225427000.0,-0.2425000099100793,9.786695237434609,-1.2074794489972691,0.013439035,0.027794369,-0.017104227,64.03203,-122.86713,-31.222845
597230484000.0,-0.2388669309534192,9.795172415765624,-1.1990022630790085,0.016798794,0.02443461,-0.013133603,63.617775,-122.99283,-31.27956
597235590000.0,-0.2351986491356011,9.803731734048831,-1.1904429371350411,0.005192355,0.032375857,-0.01282817,63.196846,-123.11294,-31.32995
597241219000.0,-0.231154630656851,9.813167770597238,-1.1810068921411925,0.00580322,0.040011674,0.0030543262,62.776844,-123.22551,-31.37039
597245449000.0,-0.2281156897854506,9.82025862769437,-1.1739160286976005,0.005497787,0.03573562,-0.002443461,62.35515,-123.33925,-31.412413
597250423000.0,-0.2245422401650379,9.82859667100433,-1.165577977924923,-0.0067195175,0.037873644,-0.008552114,61.92828,-123.44449,-31.44493
597255561000.0,-0.2208509687236064,9.837209631705292,-1.1569650095151889,-0.009162978,0.042760566,0.0027488936,61.50119,-123.54407,-31.469826
597260544000.0,-0.2172710532715524,9.845562761945247,-1.1486118717990137,-0.004886922,0.036651913,-0.00030543262,61.07401,-123.64546,-31.496658
597265489000.0,-0.2137184379975394,9.853852191814116,-1.1403224345109375,-0.016187929,0.04734206,-0.00030543262,60.63919,-123.738144,-31.513943
597270441000.0,-0.2101607937433609,9.86215335596187,-1.1320212629334747,-0.018936822,0.04550946,0.009773844,60.209484,-123.8271,-31.52628
597275490000.0,-0.2065334621926043,9.870617123688447,-1.1235574876316554,-0.03756821,0.046731193,0.0125227375,59.773216,-123.91235,-31.535698
597280485000.0,-0.2029449256316952,9.878990369835062,-1.115184233990818,-0.043676864,0.046731193,0.009162978,59.336723,-123.99463,-31.540253
597285670000.0,-0.1954361409553232,9.880489672685552,-1.1173433050570645,-0.03970624,0.03848451,0.021991149,58.902493,-124.068214,-31.536148
597290460000.0,-0.1851166466767647,9.875444580527605,-1.1290387309482746,-0.048258353,0.038789943,0.01282817,58.461937,-124.14397,-31.534716
597295443000.0,-0.1743813564909491,9.870196210126126,-1.14120539216245,-0.052839845,0.03848451,0.02076942,57.946655,-124.21119,-31.539387
597300428000.0,-0.1636417575392552,9.864945733214356,-1.1533769366442208,-0.056199603,0.035124753,0.025045475,57.430794,-124.27712,-31.542435
597305553000.0,-0.1526005449760794,9.859547800581892,-1.1658903098576765,-0.067500606,0.027794369,0.022602014,56.915886,-124.337616,-31.540243
597310864000.0,-0.1411586171862205,9.85395396249194,-1.178857826957513,-0.079107046,0.014049901,0.02443461,56.404285,-124.391815,-31.531332
597315457000.0,-0.1312635363466758,9.849116361598105,-1.1900722509905668,-0.0852157,0.0036651916,0.027488936,55.89323,-124.44223,-31.518131
597320442000.0,-0.1205239373949819,9.843865884686332,-1.2022437954723375,-0.086132,0.0061086523,0.029626964,55.381855,-124.4884,-31.49999
597325429000.0,-0.1097800296774096,9.838613301264266,-1.214420223221704,-0.0852157,-0.004886922,0.03390302,54.877903,-124.529564,-31.477552
597330475000.0,-0.0989090133664272,9.83329857578848,-1.2267407073651375,-0.0852157,-0.008246681,0.03573562,54.369892,-124.567535,-31.449953
597335473000.0,-0.0881414074365242,9.828034406559786,-1.2389439930862791,-0.087964594,-0.008246681,0.04062254,53.864212,-124.6004,-31.416517
597340452000.0,-0.0774147347824652,9.8227902491789,-1.2511008877652634,-0.09865474,-0.007941248,0.052839845,53.359535,-124.62709,-31.376486
597345438000.0,-0.0666729814478321,9.817538719011983,-1.263274873880832,-0.09285152,-0.0070249503,0.054061573,52.85331,-124.65421,-31.333933
597350432000.0,-0.0559139930496858,9.81227876280388,-1.2754683930667827,-0.093462385,-0.0106901415,0.061086524,52.34923,-124.67207,-31.282738
597356505000.0,-0.0428304254601898,9.805882344291303,-1.2902964351205028,-0.08857546,-0.003970624,0.058643065,51.839886,-124.69089,-31.228989
597360463000.0,-0.0343033777870094,9.801713560416324,-1.2999604216919871,-0.09010262,-0.00061086525,0.063224554,51.333256,-124.702805,-31.168097
597365485000.0,-0.0234840666665666,9.796424113064084,-1.3122223066242746,-0.07391469,0.007330383,0.062002823,50.821404,-124.71719,-31.104776
597370428000.0,-0.0128349517983173,9.791217872868518,-1.32429130248654,-0.065973446,0.014049901,0.06566802,50.308933,-124.72566,-31.034952
597375489000.0,-0.0019316197432475,9.785887348565517,-1.3366484111369397,-0.06811147,0.0076358155,0.059864793,49.79634,-124.73533,-30.964777
597380504000.0,0.0088726106966211,9.78060527399931,-1.348893204632643,-0.06291912,0.01038471,0.05681047,49.278553,-124.742935,-30.887892
597385528000.0,0.0196962305829421,9.775313720136774,-1.361159972832526,-0.058643065,0.011911872,0.05467244,48.762016,-124.74919,-30.809336
597390470000.0,0.0303431910682523,9.77010853319636,-1.3732265270609938,-0.064751714,0.008246681,0.046731193,48.24474,-124.75484,-30.729803
597395442000.0,0.0410547830417372,9.764871748601507,-1.3853663303033938,-0.07544186,0.01740966,0.046120327,47.72276,-124.75686,-30.644043
597400423000.0,0.0517857644616745,9.759625484710329,-1.3975281082499738,-0.063224554,0.02076942,0.0421497,47.20206,-124.76175,-30.558586
597405537000.0,0.0628032788125196,9.754239137884491,-1.4100146234916542,-0.09010262,0.028405234,0.03726278,46.67633,-124.75842,-30.468855
597410555000.0,0.0736139724012057,9.748953903552843,-1.4222667418887505,-0.0842994,0.03176499,0.03176499,46.14989,-124.75992,-30.37691
597415476000.0,0.0842156908447937,9.74377083497053,-1.4342820218074657,-0.076358154,0.03023783,0.032070424,45.6221,-124.755875,-30.280966
597420461000.0,0.0949552897964876,9.73852035805876,-1.4464535662892364,-0.09132435,0.038789943,0.021380283,45.087864,-124.75159,-30.18482
597426465000.0,0.1078902049631817,9.732196614151382,-1.461113135610912,-0.09621128,0.04153884,0.014049901,44.555843,-124.74667,-30.08484
597430463000.0,0.1165034279539285,9.727985700070487,-1.4708747875343062,-0.09132435,0.040317107,0.009162978,44.021088,-124.74106,-29.983213
597435565000.0,0.1274950897095037,9.722611992306422,-1.4833320031704136,-0.093462385,0.042760566,0.0030543262,43.483006,-124.73386,-29.879824
597440474000.0,0.1380709555578218,9.717441562785885,-1.4953179834835555,-0.0852157,0.048258353,-0.004276057,42.94335,-124.7282,-29.774426
597445444000.0,0.1487782387654283,9.712206884701333,-1.50745290345836,-0.089186326,0.03940081,-0.004276057,42.407227,-124.71813,-29.666315
597450557000.0,0.1597935987333343,9.70682159113064,-1.5199369770662428,-0.080634214,0.06291912,-0.00580322,41.858135,-124.71106,-29.55357
597455468000.0,0.1703737733475307,9.701649055099807,-1.5319278406469805,-0.069027774,0.06963864,-0.0067195175,41.3169,-124.70166,-29.439602
597460644000.0,0.1815248594406034,9.696197406454806,-1.5445657371841208,-0.06963864,0.07513642,-0.004581489,40.768772,-124.68924,-29.319674
597465471000.0,0.1919240658879107,9.691113343856388,-1.5563515035258475,-0.051923547,0.083383106,-0.0125227375,40.216465,-124.68177,-29.198362
597470436000.0,0.2026205771808215,9.685883932047572,-1.5684742153316638,-0.04917465,0.08827003,-0.005192355,39.66542,-124.66568,-29.068768
597475534000.0,0.2136036214046401,9.6805144373041,-1.58092166443258,-0.041233405,0.09743301,-0.0143553335,39.107933,-124.65683,-28.941126
597480464000.0,0.2242247292946804,9.675321889425456,-1.5929589190554747,-0.040927973,0.101098195,-0.02076942,38.551888,-124.642685,-28.807487
597485679000.0,0.2224125998184478,9.647681955202264,-1.6083674571001263,-0.04337143,0.112704635,-0.016798794,37.990986,-124.62689,-28.668474
597490449000.0,0.2088166174379324,9.60213541754012,-1.6249092336124409,-0.0290161,0.11728613,-0.023518313,37.42949,-124.61572,-28.531025
597496474000.0,0.1916434950390634,9.544605461688038,-1.6458031966075548,-0.029932396,0.12950343,-0.02107485,36.60556,-124.63684,-28.376806
597500434000.0,0.1803562643835412,9.506793241742107,-1.6595359922026836,-0.030543262,0.12980886,-0.030543262,35.78834,-124.65883,-28.220879
597505550000.0,0.1657740744760534,9.457942909104888,-1.677277654390734,-0.038789943,0.12217305,-0.03848451,34.976845,-124.67282,-28.056313
597510704000.0,0.151083572759245,9.408729731932835,-1.6951510959304543,-0.04520403,0.122478485,-0.03970624,34.169106,-124.68214,-27.884726
597515637000.0,0.1370229897229594,9.361626782187058,-1.7122581365038816,-0.052534413,0.10720685,-0.04795292,33.37308,-124.688156,-27.712938
597520459000.0,0.1232787911823209,9.315583720424614,-1.7289802426553238,-0.05467244,0.09987647,-0.05100725,32.58145,-124.68797,-27.532995
597525426000.0,0.109121297579801,9.268156120305564,-1.746205191069719,-0.07269296,0.08674286,-0.058337633,31.800997,-124.6819,-27.352674
597530515000.0,0.0946160660631464,9.219563598258883,-1.7638532205605295,-0.06383542,0.076052725,-0.06780604,31.027653,-124.67645,-27.168558
597535585000.0,0.080164990451152,9.171152498479625,-1.781435360375505,-0.06536258,0.054367006,-0.07696902,30.266823,-124.663284,-26.983515
597540625000.0,0.0657994241623056,9.123027854912076,-1.798913463860215,-0.055588737,0.032986723,-0.08093964,29.514727,-124.65012,-26.795504
597545470000.0,0.0519896684739204,9.076765176720652,-1.8157153311981944,-0.040927973,0.0290161,-0.09468412,28.767668,-124.637596,-26.607927
597550428000.0,0.0378578276683449,9.029423513465115,-1.8329090687135097,-0.03726278,0.0012217305,-0.09987647,28.040604,-124.61963,-26.419403
597555551000.0,0.0232556855854559,8.980506341045166,-1.8506750060452888,-0.02321288,-0.022602014,-0.116675265,27.316433,-124.607635,-26.232874
597560534000.0,0.0090525870105905,8.932925964279868,-1.8679554405024923,-0.013744468,-0.031154128,-0.13805555,26.600721,-124.5936,-26.045858
597566276000.0,-0.0073138974399166,8.878098245358268,-1.8878679941154293,-0.004581489,-0.06627888,-0.15485434,25.90419,-124.58072,-25.86347
597570442000.0,-0.0191882921143877,8.838319026091916,-1.9023151725117189,0.035430185,-0.06963864,-0.16157386,25.205484,-124.57373,-25.677063
597575538000.0,-0.0337134758064436,8.789659664262507,-1.9199874771462584,0.04337143,-0.08857546,-0.16982053,24.525164,-124.56256,-25.49716
597580494000.0,-0.0478396159904759,8.74233709808775,-1.9371742789062227,0.0729984,-0.10598512,-0.17745635,23.850634,-124.56014,-25.314993
597585864000.0,-0.0631457848339492,8.691061436191374,-1.9557967820238595,0.07849618,-0.12705997,-0.1853976,23.18754,-124.55255,-25.133808
597590681000.0,-0.0768757318207297,8.645066117130881,-1.972501548786924,0.105068825,-0.14019357,-0.19242255,22.532318,-124.55202,-24.951714
597595446000.0,-0.0904574626473871,8.599567322170689,-1.9890259859108608,0.112704635,-0.16615535,-0.20005837,21.891665,-124.54686,-24.77228
597600429000.0,-0.1046605612222525,8.551986945405393,-2.0063064203680647,0.12675454,-0.20097467,-0.20219639,21.263044,-124.544464,-24.592424
597605579000.0,-0.1193396616959746,8.502811962394901,-2.024165990397083,0.13072516,-0.23732115,-0.2098322,20.64638,-124.54054,-24.416
597610761000.0,-0.1341099721143878,8.453331426091918,-2.042136532511719,0.13744467,-0.2687807,-0.20738874,20.04505,-124.534546,-24.23805
597615475000.0,-0.1475463370916937,8.408319606691634,-2.058484107874203,0.13500121,-0.2950479,-0.22174409,19.454912,-124.52901,-24.0673
597620461000.0,-0.161757986598874,8.360710584305167,-2.075774945964433,0.13469578,-0.32284227,-0.21746802,18.882454,-124.517456,-23.892452
597625437000.0,-0.1759411329983383,8.313197047322603,-2.0930311052779085,0.12339478,-0.3475823,-0.22602014,18.318272,-124.50545,-23.724873
597630504000.0,-0.1903836576780178,8.264814593164513,-2.110602841459857,0.11178834,-0.3744604,-0.2406809,17.76751,-124.49048,-23.559086
597636006000.0,-0.2060660675433419,8.212278523936606,-2.129683104430665,0.118507855,-0.38148534,-0.24098633,17.22405,-124.47279,-23.39013
597640482000.0,-0.2188240585570078,8.169539257149236,-2.1452053249063714,0.1160644,-0.38515055,-0.26083946,16.687538,-124.45488,-23.230703
597645452000.0,-0.2329901030918426,8.122083011409014,-2.162440676953793,0.121256754,-0.39003745,-0.27977628,16.15837,-124.436966,-23.070068
597650429000.0,-0.2471760998020784,8.074559925886058,-2.179700304144944,0.121256754,-0.3817908,-0.29016098,15.629979,-124.416916,-22.909027
597655584000.0,-0.2618694518296585,8.025337200173615,-2.19757721356234,0.13530666,-0.36835176,-0.31581733,15.10176,-124.40477,-22.754597
597660634000.0,-0.2762635212262209,7.977117071202163,-2.215089995823805,0.1518,-0.3472769,-0.33108896,14.57413,-124.39031,-22.596043
597665477000.0,-0.2900675762930628,7.93087349009152,-2.2318849274064334,0.16982053,-0.312763,-0.35643986,14.03919,-124.38311,-22.441002
597670430000.0,-0.3041851655447804,7.883579569537935,-2.249061325533371,0.17348573,-0.27000242,-0.38240165,13.499139,-124.37629,-22.284025
597675526000.0,-0.3187103492368362,7.8349202077085245,-2.26673363016791,0.19028452,-0.2284636,-0.39920044,12.953014,-124.375854,-22.124548
597680480000.0,-0.3328307887993254,7.787616738614549,-2.283913496172524,0.20341812,-0.1863139,-0.4120286,12.397417,-124.37616,-21.962643
597685499000.0,-0.3202463759361277,7.738359660279441,-2.3083735058549566,0.22113322,-0.13652839,-0.43157628,11.830697,-124.38188,-21.797852
597690455000.0,-0.1741952952864271,7.683097045309381,-2.3675834445775115,0.226631,-0.09773844,-0.44135013,11.260856,-124.384605,-21.627302
597695429000.0,-0.02761376276996,7.627633718662675,-2.4270084315036597,0.23396139,-0.054367006,-0.45112398,10.586605,-124.52326,-21.576693
597700427000.0,0.0869735128032361,7.619753267595397,-2.423510535580168,0.23365596,-0.021991149,-0.44684792,9.923376,-124.65065,-21.515308
597705484000.0,0.1917366662419312,7.628134226650514,-2.398367439629662,0.23273966,0.023518313,-0.44318274,9.260639,-124.77173,-21.44326
597710466000.0,0.3137901354438231,7.641354126914083,-2.378145688642604,0.2302962,0.06536258,-0.42546764,8.503249,-124.83185,-21.333067
597715474000.0,0.4600859751835282,7.6608603251042195,-2.3635161163802745,0.21594086,0.10476339,-0.40378192,7.758708,-124.87932,-21.21105
597720465000.0,0.6170619319834212,7.663143268077023,-2.3618039180899757,0.2049453,0.11453723,-0.376293,6.987501,-124.85106,-21.061148
597725461000.0,0.7864492606942406,7.646617599274674,-2.3741981049822987,0.20555615,0.13347405,-0.33841935,6.2331014,-124.81086,-20.894823
597730461000.0,0.95608221811682,7.625932000727096,-2.386474905380514,0.20311269,0.13103059,-0.2938262,5.4487143,-124.70998,-20.699652
597735766000.0,1.1366783170625303,7.580782927775085,-2.398788265535628,0.23060162,0.12644911,-0.23945917,4.6929083,-124.60405,-20.49053
597740425000.0,1.2952828835070285,7.54113174381968,-2.4096022042656324,0.26267207,0.113926366,-0.18692477,3.9020896,-124.43515,-20.242928
597745431000.0,1.4811519680652254,7.467905406375962,-2.3836230100494684,0.29993483,0.09560041,-0.15118915,3.1470997,-124.26573,-19.990166
597751328000.0,1.7087879447783072,7.364434556980579,-2.331887423286918,0.3378085,0.06383542,-0.07147124,2.438272,-124.08594,-19.719576
597755521000.0,1.8564139402493132,7.176796537720966,-2.2536264142404394,0.40011674,0.018936822,0.0067195175,1.7503747,-123.87525,-19.398565
597760457000.0,2.019544099387281,6.87051135870836,-2.13044656839214,0.47433686,-0.03848451,0.090713486,1.1072893,-123.66205,-19.067505
597765484000.0,2.1856817229664065,6.5585795120924,-2.0049957813015,0.5687156,-0.11728613,0.17715092,0.52927035,-123.42329,-18.67409
597770436000.0,2.2350298917486757,6.312137808885314,-1.9008448013058288,0.6722572,-0.19883664,0.25350907,359.99277,-123.19354,-18.277254
597775573000.0,2.2257195167297503,6.088688662604088,-1.8030857663890991,0.788627,-0.28863382,0.30909783,359.50232,-122.98035,-17.882742
597780473000.0,2.150897366621752,5.891231197112608,-1.7190727211164585,0.87109387,-0.3894266,0.38606682,359.10312,-122.76156,-17.437603
597785538000.0,2.0201771751876807,5.699819533493744,-1.6397069010490857,0.95081174,-0.48716503,0.44898596,358.74142,-122.56537,-16.999615
597790446000.0,1.8572873387470143,5.551165417233144,-1.6013773633106745,1.0473285,-0.5891795,0.50885075,358.4487,-122.391594,-16.57809
597795465000.0,1.649763722175271,5.440780612897299,-1.605792755484108,1.1355985,-0.66645396,0.5644395,358.1893,-122.228165,-16.156668
597800419000.0,1.397257935709136,5.339234218292306,-1.6228904364301164,1.2198979,-0.6835582,0.602924,357.9782,-122.10306,-15.783357
597805531000.0,1.0140357947677412,5.253513470697291,-1.6733144272839633,1.2974777,-0.6627888,0.6246097,357.78653,-121.99325,-15.409842
597810437000.0,0.6471275580482456,5.231530399451754,-1.6716988111842104,1.3848315,-0.59803706,0.6078109,357.61038,-121.93242,-15.110332
597815617000.0,0.2614204930163476,5.3254845599381975,-1.5727995372607655,1.4544702,-0.49174652,0.58001655,357.42267,-121.88458,-14.803646
597820655000.0,-0.1108952954915396,5.492328839574885,-1.434996245199972,1.4883732,-0.3622431,0.5332854,357.2206,-121.889565,-14.621456
597825473000.0,-0.4625506521241784,5.769781767892603,-1.2381983111557824,1.498147,-0.19517145,0.4813618,356.9818,-121.908035,-14.431123
597830485000.0,-0.8283656474423157,6.058406524374214,-1.0334761763634457,1.4831808,-0.011301007,0.42058071,356.62247,-121.90891,-14.424492
597835664000.0,-1.080904820564516,6.382826030846775,-0.8328346388104838,1.4743233,0.17623462,0.3436117,356.22614,-121.9219,-14.40936
597840467000.0,-1.2014625414314517,6.7074043946471775,-0.6566349134122984,1.4419475,0.25809056,0.28252518,355.82013,-121.92965,-14.392512
597845451000.0,-1.2587802319235095,6.967237913250844,-0.5060906082632171,1.4153748,0.3631594,0.25625798,355.43997,-121.94623,-14.459838
597850432000.0,-1.2480486141957254,7.149675526681665,-0.3880427273460817,1.3655893,0.43860126,0.20616703,355.04886,-121.95999,-14.53579
597855570000.0,-1.2369787382902135,7.337863532665917,-0.2662740037660292,1.3063353,0.4642576,0.1731803,354.67136,-121.94011,-14.60597
597860694000.0,-1.1620926027372265,7.368055537773722,-0.2315409056461513,1.2357804,0.43951756,0.1554652,354.29453,-121.91016,-14.67496
597865421000.0,-1.0832388244525548,7.371810397445255,-0.2127662034389515,1.1404854,0.36254853,0.1160644,353.92834,-121.86736,-14.75485
597870421000.0,-0.9587471943282158,7.312758333831835,-0.2262955785108583,1.063211,0.258396,0.08857546,353.59476,-121.794205,-14.797318
597875488000.0,-0.77346101909156,7.162213334086389,-0.2880576449844881,0.9837985,0.12034045,0.069027774,353.2926,-121.70229,-14.857246
597881220000.0,-0.5590375217407287,6.97454148919974,-0.3914371890143136,0.91446525,-0.022296581,0.05222898,353.00592,-121.59163,-14.906428
597885452000.0,-0.3349016142807417,6.598784356864021,-0.925408047478855,0.8582657,-0.15668693,0.03756821,352.75595,-121.46944,-14.971725
597891274000.0,-0.0265558550104099,6.081851931424854,-1.6599965016330516,0.8185594,-0.27550024,0.02107485,352.49637,-121.34387,-15.023544
597895439000.0,0.0900522910867088,5.792428744936709,-2.15214491306962,0.77457714,-0.3830125,0.005192355,352.27213,-121.20859,-15.088949
597900426000.0,0.1202798479434599,5.530456584810127,-2.706316713375528,0.73884153,-0.4578435,-0.02321288,352.07083,-121.073425,-15.166707
597905526000.0,0.1193829711231835,5.361309409697134,-3.117175807619177,0.7281514,-0.5002986,-0.04428773,351.8566,-121.03185,-15.205708
597910529000.0,0.0933540329607497,5.273461778222192,-3.396986843603151,0.73364913,-0.5195409,-0.06383542,351.6574,-120.98973,-15.254533
597915425000.0,0.0678817800638326,5.187492958773597,-3.670813514036398,0.77518797,-0.54336464,-0.07849618,351.54733,-121.04956,-15.236651
597920442000.0,0.0074662969454915,5.040569751533368,-3.976935102455425,0.80878556,-0.5681047,-0.09865474,351.44083,-121.11084,-15.228725
597925431000.0,-0.0752884393846154,4.85558850923077,-4.298218264615384,0.85154617,-0.5555819,-0.1133155,351.33112,-121.18416,-15.222129
597930474000.0,-0.1221354702976744,4.697254535441861,-4.51325287744186,0.88789266,-0.535118,-0.118507855,351.26044,-121.33843,-15.204629
597935535000.0,-0.1484360513860465,4.554479880651162,-4.667299124651163,0.95294976,-0.4905248,-0.12492194,351.179,-121.51062,-15.18732
597940493000.0,-0.1684238265167875,4.419677715437826,-4.810384636240931,1.0207558,-0.47616947,-0.11942416,351.13428,-121.755356,-15.182706
597945441000.0,-0.1124592112169731,4.351720687970305,-4.8503593337270114,1.0461067,-0.4251622,-0.10415252,351.06937,-122.00282,-15.166799
597950436000.0,-0.0559629999351273,4.283118151147292,-4.890713742365446,1.1050552,-0.3567453,-0.090713486,351.0114,-122.324646,-15.158625
597955521000.0,-0.0154519543430965,4.273106687937019,-4.783334783797511,1.1643091,-0.27916542,-0.08857546,350.93866,-122.64986,-15.141179
597961140000.0,0.0209906611674426,4.291328077981884,-4.59201099695251,1.2131784,-0.14508049,-0.077579886,350.83746,-122.98144,-15.100789
597965452000.0,0.0827238153571503,4.37236900311748,-4.484648423998326,1.2678508,-0.12003502,-0.07147124,350.73953,-123.33807,-15.050136
597970427000.0,0.2172990450019876,4.591676829249922,-4.434805783554765,1.2782356,-0.04886922,-0.0580322,350.59955,-123.690865,-14.969682
597975415000.0,0.3037465221128241,4.810617552557813,-4.420778389611073,1.3222178,0.018936822,-0.03970624,350.44922,-124.034546,-14.880905
597980463000.0,0.3206854540119131,5.030823729152067,-4.458891010704274,1.3460416,0.113926366,-0.030848695,350.27676,-124.371826,-14.777364
597985675000.0,0.3407581510929587,5.295946281163209,-4.497092208184937,1.3793337,0.16920967,-0.022296581,350.07642,-124.67197,-14.622685
597990466000.0,0.3707417960888743,5.70822141942493,-4.527075837526548,1.4110987,0.23182335,-0.016798794,349.85486,-124.97377,-14.4531765
597995424000.0,0.4017705817056036,6.134867241904917,-4.55810460694331,1.4602734,0.2941316,-0.006414085,349.60852,-125.260704,-14.260063
598000438000.0,0.3885119947714489,6.497951840101402,-4.617306009641132,1.5082263,0.3463606,-0.00030543262,349.35388,-125.55139,-14.061419
598005579000.0,0.3534086782191238,6.837283824083023,-4.6914131397686765,1.5421293,0.37934732,0.0125227375,349.0961,-125.84488,-13.854902
598010465000.0,0.2824619977170563,7.190874533496465,-4.781927862987131,1.5454891,0.3979787,0.00061086525,348.7959,-126.07651,-13.628485
598015461000.0,0.0179532693175638,7.711219479445351,-4.977057296954867,1.5641204,0.4007276,0.004581489,348.502,-126.31296,-13.39718
598020889000.0,-0.2633707769241825,8.263249040244341,-5.1810527,1.570229,0.4129449,-0.002443461,348.18185,-126.51364,-13.176754
598025427000.0,-0.3695601302019403,8.441272350628818,-5.1810527,1.5607607,0.4147775,-0.022602014,347.86838,-126.711136,-12.964577
598030548000.0,-0.4893917031713978,8.642166438878908,-5.1810527,1.5219707,0.40103304,-0.04550946,347.54443,-126.89096,-12.849258
598035478000.0,-0.6108595211453745,8.823855712728959,-5.19471512084396,1.46852,0.3717115,-0.058337633,347.22964,-127.05902,-12.738654
598040472000.0,-0.7624082811453745,8.953226519746503,-5.272337566457996,1.4065173,0.321926,-0.07941248,346.925,-127.21196,-12.641054
598045440000.0,-0.9131680407929516,9.081923790323827,-5.349555890408841,1.3878858,0.27672195,-0.116675265,346.61743,-127.34767,-12.61211
598050421000.0,-1.08005817229838,9.153477072814669,-5.4362350205091685,1.2880094,0.20647246,-0.14080444,346.3339,-127.441986,-12.592499
598055517000.0,-1.262517018372797,9.183887046822148,-5.531808654263842,1.162782,0.14049901,-0.18784106,346.057,-127.52716,-12.589029
598060430000.0,-1.4077501572977311,9.267066775346317,-5.61676341991568,1.0302242,0.090713486,-0.21930063,345.80975,-127.61659,-12.625479
598065708000.0,-1.4990807498293517,9.470023941979523,-5.692872370648464,0.8781188,0.05131268,-0.24648413,345.57422,-127.669205,-12.674621
598070415000.0,-1.4604202579156778,9.676282767625295,-5.792694126832332,0.72051555,-0.00061086525,-0.2611449,345.37277,-127.733734,-12.770398
598076411000.0,-1.1357500837707664,9.99694487986877,-5.99310793652101,0.5571091,-0.036957346,-0.2602286,345.1795,-127.75556,-12.864767
598080492000.0,-0.9147729355577272,10.215194059332685,-6.129513666564288,0.38515055,-0.06658431,-0.2519819,344.9982,-127.749306,-12.965638
598085465000.0,-0.6780385376653539,10.401370195597297,-6.213022170958295,0.21166481,-0.11178834,-0.2452624,344.83243,-127.70029,-13.067581
598090733000.0,-0.4640704217489649,10.508353737554277,-6.207927589922246,0.080634214,-0.14905111,-0.2406809,344.67563,-127.619095,-13.16457
598095436000.0,-0.2175123040484982,10.572548184412732,-6.189227343199281,-0.042760566,-0.23365596,-0.22021692,344.48914,-127.460976,-13.159302
598100450000.0,0.0987430715846721,10.610882443468716,-6.155685129208662,-0.13927728,-0.3100141,-0.17715092,344.31726,-127.2799,-13.151598
598105522000.0,0.2997204602442563,10.56559684401451,-6.197514318839177,-0.23823744,-0.36102137,-0.16371189,344.12674,-127.06799,-13.110606
598110482000.0,0.3801332197444579,10.439233796856106,-6.312389558178154,-0.30818152,-0.3924809,-0.14355333,343.96072,-126.84238,-13.068731
598115678000.0,0.4675106076969965,10.32082240335689,-6.423836833065371,-0.3726278,-0.41263947,-0.12461651,343.77002,-126.57999,-12.96853
598120446000.0,0.5965910535768552,10.429734137632508,-6.387532935680212,-0.4129449,-0.43768495,-0.0870483,343.59714,-126.31244,-12.869361
598125416000.0,0.7311400921722615,10.543260001590106,-6.349690995662544,-0.48258355,-0.47678033,-0.056199603,343.42572,-126.066345,-12.759645
598130473000.0,0.7140444741336508,10.312294646658732,-6.486952093181432,-0.50640726,-0.44715336,-0.038179077,343.2503,-125.82833,-12.642111
598135495000.0,0.6445316340962421,9.964730147593944,-6.683223825369836,-0.5155703,-0.43799037,-0.008857546,343.0984,-125.580795,-12.5288725
598140710000.0,0.5634439161594204,9.718871150705052,-6.810031656090874,-0.52626044,-0.41874814,0.020463986,342.92426,-125.318085,-12.371882
598146499000.0,0.4602944234782609,9.615721850763808,-6.837176238542891,-0.5488624,-0.36254853,0.02321288,342.74146,-125.05937,-12.213342
598150505000.0,0.3947331124832443,9.559042693221349,-6.847417,-0.57940567,-0.3475823,0.030848695,342.5976,-124.863464,-12.074901
598155458000.0,0.3222964728726563,9.510751468482226,-6.847417,-0.59040123,-0.31673363,0.04337143,342.43958,-124.67251,-11.928705
598160719000.0,0.2456645719901356,9.458552596054254,-6.8427124310480885,-0.60139686,-0.27214047,0.03940081,342.2841,-124.50303,-11.8010235
598165630000.0,0.1799400473859433,9.392827954377312,-6.749924727743527,-0.61819565,-0.22937989,0.040317107,342.12616,-124.33266,-11.66897
598170443000.0,0.1155270689864365,9.328414861241267,-6.658988621857789,-0.6270532,-0.20463985,0.032986723,341.96103,-124.19145,-11.556564
598175506000.0,0.0309803926506024,9.257013551635112,-6.517668017986231,-0.6218608,-0.18112154,0.016798794,341.7865,-124.054276,-11.442925
598185462000.0,-0.1966341064028453,9.088651427156492,-6.1433432167837205,-0.61544675,-0.14935656,-0.01985312,341.60156,-123.92163,-11.334019
598190433000.0,-0.3680956816027372,8.96862858815055,-5.911870074374212,-0.634689,-0.15057829,-0.051618114,341.41644,-123.798195,-11.252011
598195473000.0,-0.5349307414154915,8.862384719486082,-5.689660746481577,-0.64843345,-0.14996742,-0.084910266,341.21713,-123.6912,-11.197207
598200489000.0,-0.6803584853245219,8.802085310492506,-5.505215837495385,-0.68875057,-0.16310102,-0.12614368,341.01804,-123.57755,-11.154102
598206597000.0,-0.8574463361611164,8.728658518201284,-5.28061665406483,-0.73884153,-0.18570304,-0.18234327,340.82867,-123.46517,-11.159986
598210700000.0,-1.191414297133307,8.661980637632716,-4.960021667616988,-0.7825184,-0.20372356,-0.24190263,340.63702,-123.35007,-11.175672
598215701000.0,-1.6999190154915451,8.572521636551317,-4.489184056478569,-0.8402451,-0.23335053,-0.30268374,340.4475,-123.22583,-11.207706
598220441000.0,-2.1990304733374897,8.495215901496259,-4.034401320126767,-0.9166033,-0.2846632,-0.36926803,340.27853,-123.08902,-11.289752
598225422000.0,-2.739297039817124,8.420867334164589,-3.5486568810889443,-0.99021256,-0.3145956,-0.4361578,340.10464,-122.947205,-11.383172
598230471000.0,-2.910021267210256,9.555259844859162,-2.9724264435248973,-1.0781772,-0.3652974,-0.48747048,339.98364,-122.78704,-11.575169
598235509000.0,-2.809040143516177,11.558052665998082,-2.337086622822011,-1.1273518,-0.4560109,-0.50701815,339.87714,-122.62746,-11.777918
598240419000.0,-3.4144592774035387,13.385181052440846,-2.144465633255169,-1.1472049,-0.5177083,-0.44532076,339.8636,-122.420616,-12.038583
598245652000.0,-5.914355074824131,15.003702996162865,-3.063230671956939,-1.1673635,-0.5665775,-0.37598756,339.86795,-122.211,-12.305701
598250424000.0,-7.451844338561704,16.221030210417283,-3.961019877656112,-1.1533136,-0.8151997,-0.6209445,339.87308,-121.79582,-12.561802
598255576000.0,-8.03591936667653,17.160417134359278,-5.017221553102496,-1.0045679,-1.5192219,-1.389413,339.94366,-121.4827,-12.996792
598260460000.0,-5.665775421163279,17.876125424266696,-6.631310008429272,-0.4098906,-2.670703,-2.5277603,340.25644,-121.51174,-13.937337
598265454000.0,1.3102301401541698,18.33576540504555,-9.23594053244569,0.42180246,-3.6538904,-3.189022,340.67157,-121.70577,-14.996978
598270417000.0,6.5070242181255065,18.681852542364133,-10.569169326745817,0.816116,-2.9862146,-3.356399,340.87378,-122.11575,-16.14786
598275523000.0,8.984255410220484,18.854935060909963,-9.86602519563454,0.39278635,-1.1936307,-3.6795468,340.9195,-122.67513,-17.43982
598281383000.0,11.827297867266426,19.05357657259789,-9.059048186564413,0.058948494,0.1966986,-3.6581664,340.31216,-122.943146,-17.680511
598286274000.0,10.877379545834918,19.06170011411183,-5.617108554963865,0.34330627,0.6041457,-3.4504724,339.51337,-123.29906,-17.868101
598290487000.0,9.588237201692658,19.046352871434006,-2.2599670214073795,0.6068946,0.42943826,-3.4208453,338.52008,-123.609116,-18.005766
598295439000.0,7.310962339041096,18.71873238812785,0.387018855502283,0.5030475,0.054061573,-3.32891,337.36307,-123.56033,-17.711143
598300428000.0,4.449992952054795,18.15843807305936,2.0877339248111246,0.040011674,-0.15363261,-2.9663615,336.3263,-123.4756,-17.38947
598305560000.0,3.0735795031512887,17.38094469074643,2.314816111830685,-0.6792821,0.04153884,-2.447737,335.66553,-123.151,-17.277903
598310513000.0,2.560540666651088,16.52588023881693,1.741606063359594,-1.4764613,0.31581733,-2.118786,335.08105,-122.68812,-17.151688
598315423000.0,2.0519558317599147,15.678239120510082,1.1733723993190013,-2.0604484,0.40408736,-1.8952094,334.73016,-122.13757,-17.238523
598320437000.0,2.279929412199519,14.87149086758814,-0.133648458984375,-2.3451116,0.34208453,-1.674687,334.38504,-121.44386,-17.22036
598325455000.0,2.920104079387019,14.096542591546472,-1.8423852675781247,-2.2440135,0.19730948,-1.53205,334.04764,-120.70946,-17.159231
598330505000.0,2.982403886253682,13.17674084816567,-3.271821326608944,-1.8521434,0.14569137,-1.4056009,333.69824,-120.1228,-17.150028
598335507000.0,2.742952078487905,12.193278353298224,-4.537495205926984,-1.6438384,0.122478485,-1.3622295,333.37888,-119.52728,-17.132166
598340446000.0,2.139547650659133,11.064124958882612,-5.318720051475204,-1.2922854,0.13133603,-1.2843442,332.96506,-119.14728,-17.014706
598345446000.0,1.007324172944131,9.696438727453442,-5.443965918811466,-1.0366384,0.10751228,-1.2455542,332.56732,-118.798035,-16.899696
598350422000.0,-0.282660577749684,8.650178149100457,-5.428356429748128,-0.9804387,0.03481932,-1.2996159,332.16742,-118.61751,-16.86889
598355457000.0,-1.7550747174462709,7.913971054770009,-5.268923103335602,-1.0659598,-0.017715093,-1.3946054,331.77396,-118.462906,-16.83586
598360551000.0,-3.023219819545235,7.36316743766328,-4.996607663642961,-1.2709051,0.0729984,-1.4865406,331.3888,-118.44119,-16.961788
598365466000.0,-3.9910357113368815,7.055743699032414,-4.605685993226899,-1.4566082,0.25259277,-1.5717562,330.98776,-118.41972,-17.100386
598370849000.0,-5.039671269444841,6.717068126423577,-4.148066223947481,-1.5604553,0.36010507,-1.7305813,330.5812,-118.551315,-17.45091
598375525000.0,-5.713912831882404,6.38154503971029,-3.135105952219209,-1.5800029,0.34238997,-1.8918496,330.16074,-118.67583,-17.807194
598380474000.0,-6.427518796917369,6.026433030269731,-2.063005784387041,-1.5344934,0.18112154,-2.0302107,329.80295,-118.88892,-18.364187
598385464000.0,-6.9944026844410585,5.7031189709769565,-1.1297731971357838,-1.4373659,-0.03573562,-2.1065688,329.46545,-119.132545,-18.938898
598390488000.0,-6.779076780803656,5.556514039344886,-0.9510985598933536,-1.3368785,-0.24129178,-2.1343632,329.1703,-119.40816,-19.536337
598395480000.0,-6.549736060938452,5.402818830042657,-0.7817674156733699,-1.25319,-0.36560285,-2.1148155,329.0379,-119.70739,-20.341675
598401649000.0,-5.997705169815153,5.072800324385538,-0.7157637082764574,-1.1749994,-0.3894266,-2.069917,328.93906,-120.045265,-21.14454
598405404000.0,-5.657561624518698,4.858730108718744,-0.6994078441911927,-1.0861185,-0.35918877,-2.0076087,328.8587,-120.39575,-21.934662
598410337000.0,-5.1662157758685545,4.435336144036291,-0.9346266346204912,-1.0180069,-0.3222314,-1.9358319,328.7934,-120.76026,-22.698883
598415325000.0,-4.73200685224677,4.019645236463209,-1.231282236959371,-0.94806284,-0.2950479,-1.8823812,328.7037,-121.1286,-23.420475
598420345000.0,-4.475471834647069,3.637092992501404,-1.6993462474442989,-0.90224797,-0.26328292,-1.8438967,328.61234,-121.50158,-24.111126
598425392000.0,-4.229377762711865,3.248160559322034,-2.1770193016949158,-0.893085,-0.25686884,-1.8304577,328.48077,-121.887924,-24.754711
598430391000.0,-4.061329742292648,2.835242858509678,-2.6955672111222544,-0.8940013,-0.27091873,-1.8277088,328.35394,-122.27762,-25.378195
598435352000.0,-3.909280110878034,2.439042734042553,-3.1513712121865947,-0.9080512,-0.28191432,-1.824349,328.12268,-122.71971,-25.953812
598440313000.0,-3.8523301500749176,2.130563531914893,-3.227304443701928,-0.9492846,-0.3005457,-1.8402315,327.90823,-123.154945,-26.521038
598445317000.0,-3.8120336538825,1.8441598257555496,-3.2743388922350003,-1.003957,-0.33261612,-1.8762726,327.67114,-123.64009,-27.127314
598450323000.0,-3.893239658625301,1.7330357300080237,-3.111926882749398,-1.0546589,-0.3726278,-1.9199494,327.44583,-124.1214,-27.730387
598456299000.0,-4.000322906532469,1.6096152954514662,-2.908437326139553,-1.0980303,-0.42821655,-1.9911152,327.2406,-124.63621,-28.394987
598460388000.0,-4.174651740936804,1.617194804829188,-2.673472377141198,-1.1145236,-0.43249258,-2.0134118,327.03342,-125.14657,-29.047209
598465338000.0,-4.38568811420691,1.6263702930707442,-2.389032050033872,-1.0952814,-0.44959682,-2.0576997,326.8298,-125.70068,-29.757462
598471007000.0,-4.674289719741607,1.7975676308113928,-1.9754158929724968,-1.0403035,-0.4437936,-2.1120665,326.6189,-126.264694,-30.462683
598475358000.0,-4.90267838141333,1.9525456345013212,-1.6450680172261918,-0.98471475,-0.453262,-2.169488,326.41467,-126.841415,-31.171719
598480386000.0,-5.106042443503273,2.278764242590756,-1.259332995841103,-0.93492925,-0.45112398,-2.2366831,326.1735,-127.45917,-31.904636
598485419000.0,-5.292493777385439,2.6468862093235472,-0.8720878605613965,-0.91813046,-0.5021312,-2.3115141,325.9547,-128.08714,-32.642994
598490346000.0,-5.4036992550713,3.1897402914641493,-0.5478158625537257,-0.93401295,-0.5684101,-2.384207,325.77026,-128.733,-33.43354
598495360000.0,-5.495318398353083,3.797320276039365,-0.2343817247449287,-0.9596693,-0.6243043,-2.4510968,325.60178,-129.38678,-34.22499
598500353000.0,-5.5162406,4.393388573852814,-0.1947118219721019,-1.0064005,-0.6218608,-2.5228734,325.49033,-130.03989,-35.079426
598505518000.0,-5.5162406,5.007230265627706,-0.2375379697594997,-1.0574077,-0.6401868,-2.5934284,325.40063,-130.702,-35.940742
598510437000.0,-5.525317004501607,5.434691762138264,-0.2883280846061093,-1.1209377,-0.56505036,-2.679255,325.30942,-131.33548,-36.80647
598515414000.0,-5.538088637299036,5.805069157717042,-0.3436718667363344,-1.1572843,-0.4700608,-2.7592783,325.21347,-131.98138,-37.67243
598520399000.0,-5.473839940872931,6.116096458331541,-0.4232872360503117,-1.2064588,-0.3622431,-2.8652635,325.07047,-132.59735,-38.505253
598525408000.0,-5.31913065942808,6.35847454798968,-0.5315838084497957,-1.2321151,-0.29871312,-2.9159653,324.91147,-133.21379,-39.32085
598530474000.0,-5.20892181632653,6.4358112773855485,-0.6206453859533002,-1.2449434,-0.17745635,-3.0207286,324.65222,-133.83777,-40.120968
598535443000.0,-5.13017837755102,6.405188889878654,-0.6950139760709689,-1.2522738,-0.032070424,-3.1096096,324.3618,-134.4605,-40.901394
598541151000.0,-5.047180979656795,6.293742247439801,-0.7120120068641018,-1.2345587,0.12492194,-3.2565227,323.9762,-135.09416,-41.664547
598545399000.0,-4.990881282120122,6.15486921339607,-0.6744787575975644,-1.1945469,0.15332718,-3.3136384,323.5905,-135.71622,-42.40365
598550408000.0,-4.932815006728972,5.982688474499333,-0.6052745993698265,-1.1597277,0.2003638,-3.4275649,323.07986,-136.39252,-43.165546
598555695000.0,-4.896761619626169,5.775381133956387,-0.4565541081619937,-1.0916162,0.22021692,-3.5246925,322.57068,-137.06958,-43.914204
598560639000.0,-4.955327221108179,5.679756308707124,-0.261104864823219,-1.0118983,0.25595254,-3.6209037,322.01053,-137.79733,-44.701885
598565485000.0,-6.469647240105541,7.136931886543536,0.8205521016358838,-0.9300423,0.2648101,-3.6758816,321.45264,-138.52731,-45.48016
598570397000.0,-8.004591510290236,8.613953437994724,1.9169406734986807,-0.8921687,0.23304509,-3.7152824,320.903,-139.30737,-46.31596
598575545000.0,-10.331391366264407,10.779999747838616,4.016755457456773,-0.86498517,0.11209377,-3.659083,320.3968,-140.063,-47.12337
598580621000.0,-12.87055568290706,13.126538001440922,6.411450432528818,-0.9431759,-0.2321288,-3.4187074,320.02057,-140.75397,-47.89158
598585463000.0,-14.76209334137671,14.91269527609609,7.780181119993537,-1.0473285,-1.0858129,-3.0567696,320.1784,-141.36867,-48.744614
598590461000.0,-16.257388014434987,16.366740700851018,8.404079850166973,-1.1404854,-2.0964894,-2.606562,320.60492,-141.87737,-49.526268
598595434000.0,-17.212621933286584,17.295623158168887,7.929732322257839,-1.2730432,-2.7672195,-2.1010711,321.79364,-142.19438,-50.29275
598600541000.0,-17.923005991385356,17.986410005409194,6.886201716087349,-1.3567317,-2.8951957,-1.5653422,323.22128,-142.39212,-50.912895
598605546000.0,-18.33886324558348,18.201422273202287,5.732439576984325,-1.2003502,-2.8429668,-1.072374,324.9806,-142.45886,-51.382942
598611255000.0,-18.669891492411047,18.21049170888281,4.349378619606867,-0.89766645,-2.8845057,-0.8530733,326.8004,-142.47908,-51.736927
598615495000.0,-18.875001843304613,17.603860750301955,3.0988685249537,-0.6954701,-2.500577,-1.2315043,328.1683,-142.544,-52.022816
598620462000.0,-19.012890786697803,15.35166800901844,1.0726609252838393,-0.81000733,-2.149024,-1.7534887,329.51645,-142.6116,-52.267914
598625403000.0,-19.1500579437958,13.111264478782507,-0.942940393413318,-1.212262,-1.1102476,-1.9672915,330.06708,-142.73892,-52.483513
598630527000.0,-18.25729843006074,10.747588815973169,-2.146399370809537,-1.491733,0.32834008,-2.3414464,330.198,-143.06726,-52.86314
598635551000.0,-17.084001549632852,8.418442649714441,-3.071079027196084,-2.0653355,1.4434745,-2.533869,329.97476,-143.39178,-53.22653
598640501000.0,-14.802373479518073,6.191047754216868,-2.7244515062650603,-2.5219572,1.751656,-2.6691756,329.15952,-144.05835,-53.89103
598645440000.0,-11.734532473092369,4.016014802108434,-1.4944655089658634,-2.8130345,1.4065173,-2.8151724,328.13605,-144.75076,-54.57754
598650435000.0,-9.315075772746985,2.658192427773441,-0.8477239301066875,-2.8759537,0.840856,-2.801428,326.87555,-145.54851,-55.355732
598655474000.0,-7.381258449908925,1.9131285276867032,-0.6384363489071039,-2.6960537,0.35246924,-2.6236663,325.7771,-146.31096,-56.10638
598660676000.0,-5.4757895667094285,1.1983662243104554,-0.6170191087876844,-2.3515258,-0.0027488936,-2.357329,325.14792,-147.08482,-56.895557
598665479000.0,-3.907137520109044,0.6525343469916612,-1.0054940824085952,-1.9837849,-0.29168814,-2.0583105,324.75244,-147.7876,-57.61974
598670430000.0,-2.9444397470525434,0.1634323327430793,-1.365613364195836,-1.6551393,-0.48991394,-1.7455474,324.50903,-148.3774,-58.232986
598675520000.0,-2.955591827202013,-0.2268921105422099,-1.6741555163349346,-1.464244,-0.602924,-1.4624114,324.39325,-148.88489,-58.762936
598681490000.0,-2.968671968359643,-0.6846989723129719,-2.0360409089224434,-1.3888022,-0.6542367,-1.2342533,324.17764,-149.28262,-59.17467
598685471000.0,-3.782760892925839,-0.6574532187988886,-2.6854070310322715,-1.3741413,-0.6423248,-1.0613784,324.00623,-149.60934,-59.51354
598690494000.0,-4.826271698226116,-0.616329641904253,-3.5130190120111138,-1.3961325,-0.602924,-0.9239337,323.86154,-149.87473,-59.790016
598695467000.0,-5.156763840099361,-0.5122742062810504,-3.713333814407381,-1.4144585,-0.59742624,-0.8194757,323.8927,-150.2216,-60.151825
598700437000.0,-5.422785206493967,-0.4024875676543648,-3.856900941625266,-1.4306464,-0.6123924,-0.7290677,323.91296,-150.53227,-60.475475
598705502000.0,-5.860558070267203,-0.347522587704529,-3.874545082802022,-1.426065,-0.61361414,-0.6722572,323.78687,-150.886,-60.835552
598710516000.0,-6.380717092840193,-0.3227531069906117,-3.8250061627566287,-1.3649784,-0.6267477,-0.66248333,323.66827,-151.22675,-61.18189
598715494000.0,-7.000790466921929,-0.2608996463351566,-3.635826442207857,-1.244638,-0.6591236,-0.6582073,323.5075,-151.56778,-61.526638
598720471000.0,-7.65969294778717,-0.1850547696270512,-3.3940708574838387,-1.0806206,-0.6762278,-0.68661255,323.33563,-151.91452,-61.8757
598725589000.0,-8.319677078571429,-0.0535790876738473,-3.14772732898715,-0.8949176,-0.73761976,-0.70096785,323.1641,-152.29146,-62.2542
598730519000.0,-8.948657042857143,0.09362903079743,-2.911302061602419,-0.7965683,-0.78954333,-0.7467828,322.9908,-152.68237,-62.645863
598735616000.0,-9.472957952000378,0.15322891,-2.706036979825972,-0.63285637,-0.8142834,-0.79626286,322.75964,-153.1182,-63.080418
598740471000.0,-9.895123689492102,0.15322891,-2.534532233632838,-0.49235737,-0.79076505,-0.84574294,322.5358,-153.55894,-63.519196
598745440000.0,-10.21408211494928,0.1460133256070475,-2.276127274030966,-0.37415496,-0.68477994,-0.9086621,322.23935,-154.04991,-64.00653
598750423000.0,-10.407719153764017,0.1307262265296316,-1.924524027175654,-0.3005457,-0.54092115,-0.97402465,321.9143,-154.54266,-64.49359
598755553000.0,-10.481968400031228,0.1268162440010929,-1.600501331477867,-0.26358834,-0.42913285,-1.0396926,321.6294,-155.09833,-65.044266
598761349000.0,-10.473301323444453,0.1311496963205558,-1.262492132008744,-0.26725355,-0.3359759,-1.103528,321.26563,-155.65622,-65.59411
598765521000.0,-10.458820489444136,0.1456466753775599,-1.0060530998213015,-0.30085114,-0.26542094,-1.1841623,320.95667,-156.25679,-66.18859
598770464000.0,-10.294126780264094,0.3664857043014153,-0.4670561620479165,-0.34666604,-0.20341812,-1.2541064,320.58716,-156.85483,-66.77829
598775504000.0,-10.1262011694473,0.5916584143512296,0.0825178954835137,-0.39278635,-0.20066923,-1.3069462,320.36368,-157.47604,-67.39676
598780471000.0,-9.994340995256293,0.7847832993675056,0.5031855217182765,-0.4370741,-0.21105394,-1.3393221,320.09738,-158.09456,-68.01136
598785484000.0,-9.89312417215707,0.952424122954276,0.8131628343075505,-0.47891834,-0.24465153,-1.361924,319.8391,-158.70853,-68.62183
598790473000.0,-9.792391929898535,1.119262357319805,1.1216561142811967,-0.5338962,-0.32467487,-1.368949,319.8808,-159.2862,-69.20775
598795600000.0,-9.673607782594935,1.3437654286392404,1.4762303318776373,-0.6062838,-0.4465425,-1.3539828,319.9873,-159.85037,-69.78173
598800432000.0,-9.546692856012658,1.6073579096518988,1.8472124328059076,-0.68691796,-0.58032197,-1.3322971,320.1761,-160.401,-70.343704
598805531000.0,-9.402479050538416,1.8944729424853008,2.2174068427165228,-0.79626286,-0.7144069,-1.3252722,320.65097,-160.9163,-70.877
598810502000.0,-9.254662324568937,2.180670623961155,2.563360003223889,-0.906524,-0.86590147,-1.3081679,321.28018,-161.41064,-71.38836
598815465000.0,-9.107083485102727,2.466407717737993,2.908756409499901,-1.0118983,-1.0290025,-1.2996159,322.188,-161.87036,-71.863396
598820439000.0,-9.00609695331447,2.7117731059721097,2.990468095240501,-1.1255192,-1.1090258,-1.284955,323.1908,-162.31265,-72.312485
598825431000.0,-8.943294405214228,2.9243363098524657,2.8552005835185934,-1.174083,-1.2730432,-1.2684617,324.46014,-17.25812,-72.73706
598831291000.0,-8.94335269203179,3.1310485988606795,2.696988782713271,-1.2321151,-1.395827,-1.2788464,325.9861,-16.88629,-73.08553
598835520000.0,-8.974684290948732,3.26207151909417,2.583055882305366,-1.2651019,-1.4196508,-1.2886202,327.60193,-16.528194,-73.39945
598840465000.0,-9.0113205540474,3.415277558478093,2.44983332555032,-1.2577715,-1.4376713,-1.3213016,329.2525,-16.184282,-73.677704
598845441000.0,-9.157674500098253,3.5628769329534293,2.259992845392022,-1.2431108,-1.4657712,-1.3808609,330.95358,-15.840337,-73.93415
598850414000.0,-9.34484506690902,3.707933841285125,2.049426311966988,-1.2479976,-1.4712689,-1.4639386,332.6674,-15.490709,-74.176254
598855518000.0,-9.546240662301663,3.831462301644045,1.84380625418658,-1.273654,-1.4416419,-1.5525141,334.2293,-15.141093,-74.40742
598860487000.0,-9.746377562607533,3.940628030433952,1.6482176844771554,-1.29198,-1.3662001,-1.6426166,335.76855,-14.780918,-74.63607
598865552000.0,-9.949388030121094,4.020122546392592,1.5042827513992063,-1.3301591,-1.2412782,-1.7336355,337.16373,-14.403485,-74.879166
598870429000.0,-10.144253634679965,4.077156398819579,1.3997204570163837,-1.3545936,-1.0778717,-1.8329011,338.47513,-14.012949,-75.13331
598875489000.0,-10.30372038647776,4.118127102681134,1.417668850600789,-1.3762794,-0.9254609,-1.9364429,339.68616,-13.589333,-75.42263
598880462000.0,-10.436108674318508,4.14802115595409,1.5073509212338594,-1.4175128,-0.8231409,-2.0335703,340.83383,-13.154534,-75.72437
598885498000.0,-10.533655479723455,4.178125154442267,1.5732338481580848,-1.4489723,-0.75686204,-2.1288655,341.9781,-12.682912,-76.06275
598890471000.0,-10.577884954803428,4.207611796161388,1.6027202332989372,-1.4993688,-0.6783658,-2.223855,343.07855,-12.199921,-76.415825
598895437000.0,-10.539968385717128,4.227768907579073,1.6184803,-1.5396858,-0.6032294,-2.310598,344.33194,-11.682024,-76.7873
598900595000.0,-10.402399487766065,4.23759527209071,1.6184803,-1.5720617,-0.550695,-2.3973405,44.48637,-11.155174,-77.16416
598905474000.0,-10.21950292756831,4.217406678720805,1.5782901763318578,-1.6010778,-0.48808134,-2.5017986,44.108685,-10.596972,-77.55977
598910485000.0,-9.970435727675165,4.162465205770111,1.4903841485269425,-1.5793921,-0.43860126,-2.5995371,43.745613,-10.036844,-77.95291
598916608000.0,-9.640600090845773,4.075788620666667,1.394177253482587,-1.5289958,-0.41263947,-2.6795604,43.38445,-9.450722,-78.3505
598920436000.0,-9.148152077711444,3.8022065646666663,1.4598369758706466,-1.4785993,-0.4156938,-2.7122416,43.03649,-8.8721895,-78.73236
598925391000.0,-8.510722635422887,3.448079321333333,1.5448275517412935,-1.4535538,-0.4147775,-2.7641652,42.704136,-8.249115,-79.13019
598930457000.0,-8.198395093500968,3.117187640058027,1.7099120000967118,-1.4382823,-0.41508293,-2.7782152,42.38485,-7.6494746,-79.4926
598935498000.0,-7.964948723617021,2.7950317120212764,1.892000086702128,-1.4391985,-0.42363504,-2.7461448,42.070847,-7.0687666,-79.821434
598940471000.0,-7.682347078847799,2.49171775102196,2.086578595550908,-1.4651603,-0.42546764,-2.6801713,41.75409,-6.4608536,-80.131004
598945401000.0,-7.386111585359825,2.195482351269132,2.284068987032988,-1.4837917,-0.44440445,-2.6093109,41.440254,-5.884485,-80.39061
598950429000.0,-7.1065113724297335,1.8815096693324704,2.430368062601701,-1.5143349,-0.47403142,-2.5100453,41.107075,-5.2838845,-80.605896
598955564000.0,-6.833710604400888,1.5541485293084318,2.5485817350776627,-1.5485435,-0.52870387,-2.4028385,40.767456,-4.725459,-80.75739
598960676000.0,-6.644105158285075,1.1829199504561616,2.648987757543432,-1.5656476,-0.60903263,-2.278833,40.41468,-4.1500316,-80.83758
598965472000.0,-6.536780101696637,0.7956173162430153,2.7283147084730266,-1.582141,-0.7031059,-2.1496348,40.05138,-3.6249504,-80.845474
598970670000.0,-6.648601209179927,0.2868910157007344,2.764945310495716,-1.5900823,-0.77640975,-2.014939,39.685127,-3.0832508,-80.78622
598975482000.0,-6.93063054626683,-0.2536652251682986,2.760244873898409,-1.5726726,-0.8564331,-1.8832976,39.319748,-2.5962355,-80.6537
598980461000.0,-7.255056907533072,-0.7740927247069711,2.73419177623552,-1.5262468,-0.89766645,-1.756543,38.96745,-2.07789,-80.470184
598985513000.0,-7.609904968894372,-1.2715431561690316,2.691079471649873,-1.4544702,-0.89369583,-1.6447546,38.62524,-1.6117393,-80.243706
598990544000.0,-7.963278008622935,-1.766925800801974,2.6481463749811502,-1.3200798,-0.8362745,-1.5543466,38.325527,-1.0793036,-80.005394
598995440000.0,-8.356855800693575,-2.391233001155958,2.548171531297563,-1.1368202,-0.72601336,-1.4844025,38.057285,-0.59303826,-79.75828
599000430000.0,-8.784975304594933,-3.1047655076582217,2.414671894846354,-0.9120218,-0.59712076,-1.4074335,37.83556,-0.15680255,-79.51594
599005549000.0,-9.139829101330967,-3.756608306299911,2.3558946,-0.6545421,-0.43676865,-1.3249667,37.69722,0.35883823,-79.31628
599010509000.0,-9.422221662111802,-4.329823227329192,2.3558946,-0.39370266,-0.2883284,-1.2363913,37.61871,0.8261076,-79.135025
599015407000.0,-9.630984592636937,-4.901713391599321,2.4035063025840566,-0.1328632,-0.20005837,-1.1954633,37.641094,1.3812801,-78.98079
599020453000.0,-9.684019698892548,-5.504384211473611,2.562611369629851,-0.016798794,-0.05497787,-1.1258247,37.687798,1.8845911,-78.8703
599025398000.0,-9.470942391538538,-5.957280318773872,2.9006526469004013,0.15851954,0.04795292,-1.0726794,37.83576,2.4596322,-78.744606
599030456000.0,-8.617048612378808,-6.090108322534522,3.683388573979042,0.29779682,0.07574729,-1.0332786,37.999474,3.0015671,-78.62046
599035467000.0,-7.880747235045287,-6.082192331581567,4.2877596908131785,0.37415496,0.04337143,-1.0079277,38.196617,3.6134627,-78.4449
599040606000.0,-7.434984124564547,-5.68051536556186,4.424917488334827,0.3921755,-0.029626964,-0.9944886,38.40925,4.2000847,-78.24618
599045448000.0,-7.084283022797395,-5.328769015701063,4.5085779996914646,0.38362336,-0.1142318,-1.0134255,38.61329,4.8079123,-77.88471
599050426000.0,-6.924118901919781,-5.044395927637984,4.462816851552965,0.35705075,-0.17592919,-1.0225884,38.810455,5.3984885,-77.49966
599055542000.0,-6.759514715015427,-4.752139455454234,4.415787113932121,0.30787608,-0.20799962,-1.039998,38.964687,5.954846,-77.069786
599060495000.0,-6.654206861526039,-4.481083247436415,4.3125168930157445,0.2959642,-0.19547687,-1.0369438,39.11684,6.497611,-76.63252
599065564000.0,-6.649307203371013,-4.226306139442874,4.096936282852241,0.29535335,-0.15302174,-1.0241156,39.25409,7.034604,-76.19113
599070414000.0,-6.708593298673208,-4.042458606067307,3.877131592135996,0.301462,-0.07941248,-1.0112875,39.364193,7.526237,-75.770065
599075489000.0,-6.889957722520904,-3.9618523084721167,3.6218779949416073,0.32620203,-0.016493361,-0.9957104,39.475765,8.003325,-75.359726
599080476000.0,-7.068177305127497,-3.88264371613572,3.371050469974432,0.36651915,0.063224554,-0.96761054,39.57168,8.448747,-75.00161
599086611000.0,-7.099251313578113,-3.860573350528885,3.1423496936330357,0.39064834,0.12889257,-0.9468411,39.667313,8.882764,-74.65751
599090473000.0,-7.027777721084215,-3.883143896663954,3.037020399776241,0.43004912,0.1872302,-0.8924741,39.77489,9.2879095,-74.34196
599095436000.0,-6.950996047895732,-3.9094896217689774,2.935968228037011,0.44684792,0.23151793,-0.840856,39.860413,9.683989,-74.08383
599100425000.0,-6.8891990109143375,-3.9332577320067657,2.8694176186449107,0.4550946,0.24190263,-0.79290307,39.951992,10.055848,-73.84092
599105555000.0,-6.888674728766087,-3.957316351551855,2.8197281529144584,0.46578476,0.22785273,-0.7275405,40.036556,10.425924,-73.60726
599110478000.0,-6.950321252329503,-3.980028216172321,2.790527082478838,0.47128254,0.22113322,-0.6429357,40.119602,10.769521,-73.39077
599115620000.0,-7.014710125813778,-4.003750419682059,2.760027000378501,0.49693888,0.20189096,-0.5992588,40.201893,11.118688,-73.161934
599120459000.0,-7.16311487368932,-3.993787810407767,2.7566410380097084,0.5103779,0.17440203,-0.5006041,40.27913,11.422492,-72.95822
599125429000.0,-7.375682738737864,-3.9614405412815534,2.7705042016019417,0.52748215,0.14355333,-0.38637227,83.26496,11.701495,-72.763725
599130463000.0,-7.735360360949484,-4.064502139308384,2.740956304284581,0.54367006,0.10629055,-0.24251351,83.96027,11.958371,-72.57956
599135513000.0,-8.231012652010051,-4.2947405679648245,2.670605570351759,0.56291234,0.08460484,-0.09590584,84.54341,12.175505,-72.41889
599140453000.0,-8.715868556532664,-4.519963902135679,2.601787228643216,0.56688297,0.08674286,0.04550946,85.00086,12.352954,-72.2828
599145436000.0,-9.093647448822775,-4.783467246113683,2.54109620734903,0.5421429,0.07391469,0.18845193,85.323555,12.485117,-72.17288
599150431000.0,-9.357545438183427,-5.085064667057433,2.489259267490888,0.52320606,0.07086037,0.3295618,85.55464,12.574384,-72.09674
599156432000.0,-9.521364321189392,-5.413226671597911,2.482410621189392,0.5143485,0.070249505,0.45540005,85.898094,12.678123,-72.042145
599160520000.0,-9.547583152156443,-5.617733635273239,2.5086294521564425,0.5149594,0.04520403,0.5497787,86.14356,12.748175,-72.006676
599165497000.0,-9.579503680953655,-5.866713859884811,2.5405499809536565,0.52442783,-0.01863139,0.6407976,86.431046,12.829417,-71.96655
599170431000.0,-9.5608523266591,-6.121472297347507,2.5687102399938078,0.52015173,-0.094989546,0.71959925,86.63256,12.884955,-71.93798
599175499000.0,-9.485712649086594,-6.391975293528744,2.5937569037981216,0.5131268,-0.17623462,0.7761043,86.7389,12.918166,-71.91184
599180487000.0,-9.377160701877932,-6.519060150495566,2.608307325247783,0.5045747,-0.24037547,0.80970186,86.89509,12.989998,-71.84344
599185538000.0,-9.238376769953051,-6.5316768476265,2.6146156738132498,0.50426924,-0.28924468,0.8396343,86.968056,13.043466,-71.77631
599190476000.0,-9.10269768544601,-6.544011286437142,2.620782893218571,0.48808134,-0.33444872,0.84971356,87.07174,13.127032,-71.67231
599195437000.0,-9.00147639041634,-6.516665198978791,2.625517745856245,0.4700608,-0.3640757,0.852157,87.13464,13.200723,-71.570755
599200428000.0,-8.938897431526577,-6.444699396255564,2.6286467264728985,0.44532076,-0.3894266,0.850019,87.163635,13.270745,-71.466606
599205552000.0,-8.874650870646766,-6.370815851243782,2.6318590880597013,0.43768495,-0.4120286,0.8344419,87.1781,13.346579,-71.34907
599210473000.0,-8.817064094974874,-6.2592228553065326,2.6498611516281407,0.43218717,-0.42210788,0.8014552,87.19482,13.426353,-71.229034
599215556000.0,-8.763248151758793,-6.087990480542714,2.6889998940301507,0.43004912,-0.44837508,0.79076505,87.18107,13.501522,-71.10683
599220437000.0,-8.697644241321,-5.908116136874565,2.730460657306277,0.4392121,-0.4428773,0.7501425,87.16981,13.577755,-70.98189
599226288000.0,-8.597315276633841,-5.6684404825425245,2.786199100358102,0.44776422,-0.43554693,0.7076874,87.15137,13.655085,-70.853584
599230459000.0,-8.470592960852162,-5.436473933238347,2.8495018328041253,0.4370741,-0.42424592,0.6994407,87.061035,13.711958,-70.73342
599235496000.0,-8.2513124167854,-5.083007353755343,2.9542327471131014,0.43463063,-0.39553526,0.68019843,87.02065,13.780335,-70.611115
599240584000.0,-8.029811640884727,-4.725961898839812,3.0600240697265755,0.43371433,-0.34513888,0.6737844,86.8998,13.820454,-70.50585
599245435000.0,-7.8112517618997135,-4.416570720873529,3.1550233491572137,0.4196644,-0.2950479,0.66706485,86.811966,13.865531,-70.40559
599250425000.0,-7.57821246687162,-4.132870732534719,3.24621254421711,0.4092797,-0.23793201,0.6844745,86.75163,13.904057,-70.32346
599255514000.0,-7.391700681395044,-3.917425597089288,3.3334066869935755,0.39095375,-0.19028452,0.70707655,86.45136,13.880661,-70.25881
599260506000.0,-7.244398392159433,-3.757586953953061,3.414893052799266,0.38240165,-0.16615535,0.74128497,86.16089,13.849533,-70.20807
599265754000.0,-7.089542139373279,-3.5895514573226697,3.500558206594992,0.38026363,-0.1459968,0.7825184,85.739296,13.775041,-70.17835
599270431000.0,-6.949914063325645,-3.413018033340323,3.613303647305515,0.37110063,-0.13561209,0.8402451,85.30299,13.688981,-70.161446
599275498000.0,-6.79728569595303,-3.1993382127699728,3.765932227175509,0.3726278,-0.12064589,0.8888089,84.8687,13.595073,-70.15533
599280459000.0,-6.757474670865737,-3.054652342605566,3.9212633103669914,0.37507126,-0.1255328,0.93859446,84.23879,13.453319,-70.15252
599285502000.0,-6.782307045921975,-2.946010746301176,4.082673667202262,0.38148534,-0.12705997,0.98440933,83.5998,13.301585,-70.159744
599290651000.0,-6.807661378494762,-2.835085586798637,4.247476746191914,0.3921755,-0.112399206,1.0207558,82.79413,13.106566,-70.169174
599295695000.0,-6.8754371284461815,-2.7669879400443644,4.350352832312242,0.40622538,-0.08368854,1.0577132,81.97465,12.901666,-70.18592
599300429000.0,-6.971215194422731,-2.733465549445442,4.403030746096968,0.40500367,-0.04795292,1.0680978,81.16933,12.698314,-70.20475
599305529000.0,-7.062536462217849,-2.7254180892428805,4.454378405246325,0.42058071,-0.0070249503,1.0925325,80.170715,12.4451275,-70.225204
599310503000.0,-7.144569925481272,-2.7342074063595545,4.501254600043053,0.42485678,0.0070249503,1.1044444,79.18748,12.198026,-70.24111
599315736000.0,-7.230874934177994,-2.743454389968633,4.550571674303463,0.4288274,0.047647487,1.099252,78.20473,11.940575,-70.26764
599320439000.0,-7.355778207220522,-2.737485647323973,4.572184554417819,0.41783184,0.08002335,1.0977248,77.224266,11.684692,-70.292
599325423000.0,-7.56740001522221,-2.707253975498786,4.557068665892537,0.40683624,0.116980694,1.0852021,40.85134,11.437929,-70.31787
599330449000.0,-7.792681553035173,-2.6827802854532097,4.5074709272660485,0.3979787,0.15607607,1.0552697,40.78113,11.186453,-70.351845
599335519000.0,-8.033469071631922,-2.664944166066673,4.418290330333364,0.3924809,0.19425514,1.010982,40.705338,10.948139,-70.38397
599340422000.0,-8.597129413018825,-2.6517299946548727,4.258123926710516,0.38545597,0.20647246,0.9492846,40.634773,10.714242,-70.42527
599345450000.0,-9.987780244499888,-2.6480895508354125,3.912281535782869,0.36193767,0.17073683,0.8549059,40.55746,10.508351,-70.44675
599350431000.0,-11.36543175436607,-2.644483136622061,3.5696719595675512,0.34269542,0.122478485,0.70096785,40.49861,10.330578,-70.47618
599355532000.0,-12.532490997673516,-2.5381861182628924,3.271600014841024,0.29749137,0.18661933,0.4831944,40.430054,10.2045355,-70.49669
599360571000.0,-13.556957407134549,-2.379136403993796,3.0049580278208605,0.2855795,0.41599923,0.21563543,40.37252,10.136046,-70.51375
599365521000.0,-13.941920643178412,-2.22856733988006,3.217649171664168,0.22571471,0.70341134,0.005192355,40.348618,10.110408,-70.69273
599370428000.0,-13.923132792203898,-2.082960685577212,3.7343181142828583,0.062002823,0.9117164,-0.0983493,40.29937,10.138317,-70.87635
599375491000.0,-13.691824713989458,-1.9667275461937264,4.207939502212045,-0.25411993,1.0128145,-0.14263703,40.239098,10.184841,-71.165085
599380458000.0,-13.31779154514819,-1.8763019227685127,4.631295929560183,-0.61483586,0.9419542,-0.19150625,40.12405,10.274994,-71.428055
599385564000.0,-12.852032799089676,-1.7304723345045117,4.908022078846922,-0.8503244,0.66523224,-0.2434298,39.93214,10.338479,-71.59823
599390487000.0,-12.208251581969176,-1.463171360624451,4.79507797049429,-0.8961393,0.33964106,-0.2761111,39.69853,10.419182,-71.72461
599395410000.0,-11.564470364848678,-1.1958703867443905,4.682133862141659,-0.8240572,0.06169739,-0.27275133,39.421734,10.46611,-71.73595
599400425000.0,-10.713734622396451,-0.5272355657400807,4.264941790599509,-0.6914995,-0.12156218,-0.2012801,39.155594,10.498754,-71.69985
599405550000.0,-9.780854741981468,0.2851471914468997,3.7401970303635066,-0.56169057,-0.24709499,-0.099571034,38.914642,10.514218,-71.62078
599410480000.0,-9.069766270733195,0.9218584130540932,3.3209841946898604,-0.4474588,-0.30085114,-0.052839845,38.704483,10.477399,-71.531555
599415508000.0,-8.915467818455786,1.1275898489890896,3.155664268207828,-0.3830125,-0.4129449,0.05100725,38.5144,10.391526,-71.426834
599420450000.0,-8.763808520294498,1.3298024099259935,2.9931720095216297,-0.25686884,-0.514654,0.15118915,38.365086,10.19161,-71.38367
599425436000.0,-8.688613713898551,1.4483569480220049,2.8207349744357253,-0.122478485,-0.56413406,0.23060162,38.232838,9.966726,-71.33543
599430448000.0,-8.661432098333467,1.5143696225305396,2.6421124601084056,0.007330383,-0.5626069,0.29565877,38.12997,9.713404,-71.28358
599435520000.0,-8.655145704550796,1.5621634288556434,2.4532264842641185,0.12217305,-0.5357288,0.33444872,38.05431,9.4202585,-71.250336
599440642000.0,-8.76272495574528,1.5083736829012298,2.2188569313386077,0.19608775,-0.4914411,0.3631594,37.999104,9.110144,-71.2236
599445500000.0,-8.864759317772382,1.4573563877340017,1.9965673397509205,0.24648413,-0.4633413,0.37110063,37.979576,8.787659,-71.222435
599450426000.0,-9.009836728252385,1.361716319475246,1.8133787830392003,0.28008172,-0.43127087,0.3555236,37.973404,8.464635,-71.22781
599455557000.0,-9.190183404888334,1.231253091816336,1.6522182640637202,0.29810223,-0.3903429,0.31856623,37.975075,8.148208,-71.23479
599460536000.0,-9.365014045120155,1.104554808518882,1.4962409626287396,0.27275133,-0.35521814,0.25625798,37.996807,7.8671145,-71.274376
599465455000.0,-9.53444050425045,0.9774848113822135,1.3499179616969104,0.23609942,-0.32284227,0.20311269,38.020065,7.598146,-71.31638
599470432000.0,-9.70586467320582,0.8489165300752002,1.201869664149093,0.20555615,-0.2996294,0.15241088,38.062542,7.3737426,-71.38815
599475524000.0,-9.908597631578948,0.6992002404678362,1.1233053021442496,0.1685988,-0.29871312,0.09468412,38.094887,7.1737394,-71.45274
599481212000.0,-10.15636242105263,0.5178009532748538,1.0923347150097469,0.14202617,-0.31398472,0.032986723,38.123466,6.994317,-71.51049
599485526000.0,-10.359743962303584,0.3991569133926774,1.0812978046752846,0.09132435,-0.32620203,-0.045814894,38.156418,6.8660097,-71.591576
599490466000.0,-10.68566198227417,0.3771848915953247,1.1435518613360167,0.016187929,-0.34574974,-0.110872045,38.176872,6.7578716,-71.65955
599495452000.0,-11.014614866398327,0.3550082720241505,1.206385611641768,-0.07086037,-0.38026363,-0.15790866,38.195164,6.6952004,-71.72781
599500422000.0,-11.175068534244293,0.3937111252791201,1.2800979937093817,-0.14172074,-0.40317106,-0.20219639,38.199856,6.6558595,-71.78538
599505575000.0,-11.191515886685552,0.4882814955240793,1.3664448337110482,-0.21197024,-0.45234573,-0.21533,38.180832,6.6287303,-71.82352
599510453000.0,-11.19026732426091,0.576500401877053,1.4547668147348662,-0.25259277,-0.5158757,-0.20738874,38.151512,6.6059494,-71.860405
599515694000.0,-11.080351839277334,0.6628624573908963,1.592160945518536,-0.25870144,-0.5891795,-0.18875736,38.112408,6.5869136,-71.87947
599520448000.0,-10.980649832864067,0.7411996472235257,1.7167882490380104,-0.26816985,-0.66828656,-0.14630222,38.05456,6.5471954,-71.867775
599525424000.0,-10.842353352941176,0.7875163460294118,1.9061717709558823,-0.24770586,-0.74006325,-0.09132435,38.00182,6.4974523,-71.84129
599530494000.0,-10.676298715458277,0.808273158375513,2.1427997594134744,-0.20708331,-0.820392,-0.03359759,37.94962,6.435158,-71.79597
599535483000.0,-10.47921495002258,0.8092581748547343,2.392013168703899,-0.1518,-0.8790351,0.027794369,37.891132,6.336453,-71.720764
599540627000.0,-10.171459643685084,0.7499318722926389,2.6997685524762907,-0.09560041,-0.9202685,0.09040806,37.840443,6.220321,-71.635086
599545448000.0,-9.883028786015354,0.6943307633012193,2.988199482718651,-0.036957346,-0.9584476,0.14996742,37.787888,6.069506,-71.506454
599551334000.0,-9.65598479217896,0.6205430720081967,3.159181057436817,0.02321288,-0.9810496,0.19517145,37.74668,5.9046483,-71.37582
599555459000.0,-9.544676710724044,0.566575392704918,3.2097756687329237,0.067500606,-1.010982,0.25320363,37.71058,5.7209163,-71.2396
599560547000.0,-9.419443606466084,0.494829561718617,3.252232814587362,0.116980694,-1.0277808,0.28863382,37.66266,5.530957,-71.03893
599565530000.0,-9.330858824038982,0.4099360611261505,3.2374687355711966,0.16432275,-1.0277808,0.32467487,37.617706,5.3269205,-70.84064
599570451000.0,-9.24337624038982,0.3260988312615052,3.2228883557119654,0.20189096,-1.0198395,0.34147367,37.574963,5.132317,-70.62127
599575524000.0,-9.152731804098291,0.2339905235602414,3.1959320897542725,0.24251351,-1.0137309,0.35888332,37.538265,4.928594,-70.405876
599580474000.0,-9.064056053736929,0.1412841634122948,3.163686465657682,0.26419923,-1.0088439,0.3643811,37.50123,4.727345,-70.19427
599585460000.0,-8.981985887206214,0.0549585708815026,3.138305235932737,0.29229903,-1.0002918,0.3622431,37.474075,4.543781,-69.97908
599590704000.0,-8.912845430917494,-0.0191206535629855,3.1284279615891437,0.31856623,-1.0036516,0.3662137,37.44677,4.359805,-69.76518
599595416000.0,-8.846584397131904,-0.0858839579653556,3.1355006385063184,0.34147367,-0.9957104,0.36377025,37.429848,4.2000537,-69.5502
599600431000.0,-8.764754023356524,-0.1574856507276728,3.186644666619338,0.35369098,-0.9954049,0.3576616,37.41281,4.042535,-69.33557
599605541000.0,-8.681373522859577,-0.2304437065632543,3.2387575247763736,0.3631594,-0.98532563,0.3481932,37.401226,3.9029238,-69.11941
599610460000.0,-8.62477998370462,-0.2884005680569307,3.3106909446782176,0.37843102,-0.9831876,0.34788775,37.39034,3.7638164,-68.90533
599615556000.0,-8.594579771658417,-0.3337007599876238,3.41135807289604,0.38728857,-0.9755518,0.33750305,37.378284,3.6326547,-68.69862
599621147000.0,-8.565235844599304,-0.3574584910801394,3.525793148850174,0.39950588,-0.97066486,0.33475417,37.371117,3.5102127,-68.476006
599625427000.0,-8.544833304031856,-0.3615389991936287,3.6155644125634647,0.4147775,-0.97341377,0.32834008,37.36477,3.392707,-68.25739
599630493000.0,-8.542623038443876,-0.3687626657337794,3.7163570573377935,0.41325033,-0.97158116,0.33078352,37.356934,3.2772214,-68.02718
599635506000.0,-8.56152036790658,-0.37821130415535,3.8108434415535,0.41263947,-0.96669424,0.33414328,37.350193,3.1637502,-67.80197
599640541000.0,-8.580500629994095,-0.3877014087738634,3.905744487738634,0.42088616,-0.97341377,0.32742378,37.344685,3.0507073,-67.55654
599645437000.0,-8.626300153838217,-0.3836730485699546,4.009077501052414,0.4184427,-0.9764681,0.3222314,37.331898,2.939728,-67.319244
599650423000.0,-8.705128031881964,-0.3639660944923648,4.127319472451506,0.4266894,-0.9831876,0.32345316,37.320618,2.828857,-67.08442
599655589000.0,-8.795201380129589,-0.3518858269997183,4.258745759198047,0.42332962,-0.97585726,0.3155119,37.300297,2.7269132,-66.831856
599660522000.0,-8.888363695464363,-0.3474494993576862,4.391835171546624,0.4382958,-0.9850202,0.31856623,37.282314,2.6205556,-66.57918
599665461000.0,-8.989255175217211,-0.3196026434898635,4.5304357875258585,0.43890667,-1.0021244,0.32803464,37.259224,2.5146632,-66.311455
599670438000.0,-9.102646658357468,-0.2555119334433182,4.678337473613984,0.43188173,-1.0262536,0.33108896,37.234886,2.410623,-66.04546
599675459000.0,-9.168583531298584,-0.1755209764318795,4.8205269009901,0.4437936,-1.071763,0.3463606,37.209656,2.3008072,-65.75142
599680509000.0,-9.176497994108502,-0.0765870243657638,4.955076900990099,0.45173484,-1.0955868,0.3472769,37.1792,2.1968317,-65.46352
599685796000.0,-9.170727657318142,0.0221752184171779,5.09065576161262,0.4596761,-1.128879,0.36377025,37.149624,2.077268,-65.13963
599690654000.0,-9.007628290446975,0.0588726040638036,5.155895806397896,0.46120325,-1.1691961,0.39400807,37.114834,1.9556204,-64.81546
599695484000.0,-8.845468977563542,0.095358477401227,5.220759827870289,0.46486846,-1.2021828,0.41783184,37.073177,1.814902,-64.45807
599700491000.0,-8.667773011069139,0.099144309877888,5.291218258631292,0.46303585,-1.2205088,0.44257188,37.022503,1.6692011,-64.10292
599705494000.0,-8.486779827725556,0.0907260053131863,5.362773728762189,0.4642576,-1.2550226,0.4456262,36.969032,1.524847,-63.742558
599710557000.0,-8.301507855735398,0.0841963728951442,5.4092985017593245,0.45540005,-1.2880094,0.47128254,36.900978,1.3665855,-63.34917
599715493000.0,-8.11854412596763,0.080038111598874,5.425931449683321,0.43554693,-1.3115277,0.48716503,36.8266,1.2141383,-62.957935
599720495000.0,-7.940322272060178,0.072477344089039,5.439626,0.41996986,-1.3243558,0.48747048,36.746567,1.0582254,-62.5339
599725425000.0,-7.795361729689898,0.0507332589493398,5.439626,0.40958515,-1.3161092,0.48258355,36.65669,0.90425026,-62.11936
599730562000.0,-7.644314608765735,0.0280761868676696,5.439626,0.3933972,-1.3063353,0.47128254,36.560593,0.75828403,-61.6792
599735515000.0,-7.459894860744195,0.022128281823598,5.460448785964168,0.3622431,-1.2690725,0.4636467,36.45374,0.6184088,-61.259632
599740532000.0,-7.245968714926322,0.0272217659433902,5.496103365207251,0.33292156,-1.2403619,0.4474588,36.341934,0.4877207,-60.85037
599745462000.0,-7.047646798083832,0.0451887646203592,5.542872263712575,0.30298916,-1.1951579,0.4156938,36.23367,0.365964,-60.440147
599750425000.0,-6.853163916257485,0.0689061758720558,5.59505043235529,0.28130344,-1.1377366,0.39584067,36.117233,0.24994814,-60.051426
599755537000.0,-6.538225140999711,0.1895705941111432,5.683009689280555,0.24770586,-1.0772609,0.37293324,35.997524,0.14130823,-59.65583
599760670000.0,-6.168938344986998,0.355276186334778,5.787167617624964,0.2275473,-1.0094548,0.3472769,35.876064,0.040750615,-59.288048
599765491000.0,-5.941788302631579,0.4981005726518218,5.861383831578947,0.20830505,-0.93645644,0.3210097,35.7536,-0.064949125,-58.917778
599770521000.0,-5.776016710526316,0.6394941882995951,5.924767126315789,0.20830505,-0.86620694,0.2950479,35.631992,-0.16321528,-58.57466
599775507000.0,-5.6456711761861085,0.7612128168848495,5.972797951221546,0.20861048,-0.7987063,0.28130344,35.48427,-0.2786036,-58.197384
599780455000.0,-5.535039045109647,0.8718447829317102,6.012309338197282,0.20189096,-0.73731434,0.2519819,35.33853,-0.38184455,-57.846516
599785480000.0,-5.428890490531545,0.9870210320417288,6.058763674773969,0.18509217,-0.68691796,0.23396139,35.19292,-0.50997937,-57.481377
599790469000.0,-5.343444360904123,1.110443390014903,6.125222012419274,0.18142697,-0.627664,0.21166481,35.05125,-0.6296707,-57.143837
599795423000.0,-5.284605039190222,1.2177982127578304,6.188161101145913,0.17959438,-0.6020077,0.18753563,34.906017,-0.7602805,-56.78241
599800428000.0,-5.3212221610389605,1.2701085194805195,6.240471353246753,0.1600467,-0.5479461,0.17806722,34.754276,-0.88436186,-56.45307
599806268000.0,-5.371832658747606,1.294985914474151,6.302648044734417,0.14813483,-0.49602258,0.15454891,34.608093,-1.0179077,-56.104343
599810523000.0,-5.415179826253457,1.283426623537338,6.348885057605844,0.14019357,-0.44959682,0.13927728,34.455956,-1.147265,-55.776337
599815479000.0,-5.465668324998227,1.2699629699808526,6.402739496099567,0.12308934,-0.39584067,0.108123146,34.31549,-1.2719682,-55.455402
599820443000.0,-5.5472651845519465,1.226112517298602,6.455914807190989,0.08674286,-0.36010507,0.09132435,34.166714,-1.3905838,-55.149105
599825454000.0,-5.653447180931308,1.1585422338529618,6.5090056541888766,0.051618114,-0.32406402,0.077579886,34.017216,-1.4987334,-54.864613
599830469000.0,-5.775959523039944,1.0766035072939428,6.570261875701425,0.020158553,-0.29871312,0.05467244,33.879066,-1.5974663,-54.579494
599835532000.0,-5.911576631256009,0.9833667094397344,6.638070628948519,-0.0036651916,-0.2678644,0.035124753,33.73521,-1.6883742,-54.31239
599840586000.0,-6.039194942252878,0.8931251571395944,6.705333619386077,-0.027183503,-0.24220806,0.03390302,33.602757,-1.7684544,-54.054115
599845445000.0,-6.145475157646629,0.8123522280650466,6.769101668719166,-0.05131268,-0.22510384,0.026267206,33.46853,-1.8380109,-53.80841
599850541000.0,-6.258877369875164,0.7235396870597897,6.838900338797634,-0.077579886,-0.21624629,0.02107485,33.34635,-1.8896289,-53.572098
599855467000.0,-6.382859846074244,0.6073060847749672,6.928012674030881,-0.074830994,-0.2180789,0.01863139,33.225986,-1.941053,-53.343376
599860736000.0,-6.515475288033837,0.4829790749416885,7.023329948562747,-0.080634214,-0.20280726,0.02443461,30.476614,-1.9803857,-53.127872
599865443000.0,-6.583957787847515,0.4300567226600674,7.03850293525695,-0.08674286,-0.20341812,0.023518313,30.337261,-2.0182788,-52.91308
599870472000.0,-6.634675856581718,0.3996259502664279,7.0232874563816345,-0.08124508,-0.2098322,0.023518313,30.194267,-2.0589375,-52.706135
599876316000.0,-6.654279324578377,0.3766985057926504,7.015811441807207,-0.06994407,-0.20891592,0.027183503,30.089352,-2.083566,-52.504513
599880518000.0,-6.661423284049352,0.3624106539872181,7.012239555316882,-0.06505715,-0.21319197,0.046120327,29.976765,-2.1119998,-52.304825
599885523000.0,-6.675262699863853,0.3518906113138189,6.997966182164738,-0.040317107,-0.2180789,0.048563786,29.877737,-2.1438508,-52.118977
599890472000.0,-6.6936992288631725,0.347281481470388,6.974920581075562,-0.031154128,-0.22968534,0.050701816,29.76994,-2.1781313,-51.934555
599895436000.0,-6.714736799837925,0.3469594045502431,6.95356098304295,-0.016798794,-0.23151793,0.04428773,29.676598,-2.2157376,-51.752586
599900535000.0,-6.739469429092382,0.3519059407313614,6.933774931290519,-0.01038471,-0.22999077,0.052534413,29.575459,-2.257103,-51.572872
599905511000.0,-6.746165825449055,0.3561695784886962,6.9240313,-0.0015271631,-0.22693644,0.056505036,29.490583,-2.297817,-51.397655
599910713000.0,-6.7345944363967165,0.3600266947475999,6.9240313,-0.0076358155,-0.21899518,0.061391957,29.40108,-2.3386238,-51.228798
599915432000.0,-6.724097438138743,0.3635256819882316,6.9240313,0.008552114,-0.22174409,0.060170226,29.32884,-2.3781424,-51.058064
599920435000.0,-6.695192269320388,0.3916449099805825,6.887063040679612,0.0067195175,-0.2098322,0.06169739,29.252096,-2.4146783,-50.898144
599925617000.0,-6.6617285806546525,0.4247695970393527,6.843348881712027,0.014049901,-0.20555615,0.058948494,29.177902,-2.4540884,-50.739727
599930488000.0,-6.614547956417801,0.4676609286723059,6.791879260463406,0.016798794,-0.19028452,0.06505715,29.106932,-2.4931996,-50.58239
599935509000.0,-6.565914428539904,0.5118730773335785,6.738824658063626,0.014660766,-0.17165314,0.06658431,29.043488,-2.5293503,-50.42645
599940453000.0,-6.519834505614171,0.5372865624276449,6.700272946549221,0.019547688,-0.16432275,0.05681047,28.981808,-2.5656993,-50.275917
599945454000.0,-6.47347541472268,0.5604661369180137,6.663185722243733,0.019242255,-0.14569137,0.062308256,28.911371,-2.60397,-50.13749
599950481000.0,-6.436732383871888,0.6036885914116555,6.642074797774449,0.021380283,-0.11636983,0.050396383,28.84476,-2.6420765,-50.007435
599955503000.0,-6.402425593373279,0.6517181339325201,6.624921223411085,0.015577064,-0.095294975,0.04734206,28.771343,-2.6812503,-49.88341
599960578000.0,-6.368246801233623,0.7016345834656211,6.605578718609544,-0.0030543262,-0.06261369,0.032070424,28.703526,-2.71437,-49.772465
599965555000.0,-6.354572544898154,0.8064702552022569,6.505301235440374,-0.01038471,-0.028405234,0.021991149,28.634005,-2.7484603,-49.670662
599970464000.0,-6.341085117863631,0.9098735729750408,6.406393828392464,-0.020158553,-0.0061086523,0.022602014,28.551813,-2.786145,-49.571873
599975484000.0,-6.390037728447357,0.9516395557968048,6.375796200409668,-0.020158553,0.02565634,0.023518313,28.47269,-2.8216982,-49.487854
599980508000.0,-6.445227757714052,0.9871188544448996,6.352143266038508,-0.034208454,0.061391957,0.013133603,28.397635,-2.850094,-49.41339
599985533000.0,-6.506557581408251,1.035869842792293,6.356164165045899,-0.043676864,0.096516706,0.00580322,28.311163,-2.8917503,-49.35291
599990490000.0,-6.573601944002824,1.0981253723494402,6.389686396348229,-0.062002823,0.1151481,-0.00061086525,28.228893,-2.9264011,-49.29914
599995455000.0,-6.643069721270161,1.1534452905443549,6.4068837,-0.0571159,0.13225232,-0.0009162979,28.14545,-2.9700632,-49.264477
600000508000.0,-6.716242713457661,1.202227166481855,6.4068837,-0.063224554,0.15271631,-0.004886922,28.066587,-3.005327,-49.236652
600005355000.0,-6.790394547508174,1.2326687537600318,6.41372112996136,-0.0711658,0.17195857,-0.004276057,27.978191,-3.04789,-49.213413
600010331000.0,-6.870660094719112,1.246833270791638,6.4278855976914695,-0.0729984,0.18692477,-0.010079277,27.89499,-3.0872705,-49.195045
600015369000.0,-6.951496339030363,1.2567406330460331,6.429077223614104,-0.08827003,0.19761491,-0.010995574,27.808912,-3.1232116,-49.186157
600020361000.0,-7.031097226003918,1.261423041038198,6.415030048530852,-0.082161374,0.21013765,-0.006414085,27.723726,-3.1618893,-49.181694
600025339000.0,-7.104597478768598,1.2621858302270947,6.404931050616679,-0.086437434,0.20586158,-0.0061086523,27.641962,-3.1968784,-49.183216
600030397000.0,-7.170979124285434,1.2574443018010963,6.400189571701253,-0.095294975,0.2003638,-0.0033597588,27.558302,-3.232732,-49.187042
600035332000.0,-7.234217798616601,1.2351998903162056,6.390266330237154,-0.105068825,0.19517145,0.00061086525,27.484135,-3.2625475,-49.199253
600040330000.0,-7.295704211996048,1.183172833972332,6.371347369229249,-0.0983493,0.1881465,0.004276057,27.410633,-3.293577,-49.20848
600045305000.0,-7.343532291130924,1.119963277625528,6.36207901645237,-0.095294975,0.18081611,0.0030543262,27.35475,-3.3149803,-49.21848
600050526000.0,-7.366995675832943,1.030802366757391,6.371464370333177,-0.10415252,0.16340645,0.009773844,27.295582,-3.3374076,-49.222694
600055429000.0,-7.386804931442595,0.9497648734496864,6.366834562121626,-0.098043874,0.15760323,0.016187929,27.25997,-3.3519402,-49.236042
600060467000.0,-7.399962258521953,0.8752066225524952,6.318591075293155,-0.11301007,0.14660765,0.015882496,27.225883,-3.3606815,-49.24249
600065631000.0,-7.413136628614316,0.7982576977999812,6.271776249892111,-0.103847094,0.14569137,0.007330383,27.220825,-3.3589735,-49.250206
600070392000.0,-7.421691867342152,0.7212604911830378,6.258943302467398,-0.106595986,0.13897185,0.0009162979,27.21565,-3.3528852,-49.252895
600075379000.0,-7.430653214860681,0.6406083026934984,6.2455011876161,-0.11453723,0.13591751,0.004276057,27.229206,-3.3352315,-49.269375
600080454000.0,-7.443919285385631,0.5704827687742787,6.2194435149726575,-0.106595986,0.1423316,0.00030543262,27.248217,-3.3176796,-49.28663
600085435000.0,-7.457412225457289,0.5030180308448049,6.192457728757307,-0.11484267,0.14263703,-0.008246681,27.267694,-3.2960176,-49.30095
600090416000.0,-7.456383715191211,0.4410328951859286,6.155027715370801,-0.10903945,0.1518,-0.015577064,27.29871,-3.274484,-49.328636
600095378000.0,-7.45136363473484,0.3807918825322205,6.114866809623917,-0.109650314,0.15882497,-0.025045475,27.333977,-3.2486026,-49.35549
600100383000.0,-7.430062454002781,0.3183135056586801,6.096207021318178,-0.10842858,0.16157386,-0.030543262,27.382093,-3.2126548,-49.39573
600105800000.0,-7.404609508528907,0.250438699421866,6.079238331940469,-0.115453534,0.17012598,-0.036651913,27.433464,-3.1738896,-49.438885
600110443000.0,-7.391396924714019,0.2183685143522213,6.0716953,-0.10323623,0.18203785,-0.044593163,27.50184,-3.1261492,-49.490593
600115474000.0,-7.387124344506518,0.2140960233705773,6.0716953,-0.10873401,0.19028452,-0.05375614,27.572315,-3.0736227,-49.54266
600120461000.0,-7.379171814785992,0.2152359371128404,6.075332248171207,-0.099571034,0.19425514,-0.06414085,27.661785,-3.0219457,-49.59527
600125488000.0,-7.35575616614786,0.2386515955311283,6.094064767081712,-0.09285152,0.20219639,-0.06780604,27.750778,-2.969633,-49.650288
600131353000.0,-7.33808070681046,0.2664372520475698,6.1100025,-0.080634214,0.20158553,-0.076052725,27.847212,-2.915441,-49.702843
600135485000.0,-7.343926671886542,0.2868981511789038,6.1100025,-0.06811147,0.20708331,-0.07360926,27.938894,-2.8654196,-49.75813
600140474000.0,-7.350985122942828,0.311602755672182,6.1100025,-0.065973446,0.20952678,-0.06811147,28.020351,-2.8198547,-49.807728
600145442000.0,-7.350791190044044,0.32561144,6.09951147511011,-0.06047566,0.20250183,-0.07849618,28.106936,-2.775325,-49.85547
600150428000.0,-7.341009376093414,0.32561144,6.075056940233536,-0.05131268,0.20647246,-0.07666359,28.184343,-2.736714,-49.90565
600155498000.0,-7.335834,0.32561144,6.0514169848373465,-0.04184427,0.21868975,-0.08093964,28.264885,-2.6935048,-49.95564
600160523000.0,-7.335834,0.32561144,6.0293055071678,-0.03573562,0.21960606,-0.07788532,28.340643,-2.6543896,-50.002373
600165469000.0,-7.342970850955414,0.3341756641273885,6.008525034140127,-0.03481932,0.21655174,-0.08124508,28.42398,-2.6111944,-50.051754
600170431000.0,-7.366253595492406,0.3621149672964233,5.989898887133758,-0.028405234,0.22632557,-0.077579886,28.501492,-2.5732906,-50.103836
600175416000.0,-7.388044752012163,0.3873990391200143,5.97268231904847,-0.023518313,0.23365596,-0.0852157,28.583755,-2.5311913,-50.15915
600180476000.0,-7.405379166249329,0.4047335619602933,5.95968144049365,-0.02076942,0.23426682,-0.08124508,28.658363,-2.4941163,-50.213844
600185530000.0,-7.425098538265305,0.421072146815339,5.947197,-0.017104227,0.2443461,-0.093767814,28.741486,-2.45398,-50.27605
600190498000.0,-7.503402836224489,0.4132417333722844,5.947197,-0.013133603,0.2489276,-0.090713486,28.815372,-2.419485,-50.335197
600195520000.0,-7.582558267857142,0.4053262067396313,5.947197,-0.023518313,0.25809056,-0.08246681,28.889702,-2.3831637,-50.400883
600201366000.0,-7.623487252084075,0.4121515389935875,5.924037145137158,-0.019242255,0.2678644,-0.08307768,28.965906,-2.3496454,-50.46674
600205497000.0,-7.634057726113288,0.4227220203811899,5.899372705735661,-0.025045475,0.2657264,-0.08857546,29.040201,-2.3138185,-50.530273
600210439000.0,-7.650656780220894,0.4276103844178741,5.858410971425677,-0.025961773,0.2593123,-0.08002335,29.106682,-2.2831416,-50.610477
600215495000.0,-7.675188293444118,0.4177977688823588,5.7946290370452935,-0.017104227,0.2706133,-0.074830994,29.176384,-2.251891,-50.69337
600220399000.0,-7.702274736658933,0.4077697556148492,5.7489394640371225,-0.02687807,0.27275133,-0.079107046,29.243015,-2.221637,-50.776962
600225431000.0,-7.735817900773395,0.3965886671817478,5.7303043296210365,-0.03023783,0.27214047,-0.07727446,29.304361,-2.196971,-50.860733
600231591000.0,-7.776867834043636,0.3826966353170897,5.707526584939298,-0.029321533,0.26145032,-0.07696902,29.37131,-2.1678097,-50.9553
600235503000.0,-7.802312805195687,0.3636129501281942,5.694804198998217,-0.04062254,0.2611449,-0.07513642,29.436579,-2.137015,-51.05021
600240476000.0,-7.834658879208761,0.3393534495033534,5.6786312886492905,-0.040011674,0.25686884,-0.07391469,29.501352,-2.1080651,-51.152573
600245413000.0,-7.871303582552892,0.3174683186924696,5.647076312243056,-0.057726767,0.24923302,-0.064446285,29.561764,-2.076546,-51.25112
600250425000.0,-7.914619514890203,0.2982167507710819,5.594134254206358,-0.050396383,0.2507602,-0.06780604,29.627426,-2.047527,-51.348785
600255514000.0,-7.950831848822096,0.2669006492336853,5.56703936057406,-0.058948494,0.24312437,-0.06169739,29.691833,-2.0163088,-51.44772
600260510000.0,-7.976743373517466,0.2215553913918223,5.573517182561603,-0.06078109,0.23426682,-0.06872234,29.763866,-1.9843855,-51.544495
600265470000.0,-8.00246818586515,0.1765368808042242,5.579948326888708,-0.069027774,0.21655174,-0.062002823,29.841734,-1.9455448,-51.64581
600270647000.0,-8.031344881797425,0.1428570167797841,5.583278,-0.07422013,0.21105394,-0.05681047,29.923153,-1.9058204,-51.745674
600275512000.0,-8.060355650269821,0.1235165566355334,5.583278,-0.07819075,0.21380283,-0.047036625,29.999239,-1.868223,-51.840313
600280473000.0,-8.073248,0.1048994411627907,5.587286976744186,-0.084910266,0.19547687,-0.04917465,30.092876,-1.8181291,-51.933167
600285595000.0,-8.073248,0.0865593528011665,5.594623160696927,-0.08857546,0.18967366,-0.046120327,30.17872,-1.7722924,-52.027702
600290413000.0,-8.073248,0.069307781983848,5.601523928811785,-0.08460484,0.19242255,-0.047036625,30.267717,-1.726747,-52.123642
600295440000.0,-8.073248,0.0584909924201117,5.602432,-0.083383106,0.1853976,-0.048563786,30.355404,-1.6816478,-52.212757
600300406000.0,-8.073248,0.0488295534167597,5.602432,-0.08277224,0.17592919,-0.0421497,30.439272,-1.6397005,-52.299595
600305541000.0,-8.062211846734213,0.0423659589683026,5.6107091329553205,-0.07666359,0.17165314,-0.035430185,30.52245,-1.5960808,-52.3876
600310536000.0,-8.050354332093946,0.0364372055173824,5.619602288281589,-0.07269296,0.17654006,-0.03359759,30.604347,-1.553559,-52.47335
600315469000.0,-8.038643997815578,0.0305820421993865,5.628385058096301,-0.07360926,0.16462818,-0.03176499,30.67668,-1.5170472,-52.55548
600320419000.0,-8.02689330763153,0.0247067009417177,5.6371980949061165,-0.06719518,0.15943582,-0.027488936,30.746525,-1.4841918,-52.638702
600325417000.0,-8.015028671360847,0.0187743866779141,5.646096591466816,-0.071776666,0.15668693,-0.028405234,30.817308,-1.441052,-52.721066
600330485000.0,-8.002997863713825,0.0127589867801636,5.655119716830886,-0.06719518,0.15302174,-0.025961773,30.884184,-1.403307,-52.799503
600335491000.0,-7.987457295590357,0.0164589650980836,5.655304897795179,-0.06414085,0.15302174,-0.024740042,30.942633,-1.3716978,-52.87978
600340845000.0,-7.966326371543375,0.0323071691656707,5.644739435771688,-0.060170226,0.14844026,-0.03176499,31.00384,-1.3403574,-52.955734
600345437000.0,-7.945967454809821,0.0556096600795934,5.633323974159791,-0.057421334,0.1441642,-0.025961773,31.048904,-1.3127073,-53.028687
600350429000.0,-7.921914684755484,0.0892836351023344,5.618892081062588,-0.058948494,0.14844026,-0.027488936,31.100605,-1.2823794,-53.101032
600355499000.0,-7.901724133631254,0.1192941152935202,5.589341071027151,-0.056505036,0.14966199,-0.030543262,32.826977,-1.2509913,-53.16935
600360749000.0,-7.884702602044824,0.1465285836055251,5.54508501780757,-0.048258353,0.1518,-0.029626964,32.83844,-1.221659,-53.237293
600365439000.0,-7.869496700494278,0.1708580419642494,5.505549610264744,-0.040011674,0.14446963,-0.031154128,32.847263,-1.1986773,-53.30211
600370441000.0,-7.8625584,0.1875166730474452,5.481952717883212,-0.04520403,0.14630222,-0.038789943,32.856304,-1.1740763,-53.36842
600375531000.0,-7.8625584,0.1974002775587996,5.472069221735604,-0.047647487,0.14049901,-0.029321533,32.865543,-1.1553457,-53.428604
600380457000.0,-7.870813254680648,0.2093678004270734,5.4683566,-0.04917465,0.13683382,-0.032986723,32.876728,-1.1338307,-53.49299
600385599000.0,-7.884896354470925,0.2234509100209723,5.4683566,-0.050701816,0.1337795,-0.03481932,32.885838,-1.1148453,-53.55409
600390442000.0,-7.888828407700184,0.2273829651310669,5.458515030800737,-0.0421497,0.1301143,-0.03573562,32.896873,-1.0939033,-53.611664
600395428000.0,-7.883939003153799,0.2224935554792136,5.438957412615196,-0.047647487,0.13530666,-0.03176499,32.904236,-1.0715235,-53.669373
600400529000.0,-7.893901594315014,0.2275803116803094,5.4300494,-0.043066,0.14508049,-0.032986723,32.909443,-1.0481262,-53.729855
600405455000.0,-7.915119241521993,0.2403109088666007,5.4300494,-0.048563786,0.13439035,-0.041233405,32.91214,-1.0219684,-53.784386
600410443000.0,-7.926512395487829,0.2459133638778943,5.428507597743915,-0.04886922,0.13194689,-0.04337143,32.91898,-0.9980733,-53.843918
600415442000.0,-7.917037940075203,0.2364389035187017,5.423770370037602,-0.05009095,0.13072516,-0.043066,32.925777,-0.9723888,-53.899284
600420394000.0,-7.907724110451214,0.2203293409024296,5.424550034323178,-0.05589417,0.13133603,-0.03848451,32.931915,-0.94572353,-53.953217
600425411000.0,-7.898459396683378,0.1879028233667566,5.438447104974933,-0.050396383,0.1423316,-0.03940081,32.941647,-0.9202393,-54.008442
600430460000.0,-7.88418822052301,0.1583678541197043,5.459853869215483,-0.042455133,0.13744467,-0.03940081,32.94197,-0.8906959,-54.061928
600435461000.0,-7.853733676814244,0.1393337484015579,5.505535684778635,-0.050701816,0.13103059,-0.03573562,32.93992,-0.86080605,-54.11653
600440527000.0,-7.822883303203243,0.1200522487878547,5.551811245195136,-0.046731193,0.13683382,-0.026572637,32.938396,-0.8342166,-54.174393
600445421000.0,-7.792041378920309,0.1084550778543273,5.57705786101114,-0.055283304,0.13469578,-0.0290161,32.93403,-0.80312586,-54.2267
600450533000.0,-7.759413064267353,0.0991326666392459,5.59570276520994,-0.04795292,0.14049901,-0.035430185,32.933945,-0.7772763,-54.281384
600456376000.0,-7.740954244785758,0.0723788938532158,5.605773238048696,-0.035430185,0.14446963,-0.035430185,32.931393,-0.7565551,-54.323956
600460547000.0,-7.733982315821625,0.0479776360537568,5.609259056933415,-0.04428773,0.13836098,-0.027794369,32.925865,-0.734396,-54.36409
600465466000.0,-7.731698029984543,0.0303379025969088,5.6120086,-0.03573562,0.14172074,-0.027488936,32.921482,-0.7118998,-54.40308
600470468000.0,-7.741570086450284,0.0352738313567233,5.6120086,-0.029626964,0.1386664,-0.030543262,32.9143,-0.68921506,-54.43738
600475414000.0,-7.746029383070302,0.0399148111965566,5.607185816355811,-0.02321288,0.14538592,-0.021685716,32.903687,-0.6617773,-54.47464
600480491000.0,-7.741669409164276,0.0442746963279232,5.594106076739599,-0.02321288,0.1459968,-0.023518313,32.895866,-0.6319939,-54.508358
600485483000.0,-7.740428929417912,0.0470943884484272,5.585646945908663,-0.021685716,0.14874569,-0.027183503,32.8876,-0.602292,-54.54325
600490493000.0,-7.755471180854843,0.0420803020182882,5.600689302058732,-0.024129177,0.15302174,-0.022296581,32.87781,-0.5743943,-54.577732
600495429000.0,-7.765869371560541,0.0438334011951501,5.608324486242164,-0.017104227,0.16340645,-0.028405234,32.87963,-0.55020833,-54.613247
600500494000.0,-7.761868506169581,0.0678386089982679,5.592321024678324,-0.014966198,0.1591304,-0.03604105,32.879585,-0.5262358,-54.644836
600506684000.0,-7.757699096270376,0.0955253132286421,5.571759394640266,-0.01038471,0.16432275,-0.03359759,32.88036,-0.5007497,-54.67922
600510491000.0,-7.763922275736109,0.0924136897048732,5.546866416847315,-0.014966198,0.1572978,-0.04062254,32.882694,-0.47089988,-54.708122
600515443000.0,-7.772017149577537,0.0883662088302466,5.514486583374584,-0.01160644,0.1563815,-0.042760566,32.88154,-0.44458318,-54.741486
600520427000.0,-7.785019220729217,0.092680396184735,5.501413087778317,-0.009468411,0.16768251,-0.04153884,32.880043,-0.4172881,-54.7755
600526326000.0,-7.806990572464755,0.1091588354244044,5.512398706290714,-0.009468411,0.17073683,-0.044593163,32.88026,-0.38950223,-54.806095
600530457000.0,-7.8276770033389615,0.1130641652372913,5.503237996661039,-0.019242255,0.16982053,-0.04642576,32.883026,-0.3597971,-54.84321
600535508000.0,-7.859435296117051,0.1085272662689926,5.471479703882949,-0.017104227,0.17287487,-0.05222898,32.890064,-0.33117124,-54.881363
600540462000.0,-7.897296339779986,0.1101400793807665,5.4384138320617454,-0.022602014,0.16798794,-0.050701816,32.89119,-0.30611432,-54.918064
600545413000.0,-7.951979590134847,0.1269657577182399,5.400556163413769,-0.022296581,0.17287487,-0.048563786,32.895367,-0.2818284,-54.95744
600550555000.0,-8.007704549735138,0.1436521,5.362077913730766,-0.021991149,0.16584991,-0.050701816,32.901543,-0.25648984,-55.001278
600555484000.0,-8.039457289582106,0.1436521,5.342232606743463,-0.03268129,0.16768251,-0.049480084,32.904682,-0.23129728,-55.0478
600560674000.0,-8.072891397881106,0.1436521,5.321336452703271,-0.032070424,0.16126843,-0.04642576,32.91448,-0.2062713,-55.09917
600565448000.0,-8.102588165556874,0.1464754375827784,5.320774610307398,-0.03726278,0.15332718,-0.04337143,32.92059,-0.17953524,-55.149235
600570438000.0,-8.133101221289794,0.1508344891106449,5.329492613226306,-0.043066,0.14782938,-0.05375614,32.92876,-0.15103103,-55.196873
600575485000.0,-8.166181433770552,0.1511889946240532,5.330201616109366,-0.043982297,0.14477506,-0.050701816,32.938313,-0.12810884,-55.249657
600580472000.0,-8.20147415545908,0.1467774343552558,5.321378596914834,-0.051618114,0.14446963,-0.04734206,32.946888,-0.10146166,-55.300343
600585450000.0,-8.22924543903171,0.1422678371211363,5.308206685605682,-0.04550946,0.14202617,-0.045814894,32.9586,-0.078130566,-55.350445
600590460000.0,-8.238843971591477,0.1374684204961488,5.284209602480744,-0.060170226,0.13041973,-0.043676864,32.96333,-0.05173954,-55.39651
600596209000.0,-8.248584079524807,0.1281672587804332,5.26872099349406,-0.05589417,0.13439035,-0.048258353,32.97282,-0.024643322,-55.45233
600600427000.0,-8.254229891684137,0.1168758596575821,5.271543811146052,-0.06688975,0.12461651,-0.040317107,32.97327,0.0030940757,-55.499493
600605555000.0,-8.26109374297694,0.1031484308519916,5.274975629287212,-0.076358154,0.12797627,-0.03573562,32.97931,0.032514267,-55.554253
600610538000.0,-8.264784,0.0844687863355123,5.267404641342757,-0.07391469,0.11789699,-0.040011674,32.98611,0.061232653,-55.601
600615474000.0,-8.264784,0.0594134249015901,5.246525186925795,-0.07941248,0.111177474,-0.04062254,32.98791,0.09004412,-55.648304
600620431000.0,-8.260567076523383,0.0364999836068335,5.2289367,-0.087659165,0.10873401,-0.040927973,32.993084,0.11743493,-55.695232
600625426000.0,-8.234204707605102,0.0252018850475515,5.2289367,-0.08246681,0.106595986,-0.040927973,33.00054,0.14289708,-55.739124
600630484000.0,-8.207509840340105,0.0137612879478822,5.2289367,-0.086132,0.10598512,-0.03390302,33.00252,0.17474383,-55.78778
600635496000.0,-8.200365591176471,-0.0035208846529411,5.234175772941176,-0.086437434,0.10293079,-0.032070424,33.007763,0.20555411,-55.83386
600640481000.0,-8.20449546531142,-0.0241698387610726,5.242435348719724,-0.083383106,0.10476339,-0.029321533,33.012066,0.23369642,-55.879944
600645415000.0,-8.207323,-0.038307227,5.246605456697248,-0.09468412,0.09712757,-0.028099801,33.01493,0.2624262,-55.91826
600650557000.0,-8.207323,-0.038307227,5.24158569058104,-0.086437434,0.095294975,-0.030848695,33.023697,0.28710642,-55.957718
600655455000.0,-8.20342117497867,-0.039607854127511,5.242415392926394,-0.087659165,0.1020145,-0.020158553,33.024494,0.31158197,-55.999317
600660592000.0,-8.191974187466068,-0.043423571748313,5.253862579655627,-0.0852157,0.10323623,-0.021991149,33.030907,0.33705723,-56.03778
600665736000.0,-8.18051160156674,-0.0472444889064608,5.265325365043046,-0.089186326,0.1001819,-0.022296581,33.03641,0.3573484,-56.076767
600670459000.0,-8.188826836930456,-0.047884032,5.260421311437004,-0.0842994,0.098043874,-0.017104227,33.04433,0.37447712,-56.115353
600675476000.0,-8.202121285371703,-0.047884032,5.251558176139089,-0.0888809,0.08155051,-0.020463986,33.05072,0.39536095,-56.147957
600681760000.0,-8.228579088350113,-0.047884032,5.235336691380727,-0.07971791,0.0842994,-0.016187929,33.054173,0.41059005,-56.184216
600685649000.0,-8.247710059790426,-0.047884032,5.223858148469283,-0.089186326,0.08093964,-0.017104227,33.053745,0.4310308,-56.213177
600690454000.0,-8.258335137083126,-0.0603963281740169,5.209975752065704,-0.08827003,0.082161374,-0.013133603,33.056103,0.4448999,-56.248302
600695416000.0,-8.263065955798906,-0.0793192216868093,5.195783542906919,-0.0852157,0.083383106,-0.01863139,33.058693,0.46196738,-56.281517
600700494000.0,-8.273184524812567,-0.097392124466262,5.179428644305605,-0.07269296,0.086437434,-0.017715093,33.05628,0.47528672,-56.324814
600705482000.0,-8.285975067475901,-0.1144464321456622,5.162374349982149,-0.08460484,0.07819075,-0.023823744,33.051205,0.49455705,-56.36397
600710490000.0,-8.293514,-0.1305304198030457,5.1523223,-0.08093964,0.08002335,-0.021685716,33.05367,0.5070969,-56.41069
600715447000.0,-8.293514,-0.1449889672081218,5.1523223,-0.081855945,0.07574729,-0.018020526,33.053345,0.522929,-56.452072
600720446000.0,-8.293514,-0.1552960252640985,5.158523639316918,-0.07819075,0.07788532,-0.011911872,33.05437,0.54020506,-56.500935
600725425000.0,-8.293514,-0.1600302326697776,5.172726246703733,-0.07666359,0.070554934,-0.0076358155,33.054844,0.55706614,-56.54457
600730484000.0,-8.295396154467811,-0.1609236028726237,5.1810527,-0.07819075,0.07544186,-0.005497787,33.052074,0.5794677,-56.591343
600735679000.0,-8.29996521636514,-0.1563546316218201,5.1810527,-0.076358154,0.0711658,0.00030543262,33.049725,0.5986248,-56.63224
600740494000.0,-8.298259521004201,-0.1556446633716743,5.182260576055211,-0.06352998,0.062002823,0.0027488936,33.04761,0.6140526,-56.673046
600745474000.0,-8.279178818863773,-0.1651850692328465,5.187030776495299,-0.067500606,0.06688975,0.0033597588,33.04179,0.6304588,-56.71546
600750516000.0,-8.263654968348625,-0.1757695465779816,5.187242463990826,-0.052839845,0.06352998,0.009162978,33.041615,0.6407525,-56.751976
600755472000.0,-8.25930050853211,-0.1888326623137614,5.174179311880734,-0.055283304,0.06261369,0.01160644,33.037254,0.65464604,-56.789474
600760588000.0,-8.256467765315922,-0.2002724176483579,5.163159787257538,-0.049480084,0.062002823,0.019242255,33.03629,0.6653881,-56.821712
600765518000.0,-8.270068581524871,-0.1912050758680622,5.176760840167082,-0.04184427,0.059864793,0.013439035,33.03725,0.67852426,-56.852303
600770996000.0,-8.2846825298179,-0.1827048446379563,5.1906295,-0.03848451,0.057421334,0.017104227,33.032715,0.695864,-56.883408
600775503000.0,-8.292132868818504,-0.1901550319401053,5.1906295,-0.034513887,0.06352998,0.018936822,33.03174,0.7132183,-56.915466
600780458000.0,-8.300323778458617,-0.1983457748027962,5.1906295,-0.03176499,0.055588737,0.018325957,33.02974,0.7305657,-56.940075
600785482000.0,-8.296242254135981,-0.197688635004803,5.1906295,-0.023823744,0.055283304,0.014966198,33.03044,0.7462362,-56.967823
600790504000.0,-8.285975268545203,-0.1925552440537944,5.1906295,-0.02321288,0.04917465,0.01863139,33.029354,0.76063484,-56.99101
600795434000.0,-8.283937,-0.1692685721726278,5.198051976647945,-0.02107485,0.05222898,0.017715093,33.029026,0.7789806,-57.018436
600800497000.0,-8.283937,-0.1406032669908365,5.207607023499852,-0.013133603,0.04642576,0.015577064,33.030174,0.79523027,-57.04093
600805541000.0,-8.283937,-0.1122604739890721,5.217054640813738,-0.0067195175,0.03023783,0.02076942,33.02915,0.81363255,-57.057228
600810509000.0,-8.283937,-0.0844074656050346,5.226339017982243,-0.018325957,0.03390302,0.020463986,33.027096,0.83483565,-57.07701
600815484000.0,-8.276994279575328,-0.0627285683786653,5.21157935520728,-0.008857546,0.03176499,0.022296581,33.02435,0.84813213,-57.089382
600820456000.0,-8.267365491304348,-0.0434703749869565,5.187506630434783,-0.002443461,0.023823744,0.022907447,33.018593,0.8634958,-57.100735
600825474000.0,-8.246943930491197,-0.0323605538257645,5.172132696292864,-0.014660766,0.01038471,0.014049901,33.001343,0.87758803,-57.113552
600830503000.0,-8.222597197910524,-0.0242449990379138,5.15995937237341,-0.01038471,0.00061086525,0.018020526,32.98798,0.8845249,-57.12476
600835523000.0,-8.209204700906026,-0.019153614,5.142913933006742,0.0015271631,0.00580322,0.014660766,32.972095,0.89359564,-57.140965
600840515000.0,-8.21424140381374,-0.019153614,5.117730786609776,-0.0015271631,0.002443461,0.013133603,32.953186,0.9025563,-57.15151
600845436000.0,-8.214771777777779,-0.0234099724444444,5.108694311111111,-0.004276057,0.0061086523,0.009468411,32.941162,0.9084362,-57.16225
600851373000.0,-8.209244544473608,-0.034464215701079,5.119748431437737,-0.009162978,0.005192355,0.018325957,32.926506,0.91222394,-57.170494
600855477000.0,-8.203256023384915,-0.0545753717033516,5.127658504017764,-0.014966198,0.008552114,0.013133603,32.912113,0.9274333,-57.1829
600860528000.0,-8.193186269030601,-0.0948549790056207,5.1377285738186105,-0.010995574,0.0067195175,0.013439035,32.897144,0.93794805,-57.19329
600865466000.0,-8.183341793282908,-0.1342334586846159,5.147573357955728,-0.0012217305,0.004581489,0.009773844,32.889397,0.953144,-57.197105
600870429000.0,-8.18620381083855,-0.163376804367238,5.157396271025352,0.004886922,0.0009162979,0.020463986,32.87977,0.96418387,-57.199974
600875527000.0,-8.201236710356154,-0.1834209599209689,5.167418395894488,0.0030543262,0.013744468,0.021991149,32.872734,0.97750133,-57.20677
600880523000.0,-8.214822675925927,-0.1965359887820512,5.168976021011396,0.0021380284,0.013744468,0.020463986,32.86824,0.9992321,-57.203987
600885929000.0,-8.228650523148149,-0.2057546915705128,5.164366578169516,0.003970624,0.0021380284,0.022602014,32.86337,1.0188301,-57.20162
600890444000.0,-8.236053,-0.218222746546972,5.164912213092003,0.02076942,-0.0009162979,0.02443461,32.866592,1.0364053,-57.20116
600895461000.0,-8.236053,-0.2415373940954968,5.174238116906056,0.016187929,0.0021380284,0.01985312,32.865803,1.0573663,-57.19924
600900415000.0,-8.24467886853147,-0.2536447291048951,5.185981751188812,0.018020526,0.008552114,0.02107485,32.87007,1.0728395,-57.2012
600906540000.0,-8.285698623776224,-0.2302049965874125,5.209421532657343,0.024740042,-0.002443461,0.0125227375,32.87662,1.0911427,-57.19898
600910516000.0,-8.305058476052142,-0.2192828325176908,5.218376261973929,0.02321288,0.0021380284,0.021380283,32.87742,1.1085209,-57.20402
600915480000.0,-8.312140819143389,-0.2157417349236499,5.214835090428306,0.02321288,-0.002443461,0.019242255,32.883186,1.128684,-57.203197
600921326000.0,-8.320481547932962,-0.2115714576201117,5.210664726033519,0.027488936,-0.008246681,0.014049901,32.890945,1.1404206,-57.20328
600925457000.0,-8.312574468085106,-0.2010194124651203,5.212200632978723,0.023518313,-0.004581489,0.01985312,32.895313,1.1509368,-57.20495
600931658000.0,-8.291860489361703,-0.180305850097663,5.217379127659575,0.032070424,-0.0009162979,0.019242255,32.90542,1.1612775,-57.20498
600935525000.0,-8.282571739652871,-0.1751132702336448,5.21936,0.031154128,-0.009162978,0.019242255,32.912674,1.1648016,-57.20792
600940442000.0,-8.278081448598131,-0.1840946072897196,5.21936,0.047036625,-0.021685716,0.026267206,32.925014,1.1628401,-57.21067
600945557000.0,-8.277409745183487,-0.1907739397247706,5.21936,0.04062254,-0.013133603,0.022296581,32.929832,1.1579427,-57.21925
600950503000.0,-8.291894945642202,-0.1871526207033639,5.21936,0.046120327,-0.02565634,0.027794369,32.93872,1.1451668,-57.218353
600955432000.0,-8.306330358715597,-0.1835437485932721,5.21936,0.04917465,-0.03390302,0.027488936,32.945484,1.1328546,-57.225224
600960754000.0,-8.326530024933541,-0.1791869800155834,5.202725859565496,0.05467244,-0.04337143,0.026267206,32.953335,1.1187195,-57.22803
600965482000.0,-8.34728355687964,-0.1750363559730497,5.177822054633789,0.05222898,-0.035124753,0.028405234,32.95939,1.1051137,-57.2335
600970429000.0,-8.370226332213354,-0.1704478535573288,5.150290960940781,0.043982297,-0.040011674,0.038789943,32.96762,1.0890213,-57.23258
600975523000.0,-8.395837535069298,-0.1653256129861402,5.119557410541789,0.040927973,-0.04795292,0.037873644,32.977673,1.0752628,-57.233006
600980523000.0,-8.403915887374596,-0.1515031650350179,5.108958971001325,0.05100725,-0.04734206,0.03970624,32.988247,1.0515717,-57.246098
600985828000.0,-8.394299005867879,-0.127461443267083,5.118575551258754,0.04337143,-0.053145275,0.03390302,32.99493,1.0339222,-57.25466
600990602000.0,-8.382003182842535,-0.10764181989376,5.130871331180759,0.03970624,-0.05375614,0.032986723,33.007523,1.0098181,-57.272446
600995447000.0,-8.364429334248651,-0.0900678676193542,5.148445455032667,0.041233405,-0.051618114,0.038179077,33.019314,0.98687184,-57.288895
601000420000.0,-8.347364984388982,-0.0657816257307348,5.158287984388983,0.04153884,-0.05589417,0.034513887,33.03692,0.96286297,-57.29503
