timestamp,acc_x,acc_y,acc_z,gyro_x,gyro_y,gyro_z,ori_azimuth,ori_pitch,ori_roll
2088609013000.0,2.2245750823981565,9.647025977453143,0.1860929922329422,-1.1673635,0.7480045,0.038789943,16.713974,-24.251352,-19.894537
2088614021000.0,2.221789261193076,9.648651022450046,0.1819142648371863,-1.1673635,0.75228053,0.036651913,16.712809,-24.283737,-19.28618
2088619012000.0,2.2190128966494345,9.650270551120084,0.1777497224186125,-1.17897,0.7538077,0.03756821,16.130575,-24.637836,-19.090311
2088624024000.0,2.216224850347545,9.651896894076248,0.1735676573811667,-1.1896601,0.7611381,0.028710667,15.563105,-24.994196,-18.897863
2088629041000.0,2.2134340226746434,9.653524859481491,0.1693814202916085,-1.201572,0.75136423,0.036957346,15.005247,-25.352077,-18.698355
2088634028000.0,2.210659883227811,9.655143090192263,0.1652202155147246,-1.1972959,0.74128497,0.03176499,14.464244,-25.712215,-18.502684
2088639009000.0,2.207889081426192,9.656759373964142,0.1610640172003756,-1.178359,0.75686204,0.024129177,13.930859,-26.076565,-18.309437
2088644055000.0,2.205082121801425,9.65839674957404,0.1568535822085656,-1.1780536,0.77274454,0.03268129,13.406918,-26.440868,-18.111303
2088648973000.0,2.2023463652745505,9.659992590487532,0.1527499517508325,-1.1963795,0.7901542,0.035430185,12.894615,-26.806517,-17.918173
2088654049000.0,2.199522717423714,9.6616397007919,0.1485144844463483,-1.2198979,0.79320854,0.03604105,12.390459,-27.173943,-17.723341
2088659084000.0,2.196721876815172,9.663273507013823,0.1443132279691856,-1.2321151,0.768163,0.06658431,11.888978,-27.544966,-17.520023
2088663974000.0,2.194001695965962,9.664860262212477,0.1402329610032818,-1.2217305,0.7669413,0.054367006,11.404006,-27.913834,-17.328056
2088668971000.0,2.1912219937771065,9.666481737821409,0.1360634121221731,-1.2449434,0.7528914,0.057421334,10.921998,-28.276606,-17.119091
2088673966000.0,2.188443404136656,9.668102564450706,0.1318955320619094,-1.2400564,0.74006325,0.06811147,10.450256,-28.651007,-16.90957
2088679991000.0,2.185091852067844,9.67005761559015,0.1268682092664962,-1.2412782,0.71776664,0.079107046,9.990145,-29.01925,-16.692678
2088683994000.0,2.182865086436067,9.671356548322295,0.1235280643453279,-1.244027,0.70738196,0.08460484,9.537637,-29.390123,-16.473791
2088689080000.0,2.1800358758432075,9.673006903524822,0.119284252936619,-1.244027,0.68966687,0.10170906,9.092633,-29.764437,-16.243351
2088693975000.0,2.1773129136229863,9.674595281172554,0.1151998139186028,-1.2492194,0.6462954,0.10781772,8.66329,-30.136803,-16.00407
2088698973000.0,2.1745326551599287,9.676217081271298,0.1110294306270717,-1.208597,0.58276546,0.105068825,8.246408,-30.522858,-15.75364
2088704128000.0,2.171665061647111,9.677889826271104,0.1067280448992119,-1.1087204,0.5180137,0.10629055,7.8427167,-30.924742,-15.49038
2088709039000.0,2.1689331990396528,9.679483395755886,0.1026302553144361,-0.9822713,0.44501534,0.10354166,7.4609594,-31.344204,-15.210521
2088714012000.0,2.1661668474316524,9.68109708360924,0.0984807322834669,-0.8594874,0.38606682,0.10140363,7.0958447,-31.789494,-14.9179945
2088719051000.0,2.163363781726301,9.682732187790428,0.0942761381646143,-0.71959925,0.3399465,0.103847094,6.7491393,-32.273067,-14.610632
2088724038000.0,2.1605896422794686,9.6843504185012,0.0901149333877304,-0.6001751,0.27122417,0.053145275,6.4386315,-32.778423,-14.292676
2088729066000.0,2.157792695590342,9.685981953294416,0.085919517783525,-0.45478916,0.025350908,0.03756821,6.189488,-33.32595,-13.875907
2088734221000.0,2.1549251020775246,9.687654698294224,0.0816181320556652,-0.0070249503,0.013744468,0.038179077,5.9313703,-33.98412,-13.504309
2088739039000.0,2.1522449729708795,9.689218090226149,0.0775979426401796,0.03970624,0.04184427,0.037873644,5.722592,-34.567596,-13.0880575
2088743998000.0,2.149486409201711,9.69082723522208,0.073460101355125,-0.0067195175,0.05955936,0.038789943,5.5280704,-35.24445,-12.667194
2088749546000.0,2.1464001999273927,9.692627504719448,0.0688307923312325,-0.008246681,0.057421334,0.035124753,5.343981,-35.941666,-12.2500105
2088754107000.0,2.143863033290737,9.694107502768745,0.0650250463943231,0.0018325958,0.054061573,0.04337143,5.164363,-36.62559,-11.835552
2088759063000.0,2.141106138344176,9.69571567429523,0.0608897083405359,0.01160644,0.05009095,0.041233405,4.9985905,-37.3031,-11.424243
2088764034000.0,2.13834089928458,9.697328713168952,0.0567418541304116,0.021380283,0.0580322,0.03481932,4.8401947,-37.978542,-11.015721
2088769028000.0,2.1355628659183314,9.698949215308437,0.0525748084805704,0.028710667,0.053145275,0.027794369,4.6951127,-38.65046,-10.605702
2088774045000.0,2.1327720382454305,9.700577180713678,0.0483885713910122,0.044898596,0.050701816,0.024129177,4.5581765,-39.321754,-10.200456
2088779113000.0,2.129952840588212,9.70222169509952,0.0441597793699078,0.04520403,0.056199603,0.021380283,4.4311247,-39.98443,-9.79907
2088784149000.0,2.1271514437054675,9.70385582581126,0.0399576884823226,0.05009095,0.043982297,0.024740042,4.316252,-40.646988,-9.395102
2088789042000.0,2.124429594033651,9.70544355447936,0.0358749182851514,0.047036625,0.062002823,0.020463986,4.205407,-41.30052,-9.003178
2088794038000.0,2.1216504481189977,9.707064705598476,0.0317062038144652,0.06291912,0.0571159,0.008246681,4.1107106,-41.95403,-8.60726
2088799037000.0,2.118869633381738,9.708686830187036,0.0275349861125116,0.05222898,0.061391957,0.01740966,4.0152035,-42.593586,-8.216486
2088804074000.0,2.116067680224791,9.710321285388591,0.0233320608145039,0.044898596,0.051923547,0.014966198,3.9363294,-43.2304,-7.8292823
2088809047000.0,2.1133013286167905,9.711934973241943,0.0191825377835346,0.05131268,0.059864793,0.017715093,3.8577776,-43.861927,-7.446728
2088814035000.0,2.110526632895756,9.713553528442532,0.0150204985962283,0.047036625,0.04795292,0.028099801,3.7915652,-44.481544,-7.060246
2088819278000.0,2.1076100872531365,9.71525482854612,0.0106456847511907,0.036957346,0.055283304,0.031154128,3.728035,-45.093834,-6.6834536
2088824046000.0,2.104957771856606,9.71680199598726,0.0066672158568289,0.032070424,0.04886922,0.032375857,3.6751258,-45.69939,-6.303186
2088829077000.0,2.102159156344873,9.718434504249922,0.0024692970213561,0.030848695,0.04917465,0.03756821,3.6248076,-46.295933,-5.9278054
2088834080000.0,2.099376116510804,9.720057926797748,-0.0017052583222874,0.013133603,0.051618114,0.043066,3.5817766,-46.878853,-5.5548954
2088839031000.0,2.096622002935254,9.721664475875157,-0.0058364243239621,0.017715093,0.051618114,0.04428773,3.5455196,-47.460045,-5.1851363
2088843984000.0,2.0938667768112995,9.723271673932194,-0.0099692591464819,0.006414085,0.04886922,0.04337143,3.5149767,-48.024044,-4.81849
2088849032000.0,2.0910587046381277,9.724909698521724,-0.0141813629591368,-0.00061086525,0.049480084,0.05009095,3.488139,-48.582973,-4.454531
2088854010000.0,2.088289571659115,9.726525008824156,-0.0183350580422184,-0.0021380284,0.043676864,0.049785517,3.4707034,-49.132042,-4.094585
2088859042000.0,2.08549039987318,9.728157841576634,-0.0225338112881137,0.0061086523,0.045814894,0.04062254,3.4575098,-49.67386,-3.7408538
2088863979000.0,2.0827440741364622,9.729759847796624,-0.0266532955438739,-0.0076358155,0.043676864,0.05009095,3.4486678,-50.201447,-3.3854487
2088868985000.0,2.079959365479786,9.731384243813894,-0.0308303541187848,-0.017715093,0.023823744,0.049785517,3.452123,-50.723778,-3.0356221
2088873961000.0,2.077191345049179,9.732998905136697,-0.0349823803810215,-0.010079277,0.026267206,0.044593163,3.4554198,-51.239258,-2.6927977
2088879033000.0,2.074369922295152,9.7346447174818,-0.0392145100438158,-0.014660766,0.017715093,0.038179077,3.470872,-51.74021,-2.3492503
2088884028000.0,2.071591332654701,9.736265544111095,-0.0433823901040795,-0.016187929,0.019547688,0.030543262,3.4893768,-52.235943,-2.0139275
2088889384000.0,2.068611928027223,9.738003511563855,-0.0478514923268568,-0.01985312,0.020463986,0.021991149,3.5159001,-52.721485,-1.6831403
2088893974000.0,2.0660586294387,9.739492919817804,-0.051681436166018,-0.015882496,0.0125227375,0.021380283,3.5483897,-53.200653,-1.3556243
2088898962000.0,2.0632839337176656,9.741111475018393,-0.0558434753533244,-0.0033597588,0.018325957,0.01740966,3.58377,-53.67297,-1.0378938
2088904030000.0,2.060464736060448,9.742755989404236,-0.0600722673744288,-0.00580322,0.016493361,0.01160644,3.6271718,-54.13403,-0.7226638
2088909029000.0,2.0576839213231874,9.744378113992797,-0.0642434850763824,-0.0018325958,0.019242255,0.016798794,3.6708577,-54.592396,-0.41210803
2088913983000.0,2.054928138925031,9.745985636539652,-0.0683771543093246,0.009162978,0.010079277,0.0070249503,3.7248893,-55.043907,-0.10868726
2088918969000.0,2.052154555752401,9.74760354276061,-0.072537524675786,0.011301007,0.01985312,0.012217305,3.7740462,-55.48594,0.19133142
2088924176000.0,2.049451890336828,9.74926545168414,-0.0764003891343234,0.019547688,0.018936822,0.004886922,3.83487,-55.92476,0.4847761
2088929070000.0,2.0496850084316494,9.750431042158247,-0.0731367335186817,0.031154128,0.01282817,0.006414085,3.8955789,-56.357006,0.77624
2088933992000.0,2.0499194602630166,9.751603301315082,-0.0698544055783081,0.03176499,0.013744468,0.010079277,3.9601958,-56.809994,1.0508074
2088938992000.0,2.0501576275033324,9.75279413751666,-0.0665200618761812,0.027183503,0.017104227,0.01160644,4.0288177,-57.25625,1.3215249
2088943979000.0,2.0503951755088234,9.753981877544115,-0.06319438746768,0.03940081,0.0076358155,0.017715093,4.101956,-57.698845,1.591763
2088948960000.0,2.0506324377136265,9.755168188568131,-0.0598727142716212,0.028405234,0.009162978,0.018936822,4.17492,-58.12504,1.8546937
2088954016000.0,2.050873272427033,9.756372362135169,-0.0565010259200306,0.034513887,0.002443461,0.019242255,4.254074,-58.55101,2.117235
2088959034000.0,2.0511122970694147,9.757567485347074,-0.0531546785805761,0.030543262,-0.008246681,0.024740042,4.335445,-58.962414,2.377367
2088964060000.0,2.0513517027793804,9.7587645138969,-0.0498029962911983,0.02076942,-0.016493361,0.032070424,4.4200163,-59.365425,2.6343193
2088968970000.0,2.0515855830093708,9.759933915046853,-0.0465286707757097,0.01740966,-0.013133603,0.03848451,4.5060353,-59.760654,2.8879178
2088973958000.0,2.0518231786483097,9.76112189324155,-0.043202329498468,0.015577064,-0.021380283,0.036651913,4.5993447,-60.145294,3.1397405
2088979004000.0,2.052063537027237,9.762323685136185,-0.0398373098342816,0.0143553335,-0.022602014,0.03970624,4.6906033,-60.520615,3.3884954
2088984029000.0,2.0523028951037543,9.76352047551877,-0.0364862944136442,-0.0021380284,-0.032375857,0.030543262,4.7900515,-60.88344,3.6317093
2088988974000.0,2.052538442504426,9.764698212522132,-0.0331886284922408,-0.00030543262,-0.029321533,0.029932396,4.8868732,-61.242687,3.8718488
2088994026000.0,2.052779086684042,9.76590143342021,-0.0298196076156118,-0.0009162979,-0.016493361,0.01282817,4.988948,-61.58976,4.101235
2088999002000.0,2.0530161107216043,9.76708655360802,-0.0265012687632552,-0.0015271631,-0.014660766,0.016187929,5.091976,-61.92877,4.3324437
2089005141000.0,2.053308532459264,9.76854866229632,-0.0224073615657839,-0.01160644,-0.018936822,0.022602014,5.1967235,-62.257896,4.555076
2089009016000.0,2.053493112070509,9.769471560352544,-0.0198232451966356,-0.018020526,-0.014049901,0.01863139,5.300997,-62.580708,4.7703943
2089013970000.0,2.053729088172214,9.77065144086107,-0.0165195774565684,-0.020463986,-0.0125227375,0.014966198,5.4076457,-62.894093,4.984357
2089018958000.0,2.053966683811153,9.771839419055766,-0.0131932361793267,-0.0143553335,-0.013744468,0.007941248,5.515905,-63.201233,5.192168
2089023966000.0,2.054205232119054,9.773032160595267,-0.0098535575272765,-0.02107485,-0.0106901415,0.0036651916,5.623894,-63.497036,5.395082
2089029029000.0,2.0544464002665976,9.774238001332987,-0.0064772010945029,-0.0125227375,-0.01160644,0.0009162979,5.7349277,-63.792103,5.593384
2089034022000.0,2.054684234072777,9.775427170363884,-0.003147525473559,-0.003970624,-0.005497787,0.0027488936,5.8442273,-64.07835,5.786748
2089038999000.0,2.054921305743788,9.776612528718935,0.0001714802475379,-0.0070249503,0.004886922,0.005192355,5.9537416,-64.35705,5.9754577
2089043971000.0,2.055158139247558,9.777796696237788,0.0034871516249328,-0.0009162979,0.009773844,0.0030543262,6.0641727,-64.63404,6.159738
2089048962000.0,2.0553958777868413,9.778985388934206,0.0068154935083958,-0.007330383,0.0033597588,0.0076358155,6.1744366,-64.89939,6.342924
2089054063000.0,2.0556388560054115,9.780200280027056,0.0102171909533056,-0.00061086525,0.008552114,0.008246681,6.28172,-65.1639,6.5190716
2089059017000.0,2.0558748321071167,9.781380160535582,0.0135208586933728,0.004581489,0.008857546,0.018325957,6.390886,-65.418625,6.696747
2089063979000.0,2.056111189276406,9.78256194638203,0.0168298613833635,0.01160644,0.0061086523,0.016798794,6.501269,-65.67012,6.8678684
2089069030000.0,2.056351785822573,9.783764929112866,0.020198215391252,0.012217305,-0.0070249503,0.01863139,6.613235,-65.91381,7.040233
2089074992000.0,2.056635776439926,9.78518488219963,0.024174086821668,0.023518313,-0.015271631,0.01863139,6.725422,-66.1563,7.208086
2089079004000.0,2.056826881833556,9.786140409167777,0.0268495642082545,0.028099801,-0.018936822,0.025350908,6.8392677,-66.3901,7.3757815
2089084075000.0,2.057068431048684,9.78734815524342,0.0302312555909515,0.03756821,-0.014049901,0.022296581,6.954388,-66.62296,7.5375233
2089088971000.0,2.0573016444104013,9.788514222052006,0.0334962449440741,0.03726278,-0.029932396,0.024740042,7.0749416,-66.84713,7.7017956
2089093971000.0,2.057539811650717,9.789705058253585,0.0368305886462009,0.040927973,-0.03848451,0.030543262,7.192394,-67.06878,7.8615537
2089098997000.0,2.057779217360683,9.790902086803412,0.0401822709355788,0.043982297,-0.02687807,0.03023783,7.309205,-67.28453,8.01664
2089104025000.0,2.0580187183375447,9.79209959168772,0.0435352869624375,0.04153884,-0.026267206,0.024740042,7.431276,-67.493835,8.170672
2089108997000.0,2.058255551841315,9.793283759206572,0.0468509583398324,0.038789943,-0.026267206,0.024129177,7.549945,-67.69758,8.3216095
2089113969000.0,2.058492385345085,9.794467926725424,0.0501666297172273,0.039095376,-0.030543262,0.02565634,7.669947,-67.89615,8.468923
2089118962000.0,2.0587302191512644,9.79565709575632,0.0534963053381712,0.03848451,-0.032070424,0.026572637,7.78928,-68.088326,8.612596
2089123994000.0,2.058969910661918,9.796855553309593,0.0568519888399916,0.024740042,-0.02687807,0.022602014,7.9081845,-68.27211,8.75213
2089129028000.0,2.060000295730454,9.794704472505764,0.0546975415590119,0.02687807,-0.018325957,0.021380283,8.026084,-68.454155,8.889532
2089133997000.0,2.061190270223205,9.791848560562338,0.0513656245599171,0.021380283,-0.027183503,0.021991149,8.147376,-68.62576,9.024674
2089138975000.0,2.062382400033008,9.788987475906596,0.04802767269405,0.008552114,-0.027183503,0.018020526,8.275305,-68.7863,9.159776
2089144359000.0,2.0636717585898543,9.78589304445089,0.0444174812826742,0.004581489,-0.028405234,0.014049901,8.405259,-68.942726,9.29285
2089148977000.0,2.0647776757175507,9.78323886828773,0.0413209240877014,-0.008857546,-0.027488936,0.01282817,8.534053,-69.0889,9.422338
2089154010000.0,2.0659829769093427,9.780346172612289,0.0379460924804477,-0.004276057,-0.018325957,0.014049901,8.660334,-69.234276,9.547809
2089158992000.0,2.0671760646378363,9.777482788973298,0.0346054584515706,-0.008552114,-0.02443461,0.0061086523,8.790794,-69.37106,9.668878
2089163962000.0,2.0683662786102595,9.77462630228406,0.0312728709117233,-0.013133603,-0.027794369,0.008246681,8.916204,-69.50316,9.789128
2089168976000.0,2.0695670296882738,9.77174452677906,0.0279107795787667,-0.004581489,-0.02076942,0.0076358155,9.040638,-69.63483,9.903382
2089173973000.0,2.070763709611855,9.768872521952876,0.0245600874386024,-0.009773844,-0.01282817,0.0076358155,9.16471,-69.75758,10.015942
2089179024000.0,2.0719733214377523,9.765969480852808,0.0211731860978039,-0.007330383,-0.01282817,0.009468411,9.288135,-69.88027,10.126323
2089184038000.0,2.073174072515766,9.76308770534781,0.0178110947648473,-0.0027488936,-0.013439035,0.00580322,9.409221,-69.999245,10.232055
2089188975000.0,2.0743563836589964,9.76025018527039,0.0145006350698321,-0.0033597588,-0.01160644,-0.0009162979,9.52892,-70.11407,10.334787
2089194044000.0,2.075570306118999,9.757336798745692,0.0111016639954888,-0.00580322,-0.004886922,-0.0012217305,9.64637,-70.22556,10.43553
2089199034000.0,2.076765309684873,9.754468817140198,0.0077556656405919,-0.01282817,-0.00580322,-0.0012217305,9.765152,-70.33328,10.53271
2089204073000.0,2.0779720477547,9.751572672989882,0.0043768107888232,-0.00030543262,-0.0030543262,-0.00061086525,9.880179,-70.4417,10.626893
2089209074000.0,2.079169685596971,9.748698369180447,0.0010234364856489,0.002443461,0.005497787,-0.0036651916,9.993311,-70.543434,10.717511
2089214475000.0,2.0804631153082505,9.745594167045926,-0.002598154118519,-0.0015271631,-0.0015271631,-0.00580322,10.109062,-70.6431,10.807465
2089219039000.0,2.0815561005336307,9.742971027156653,-0.0056585021128576,0.0036651916,0.010079277,-0.0061086523,10.21646,-70.742645,10.892879
2089224033000.0,2.0827520620181943,9.74010074656791,-0.0090071826307645,0.0015271631,0.009468411,-0.010995574,10.32894,-70.837616,10.975983
2089229074000.0,2.0839592790473667,9.737203452925966,-0.0123873785640381,0.0070249503,0.010079277,-0.008552114,10.436422,-70.93145,11.0581
2089234046000.0,2.085149971979135,9.734345816745105,-0.0157213071853904,0.012217305,0.016798794,-0.014049901,10.542523,-71.02398,11.134417
2089239049000.0,2.0863480887807517,9.731470363444044,-0.0190760225700696,0.010079277,0.01740966,-0.018936822,10.649083,-71.11277,11.210185
2089243997000.0,2.087533034200379,9.728626521162685,-0.0223938582133622,0.02076942,0.030543262,-0.017104227,10.749287,-71.202705,11.283114
2089249026000.0,2.088737377473481,9.725736124470496,-0.0257660076576061,0.013439035,0.035430185,-0.025350908,10.851939,-71.287964,11.350827
2089254075000.0,2.089946510340033,9.72283423286205,-0.0291515679168996,0.024129177,0.031154128,-0.023823744,10.951774,-71.37503,11.419851
2089259074000.0,2.0911436692229595,9.719961078544245,-0.0325036011385689,0.015271631,0.037873644,-0.013744468,11.0463085,-71.45344,11.486293
2089264034000.0,2.0923314883986577,9.717110339313132,-0.0358294832708913,0.022602014,0.0421497,-0.025350908,11.143411,-71.53893,11.546155
2089269034000.0,2.0935288867612565,9.714236610249513,-0.0391821870333131,0.022296581,0.0571159,-0.026572637,11.233292,-71.6147,11.608959
2089274026000.0,2.094724369286475,9.711367479152392,-0.0425295264697151,0.013439035,0.055283304,-0.029321533,11.326903,-71.690216,11.667637
2089279077000.0,2.0959339811123723,9.708464438052324,-0.0459164278105135,0.002443461,0.048563786,-0.027488936,11.416672,-71.762314,11.725212
2089284218000.0,2.097165146108797,9.705509669829109,-0.0493636778190356,0.0021380284,0.053450707,-0.023518313,11.502973,-71.83273,11.780672
2089289038000.0,2.098319438130342,9.702739395011776,-0.0525956842460102,0.0036651916,0.06811147,-0.023518313,11.58781,-71.8995,11.834085
2089294041000.0,2.0995175549319582,9.69986394171072,-0.0559503996306895,-0.008552114,0.07849618,-0.027794369,11.671755,-71.96136,11.886143
2089299037000.0,2.100713995375867,9.69699251163035,-0.0593004212301013,-0.004581489,0.086437434,-0.028099801,11.7512455,-72.02434,11.9373045
2089304073000.0,2.1019200150066766,9.694098091717471,-0.0626772644596126,0.0033597588,0.083383106,-0.030848695,11.830699,-72.08504,11.98553
2089309083000.0,2.1031198081660007,9.691218615195725,-0.0660366736295592,-0.005192355,0.0983493,-0.029626964,11.901847,-72.140625,12.031997
2089314009000.0,2.104299485032833,9.688387417322245,-0.0693397573762972,-0.003970624,0.100792766,-0.0290161,11.976984,-72.19884,12.077539
2089319042000.0,2.105504786224625,9.685494721646805,-0.072714588983551,-0.0036651916,0.0983493,-0.032986723,12.048839,-72.25407,12.1205
2089323975000.0,2.106686139449165,9.682659500552637,-0.0760223665155563,-0.0018325958,0.094989546,-0.030848695,12.119187,-72.30693,12.164281
2089330263000.0,2.1061222603939385,9.67775842868912,-0.0737715599042364,0.01282817,0.10873401,-0.03940081,12.185678,-72.36384,12.202119
2089334062000.0,2.105577299216616,9.674670329260804,-0.0717733814269366,0.016187929,0.10934488,-0.04428773,12.255858,-72.4161,12.241723
2089339049000.0,2.104861921119405,9.67061653830292,-0.0691503448209102,0.019547688,0.113926366,-0.04642576,12.337127,-72.478355,12.289464
2089343977000.0,2.104155006488753,9.666610706772849,-0.0665583407313777,0.03176499,0.11484267,-0.041233405,12.418073,-72.54061,12.336964
2089349029000.0,2.103430304233467,9.662504079157202,-0.0639011157597223,0.03176499,0.11178834,-0.04428773,12.498481,-72.60124,12.38045
2089354031000.0,2.102712774407469,9.658438095124447,-0.0612701895308585,0.046731193,0.12217305,-0.0290161,12.572279,-72.66051,12.42858
2089359068000.0,2.1019902238809696,9.654343660583669,-0.0586208541820405,0.042760566,0.124005646,-0.030543262,12.649635,-72.71819,12.470833
2089364033000.0,2.101278001652645,9.650307752802258,-0.0560093890228424,0.036957346,0.116675265,-0.028099801,12.724465,-72.77259,12.51733
2089369033000.0,2.100560758723818,9.64624339451282,-0.0533795147436902,0.042455133,0.122478485,-0.022907447,12.793967,-72.826324,12.56226
2089374027000.0,2.099844376486507,9.64218391345333,-0.050752796313673,0.027183503,0.1142318,-0.027183503,12.869078,-72.87468,12.605451
2089379058000.0,2.0991226866515214,9.638094356142496,-0.04810661681399,0.038179077,0.116980694,-0.0290161,12.937966,-72.92585,12.648788
2089384097000.0,2.0983998492278504,9.633998295858405,-0.0454562295154604,0.03481932,0.11484267,-0.030848695,13.009956,-72.97069,12.690698
2089389034000.0,2.097691643559927,9.629985148483412,-0.0428594916522255,0.027488936,0.11575896,-0.030543262,13.079343,-73.01525,12.731411
2089394035000.0,2.0969742571825147,9.625919977322315,-0.0402290913982175,0.03604105,0.121256754,-0.03023783,13.1472225,-73.06103,12.770564
2089400071000.0,2.096108401518836,9.621013483995307,-0.0370543071684249,0.026267206,0.110872045,-0.03359759,13.218725,-73.10134,12.808705
2089404090000.0,2.095531881652645,9.617746552802258,-0.0349404142228424,0.03023783,0.11301007,-0.035124753,13.284042,-73.14392,12.845582
2089409045000.0,2.094821093910178,9.613718773737425,-0.0323342088122026,0.0290161,0.116675265,-0.029321533,13.3508215,-73.18153,12.883216
2089414032000.0,2.0941057158129666,9.60966498277954,-0.0297111722061761,0.0290161,0.12339478,-0.028099801,13.415587,-73.220146,12.918043
2089419032000.0,2.0933884728841403,9.6056006244901,-0.0270812979270239,0.0125227375,0.121256754,-0.028710667,13.480798,-73.25343,12.953445
2089424038000.0,2.092670369263799,9.601531388970717,-0.0244482677987367,0.011301007,0.13255776,-0.026267206,13.539149,-73.287346,12.988192
2089429097000.0,2.0919446628684124,9.597419071253464,-0.0217873610030905,-0.01282817,0.12614368,-0.02107485,13.602347,-73.31268,13.023815
2089434131000.0,2.09122254268767,9.59332707532766,-0.0191396035788401,-0.01282817,0.12858713,-0.027488936,13.659474,-73.34317,13.055057
2089439036000.0,2.0905189273744917,9.58933993984572,-0.0165596969109918,-0.019547688,0.12461651,-0.01985312,13.718573,-73.363045,13.091614
2089443995000.0,2.089807565837681,9.585308909294255,-0.0139513876009286,-0.02687807,0.13530666,-0.01740966,13.772642,-73.38462,13.123312
2089449040000.0,2.089083867722496,9.581207971780213,-0.011297844453264,-0.030848695,0.12858713,-0.013744468,13.831743,-73.40289,13.15786
2089454005000.0,2.088371645494171,9.577172063998802,-0.0086863792940659,-0.03848451,0.13805555,-0.0106901415,13.882324,-73.41818,13.190835
2089459057000.0,2.0876469432388847,9.573065436383157,-0.0060291543224105,-0.036651913,0.13805555,-0.013439035,13.937061,-73.43433,13.223295
2089463999000.0,2.086938020328033,9.569048224649874,-0.0034297865848965,-0.038179077,0.14446963,-0.011301007,13.98618,-73.44625,13.256481
2089469404000.0,2.086162680721971,9.564654653338993,-0.0005868924891329,-0.038789943,0.15393804,-0.007941248,14.033895,-73.45847,13.288401
2089484069000.0,2.0840590072117235,9.552733890476071,0.0071265287716204,-0.041233405,0.16035213,-0.0033597588,14.079894,-73.468864,13.320436
2089489028000.0,2.0833476456749134,9.548702859924608,0.0097348380816836,-0.03848451,0.16249016,-0.005497787,14.124023,-73.48036,13.350609
2089494044000.0,2.0826281075687145,9.544625495688644,0.0123731279585291,-0.035124753,0.17287487,-0.015271631,14.163535,-73.491844,13.378547
2089499024000.0,2.081913733611604,9.540577394832365,0.0149924827405647,-0.02565634,0.17715092,-0.02565634,14.203833,-73.50504,13.405281
2089503995000.0,2.0812006506917644,9.536536609821006,0.0176071037488978,-0.022296581,0.18173242,-0.02321288,14.240411,-73.51662,13.431815
2089509034000.0,2.080477813268093,9.53244054953691,0.0202574910474274,-0.016187929,0.18020524,-0.03359759,14.278202,-73.53513,13.451412
2089513969000.0,2.0797698944973413,9.528429027905236,0.0228531769609506,-0.013133603,0.1853976,-0.04428773,14.312159,-73.552704,13.470607
2089518981000.0,2.0790509301854856,9.524354915155904,0.0254893629383728,-0.0036651916,0.19517145,-0.052839845,14.345175,-73.5737,13.486936
2089523943000.0,2.0783391383029186,9.520321445989463,0.0280992501730034,0.002443461,0.20372356,-0.05589417,14.376857,-73.59528,13.501282
2089528999000.0,2.0792634016468075,9.526107127587984,0.0301922849190451,-0.0018325958,0.20555615,-0.06688975,14.408037,-73.61999,13.510566
2089534065000.0,2.0807038504908757,9.534989874569495,0.032112878197023,0.003970624,0.22449298,-0.082161374,14.431713,-73.64837,13.516368
2089538987000.0,2.082103354875104,9.543620131309131,0.0339788790091445,-0.011911872,0.22540927,-0.077579886,14.471014,-73.6644,13.529397
2089543975000.0,2.0835216254700923,9.552366112742964,0.0358699013681168,-0.01160644,0.2312125,-0.081855945,14.503723,-73.689064,13.534264
2089549021000.0,2.084956387583627,9.561213791635328,0.0377829123591702,-0.020463986,0.22449298,-0.081855945,14.53863,-73.70715,13.541901
2089554017000.0,2.0863769328708286,9.56997380030482,0.0396769676329124,-0.035430185,0.22724187,-0.07819075,14.568408,-73.723976,13.548452
2089559050000.0,2.0878079986095166,9.578798684939237,0.0415850501374648,-0.03023783,0.22479841,-0.073303826,14.600888,-73.74184,13.555668
2089564045000.0,2.089228259560192,9.587556940204268,0.0434787262968607,-0.031154128,0.23273966,-0.07819075,14.629182,-73.75751,13.560331
2089569033000.0,2.09064653015518,9.5963029216381,0.0453697486558331,-0.043066,0.22571471,-0.06261369,14.660708,-73.76582,13.572696
2089574024000.0,2.0920656537597484,9.605054163285304,0.0472619083578441,-0.03726278,0.22449298,-0.056505036,14.688298,-73.77986,13.580179
2089579015000.0,2.0934847773643166,9.613805404932505,0.0491540680598551,-0.048563786,0.23487769,-0.06261369,14.7137985,-73.78835,13.588111
2089584001000.0,2.094902479286252,9.622547879557422,0.0510443321901349,-0.040011674,0.22266038,-0.055588737,14.744742,-73.79596,13.602231
2089588977000.0,2.09631733784292,9.63127282013776,0.0529308051769526,-0.03573562,0.21930063,-0.05681047,14.770212,-73.80443,13.611168
2089593952000.0,2.097731912063061,9.639996007313648,0.054816899049424,-0.034208454,0.22510384,-0.05222898,14.795414,-73.8105,13.623561
2089598996000.0,2.099166105503543,9.648840179397094,0.0567291518117849,-0.03756821,0.21563543,-0.04886922,14.82558,-73.81686,13.635784
2089604021000.0,2.100594896550018,9.657651036795851,0.0586342014015676,-0.025350908,0.21502456,-0.053450707,14.85108,-73.82645,13.6461115
2089609254000.0,2.102082829594038,9.66682660232176,0.0606181067753651,-0.019242255,0.21044308,-0.055588737,14.879676,-73.83303,13.658333
2089614007000.0,2.1034342811052613,9.675160533708087,0.0624200372629745,-0.008857546,0.21166481,-0.05375614,14.906225,-73.84204,13.669865
2089619008000.0,2.1048562480750963,9.683929309399865,0.0643159881084478,-0.014660766,0.21135938,-0.053450707,14.934153,-73.85016,13.680342
2089623977000.0,2.106269116276078,9.692641976149003,0.0661998072948418,-0.0076358155,0.20708331,-0.06261369,14.962653,-73.86337,13.688499
2089629013000.0,2.107701035024346,9.701472120996794,0.068109027142433,-0.00030543262,0.21197024,-0.062002823,14.987582,-73.87305,13.698858
2089634026000.0,2.109126414032501,9.71026193754206,0.0700095273600609,0.004276057,0.21288654,-0.0693332,15.015127,-73.88722,13.704507
2089638981000.0,2.110535301522109,9.718950056628795,0.0718880389456078,-0.0021380284,0.21868975,-0.076052725,15.039238,-73.90024,13.709879
2089643995000.0,2.1119609648667907,9.72774162657852,0.073788918277582,0.0009162979,0.22907446,-0.07269296,15.061122,-73.9143,13.715645
2089649054000.0,2.113399423355172,9.73661209972883,0.0757068577551363,-0.007330383,0.24129178,-0.074830994,15.080844,-73.92836,13.717518
2089653930000.0,2.1147858482591744,9.745161699863424,0.0775554193073314,-0.003970624,0.22632557,-0.07666359,15.104891,-73.943344,13.721034
2089658906000.0,2.116200706815843,9.753886640443769,0.079441892294149,-0.01160644,0.23182335,-0.084910266,15.119416,-73.957275,13.720676
2089663889000.0,2.1176175557281978,9.76262385485531,0.0813310190813902,-0.012217305,0.23060162,-0.083383106,15.139528,-73.97044,13.723402
2089668887000.0,2.1190386696884524,9.771387370333716,0.0832258325838248,-0.02076942,0.23732115,-0.08277224,15.155765,-73.98326,13.722935
2089673885000.0,2.120459783648708,9.78015088581212,0.0851206460862594,-0.026267206,0.23396139,-0.0720821,15.174458,-73.99326,13.726195
2089678970000.0,2.121905634886782,9.789066947478323,0.0870484425368156,-0.036957346,0.23182335,-0.071776666,15.190951,-74.0034,13.726324
2089683901000.0,2.1233076982997505,9.797712984858082,0.0889178553780531,-0.032070424,0.24495697,-0.08093964,15.203616,-74.01452,13.726219
2089688891000.0,2.1247265375677924,9.806462473100828,0.0908096359657179,-0.048258353,0.23304509,-0.077579886,15.223391,-74.01772,13.730768
2089693884000.0,2.126146229845414,9.815217221556946,0.0927025538964213,-0.051618114,0.2302962,-0.08399397,15.237227,-74.02797,13.729004
2089698886000.0,2.1275684811517754,9.82398775065318,0.0945988838562408,-0.065973446,0.23609942,-0.08368854,15.2513895,-74.031685,13.730172
2089703976000.0,2.1290157540724834,9.832912579341672,0.0965285758785281,-0.07086037,0.2302962,-0.0842994,15.26981,-74.037964,13.7298155
2089709039000.0,2.1304553499069714,9.841790066109812,0.0984480318134674,-0.06383542,0.22602014,-0.086132,15.28595,-74.044044,13.728871
2089714044000.0,2.131878454222913,9.85056585541942,0.1003454991163255,-0.06536258,0.20708331,-0.08368854,15.307718,-74.04722,13.729764
2089718969000.0,2.1332788116167216,9.859201372372432,0.1022126372714856,-0.050396383,0.1872302,-0.09010262,15.331244,-74.05635,13.727813
2089724797000.0,2.1349359248941058,9.869420213550532,0.1044221156812873,-0.047647487,0.17745635,-0.08246681,15.356415,-74.05938,13.730826
2089729091000.0,2.1352679972109803,9.872607987873828,0.1065148898161369,-0.05681047,0.1591304,-0.07849618,15.38997,-74.06521,13.732081
2089734089000.0,2.134300634877905,9.869705890773496,0.1096588194188531,-0.048258353,0.15607607,-0.07849618,15.421414,-74.073,13.734042
2089739035000.0,2.1333433371389305,9.866833987560566,0.1127700390697204,-0.048258353,0.14721853,-0.07941248,15.477741,-74.08575,13.736824
2089743989000.0,2.132384491000864,9.863957439134191,0.1158862910208721,-0.036651913,0.14996742,-0.077579886,15.530278,-74.10047,13.739666
2089749043000.0,2.1314062898741404,9.86102282553974,0.1190654467255796,-0.032986723,0.15271631,-0.0720821,15.5841055,-74.113144,13.743279
2089754075000.0,2.1304323468449216,9.858100986282269,0.1222307636045048,-0.043982297,0.14080444,-0.06536258,15.640136,-74.12435,13.747888
2089759047000.0,2.1294700168088965,9.855213986125635,0.1253583382312966,-0.038789943,0.1337795,-0.06719518,15.692951,-74.138885,13.750968
2089764038000.0,2.128504009325027,9.852315953587071,0.128497864571264,-0.028710667,0.14721853,-0.07360926,15.742085,-74.15187,13.753913
2089769022000.0,2.127539356690363,9.849421985610274,0.1316329876484824,-0.036651913,0.14263703,-0.07941248,15.797486,-74.16319,13.757114
2089774040000.0,2.126568123359556,9.846508275476332,0.1347894980019098,-0.038789943,0.13897185,-0.082161374,15.847804,-74.17733,13.758496
2089778997000.0,2.1256086965718297,9.843629985094912,0.1379076370656682,-0.027794369,0.13133603,-0.093767814,15.90022,-74.19562,13.755789
2089783997000.0,2.1246409471389813,9.84072672669122,0.1410528247434556,-0.025961773,0.13072516,-0.11056661,15.950997,-74.21408,13.750454
2089788974000.0,2.123677649353523,9.837836823276188,0.1441835445579252,-0.017715093,0.13316862,-0.116980694,16.00217,-74.234955,13.744779
2089793983000.0,2.1227081579716955,9.834928339007371,0.1473343935735326,-0.01282817,0.12370021,-0.13683382,16.057259,-74.26278,13.730945
2089798985000.0,2.1217400214390736,9.83202391930032,0.1504808393263911,-0.013133603,0.11911872,-0.14080444,16.108906,-74.28818,13.7195
2089804025000.0,2.120764530010762,9.8290974348294,0.1536511885056007,-0.0070249503,0.124005646,-0.14721853,16.160507,-74.32017,13.701824
2089809036000.0,2.119794651529161,9.82618778925722,0.1568032955962792,0.004276057,0.11056661,-0.15149458,16.217955,-74.352715,13.684619
2089813975000.0,2.1188387086393927,9.823319950606056,0.1599101119843976,0.007330383,0.10415252,-0.15668693,16.271322,-74.38618,13.665037
2089818981000.0,2.1178697979072245,9.82041320829228,0.1630590738873983,0.003970624,0.07941248,-0.17012598,16.333532,-74.4228,13.643276
2089823958000.0,2.116906500121767,9.817523304877248,0.1661897937018679,-0.0027488936,0.058643065,-0.17379116,16.395348,-74.45755,13.623093
2089829007000.0,2.115929266744476,9.8145915945412,0.1693658042188976,0.004886922,0.055588737,-0.18295415,16.458952,-74.49786,13.59802
2089834045000.0,2.1149541624159376,9.811666271373642,0.1725348953230361,-0.009773844,0.054061573,-0.19058995,16.527208,-74.53407,13.573265
2089839032000.0,2.1139889291316143,9.808770561441802,0.1756719055128613,-0.017715093,0.05131268,-0.19242255,16.595804,-74.57236,13.547975
2089843973000.0,2.1130325991420733,9.805901561487277,0.1787799799760508,-0.026267206,0.030543262,-0.18661933,16.669123,-74.607864,13.523701
2089849020000.0,2.112055752864556,9.80297101245459,0.1819547324180093,-0.03023783,0.03268129,-0.17715092,16.735512,-74.64179,13.499496
2089854013000.0,2.1110893582809127,9.800071818612665,0.1850955168330478,-0.03145956,0.054367006,-0.18661933,16.801725,-74.67766,13.471838
2089858992000.0,2.110125673395682,9.797180753894269,0.1882274947225885,-0.03970624,0.063224554,-0.1777618,16.869005,-74.70451,13.452648
2089864150000.0,2.109127343080756,9.794185752525022,0.191472070330994,-0.038179077,0.070554934,-0.17654006,16.930166,-74.73629,13.42813
2089868974000.0,2.108193658427943,9.791384688817145,0.1945065474025232,-0.04062254,0.098043874,-0.1731803,16.981615,-74.76316,13.405912
2089873960000.0,2.107228618693506,9.788489559536982,0.1976429285548128,-0.03573562,0.12186762,-0.18387043,17.031689,-74.794,13.3801565
2089879017000.0,2.1062498369171228,9.78555320398749,0.2008239713721269,-0.029626964,0.10629055,-0.18753563,17.084192,-74.82159,13.358052
2089883997000.0,2.105285958482005,9.782661558617416,0.2039565782992032,-0.009773844,0.10842858,-0.19181168,17.124445,-74.854004,13.331597
2089888990000.0,2.1043195638983625,9.779762364775488,0.2070973627142416,0.010079277,0.12522738,-0.18478674,17.164072,-74.884766,13.307702
2089893963000.0,2.103357040312451,9.77687478396718,0.210225566378569,0.03604105,0.12492194,-0.1826487,17.207802,-74.920685,13.282143
2089898957000.0,2.1023904521789216,9.773975009473572,0.213366979831143,0.04642576,0.10842858,-0.17959438,17.250498,-74.95451,13.259189
2089904016000.0,2.1014112833027654,9.771037492620716,0.2165492807235283,0.034208454,0.09773844,-0.16554448,17.290514,-74.984726,13.240143
2089908993000.0,2.1004479855173077,9.768147589205684,0.2196800005379978,0.018325957,0.07971791,-0.14996742,17.336664,-75.01395,13.223574
2089913974000.0,2.099483913532304,9.765255363183927,0.2228132365026096,0.010079277,0.09437868,-0.1386664,17.375364,-75.039474,13.209219
2089918966000.0,2.0985177124985475,9.762356749993684,0.2259533918801125,-0.0033597588,0.10415252,-0.13927728,17.419893,-75.06083,13.196821
2089923972000.0,2.0975488017663797,9.75945000767991,0.2291023537831132,-0.0036651916,0.047036625,-0.13836098,17.478561,-75.07923,13.189956
2089929044000.0,2.072412564698986,9.676420126129736,0.2056786570021234,-0.04153884,0.024129177,-0.1328632,17.523672,-75.08956,13.182738
2089933980000.0,2.040839105673356,9.572039223863785,0.1750476929555083,-0.06047566,-0.017715093,-0.12156218,17.589958,-75.1004,13.180068
2089938981000.0,2.008849869735921,9.466283775680632,0.144013363296448,-0.05681047,-0.050396383,-0.115453534,17.671768,-75.120544,13.172174
2089943964000.0,1.976975772020217,9.360908970982244,0.113090734883911,-0.02687807,-0.06627888,-0.112399206,17.75896,-75.13955,13.167089
2089948960000.0,1.945018518922152,9.255259257100418,0.0820874333488849,0.0009162979,-0.07544186,-0.12767084,17.85237,-75.161865,13.158952
2089954012000.0,1.912703058023148,9.148425319043774,0.0507366168246752,0.03390302,-0.076052725,-0.14782938,17.946121,-75.18918,13.150045
2089959008000.0,1.880745804925083,9.042775605161946,0.0197333152896491,0.07666359,-0.0720821,-0.1704314,18.03996,-75.225624,13.135867
2089963973000.0,1.8489868454311087,8.937781443948321,-0.0110776118763644,0.112704635,-0.061391957,-0.19547687,18.130974,-75.270706,13.114816
2089968966000.0,1.8170487820366656,8.832195170647287,-0.04206229653697,0.15974127,-0.049480084,-0.22113322,18.21946,-75.32782,13.086932
2089974028000.0,1.7846693554589228,8.725149763987996,-0.0734751693092482,0.19975294,-0.010079277,-0.24923302,18.296,-75.39454,13.050109
2089979055000.0,1.7525138087567664,8.618844497437967,-0.1046708452132866,0.22785273,0.004276057,-0.26725355,18.37522,-75.46825,13.009654
2089984054000.0,1.7205373659550798,8.513131342975345,-0.1356927636227333,0.24770586,0.021991149,-0.2751948,18.441088,-75.548775,12.963305
2089989048000.0,1.6885929059927625,8.407523922814049,-0.1666836539081456,0.25778514,0.05375614,-0.2782491,18.497715,-75.63298,12.913099
2089994035000.0,1.6566932220055626,8.3020645306746,-0.19763110481991,0.2452624,0.06811147,-0.28252518,18.553274,-75.71713,12.861155
2089999030000.0,1.6247423654753717,8.19643596365304,-0.2286282007301293,0.22479841,0.07269296,-0.2782491,18.601133,-75.798035,12.811032
2090004038000.0,1.5927083535628197,8.090532487448037,-0.2597059697628375,0.22052236,0.05375614,-0.267559,18.65064,-75.87679,12.762786
2090009049000.0,1.560655151946646,7.98456557066224,-0.2908023556699663,0.19394971,0.014049901,-0.25381452,18.703762,-75.946594,12.718048
2090013966000.0,1.52920322771062,7.880586458741314,-0.3213154128452513,0.17073683,-0.012217305,-0.23732115,18.757124,-76.01111,12.678109
2090018960000.0,1.497258767748303,7.774979038580016,-0.3523063031306636,0.16157386,-0.04795292,-0.21868975,18.82327,-76.068535,12.644798
2090023963000.0,1.4652567386751203,7.669181296676336,-0.3833530440393376,0.1423316,-0.08124508,-0.1957823,18.894577,-76.11538,12.618561
2090029014000.0,1.4329476743439902,7.562368505479957,-0.4146976549387405,0.13775012,-0.12583824,-0.17745635,18.97788,-76.15819,12.597973
2090034079000.0,1.4005490580626252,7.455259658239873,-0.4461291445854392,0.11942416,-0.18112154,-0.15760323,19.071865,-76.18999,12.585677
2090038976000.0,1.3692250651840776,7.351703483524239,-0.4765180892645871,0.11728613,-0.21471913,-0.13652839,19.170338,-76.21742,12.579481
2090043969000.0,1.337287001789634,7.246117210223206,-0.5075027739251925,0.1160644,-0.26816985,-0.10323623,19.28798,-76.23406,12.584226
2090049907000.0,1.299304181754344,7.120547153972146,-0.544351774028272,0.13927728,-0.32559118,-0.074830994,19.414156,-76.24876,12.594116
2090054012000.0,1.2730462706319348,7.033739292586057,-0.5698258638603941,0.17715092,-0.37751472,-0.05681047,19.55147,-76.2589,12.611068
2090059060000.0,1.2407563960044263,6.926989941970471,-0.6011518578853765,0.20311269,-0.44257188,-0.040927973,19.70616,-76.26341,12.63641
2090064037000.0,1.2089206776959656,6.821742018433671,-0.6320372525490723,0.23579398,-0.52412236,-0.030543262,19.877756,-76.269516,12.665937
2090069028000.0,1.1769954074372702,6.716198038853166,-0.6630095259600641,0.28527406,-0.61300325,-0.028710667,20.067291,-76.27822,12.69806
2090074044000.0,1.144910222981727,6.610125387766047,-0.6941369399912272,0.33444872,-0.70524395,-0.02076942,20.277822,-76.285736,12.735497
2090079082000.0,1.1126843140329576,6.503587505753107,-0.7254008777681411,0.3820962,-0.7761043,-0.014049901,20.504318,-76.29762,12.773061
2090084055000.0,1.0808741819959926,6.398424169657365,-0.7562614499326095,0.43096542,-0.83658,-0.004276057,20.750296,-76.310974,12.813847
2090089036000.0,1.0490128774160363,6.293091658679506,-0.7871716670955329,0.47128254,-0.88453287,0.004581489,21.008734,-76.32567,12.855595
2090094035000.0,1.0170364346143494,6.187378504216885,-0.8181935855049793,0.50915617,-0.8961393,0.014660766,21.269241,-76.34065,12.898818
2090099041000.0,0.9850152158375454,6.081517321732411,-0.8492589432880739,0.5183192,-0.89858276,0.02443461,21.536013,-76.35302,12.943091
2090104075000.0,0.9528148931602716,5.97506402716053,-0.8804980585657605,0.5531385,-0.9126327,0.04520403,21.804214,-76.36382,12.991545
2090109056000.0,0.9209535885803152,5.869731516182672,-0.9114082757286835,0.6123924,-0.9239337,0.04917465,22.06767,-76.377686,13.035666
2090114033000.0,0.8891178702718547,5.76448359264587,-0.9422936703923795,0.66798115,-0.88239485,0.043066,22.314653,-76.38939,13.079726
2090119542000.0,0.8538791778544728,5.647985539448316,-0.97648045745332,0.70921457,-0.8350528,0.021380283,22.558563,-76.40578,13.118313
2090124050000.0,0.8250434498788768,5.552655493375601,-1.004455414082603,0.77091193,-0.7831292,-0.00030543262,22.78436,-76.42709,13.152205
2090129069000.0,0.7584979039491734,5.5301232545902215,-1.065119114509321,0.8237518,-0.73761976,-0.023823744,22.994152,-76.45431,13.176906
2090134043000.0,0.6747219005531129,5.551067241224059,-1.1405175538691523,0.88331115,-0.6951646,-0.056199603,23.185928,-76.49126,13.190601
2090139140000.0,0.5966125126827744,5.599958391793376,-1.1795610328473236,0.9306532,-0.6429357,-0.08124508,23.390942,-76.60583,13.151386
2090143989000.0,0.5337409099416788,5.687011526265361,-1.1602158862424496,0.9816604,-0.5876524,-0.12583824,23.580235,-76.72848,13.095696
2090149023000.0,0.5126178941511784,5.836785843015903,-1.1283254667944052,1.0283916,-0.54550266,-0.15027285,23.764723,-76.888855,12.999148
2090154052000.0,0.5449164515232803,6.058261596167848,-1.0821847049626363,1.0809261,-0.50610185,-0.1853976,23.930824,-77.0523,12.886084
2090159000000.0,0.6086498795505617,6.295643683788122,-1.020298893258427,1.1267409,-0.46792278,-0.19730948,23.98988,-77.27706,12.6984005
2090164038000.0,0.7296569788764045,6.571539888041734,-0.9283334581460674,1.1575897,-0.453262,-0.20097467,24.043032,-77.490654,12.505297
2090169026000.0,0.8663013429503236,6.853702920938052,-0.8564041489283012,1.1679744,-0.43249258,-0.18478674,23.90256,-102.20256,12.201068
2090174037000.0,1.0316846194519629,7.152199476338573,-0.8160667993443725,1.1603385,-0.44440445,-0.18906279,23.773617,-101.91961,11.89962
2090179336000.0,1.2005020015261507,7.463906516746412,-0.7702796366111203,1.1734722,-0.4596761,-0.18417588,23.23814,-101.45486,11.384541
2090184047000.0,1.2563298387724795,7.679774003827751,-0.6809550814717044,1.1878275,-0.48747048,-0.18906279,22.749432,-101.051895,10.900924
2090189191000.0,1.3172889546279491,7.915482421052631,-0.5834204791288566,1.1695015,-0.52931476,-0.1957823,22.144117,-100.64538,10.369235
2090194036000.0,1.349611436934998,8.074124868166164,-0.472057636708997,1.1743884,-0.5497787,-0.19242255,21.58032,-100.31763,9.876767
2090199050000.0,1.3651144745587602,8.192981813710718,-0.3428655593822642,1.1713341,-0.61575216,-0.13775012,21.078312,-100.069305,9.429496
2090204077000.0,1.3162500106981116,8.170286140135007,-0.3330745177390413,1.1578951,-0.6606508,-0.07880162,20.41431,-99.80056,8.900211
2090209051000.0,1.242984133999829,8.09294985431086,-0.3697074603383747,1.1279627,-0.7113526,-0.06841691,19.813364,-99.60906,8.410271
2090214032000.0,1.1581600158082408,8.030357173435023,-0.4068093954754358,1.0965031,-0.77396625,-0.10293079,19.272762,-99.48223,7.9480686
2090219028000.0,1.053900285142631,7.99244453060618,-0.4447220086133122,1.065349,-0.8151997,-0.12889257,18.767946,-99.41485,7.5178094
2090223932000.0,0.9276067803808804,7.857833421231263,-0.5672707267125483,1.0195341,-0.7858781,-0.1432479,18.356575,-99.40172,7.1201324
2090229013000.0,0.7486937576355237,7.522945080079193,-0.8654591203092297,0.96791595,-0.7684685,-0.124005646,17.974916,-99.42499,6.7398853
2090233981000.0,0.604339511826052,7.263436333883632,-1.1239164750553654,0.91751957,-0.75991637,-0.13255776,17.679327,-99.476326,6.377099
2090238975000.0,0.5658240584980874,7.239364238393397,-1.2683493998993356,0.86101454,-0.7703011,-0.19058995,17.389664,-99.53942,6.016278
2090243961000.0,0.5406698958440024,7.200161160527871,-1.3932583728973804,0.79901177,-0.7742717,-0.22876903,17.020544,-99.63902,5.5809197
2090248960000.0,0.5595292313571006,7.110579169145165,-1.4545512625467796,0.7644979,-0.7110472,-0.22571471,16.646563,-99.76459,5.1568165
2090254003000.0,0.5488663380800294,7.038033622063143,-1.5090747620227607,0.7330383,-0.63804877,-0.23151793,16.238914,-99.92163,4.69598
2090259409000.0,0.4158246681571219,7.033282037812041,-1.5375837217694568,0.72418076,-0.5882632,-0.21868975,15.834447,-100.1108,4.2585874
2090264167000.0,0.3077563698305084,7.017039786440678,-1.5694600762711863,0.7425067,-0.5739079,-0.2611449,15.401106,-100.34282,3.805672
2090268976000.0,0.3276440326805571,6.828107139922271,-1.6987299211378604,0.7583892,-0.6075055,-0.31948254,14.981051,-100.596756,3.367912
2090273972000.0,0.3504240250513418,6.649895473750971,-1.818504978315644,0.7651087,-0.5900958,-0.34574974,14.587709,-100.87653,2.9234319
2090279017000.0,0.3837763376494952,6.558176511804297,-1.8685334515661405,0.77671516,-0.5360342,-0.3359759,14.203658,-101.17889,2.4877307
2090283994000.0,0.4166791047061869,6.467693801475537,-1.9178876064457675,0.784351,-0.47586402,-0.36010507,13.766772,-101.54251,2.0200279
2090288972000.0,0.3404067732921306,6.265831277288167,-2.075316049131912,0.7901542,-0.47555858,-0.3680463,13.346919,-101.92301,1.5759792
2090293999000.0,0.2450119063691262,6.043243183317607,-2.252477860143423,0.7861836,-0.464563,-0.37018433,12.919609,-102.31061,1.1471688
2090298967000.0,0.2322424590511945,5.988498038225256,-2.4002287988395903,0.7858781,-0.42546764,-0.38423425,12.473685,-102.747185,0.7179092
2090304025000.0,0.2487747046791808,5.992631183788395,-2.5407529859385667,0.7993172,-0.3912592,-0.41050145,12.038714,-103.18802,0.30196145
2090308986000.0,0.1411036393417367,5.960650123809524,-2.686830836554622,0.8249735,-0.3979787,-0.41080686,11.593347,-103.69587,-0.1443609
2090313982000.0,-0.1578677171374703,5.8730206498168505,-2.84662581354234,0.8604037,-0.38698313,-0.4083634,11.148026,-104.20632,-0.575366
2090318970000.0,-0.3291438300406321,5.850711328577878,-3.00158302510158,0.890947,-0.42332962,-0.47800204,10.79794,-104.72299,-0.97098804
2090323954000.0,-0.3894807325706546,5.885189628027089,-3.1524252814266367,0.9120218,-0.49449542,-0.5311473,10.46373,-105.23964,-1.3508685
2090329084000.0,-0.5158133001075847,5.870850651963422,-3.3570647880580955,0.960891,-0.46761733,-0.5329799,10.177171,-105.79178,-1.7667491
2090334041000.0,-0.7626655005379236,5.760192759817106,-3.650733840290479,0.98715824,-0.39492437,-0.49480084,9.902068,-106.33692,-2.1767373
2090338999000.0,-0.9809592952152622,5.691240864466436,-3.914188099979596,1.0158689,-0.4034765,-0.5002986,9.6877775,-106.902824,-2.5864682
2090343956000.0,-0.9228418837788206,6.025415841154866,-3.885129419547031,1.054048,-0.44165558,-0.516792,9.466235,-107.46925,-2.9762397
2090348974000.0,-0.8490958188422141,6.36892484432854,-3.8198337837233343,1.094976,-0.45937067,-0.56779927,9.336181,-108.065475,-3.388815
2090354021000.0,-0.6719478500281928,6.750474439667324,-3.506418119227516,1.1285735,-0.49327368,-0.5849035,9.220581,-108.662865,-3.7949088
2090359273000.0,-0.5024222989689648,7.115992569652156,-3.208100644261612,1.1450669,-0.63132924,-0.6178902,9.077519,-109.2717,-4.2370505
2090363969000.0,-0.572677456936055,6.970798431430952,-3.3579783113309727,1.1710287,-0.62125,-0.6627888,8.900878,-109.883484,-4.666902
2090368960000.0,-0.6426294969002696,6.829246793477089,-3.5067503557951483,1.2095132,-0.5332854,-0.6377433,8.588495,-110.50986,-5.1287947
2090374964000.0,-0.6581279624887691,6.844745205121294,-3.532581041868823,1.2049317,-0.5338962,-0.61361414,8.303584,-111.11471,-5.5904098
2090379060000.0,-0.6687011995058401,6.855318405336927,-3.550203042228212,1.2504412,-0.5213735,-0.63041294,8.051086,-111.73931,-6.0194097
2090384014000.0,-0.7080086618661258,6.95734617530426,-3.6366223136916833,1.2822062,-0.52748215,-0.6658431,7.809825,-112.340996,-6.4344096
2090388997000.0,-0.7515675614198782,7.073503291318459,-3.7334199693306287,1.2794572,-0.5708536,-0.6930266,7.5797167,-112.928856,-6.84041
2090393968000.0,-0.702932525234551,6.975440887346979,-3.7527829607090393,1.2742649,-0.60231316,-0.6908886,7.357229,-113.515785,-7.2360516
2090398941000.0,-0.6422988075467633,6.849509341944961,-3.762111219723828,1.2263119,-0.5540548,-0.659429,7.130198,-114.07292,-7.613818
2090403998000.0,-0.6690684948951761,6.7501537612863824,-3.693797556401384,1.1707232,-0.52412236,-0.6951646,6.90388,-114.64293,-8.01787
2090408976000.0,-0.7127342940056991,6.657970431813555,-3.6113177806228376,1.106277,-0.59620446,-0.6988298,6.7036853,-115.174545,-8.398143
2090414040000.0,-0.7062572404503911,6.726325730330727,-3.652893524714972,1.0458013,-0.6010914,-0.74128497,6.484933,-115.68951,-8.754648
2090418939000.0,-0.6929951816922643,6.814739455384905,-3.710362446000188,0.97402465,-0.6270532,-0.7678576,6.295413,-116.16872,-9.107587
2090424037000.0,-0.6488788323184812,6.83784,-3.8660936788676983,0.9089675,-0.6441574,-0.7867944,6.0926733,-116.64853,-9.486986
2090428993000.0,-0.596110974112717,6.83784,-4.048751587633627,0.8396343,-0.6945538,-0.8378017,5.902889,-117.10048,-9.876165
2090433982000.0,-0.6044926530120481,6.798379012048192,-4.216564060240964,0.80573124,-0.7611381,-0.8588765,5.714035,-117.547516,-10.254997
2090439211000.0,-0.704174704316396,6.698697125091671,-4.368710429806182,0.7761043,-0.70554936,-0.83260936,5.51053,-117.96462,-10.6128435
2090444993000.0,-0.7640980483505936,6.724309462406332,-4.396996020838595,0.7443393,-0.7147123,-0.83291477,5.3597307,-118.37787,-10.949496
2090449033000.0,-0.7836435459004799,6.802491302938452,-4.354647453018439,0.71685034,-0.65668017,-0.8390234,5.18098,-118.77123,-11.255736
2090454033000.0,-0.8234747460528559,6.869237432480818,-4.337463389343563,0.6783658,-0.7199047,-0.83108217,5.057331,-119.17302,-11.581878
2090458982000.0,-0.9581596644728616,6.7525106475703325,-4.535001339073601,0.66889745,-0.8045095,-0.88606006,4.915631,-119.57335,-11.912332
2090464218000.0,-1.099438899008,6.646080385952001,-4.743302124544,0.68539083,-0.7348709,-0.8854492,4.7378564,-119.96693,-12.226454
2090469041000.0,-1.2127557856,6.784031253066667,-4.925594187466666,0.6646214,-0.6985244,-0.88606006,4.585336,-120.34433,-12.559774
2090473992000.0,-1.2917669157865983,6.9352612164056815,-5.056166469227968,0.65179324,-0.7171558,-0.8933904,4.4568996,-120.758316,-12.905622
2090479053000.0,-1.1505630345138382,7.147066969200655,-4.853185996449381,0.6417139,-0.7351763,-0.8885035,4.3210135,-121.15622,-13.234421
2090484438000.0,-1.0207655899861068,7.365718893192263,-4.645713091054826,0.61758476,-0.7715228,-0.9089675,4.191517,-121.563675,-13.584022
2090489036000.0,-1.3925405482633324,7.393954849032809,-4.669243381853158,0.6059783,-0.79901177,-0.9129381,4.0676856,-121.95911,-13.920256
2090494035000.0,-1.7270135376028624,7.418937645513605,-4.679900080133697,0.6123924,-0.8200866,-0.97524637,3.8866932,-122.340256,-14.259883
2090499022000.0,-1.317813147942755,7.382964194991056,-4.531508634168158,0.61575216,-0.9282097,-1.0186177,3.7409024,-122.70422,-14.600868
2090504411000.0,-0.8974288980846671,7.330632950103251,-4.386704057253485,0.64660084,-0.8060367,-0.9944886,3.5671647,-123.11871,-14.990884
2090509011000.0,-1.0680018772620892,6.959162843409052,-4.640668228652555,0.6398814,-0.7486154,-0.98929626,3.4328496,-123.520325,-15.40653
2090514229000.0,-1.2614909653811737,6.537786535424195,-4.928751934383066,0.63194007,-0.7110472,-1.026559,3.243453,-123.87277,-15.705965
2090519028000.0,-1.171318086307993,6.600996992685937,-4.698898957442649,0.6227771,-0.8081747,-1.0302242,3.0831332,-124.20735,-15.997596
2090524010000.0,-0.9357291924081884,6.905299202931797,-4.198272634780372,0.59040123,-0.87109387,-1.0836749,2.8948348,-124.53604,-16.291033
2090528994000.0,-0.9184781614190012,6.8808598482947625,-4.084668356242387,0.5708536,-0.874759,-1.074512,2.760431,-124.92134,-16.615059
2090533982000.0,-1.000905570229395,6.706307896934632,-4.147700991280958,0.53878313,-0.84329945,-1.0296134,2.6312656,-125.28914,-16.93878
2090539006000.0,-1.056823193553518,6.858141685235778,-4.056754209421782,0.5045747,-0.93431836,-0.98868537,2.5181482,-125.57457,-17.231453
2090543987000.0,-1.1014546406062875,7.139319601272455,-3.905007494498503,0.45448375,-0.958753,-1.0002918,2.3809628,-125.84196,-17.503654
2090549019000.0,-1.2480987222384714,7.29994690973969,-3.90817842121478,0.41233405,-1.0128145,-1.0259482,2.2696943,-126.138145,-17.81321
2090554015000.0,-1.467339149302915,7.369917212167301,-4.024795543219265,0.36163223,-1.063211,-1.0451905,2.165406,-126.41316,-18.118956
2090558984000.0,-1.568216202261068,7.533777075052251,-4.036877765551967,0.30757064,-1.087951,-1.0656544,2.0966022,-126.62943,-18.41689
2090564039000.0,-1.5636170455063652,7.78673088865666,-3.95409299199126,0.23671028,-1.1139128,-1.0928379,2.0374541,-126.8293,-18.72189
2090569024000.0,-1.6009384700231275,8.045724009251023,-3.876490699911048,0.19425514,-1.1414018,-1.169807,1.9789882,-127.062325,-19.085276
2090574012000.0,-1.6944200768190714,8.317670727628537,-3.804254858388187,0.11026118,-1.0668762,-1.1893547,1.9067479,-127.26012,-19.42121
2090579028000.0,-1.809733540232676,8.565845041578148,-3.733296946504805,0.03573562,-1.1099422,-1.2034045,1.8704325,-127.42632,-19.771414
2090583989000.0,-2.021211961638847,8.69561546676783,-3.670814744946889,-0.0018325958,-1.1053606,-1.2296717,1.7981932,-127.58446,-20.102562
2090588969000.0,-2.2056807644937586,8.86944149138102,-3.617334721894194,-0.049785517,-1.1337659,-1.3704761,1.7417302,-127.715515,-20.475132
2090594040000.0,-2.2730371484049927,9.235091035466615,-3.6029012110560727,-0.079107046,-1.1212431,-1.3561208,1.6950328,-127.821106,-20.801645
2090599030000.0,-2.3415186180276844,9.549737170284216,-3.5712061302645592,-0.11881329,-1.1346822,-1.3136657,1.6690375,-127.93488,-21.194
2090604048000.0,-2.420241539626505,9.663885264804652,-3.460994015365714,-0.16798794,-1.2177598,-1.2910637,1.6576084,-128.04117,-21.587145
2090609003000.0,-2.497976110475878,9.776600252518634,-3.352165591825702,-0.20433442,-1.2983941,-1.3045027,1.6537637,-128.11472,-21.964527
2090614045000.0,-2.94944003282531,9.832869087450073,-3.398063231448392,-0.25625798,-1.3726143,-1.4144585,1.6583622,-128.18872,-22.362963
2090618952000.0,-3.5174703607946185,9.867445024595332,-3.49685103384486,-0.31306845,-1.4269812,-1.3912456,1.6989471,-128.23505,-22.732832
2090624034000.0,-4.320568318331406,9.53771689620208,-3.843510751472027,-0.39645153,-1.4657712,-1.3136657,1.7671747,-128.26349,-23.131834
2090629057000.0,-5.1591738721871385,9.135528418037891,-4.237141990901005,-0.48563787,-1.4957036,-1.3213016,1.8380535,-128.29314,-23.543257
2090634050000.0,-5.640053585132604,9.349105774622894,-4.362115205087252,-0.5992588,-1.6374242,-1.3035865,2.0045047,-128.34666,-24.045712
2090639204000.0,-5.888234716750468,10.001189671694764,-4.303719821058858,-0.7254025,-1.840537,-1.3790283,2.17991,-128.40244,-24.57374
2090643970000.0,-6.401002074591573,10.132393412080823,-4.374107867153913,-0.8378017,-1.9089539,-1.4709635,2.3757477,-128.62866,-25.285091
2090649027000.0,-7.166178244733448,9.903361425515907,-4.545881721195185,-0.9334021,-1.8952094,-1.3875804,2.6191092,-128.8169,-25.968668
2090654061000.0,-6.600923613412579,9.95243571791005,-4.431789651299565,-1.0827587,-2.0384574,-1.423316,2.9267004,-128.97287,-26.7156
2090659130000.0,-5.464062430675065,10.120380910405393,-4.194943605286968,-1.1759156,-2.1789563,-1.5378532,3.229983,-129.1286,-27.437618
2090664022000.0,-4.850160128360443,10.094258348368426,-4.492530467558128,-1.1337659,-2.3893993,-1.743104,3.601296,-129.42743,-28.333092
2090669022000.0,-4.816711520437082,9.836226714798922,-5.443425937072148,-0.9111055,-2.2763894,-1.9248364,3.9041572,-129.76875,-29.198368
2090673982000.0,-4.808106542412375,10.73270731212062,-6.164275656902291,-0.5311473,-2.1267273,-2.320677,4.116868,-130.07428,-29.961155
2090679252000.0,-4.832812698668494,13.272501619933426,-6.623810524437047,-0.20158553,-2.0289888,-2.830444,4.267112,-130.4831,-30.773497
2090683965000.0,-4.904551630685992,15.085539468976473,-6.576801972302194,0.06505715,-2.021964,-3.1157181,4.18963,-131.09702,-31.573107
2090689039000.0,-5.058921519696217,16.32532223081505,-5.814601086071677,0.090713486,-2.053118,-3.8026361,3.9535298,-131.92163,-32.57445
2090693939000.0,-5.079139736841606,17.290004730853184,-5.157172753630066,-0.012217305,-1.9700404,-4.566523,3.6158981,-132.60463,-33.416004
2090699204000.0,-4.868589903492455,17.907297874537345,-4.592516618582139,-0.27672195,-1.6676621,-5.2381697,3.1261365,-133.39694,-34.365623
2090704003000.0,-4.408804645773926,18.388360943621283,-3.873379886329327,-0.86926126,-1.3274102,-5.744882,2.641356,-134.11325,-35.40667
2090709138000.0,-3.189807660916969,18.6816536153201,-2.5489808415991053,-1.4037683,-1.1963795,-5.9315014,2.0715272,-134.88498,-36.503185
2090713989000.0,-2.241406885880302,18.941933112144103,-1.3796166150145264,-1.8182404,-1.3634512,-5.8010817,1.5396467,-135.54272,-37.588123
2090718965000.0,-2.712133931861321,19.08961227232229,-0.761210514871199,-2.251344,-1.5760323,-5.528941,0.9859672,-136.14438,-38.65533
2090724087000.0,-3.264394391765067,19.23699537432909,-0.269099308615243,-2.7198775,-1.733941,-5.2015176,0.6459711,-136.50314,-39.60111
2090729038000.0,-4.605910283246434,19.324248682410676,-1.5160910284956295,-3.143818,-1.7907515,-4.823392,0.42224318,-136.76369,-40.47033
2090734902000.0,-6.194811351242141,19.427592127894496,-2.993036987974237,-3.3707545,-1.8237382,-4.399146,0.48599014,-136.948,-41.343586
2090738979000.0,-7.855282116053775,19.46853165183867,-3.321871997647292,-3.3600643,-1.9031507,-3.8359282,0.6947838,-137.01926,-42.08069
2090743973000.0,-10.45085240055358,19.487442798339263,-3.019291925780941,-3.1914654,-1.9630154,-3.159395,1.0119509,-136.98277,-42.66304
2090748967000.0,-12.73672390625,19.502342857900945,-2.408273340566038,-2.9929342,-2.1853704,-2.4043655,1.2764972,-136.96027,-43.143772
2090754006000.0,-14.614669973958334,19.511827131387577,-1.3649697825471698,-2.9746084,-2.620612,-1.6380352,1.7391111,-136.78424,-43.45661
2090759043000.0,-16.0512503283028,19.51908259866032,-0.6087304481849729,-3.2107077,-3.0185907,-1.0390818,2.5830607,-136.65924,-43.87126
2090763973000.0,-16.80569350803002,19.522893391978048,-0.2924740157582116,-3.3649511,-3.1685581,-0.659429,3.5397708,-136.43257,-44.130535
2090769490000.0,-17.6453384585745,19.527159091450308,0.0404246721415577,-3.4376442,-3.0778446,-0.6026186,4.869469,-136.283,-44.503162
2090773977000.0,-17.997094549280636,19.530711887216803,-1.192499282387961,-3.6117408,-2.9019153,-0.82894415,6.178468,-136.13522,-44.814415
2090779016000.0,-18.392124400198448,19.534701755250538,-2.577100086237804,-3.8741074,-2.1930063,-0.9624182,7.3002477,-136.04282,-45.09404
2090784032000.0,-17.942232948494606,18.74923326756296,-3.5160372402953985,-4.0139956,-1.3408492,-1.2568552,8.206892,-136.09787,-45.437416
2090788972000.0,-16.670137580193146,17.199425897746636,-4.0087505578488924,-4.330118,-0.79901177,-1.4953982,8.908169,-136.19208,-45.761723
2090793965000.0,-15.142206481537588,15.365220663416018,-4.474344672363189,-4.618447,-0.61208695,-1.6606371,9.041081,-136.40637,-46.115105
2090798962000.0,-13.212045447642492,13.086181314713125,-4.886656074701761,-4.793765,-0.66248333,-1.7088956,9.043913,-136.66544,-46.48136
2090804567000.0,-11.519240109459984,10.271349544638694,-5.340721898164336,-4.8081203,-0.8689558,-1.6783522,8.862184,-137.00557,-46.89541
2090809035000.0,-10.891699181332555,7.632351381934732,-5.689817595716783,-4.7015243,-1.2638801,-1.5097535,8.794608,-137.32742,-47.274925
2090814011000.0,-10.319191560292634,4.959002008435923,-6.1283455280222,-4.5307875,-1.7018706,-1.1945469,8.606964,-137.65787,-47.63699
2090818968000.0,-10.209013356710392,3.263223012754793,-6.746299003612513,-4.4587054,-2.1239784,-0.88208944,8.600467,-137.94157,-47.938896
2090823967000.0,-9.82974355463804,1.777757281970823,-7.446031178658592,-4.424497,-2.5054638,-0.6582073,8.8216715,-41.658085,-48.338352
2090829025000.0,-8.500868844646298,1.0666536606330856,-8.423798732250665,-4.2855253,-2.846632,-0.49693888,9.204382,-41.314613,-48.654976
2090834077000.0,-7.222806198129662,0.3966490534580225,-9.337387,-4.064392,-3.1138856,-0.37598756,9.696974,-40.88525,-49.026844
2090838978000.0,-6.675376497005359,0.3128084801996427,-9.337387,-3.8655553,-3.2736268,-0.25228736,10.276574,-40.483322,-49.340763
2090844023000.0,-6.132672796051389,0.2148313248800302,-9.252008988239185,-3.6939023,-3.275154,-0.14630222,10.762747,-40.124104,-49.59491
2090848958000.0,-5.717471284148877,0.0541081460494993,-8.693942116663518,-3.5509596,-3.1230485,-0.05589417,11.234981,-39.781387,-49.816418
2090854189000.0,-5.269365534743203,-0.113098910775428,-8.089884311430009,-3.4626896,-2.941927,0.005192355,11.689139,-39.4723,-49.98908
2090858998000.0,-4.749915079758308,-0.2244097585337361,-7.366363965659617,-3.4061847,-2.7467556,0.035124753,12.055287,-39.169914,-50.151386
2090864092000.0,-4.194382453264095,-0.3324530246364985,-6.612660843545994,-3.3948836,-2.567161,0.005192355,12.451074,-38.86401,-50.29628
2090868970000.0,-3.583578508531157,-0.2891336072885757,-6.079831891654303,-3.4147367,-2.386956,-0.10567969,12.753564,-38.532574,-50.466423
2090874787000.0,-2.8534125585179915,-0.2330246095153486,-5.442774323582029,-3.4565809,-2.2266037,-0.24770586,13.128209,-38.1885,-50.61942
2090879010000.0,-2.2902216800772512,-0.1096981521788981,-4.949468600691198,-3.488346,-2.1566598,-0.32925636,13.456924,-37.817894,-50.792503
2090884771000.0,-1.5692179320485016,0.0713162428458202,-4.261248650384464,-3.5036175,-1.964848,-0.5531385,13.811125,-37.39998,-50.990837
2090888977000.0,-1.5533346016265772,0.3413323491951892,-3.5941499750887225,-3.4611626,-1.9037615,-0.6209445,14.175073,-36.99317,-51.163864
2090893932000.0,-1.5346227846411673,0.65943263615694,-2.8082550782531546,-3.451694,-1.808772,-0.7131852,14.592616,-36.558838,-51.333046
2090898974000.0,-1.9919830458533825,1.0268886524672138,-1.9267579210585903,-3.414126,-1.750129,-0.7788532,14.998911,-36.107635,-51.51316
2090903966000.0,-2.5106974845740164,1.396754499735824,-1.0426882855080668,-3.37106,-1.7223345,-0.8258898,15.382013,-35.628525,-51.716682
2090909092000.0,-3.399158623359821,1.9306475577730235,-0.0753392871026895,-3.3060026,-1.7311921,-0.8240572,15.894741,-35.16484,-51.855774
2090913955000.0,-4.343313987143439,2.481009606581092,0.8593272321515892,-3.258966,-1.7721201,-0.795652,16.407257,-34.68991,-51.99393
2090918972000.0,-5.429013940120351,3.011726749018447,1.5947844597711356,-3.1813862,-1.7925841,-0.74281216,16.846664,-34.235413,-52.12924
2090923946000.0,-6.533308525086317,3.5286305503206075,2.266759396557167,-3.116329,-1.7763962,-0.68875057,17.27682,-33.795357,-52.245956
2090929009000.0,-7.584580043643449,3.863822188231856,2.5796699402630296,-3.0543263,-1.6581937,-0.6588182,17.689066,-33.345535,-52.367493
2090934024000.0,-8.604554340769607,4.139870261685338,2.7808576210716023,-2.9663615,-1.4672983,-0.6966918,18.060705,-32.90986,-52.491074
2090938982000.0,-9.430880388050817,4.21723097211195,2.786632287366018,-2.8976393,-1.2916746,-0.75747293,18.567757,-32.41551,-52.609406
2090944312000.0,-10.246496285232237,4.222297011214768,2.715709062375943,-2.8215866,-1.1960741,-0.8304713,19.030514,-31.926666,-52.742153
2090948976000.0,-10.850879199156696,4.492113154442047,2.936222881270837,-2.7684412,-1.0870347,-0.9068295,19.405027,-31.372562,-52.975273
2090954018000.0,-11.466413065601095,4.875637892822122,3.272399096489508,-2.7580566,-1.1667526,-0.86620694,19.807766,-30.850468,-53.16632
2090959017000.0,-11.821046157981462,4.929169573099897,3.417239440391349,-2.8255572,-1.3750577,-0.752586,20.146002,-30.2766,-53.436817
2090964001000.0,-12.052080478887746,4.82594138599382,3.4713113234809474,-2.9431489,-1.4220943,-0.700357,20.467459,-29.716585,-53.699924
2090968974000.0,-12.104830101992636,4.742276632231561,3.6006414769666635,-2.941927,-1.606881,-0.6395759,20.95003,-29.183794,-53.854996
2090973956000.0,-12.091312974785154,4.665678323420531,3.7583436781943527,-2.980717,-1.6924021,-0.59864795,21.400126,-28.66451,-53.988457
2090979015000.0,-12.07744739918387,4.474005327364378,3.922936825972156,-3.0149255,-1.7986927,-0.5296202,21.926376,-28.134983,-54.083694
2090984029000.0,-12.063615932357177,4.211208179788766,4.088913802045128,-3.0870075,-1.8765781,-0.49113566,22.461958,-27.620935,-54.146698
2090988971000.0,-11.750184389907345,3.744840409913321,4.076052728972801,-3.1603115,-1.9669861,-0.47983465,23.10509,-27.082691,-54.152573
2090993977000.0,-11.162677646358471,3.085686669174056,3.9040997461891007,-3.184746,-1.8942931,-0.52320606,23.698221,-26.55666,-54.161808
2090998962000.0,-10.391095452021156,2.4027418295239893,3.8908826150358897,-3.1694744,-1.711339,-0.60903263,24.380396,-25.968761,-54.171467
2091004147000.0,-9.406234867869289,1.6664412229410654,4.031576914242539,-3.0815098,-1.5534303,-0.6774496,25.0273,-25.400372,-54.18208
2091008983000.0,-8.497210106917588,1.0241360575576466,4.197707105666425,-2.994156,-1.4352279,-0.72295904,25.732393,-24.763567,-54.23068
2091014162000.0,-7.538169730844794,0.4035805660903733,4.428492203143418,-2.8820622,-1.3381003,-0.7415904,26.3832,-24.152012,-54.30114
2091018967000.0,-6.843787567396367,-0.031019577613414,4.624117575938518,-2.7663033,-1.2760975,-0.7483099,27.207335,-23.459745,-54.33344
2091023965000.0,-6.339946799627387,-0.3252983164527246,4.806927142925011,-2.638327,-1.2443326,-0.73823065,27.988049,-22.799463,-54.368465
2091028973000.0,-5.916637710875576,-0.5883584264654378,4.978281050930876,-2.4791965,-1.2269229,-0.73731434,28.895504,-22.087805,-54.3548
2091034043000.0,-5.666034386451613,-0.7852610819032257,5.125958141806452,-2.3099868,-1.1942415,-0.7483099,29.768661,-21.404678,-54.340607
2091039050000.0,-5.441606101872591,-0.9645621805581054,5.277429052285662,-2.1270328,-1.185384,-0.7666359,30.727434,-20.70539,-54.27214
2091043974000.0,-5.337718786910226,-1.064120927079126,5.454903273728658,-1.9474384,-1.178359,-0.8029824,31.668257,-20.02957,-54.20467
2091049357000.0,-5.220809840116822,-1.1644763777609035,5.643617660996885,-1.7602082,-1.1884383,-0.82772243,32.664253,-19.347157,-54.10033
2091054028000.0,-5.053582692476636,-1.0843466641978192,5.702843903800623,-1.5931365,-1.1988231,-0.8579602,33.65418,-18.68435,-53.9937
2091059896000.0,-4.843501574439252,-0.9836827465809967,5.777247584548286,-1.4370605,-1.1991285,-0.89461213,34.69107,-18.018269,-53.855625
2091063975000.0,-4.633654462184015,-0.8636023339576298,5.8231965034285125,-1.287704,-1.2067643,-0.9401216,35.725845,-17.373423,-53.709072
2091068961000.0,-4.296457778118924,-0.6534653968068775,5.872065528912087,-1.1777482,-1.2302825,-0.96761054,36.749367,-16.748737,-53.552097
2091073995000.0,-3.998104308217593,-0.4134635002044753,5.9680189114583335,-1.1071932,-1.2596041,-0.9645562,37.75955,-16.149399,-53.343082
2091079051000.0,-3.750585311921296,-0.137923389216821,6.1221347447916665,-1.0952814,-1.3274102,-0.97433007,38.774796,-15.554783,-53.11608
2091084023000.0,-3.559213018936877,0.0864223492323832,6.306693507763595,-1.1007792,-1.4544702,-0.96486163,39.74503,-15.006028,-52.80252
2091088978000.0,-3.451346290531561,0.2357763248574926,6.543170514539255,-1.1691961,-1.5354098,-0.9272934,40.681366,-14.459228,-52.475227
2091093991000.0,-3.331716245762712,0.3695283296656818,6.813790139216296,-1.2461652,-1.5409076,-0.9306532,41.567974,-13.944576,-52.073376
2091098972000.0,-3.105481758474576,0.3250232030998289,7.403482643127041,-1.3558154,-1.4141531,-0.95233893,42.403896,-13.423523,-51.67972
2091103995000.0,-2.877339652542373,0.2801428074482973,7.998147458855543,-1.4563028,-1.1850786,-0.9969321,43.19134,-12.904601,-51.25623
2091109029000.0,-2.327951119503946,0.0297001590335143,9.176287195756892,-1.5131133,-0.9089675,-1.0332786,43.924747,-12.378307,-50.87915
2091113981000.0,-1.4967978369785797,-0.4028884369611561,10.862897184072972,-1.5311338,-0.6545421,-1.026559,44.59953,-11.848633,-50.556496
2091118966000.0,-0.3632466035087719,-1.2570818828070176,12.58090003508772,-1.4498887,-0.4596761,-0.947452,45.256943,-11.320149,-50.172848
2091123969000.0,1.0068903365789472,-2.442292301936842,14.320889894210524,-1.2754866,-0.4092797,-0.8179486,45.849113,-10.826411,-49.81288
2091129926000.0,2.968625140904063,-5.149388291527174,16.08687859951331,-0.93523467,-0.51159966,-0.6282749,46.500854,-10.341508,-49.208065
2091134099000.0,4.695556369545018,-8.42937847726569,16.99749545195782,-0.42577308,-0.72112644,-0.39767328,47.050488,-9.966588,-48.579338
2091138997000.0,6.7225175863874345,-12.279220780104712,18.066319162303667,0.18784106,-0.97127575,-0.15424347,47.795685,-9.529739,-47.60493
2091143970000.0,7.497151622652885,-14.21137041008709,17.858852123169683,0.7519751,-1.1374311,-0.056199603,48.451775,-9.213924,-46.612766
2091148962000.0,7.309563785960379,-14.66432621140779,16.678422562446166,1.2348641,-1.1933253,0.06352998,48.9559,-9.070513,-45.58979
2091154002000.0,6.871442658697499,-14.550653927041056,15.1371115940538,1.5607607,-1.1371256,0.30390546,50.0557,-8.346335,-44.412575
2091159006000.0,6.170360721897121,-13.826956980179329,13.232882491269466,1.6933185,-0.9117164,0.50732356,50.978527,-7.7611017,-43.315994
2091164033000.0,5.472941503773585,-12.948656407880131,11.573267864594897,1.7180585,-0.6160576,0.6383542,51.79423,-7.222704,-42.432064
2091169044000.0,4.789408012264151,-11.816830847669255,10.348234089345173,1.6902641,-0.48502702,0.73456544,52.458347,-6.779666,-41.591976
2091173981000.0,4.092822516998469,-10.710171105666156,9.214798467435363,1.6646078,-0.3203988,0.7770206,52.972412,-6.451732,-41.07593
2091179064000.0,3.2815803874425726,-9.605128462480858,8.34655008764976,1.6349808,-0.23915374,0.8503244,53.400105,-6.161493,-40.583324
2091184610000.0,2.384571466349633,-8.396088126951309,7.409906063165512,1.5610662,-0.10476339,0.8445212,53.701702,-5.987667,-40.279644
2091189042000.0,1.5771930687480615,-7.404416557841414,6.742941150522072,1.4828753,-0.06047566,0.83169305,53.966183,-5.824031,-39.97721
2091194083000.0,0.6548596473745285,-6.292362227908326,5.998366587003192,1.4385877,0.037873644,0.77671516,54.129963,-5.768502,-39.825897
2091199769000.0,-0.4509601318537859,-5.297124344125326,5.3875329848563975,1.359786,0.15699236,0.68875057,54.30595,-5.6776395,-39.696312
2091204398000.0,-1.353115943903734,-4.50229215383118,4.896041222562379,1.2721269,0.2947425,0.5439755,54.42892,-5.6656337,-39.67933
2091209150000.0,-2.307427535338878,-3.9144040785170766,4.477271579950451,1.1936307,0.46120325,0.3481932,54.599983,-5.6072593,-39.708683
2091213960000.0,-3.2733868692620773,-3.3193406016103344,4.053390691700583,1.1187997,0.6569856,0.12095132,54.75887,-5.5848308,-39.895153
2091219031000.0,-4.323112072675559,-2.6534921715084345,3.6093149372989406,1.070236,0.89461213,-0.13530666,54.997967,-5.503147,-40.147007
2091223943000.0,-5.351966893546489,-1.9937331530698317,3.1802408977540213,1.0482447,1.1701124,-0.3943135,55.31997,-5.362017,-40.47058
2091229017000.0,-6.05197797106599,-0.4745234008121828,3.111441254416244,1.0552697,1.475545,-0.6536258,55.662403,-5.222071,-41.060776
2091233990000.0,-6.566253869958468,1.411154757434241,3.2213292246331333,1.0821478,1.772731,-0.8720101,56.088463,-5.03332,-41.725998
2091239012000.0,-6.622533367493304,2.9325559274873525,3.738679347683761,1.119716,2.0705278,-1.0268645,56.465824,-4.858433,-42.725765
2091243970000.0,-6.24573087583573,4.077093087689713,4.628874796508283,1.108415,2.3109033,-1.1139128,56.917583,-4.638839,-43.76499
2091248966000.0,-5.967571068906297,5.114721830370593,5.682439379090087,1.0372492,2.4459045,-1.1362094,57.096375,-4.728152,-44.65413
2091254008000.0,-5.79299000860701,6.0409722210505175,6.909357643707944,0.9410379,2.4700336,-1.1377366,57.29171,-4.788827,-45.56825
2091259050000.0,-5.717581728599762,6.744076256913923,8.069047244474415,0.80756384,2.3839016,-1.1023064,57.172314,-5.0516286,-46.27916
2091263973000.0,-5.736283270210234,7.222836112701309,9.138776127600158,0.679893,2.293799,-1.0167851,57.02225,-5.2982874,-46.9785
2091269502000.0,-5.775434147356052,7.723976435747418,10.30853049607273,0.5665775,1.8170186,-0.8927795,56.612164,-5.705881,-47.33491
2091274041000.0,-5.985131147003525,7.777744875601459,10.959129292040323,0.4868596,1.6050484,-0.8179486,56.17753,-6.08887,-47.727
2091279014000.0,-6.214878487661575,7.836654426470406,11.671935595707836,0.4654793,1.0995574,-0.6585127,55.544815,-6.5980463,-47.7258
2091285735000.0,-6.556532031776335,7.866607560112414,12.601756631553446,0.4361578,0.2941316,-0.44104472,54.918915,-7.0955367,-47.575005
2091289157000.0,-6.93128507108247,7.56172377536583,12.859002223374356,0.3820962,0.083383106,-0.37690386,54.3089,-7.563094,-47.45516
2091293977000.0,-7.459137101899409,7.132284896792325,13.221341134121523,0.35185838,-0.26450464,-0.23823744,53.66079,-8.066066,-47.006355
2091298999000.0,-7.65784376993988,6.585868380093521,13.117474683366734,0.258396,-0.5363397,-0.105068825,53.033573,-8.532672,-46.54081
2091304108000.0,-7.695196951674778,5.9835495069186,12.78596596335528,0.10354166,-0.7089091,0.02687807,52.403187,-8.986098,-46.02282
2091309023000.0,-7.629737786784141,5.255003119320327,12.411493609188168,-0.059864793,-0.8038987,0.1328632,51.88183,-9.345746,-45.521427
2091313994000.0,-7.497058074008811,4.420405424867392,11.99633444160748,-0.22876903,-0.84574294,0.21135938,51.34981,-9.678217,-45.004517
2091319040000.0,-7.265436969876809,3.5650815420555704,11.608809273986152,-0.39736784,-0.8512407,0.25625798,50.919243,-9.905837,-44.556747
2091324035000.0,-6.87400728252855,2.7047964783922307,11.281901098911968,-0.5320636,-0.84849185,0.2593123,50.48572,-10.105954,-44.11399
2091329048000.0,-6.467471523382501,1.8632033974446864,10.9774180040647,-0.63163465,-0.82986045,0.23915374,50.226963,-10.171123,-43.731823
2091333993000.0,-5.9911994763660745,1.1527643690881662,10.806753960945358,-0.7079928,-0.8237518,0.20952678,49.970547,-10.211557,-43.35846
2091339048000.0,-5.504332904542407,0.4265218436397922,10.632293548818303,-0.77213365,-0.83291477,0.14935656,49.899853,-10.119508,-43.00708
2091343984000.0,-4.809994925343321,-0.2406028240584685,10.2316405542551,-0.7968737,-0.79076505,0.10995574,49.821003,-10.020352,-42.679718
2091348933000.0,-4.045708683645444,-0.8964098227299209,9.758276066999583,-0.7849618,-0.7079928,0.067500606,49.75692,-9.905884,-42.37279
2091354051000.0,-3.3843495241720216,-1.2816320669138244,9.299488359367276,-0.7367035,-0.57818395,0.032375857,49.82923,-9.693246,-42.077797
2091358998000.0,-2.7715546325753837,-1.593884277838194,8.862335443400891,-0.6786713,-0.43035457,-0.006414085,49.90234,-9.479746,-41.81841
2091364040000.0,-2.1021287301163154,-1.922749483810123,8.425224074504873,-0.59498274,-0.3576616,-0.016187929,50.052116,-9.220345,-41.558987
2091369024000.0,-1.376888521963743,-2.2628621248663943,8.005084834433616,-0.51893,-0.18020524,-0.028099801,50.190434,-8.966562,-41.37433
2091374025000.0,-0.7205375562549721,-2.5905891049124903,7.666182623210024,-0.464563,-0.022602014,-0.048563786,50.36747,-8.6936,-41.18476
2091379024000.0,-0.1349609698607796,-2.9048008124502784,7.409100100119332,-0.3463606,0.12889257,-0.0571159,50.52813,-8.451994,-41.043026
2091384927000.0,0.4641093326703573,-3.226569201248113,7.26217412723704,-0.24129178,0.28405234,-0.067500606,50.714115,-8.190778,-40.920204
2091388984000.0,0.8278072667981882,-3.422105739023654,7.24262053062909,-0.16523905,0.43188173,-0.058337633,50.88502,-7.951172,-40.835762
2091393960000.0,1.1281081410894418,-3.5343687886252284,7.3187231290229615,-0.108123146,0.56688297,-0.057726767,51.08275,-7.6986947,-40.765686
2091398962000.0,1.2799772033624748,-3.5159604290902102,7.498204874762225,-0.0693332,0.6872234,-0.043982297,51.264458,-7.4625607,-40.72967
2091403987000.0,1.292535511499033,-3.4050789630270795,7.640535178239845,-0.05222898,0.82436264,-0.015577064,51.449017,-7.2194424,-40.70722
2091408993000.0,1.107075169738878,-3.163980562311412,7.7286286747582205,-0.040011674,0.9746355,0.013439035,51.622253,-6.986112,-40.719418
2091413956000.0,0.8397321718220772,-2.837103087002653,7.904287350744745,-0.015271631,1.1441506,0.05222898,51.761578,-6.775426,-40.73927
2091419007000.0,0.4054559313609467,-2.333737442307692,8.254669686390532,0.0012217305,1.2904528,0.08582657,51.8875,-6.570158,-40.79132
2091423934000.0,-0.0648444663443289,-1.8380752431558969,8.57503273926796,0.020463986,1.4242324,0.099265605,51.965714,-6.406539,-40.8819
2091429022000.0,-0.6285163736556709,-1.318440244844103,8.870079260732037,0.052534413,1.5213599,0.11789699,52.026817,-6.2564907,-40.998135
2091434012000.0,-1.2043428372076683,-0.774614985971093,9.159161493927533,0.09865474,1.5909985,0.13103059,52.002426,-6.1806006,-41.132565
2091438975000.0,-1.8817709170530963,-0.0781043828364949,9.445399019472047,0.13194689,1.6303993,0.14019357,51.971146,-6.111723,-41.28069
2091443957000.0,-2.5576663311633805,0.8406372380001952,9.61739403240289,0.16187929,1.6597209,0.15302174,51.836452,-6.1361504,-41.459805
2091448964000.0,-3.217543435194222,2.7968686439488586,9.2476755104431,0.18295415,1.6881261,0.15943582,51.69917,-6.1661506,-41.644302
2091455072000.0,-3.8981901528076257,4.802484623570191,8.756054601871751,0.18020524,1.7174476,0.16157386,51.422165,-6.309399,-41.866955
2091459022000.0,-4.137485842149046,5.484313497053726,8.372525894766031,0.17470746,1.7464638,0.24037547,51.11108,-6.4709406,-42.087204
2091463995000.0,-4.438756085970537,6.342727418024264,7.889668107313692,0.18295415,1.7531832,0.30024028,50.271976,-7.052192,-42.463116
2091468977000.0,-5.120064185977033,6.915778605508356,7.613962007244888,0.18600847,1.7831156,0.43493605,49.373276,-7.6430063,-42.81845
2091473938000.0,-5.878564866184297,7.425881399701242,7.383306771132481,0.15607607,1.7721201,0.5537493,48.463627,-8.220416,-43.134632
2091479027000.0,-6.738187984447005,7.540482934101383,7.072372469527649,0.12308934,1.7061466,0.64996064,47.27758,-8.979498,-43.4789
2091483988000.0,-7.613958324980799,7.462940827572964,6.734835907709293,0.03970624,1.6233743,0.7153232,46.075817,-9.713123,-43.771935
2091489127000.0,-8.345015423186569,7.044982613789462,6.382926938749868,-0.081855945,1.5561792,0.7495316,44.84669,-10.44384,-44.044163
2091493980000.0,-8.928974130820398,6.446302370879527,6.049236329194383,-0.2501493,1.4770721,0.754724,43.632645,-11.134,-44.26287
2091498967000.0,-9.369423451661328,5.55816912103683,5.822971617093675,-0.4364632,1.4095715,0.75136423,42.506298,-11.723175,-44.57649
2091504071000.0,-9.750992913630904,4.530866833446757,5.6419706595276224,-0.60048056,1.3090842,0.7165449,41.42047,-12.261165,-44.84132
2091509040000.0,-10.068469619789637,3.620324073860537,5.609568838098948,-0.75961095,1.2046263,0.6407976,40.526398,-12.619179,-45.20806
2091513974000.0,-10.36298924814959,2.750571210810284,5.632578346240748,-0.8689558,1.0797043,0.5564982,39.675724,-12.936918,-45.528202
2091518972000.0,-10.61407281528037,2.054145575164489,5.59797431120495,-0.9294315,0.9294315,0.45814893,39.096157,-13.036964,-45.946213
2091524796000.0,-10.876982690955517,1.358528799597368,5.521292083020721,-0.95569867,0.7849618,0.3726278,38.568756,-13.106485,-46.321026
2091529016000.0,-11.005762941337355,1.1696692660662078,5.408380543242479,-0.96944314,0.6597345,0.29077184,38.27289,-13.00319,-46.76838
2091534029000.0,-11.132542245590871,1.0791127282372914,5.249906767518627,-0.9798279,0.53023106,0.21899518,38.037277,-12.884141,-47.163193
2091539193000.0,-11.17232903502502,1.1054648633398856,5.091123002725161,-0.9822713,0.44868052,0.14294247,37.965004,-12.663858,-47.613842
2091543986000.0,-11.131316166547537,1.2326048840957826,4.947577748927806,-0.96791595,0.3924809,0.095294975,37.93382,-12.443701,-48.020935
2091548965000.0,-11.032536420447284,1.3659556018210863,4.804084295367412,-0.96944314,0.3222314,0.0571159,37.954407,-12.190538,-48.438023
2091554096000.0,-10.760416376357828,1.5072486427902023,4.6732571829605964,-0.9502009,0.25625798,0.040011674,37.998764,-11.947122,-48.82652
2091558938000.0,-10.52039796817028,1.6087370788127318,4.570975417106034,-0.90010995,0.23335053,0.03268129,38.00552,-11.735786,-49.209755
2091564006000.0,-10.297672184143725,1.6608643931263425,4.49989278324546,-0.8744536,0.18112154,0.02565634,38.036095,-11.527206,-49.554993
2091568954000.0,-10.054066120764553,1.6801180337098174,4.448721990443093,-0.79351395,0.14172074,0.034513887,38.007935,-11.375822,-49.8763
2091573974000.0,-9.75240477893619,1.633708548045178,4.43479920774206,-0.6988298,0.14477506,0.043066,37.988144,-11.234927,-50.184776
2091579003000.0,-9.43089049137406,1.582775752668967,4.430850443860361,-0.6197228,0.098043874,0.058643065,37.926174,-11.133065,-50.457886
2091584011000.0,-9.056121939313984,1.5195031234828495,4.455186050923483,-0.50488013,0.059253927,0.061391957,37.86991,-11.055802,-50.724926
2091588951000.0,-8.72563750869826,1.4654179889622074,4.488500466286743,-0.38973203,0.05009095,0.0571159,37.776035,-11.013163,-50.97554
2091594481000.0,-8.466186406918617,1.42835355374925,4.55203940329934,-0.30176744,0.03573562,0.054061573,37.694073,-10.986444,-51.20549
2091598945000.0,-8.27865761184568,1.40900128536497,4.605451751765985,-0.2284636,0.08277224,0.01985312,37.595882,-10.9737425,-51.430927
2091604030000.0,-8.11988836487955,1.4134116317696068,4.671605750498098,-0.16798794,0.05589417,-0.010995574,37.517593,-10.972345,-51.625732
2091609009000.0,-7.975073316833667,1.4141585960921843,4.735756049579158,-0.15271631,0.053450707,-0.022602014,37.41256,-10.975407,-51.82662
2091613969000.0,-7.946515545290581,1.3760816502004007,4.792871393867736,-0.14110987,0.0720821,-0.035430185,37.329735,-10.978703,-52.02291
2091619027000.0,-7.918320274725275,1.3360814766702325,4.845014932928134,-0.14630222,0.08552113,-0.051923547,37.23866,-10.977725,-52.199314
2091623960000.0,-7.899943494505495,1.2855450192453564,4.835826494845862,-0.1337795,0.043676864,-0.056505036,37.159813,-10.979869,-52.360626
2091629150000.0,-7.885356392971931,1.229941502614099,4.829444000278551,-0.16920967,0.054061573,-0.056505036,37.075237,-10.965045,-52.53855
2091634004000.0,-7.945119512856224,1.1402966927790872,4.874266431197771,-0.16249016,0.0720821,-0.038179077,36.9951,-10.961528,-52.7012
2091639231000.0,-8.017557543859649,1.0551790846905822,4.929466828227285,-0.09193522,0.061391957,-0.0290161,36.918537,-10.953712,-52.86854
2091643979000.0,-8.112809087719297,1.019459760923453,5.004874119141136,-0.046731193,0.03573562,-0.01863139,36.83848,-10.946581,-53.029846
2091648932000.0,-8.212173219298245,0.9821982169852492,5.083537200837916,-0.00030543262,0.01985312,-0.025961773,50.463062,-10.92668,-53.199677
2091654022000.0,-8.1553093317687,0.9600889855837412,4.965085026375712,0.004886922,-0.013133603,-0.025045475,50.474754,-10.910986,-53.351665
2091658979000.0,-8.074711175172276,0.9411247352841308,4.818112327893738,0.032070424,-0.032375857,-0.00030543262,50.49769,-10.909421,-53.4974
2091664087000.0,-8.129100320032908,0.9472509821112712,5.007354260746606,0.09560041,-0.065973446,0.019547688,50.53103,-10.895688,-53.6299
2091668958000.0,-8.201059276429454,0.9568455346770876,5.237623071493212,0.16371189,-0.07849618,0.018325957,50.57102,-10.887406,-53.75921
2091673962000.0,-8.346837779996466,1.3219682670613184,5.470814000530129,0.19639318,-0.09621128,0.017104227,50.60249,-10.882273,-53.891804
2091679038000.0,-8.501461584202156,1.725707064092596,5.707044169676621,0.21655174,-0.109650314,0.03023783,50.64328,-10.88776,-54.017666
2091684048000.0,-8.552089,2.0064817075829384,5.764130340663507,0.23518312,-0.13103059,0.03023783,50.688755,-10.89261,-54.113518
2091688975000.0,-8.552089,2.2251375050026327,5.734313662243286,0.2611449,-0.15454891,0.022907447,50.738716,-10.902017,-54.202705
2091693962000.0,-8.494865480321206,2.368691670139784,5.719777669376425,0.2706133,-0.16920967,0.008552114,50.73521,-10.972231,-54.253784
2091698974000.0,-8.418729488648756,2.4876540515415884,5.710260682839298,0.25259277,-0.18967366,-0.003970624,50.732975,-11.037974,-54.295498
2091704019000.0,-8.316052709264039,2.5314396217940733,5.707777,0.23151793,-0.22632557,-0.014966198,50.704594,-11.121145,-54.319103
2091709024000.0,-8.205148109281838,2.5485017857168284,5.707777,0.22449298,-0.25625798,-0.024129177,50.67837,-11.198186,-54.338295
2091713974000.0,-8.092101582354198,2.5344053563982056,5.730378891155736,0.20005837,-0.2837469,-0.036651913,50.628754,-11.28316,-54.3374
2091718961000.0,-7.974769116855373,2.4884925691305275,5.776291571886349,0.18203785,-0.30726522,-0.03756821,50.57917,-11.365851,-54.328316
2091723964000.0,-7.868454950892417,2.4038521300266247,5.814348451040331,0.16249016,-0.33444872,-0.036651913,50.519222,-11.445033,-54.295677
2091729023000.0,-7.768126515136574,2.293968664539986,5.847791429247608,0.14385876,-0.38515055,-0.0143553335,50.452244,-11.524262,-54.248314
2091734014000.0,-7.6821175973390865,2.235094483710895,5.909947147788565,0.093767814,-0.4034765,-0.027183503,35.297665,-11.585852,-54.19838
2091738966000.0,-7.605379136785329,2.2095150265372165,5.990948673139158,0.10140363,-0.41722095,-0.022296581,35.16369,-11.661644,-54.132767
2091744025000.0,-7.520607644617461,2.1575960446174607,6.080325832097996,0.09101892,-0.42546764,-0.0125227375,35.067684,-11.712085,-54.054768
2091748963000.0,-7.427332910142219,2.0643213101422195,6.17850986025122,0.058948494,-0.4392121,-0.0018325958,34.972866,-11.760921,-53.97242
2091753978000.0,-7.337852658242389,1.9788730003159103,6.309094275588742,0.050701816,-0.44257188,-0.004886922,34.895863,-11.809441,-53.869167
2091759001000.0,-7.254962098602336,1.9051922838024125,6.479480821328738,0.0421497,-0.45631635,0.00030543262,34.813828,-11.8568325,-53.75969
2091763994000.0,-7.179128633066173,1.8300478567509249,6.604510156134402,0.034208454,-0.47616947,0.025350908,34.758488,-11.894826,-53.62632
2091768968000.0,-7.115497516543362,1.751732962731196,6.648562408600493,0.002443461,-0.4877759,0.0027488936,34.72162,-11.917541,-53.498375
2091773957000.0,-7.043958572474378,1.680133660761347,6.6908088777452415,0.037873644,-0.473726,0.010079277,34.682964,-11.958532,-53.340385
2091779810000.0,-6.946501944820644,1.6083233815794291,6.736972594216691,0.022602014,-0.46486846,0.002443461,34.66146,-11.977427,-53.18488
2091784010000.0,-6.882127825888491,1.5635705979703294,6.769129613637104,0.029321533,-0.4654793,-0.0030543262,34.65247,-12.002532,-53.024597
2091789006000.0,-6.823627223345288,1.5323702358901208,6.80423001588686,0.03940081,-0.46792278,-0.005497787,34.641838,-12.024756,-52.869804
2091793982000.0,-6.765360810564069,1.5012947751793284,6.839189904116401,0.040011674,-0.46731192,-0.006414085,34.6455,-12.038031,-52.707184
2091799024000.0,-6.637411672733598,1.6155891880417494,6.998504900497018,0.048258353,-0.4709771,-0.007941248,34.648796,-12.05377,-52.54623
2091804052000.0,-6.489030044860835,1.7735437080815109,7.194751339065606,0.047036625,-0.48472157,-0.0033597588,34.648533,-12.069484,-52.38536
2091809039000.0,-6.448190599281996,1.7376687011488063,7.174295198851193,0.035430185,-0.47311515,-0.028405234,34.66745,-12.076195,-52.223526
2091814249000.0,-6.439234327786753,1.6391501355411957,7.0847327644588045,0.071776666,-0.44898596,-0.040317107,34.675877,-12.095118,-52.062973
2091819029000.0,-6.405194733351609,1.5361481479349417,7.071929152412281,0.06688975,-0.42180246,-0.0580322,34.65065,-12.1306925,-51.863037
2091824022000.0,-6.348394659164839,1.418178622706506,7.115621734758772,0.05497787,-0.41263947,-0.06688975,34.623566,-12.170239,-51.66886
2091829115000.0,-6.3111157,1.340753,7.149545368802173,0.051923547,-0.4129449,-0.08246681,34.627056,-12.187047,-51.50132
2091834108000.0,-6.3111157,1.340753,7.163972743487881,0.045814894,-0.40469822,-0.09437868,34.627266,-12.200405,-51.342216
2091838994000.0,-6.2749401018069815,1.3441982882135524,7.191977567186858,0.036957346,-0.408058,-0.10293079,34.670025,-12.192274,-51.174427
2091843985000.0,-6.1718850729363455,1.3540130333470226,7.245958614178645,0.029321533,-0.4111123,-0.09896017,34.707756,-12.184089,-51.011963
2091849748000.0,-6.079411327928015,1.3726529061688,7.301316599018381,0.02076942,-0.41355577,-0.09987647,34.751743,-12.1695795,-50.849194
2091854041000.0,-6.03193197084015,1.392435947521894,7.336926147820229,0.017715093,-0.41722095,-0.10598512,34.793255,-12.15527,-50.688526
2091858965000.0,-5.9827781832963485,1.4154797764978817,7.384556509259633,0.015577064,-0.40958515,-0.10140363,34.8238,-12.14907,-50.511757
2091863972000.0,-5.944084588299375,1.4396633238753278,7.44743370213839,0.0030543262,-0.41325033,-0.089491755,34.85244,-12.141558,-50.334217
2091868937000.0,-5.90413787312296,1.457107472687704,7.507690374863983,-0.0061086523,-0.41050145,-0.08582657,34.871548,-12.138894,-50.14918
2091873969000.0,-5.860439598186435,1.4614773001813566,7.564498223540079,-0.02321288,-0.40317106,-0.06841691,34.87631,-12.139077,-49.96551
2091879019000.0,-5.814878472344656,1.4652514,7.61523734164043,-0.03726278,-0.40103304,-0.061086524,34.880146,-12.142253,-49.768574
2091884010000.0,-5.759437766197183,1.4652514,7.627117492957747,-0.047647487,-0.38759398,-0.047036625,34.868057,-12.149042,-49.578144
2091888945000.0,-5.704619115658658,1.4652514,7.638864346644573,-0.054061573,-0.37110063,-0.041233405,34.848476,-12.15721,-49.37983
2091893966000.0,-5.637033095242573,1.4459050778018052,7.6487407628431745,-0.06658431,-0.35216382,-0.022602014,34.812622,-12.16894,-49.187
2091898974000.0,-5.56488446462956,1.4188494001786385,7.657759306355773,-0.07727446,-0.33567044,-0.0106901415,34.772617,-12.180162,-49.001587
2091904106000.0,-5.503845098242156,1.3932294469771644,7.649311368030228,-0.08674286,-0.32589662,-0.00061086525,34.72304,-12.195676,-48.80901
2091908995000.0,-5.453847503203549,1.3701535999014292,7.630081462000986,-0.089491755,-0.3136793,0.0015271631,34.66694,-12.211847,-48.6246
2091914016000.0,-5.406176566472303,1.3449361707340075,7.612887411301664,-0.090713486,-0.2941316,0.009468411,34.606018,-12.227548,-48.435787
2091919561000.0,-5.37430170787172,1.3085078220373865,7.608333968753215,-0.09621128,-0.26450464,0.01985312,34.537964,-12.243535,-48.25593
2091923968000.0,-5.348968524489796,1.279555661044418,7.604715028931572,-0.09987647,-0.24770586,0.021380283,34.475533,-12.254972,-48.07485
2091929027000.0,-5.302243251250474,1.213184368491853,7.607768101743084,-0.10629055,-0.23243423,0.030848695,34.399845,-12.269527,-47.902702
2091933953000.0,-5.253083721864343,1.1416794839333082,7.612237060780599,-0.09285152,-0.20158553,0.03359759,34.32012,-12.28661,-47.74268
2091939123000.0,-5.2282466771335,1.0280852443459836,7.6135616,-0.090713486,-0.18570304,0.03023783,34.24414,-12.298093,-47.584248
2091943992000.0,-5.214772509872857,0.9068180672895396,7.6135616,-0.07147124,-0.15821409,0.03756821,34.155582,-12.318815,-47.438572
2091949025000.0,-5.21891231775701,0.871041905046729,7.610518568224299,-0.0580322,-0.14538592,0.03481932,34.094727,-12.323311,-47.289295
2091954022000.0,-5.233035909345794,0.8851654769719627,7.60581081906542,-0.0580322,-0.122783914,0.030848695,34.02494,-12.330867,-47.15184
2091958992000.0,-5.260290491094028,0.9233085153745196,7.612151247304771,-0.054367006,-0.11301007,0.02565634,33.996525,-12.316239,-47.01631
2091964020000.0,-5.296403522499297,0.9774780106327928,7.62569342786163,-0.029321533,-0.09773844,0.02321288,33.963074,-12.306328,-46.890564
2091969040000.0,-5.342419146363547,1.0578728690581636,7.64408633077453,-0.016187929,-0.084910266,0.021991149,33.931057,-12.297772,-46.769035
2091974021000.0,-5.3987544965652985,1.165849242899321,7.667559434209231,-0.0036651916,-0.07788532,0.025350908,33.895473,-12.295034,-46.65178
2091979080000.0,-5.44336989106908,1.2813335624860929,7.693919583796905,0.0021380284,-0.07086037,0.018020526,33.85305,-12.29901,-46.539486
2091984005000.0,-5.471992674016385,1.4005956230201275,7.722542565995752,0.0030543262,-0.048563786,0.024740042,33.799755,-12.308625,-46.43356
2091988963000.0,-5.502560588546407,1.5179283616897057,7.747466593285824,0.01740966,-0.044593163,0.025961773,33.73035,-12.334159,-46.324696
2091993966000.0,-5.535470594882803,1.633113169090753,7.768035293551987,0.008552114,-0.031154128,0.023823744,33.654987,-12.356328,-46.225883
2091998994000.0,-5.565977462648752,1.7463720514395396,7.787796862648753,0.012217305,-0.027794369,0.026267206,33.55547,-12.405405,-46.118576
2092003995000.0,-5.579766400307102,1.8428947110364684,7.801585800307102,0.014660766,-0.021380283,0.030543262,33.454002,-12.452222,-46.01748
2092009107000.0,-5.592855,1.936932619207588,7.813638277482463,0.011911872,-0.0036651916,0.02321288,33.326607,-12.518412,-45.91674
2092014001000.0,-5.592855,1.969348587432072,7.799745719671969,0.004886922,0.009162978,0.027794369,33.19348,-12.586808,-45.816593
2092019183000.0,-5.589897687955084,2.000477215843495,7.784330918150714,-0.0018325958,0.016493361,0.022907447,33.043804,-12.665635,-45.71625
2092023968000.0,-5.545676631283446,1.9843968621282568,7.760210303623125,-0.013744468,0.029932396,0.029932396,32.886696,-12.74439,-45.620945
2092029082000.0,-5.498415088165629,1.967210879077112,7.734431239319238,-0.02076942,0.043982297,0.03573562,32.72297,-12.821544,-45.528214
2092034061000.0,-5.453885065824605,1.9370925737215032,7.698594256315465,-0.032375857,0.049785517,0.03176499,32.561287,-12.893872,-45.438263
2092038946000.0,-5.41064794988704,1.9034635775723967,7.6601613758471965,-0.025961773,0.067500606,0.03145956,32.394306,-12.969324,-45.3555
2092043972000.0,-5.428343596285395,1.8460191237288133,7.617122767989445,-0.028710667,0.06994407,0.029932396,32.24028,-13.038598,-45.266624
2092048933000.0,-5.46209712654014,1.783333945762712,7.573724969146453,-0.02565634,0.070554934,0.024129177,32.087494,-13.1083975,-45.183426
2092054056000.0,-5.499227113201036,1.7215445757549612,7.5232301249352895,-0.02321288,0.08460484,0.022296581,31.93654,-13.173444,-45.106464
2092059046000.0,-5.535878043696673,1.6619867658613747,7.472835191180136,-0.02443461,0.100792766,0.024740042,31.787142,-13.237349,-45.03123
2092064032000.0,-5.58797925322017,1.611370613729406,7.445996290644034,-0.043676864,0.09621128,0.028405234,31.666704,-13.285564,-44.965237
2092069100000.0,-5.6461344899650525,1.5629080851223165,7.42661117799301,-0.03390302,0.10873401,0.016493361,31.547998,-13.335995,-44.91005
2092074025000.0,-5.712881615094339,1.5514427,7.393972268867924,-0.018020526,0.110872045,0.022296581,31.44063,-13.375017,-44.86501
2092079096000.0,-5.784997897204752,1.5514427,7.355793149283718,-0.019242255,0.12156218,0.019547688,31.339186,-13.40813,-44.827805
2092084068000.0,-5.85960645022831,1.562976403196347,7.331220518721461,-0.01160644,0.13316862,0.01740966,31.25368,-13.436378,-44.803555
2092089033000.0,-5.9385584004151095,1.587648887629722,7.321351524948112,-0.025045475,0.12950343,0.018020526,31.169624,-13.460049,-44.77807
2092094028000.0,-6.005364513306217,1.6115921638775903,7.3166804,-0.0070249503,0.124005646,0.01160644,31.093597,-13.48747,-44.773346
2092099029000.0,-6.061022359674608,1.6347829331977533,7.3166804,-0.002443461,0.13591751,0.016493361,31.012226,-13.511837,-44.770824
2092104842000.0,-6.106253233001335,1.6472107,7.304357116541739,0.002443461,0.1328632,0.009468411,30.946997,-13.532992,-44.771484
2092109045000.0,-6.12691840737242,1.6472107,7.287825115145292,0.0033597588,0.11789699,0.008246681,30.878841,-13.556133,-44.77059
2092113972000.0,-6.165418443195503,1.6496366429546367,7.273521364753111,0.012217305,0.12034045,0.014966198,30.806442,-13.5837,-44.78022
2092118969000.0,-6.218249331011642,1.6544395102067442,7.2639157305499795,0.005192355,0.1142318,0.009162978,30.743626,-13.604986,-44.78422
2092123961000.0,-6.260880271120944,1.66158824173058,7.2592196,0.007330383,0.11148291,0.004886922,30.684357,-13.629063,-44.79229
2092129025000.0,-6.29426069519174,1.6711254915240903,7.2592196,0.009773844,0.112399206,0.0076358155,30.626102,-13.651596,-44.79902
2092134057000.0,-6.329992792334495,1.6759412,7.237982868043803,0.014049901,0.09773844,-0.004276057,30.578224,-13.6698,-44.811665
2092139100000.0,-6.36845629804878,1.6759412,7.194711417839721,0.012217305,0.092240654,0.00030543262,30.522928,-13.690745,-44.82445
2092143964000.0,-6.41506900416038,1.672724848544945,7.160163010217719,0.009162978,0.09254608,-0.0067195175,30.479715,-13.70369,-44.839386
2092148964000.0,-6.473560669030682,1.6658434804340017,7.132637358137529,0.012217305,0.095294975,-0.014049901,30.436369,-13.717967,-44.85247
2092154001000.0,-6.532485172221024,1.658911190199037,7.1049080162319465,0.01160644,0.08124508,-0.0125227375,30.395739,-13.727991,-44.871418
2092159021000.0,-6.557122295509841,1.6600808977549204,7.0865336379586585,0.018936822,0.080634214,-0.017104227,30.359129,-13.737102,-44.895157
2092163963000.0,-6.566484088725151,1.6647617943625754,7.072490850380773,0.024129177,0.07666359,-0.021380283,30.32517,-13.745787,-44.91329
2092168967000.0,-6.559140220628586,1.653178057670242,7.080869507557995,0.025045475,0.07941248,-0.030848695,30.305582,-13.750347,-44.95005
2092174785000.0,-6.5406092593414815,1.6300143681549846,7.104033487320196,0.023823744,0.06963864,-0.043982297,30.292204,-13.753467,-44.982117
2092179072000.0,-6.524991950076805,1.609534230107527,7.1155677,0.028405234,0.06811147,-0.047036625,30.27026,-13.758627,-45.021526
2092184057000.0,-6.502075116359447,1.577450662903226,7.1155677,0.0290161,0.05589417,-0.048563786,30.256433,-13.760073,-45.055454
2092188952000.0,-6.475684312028279,1.54987995424668,7.11791179823254,0.031154128,0.051618114,-0.054061573,30.252941,-13.75979,-45.086246
2092194026000.0,-6.42925966007452,1.540594975379765,7.1318391453425045,0.037873644,0.05131268,-0.057421334,30.250948,-13.760359,-45.11396
2092199006000.0,-6.388886352149311,1.531903550625171,7.1446834574244775,0.034208454,0.04734206,-0.055283304,30.255474,-13.755154,-45.13842
2092204059000.0,-6.402135892762618,1.527487052459615,7.1491000478233095,0.036957346,0.037873644,-0.054061573,30.262718,-13.75154,-45.161114
2092208980000.0,-6.415039314365246,1.523185926896048,7.153401263210733,0.03359759,0.03848451,-0.053145275,30.263357,-13.749364,-45.179005
2092214030000.0,-6.429093849005072,1.5269233016777215,7.145452752672649,0.030848695,0.035430185,-0.04917465,30.264359,-13.748647,-45.19257
2092218942000.0,-6.442859379243075,1.531511795786188,7.136275716543113,0.022296581,0.03390302,-0.044898596,30.26479,-13.746314,-45.206238
2092224037000.0,-6.456695533993988,1.532289,7.146225874037198,0.03848451,0.030543262,-0.05131268,30.26858,-13.744376,-45.221237
2092228977000.0,-6.4700270840597405,1.532289,7.159557470505354,0.030848695,0.016493361,-0.047647487,30.268757,-13.739139,-45.231163
2092234059000.0,-6.466710463004345,1.5214727445065177,7.152635444506518,0.026267206,0.013439035,-0.034513887,30.259548,-13.73854,-45.247944
2092239098000.0,-6.456725465032071,1.5064952475481068,7.137657947548107,0.034513887,0.020463986,-0.030543262,30.253271,-13.737786,-45.263763
2092244651000.0,-6.442334836600625,1.4621156787278415,7.1222882202294056,0.02321288,0.02107485,-0.026572637,30.249172,-13.73301,-45.273724
2092248944000.0,-6.430642770319461,1.423142083761494,7.110595950469238,0.02076942,0.009773844,-0.025045475,30.245548,-13.731746,-45.281803
2092254090000.0,-6.416511082485605,1.3855626149232243,7.115516816458733,0.026267206,0.010995574,-0.018020526,30.236198,-13.728123,-45.29429
2092259028000.0,-6.402895898090211,1.3537937881477928,7.129132285191939,0.021380283,0.009773844,-0.022296581,30.23273,-13.72005,-45.30366
2092264044000.0,-6.400094492092706,1.3268153940013634,7.1347213,0.015577064,0.002443461,-0.029626964,30.23663,-13.70786,-45.315395
2092269039000.0,-6.404752746693933,1.3035238777875158,7.1347213,0.021685716,0.0021380284,-0.024129177,30.236504,-13.699085,-45.327515
2092274028000.0,-6.409412326813787,1.2852830931549657,7.142307180441363,0.009773844,-0.0015271631,-0.02321288,30.243475,-13.679917,-45.33868
2092279076000.0,-6.414132928942486,1.271121237476809,7.156468986827458,0.018020526,0.0030543262,-0.020463986,30.24648,-13.667766,-45.350967
2092284087000.0,-6.425565274140044,1.266414693535011,7.1771088612100655,0.01740966,0.0018325958,-0.022296581,30.256649,-13.648443,-45.36409
2092289008000.0,-6.44333077514843,1.2708560687871078,7.203757112722647,0.01863139,-0.0015271631,-0.0143553335,30.261574,-13.6340885,-45.376305
2092294012000.0,-6.4547677,1.2737153,7.210911738904161,0.021380283,0.0027488936,-0.014049901,30.26916,-13.619344,-45.39311
2092303989000.0,-6.450928475388519,1.2756349223279415,7.1634517,0.027488936,-0.004581489,-0.009162978,30.273935,-13.608395,-45.40431
2092309176000.0,-6.435173682619728,1.2835123598398352,7.1634517,0.034513887,-0.004886922,-0.009162978,30.277983,-13.595616,-45.417446
2092313996000.0,-6.420533601427213,1.2908324386536632,7.1634517,0.035430185,-0.0070249503,-0.008246681,30.280958,-13.587821,-45.431736
2092319041000.0,-6.4128544750737015,1.303687074778896,7.159845712727458,0.030848695,-0.013439035,-0.005497787,30.283968,-13.580754,-45.444218
2092323940000.0,-6.408085059276202,1.3179953221713938,7.155076346731727,0.02687807,-0.01038471,-0.0027488936,30.28575,-13.5742035,-45.45822
2092329051000.0,-6.384570485466747,1.3439126145332532,7.153875,0.025045475,-0.015882496,0.00030543262,30.285107,-13.570149,-45.46401
2092333979000.0,-6.35620847328726,1.3722746267127404,7.153875,0.03390302,-0.011911872,0.004581489,30.28134,-13.568292,-45.472538
2092339053000.0,-6.341845947237457,1.3942142055250863,7.150086414279911,0.029626964,-0.014049901,0.0021380284,30.270433,-13.564635,-45.479015
2092343933000.0,-6.332352746343693,1.4132006073126142,7.145339739488117,0.032375857,-0.017104227,0.007330383,30.254843,-13.56655,-45.484875
2092349025000.0,-6.311523163888618,1.4323643697400448,7.151796493593613,0.03359759,-0.010995574,0.004581489,30.235266,-13.570241,-45.486305
2092354068000.0,-6.28801240427417,1.4511729283321977,7.161200846538799,0.02565634,-0.01038471,0.01282817,30.210964,-13.575979,-45.483765
2092359039000.0,-6.289641920714645,1.4520463464720683,7.170708282828385,0.0125227375,-0.02107485,0.009773844,30.180489,-13.582334,-45.481686
2092364013000.0,-6.299231302073477,1.4472517308907902,7.180297614121791,0.016187929,-0.0125227375,0.01160644,30.142817,-13.593007,-45.483486
2092369026000.0,-6.279633787612387,1.460701285974026,7.178954443976024,0.01985312,-0.007330383,0.017104227,30.105276,-13.606236,-45.473984
2092374010000.0,-6.251023835164835,1.4797744714285714,7.174186135164836,0.015271631,-0.009468411,0.019547688,30.068523,-13.618113,-45.464912
2092379049000.0,-6.240724350704226,1.4944661580025609,7.189797096670935,0.01740966,-0.014966198,0.018020526,30.033386,-13.628575,-45.456036
2092384035000.0,-6.236357337022133,1.5075674726541064,7.211632621090177,0.020463986,-0.018020526,0.016493361,29.997753,-13.638704,-45.44697
2092389041000.0,-6.2345014,1.5218563801493008,7.241261281673851,0.020158553,-0.0070249503,0.024740042,29.95652,-13.656253,-45.433186
2092394193000.0,-6.2345014,1.5374194178109557,7.277574729260857,0.025961773,-0.004276057,0.021991149,29.922104,-13.67267,-45.417736
2092399022000.0,-6.2315885325903775,1.541866,7.279211397771133,0.021380283,-0.0125227375,0.018936822,29.884165,-13.688602,-45.395332
2092404144000.0,-6.227144175464347,1.541866,7.265878326393041,0.018020526,-0.012217305,0.02107485,29.844252,-13.706097,-45.375973
2092409034000.0,-6.234124640205973,1.5510660161894954,7.263819620102986,0.01160644,-0.016187929,0.026572637,29.79963,-13.725786,-45.34988
2092414242000.0,-6.254670870648815,1.5716121929969105,7.274092735324408,0.009468411,-0.013133603,0.026267206,29.755995,-13.744499,-45.32641
2092419028000.0,-6.255627720032376,1.5877771799676246,7.275838506677458,0.01985312,-0.01160644,0.032986723,29.711529,-13.767501,-45.30076
2092424022000.0,-6.241111368595711,1.60229353140429,7.270999722865237,0.011301007,-0.0076358155,0.025045475,29.672588,-13.782887,-45.278347
2092429886000.0,-6.224356604485099,1.6089035,7.262033273610702,0.012217305,-0.01282817,0.026267206,29.623001,-13.806328,-45.25363
2092433993000.0,-6.212750845382119,1.6089035,7.254296181666175,0.016798794,-0.008246681,0.028099801,29.575054,-13.826847,-45.2335
2092438994000.0,-6.208157001279654,1.6112894514519147,7.244871072182302,0.0067195175,-0.016798794,0.025961773,29.531889,-13.848201,-45.20505
2092443972000.0,-6.212849816123634,1.6159821682941236,7.235485589496998,0.014049901,-0.014966198,0.029626964,29.48447,-13.874871,-45.180187
2092448966000.0,-6.221995233244497,1.611832974207877,7.22162617580693,0.009162978,-0.014660766,0.022602014,29.442144,-13.8936615,-45.153282
2092454021000.0,-6.236330456815714,1.5974975510512288,7.202512228368375,0.009162978,-0.008246681,0.025350908,29.394217,-13.917186,-45.127567
2092458971000.0,-6.246183440182377,1.593960692427396,7.190076625770641,0.01038471,-0.003970624,0.016187929,29.351582,-13.933652,-45.10508
2092464155000.0,-6.251104360788978,1.6038023281098226,7.185155859312122,0.00580322,0.0067195175,0.020463986,29.301636,-13.952023,-45.084705
2092468971000.0,-6.248184867501341,1.597963235002683,7.195368961536397,0.003970624,-0.003970624,0.017715093,29.267971,-13.966625,-45.066643
2092473956000.0,-6.235376689715614,1.5723468794312287,7.22525475428367,-0.0009162979,-0.0015271631,0.008246681,29.232555,-13.978909,-45.055298
2092478993000.0,-6.222181477386934,1.5486995869346734,7.247814254773869,0.0027488936,-0.010079277,0.011301007,29.196712,-13.993181,-45.03663
2092484054000.0,-6.2078543942654445,1.5343725536801656,7.238262882648537,0.0125227375,0.0030543262,0.010995574,29.162874,-14.004847,-45.025826
2092489013000.0,-6.195494917354654,1.523411297245155,7.2304893,-0.0033597588,0.0018325958,0.01038471,29.136177,-14.0097885,-45.005398
2092494030000.0,-6.191319563031199,1.527586738767707,7.2304893,0.016493361,0.0018325958,0.009162978,29.10829,-14.023225,-44.98907
2092500130000.0,-6.187034984302326,1.5310362209302326,7.229654113953488,0.015577064,0.005192355,0.016187929,29.07975,-14.028825,-44.972782
2092504018000.0,-6.190642912674419,1.520212209767442,7.222438106511628,0.007330383,0.0067195175,0.010079277,29.057207,-14.033787,-44.95762
2092509070000.0,-6.1953309924418605,1.506147676744186,7.213061751162791,0.0036651916,0.005192355,0.013133603,29.03218,-14.043935,-44.93845
2092514022000.0,-6.21521142352128,1.511165569408512,7.215139184704256,0.017715093,0.01160644,0.022602014,29.005962,-14.0559,-44.922035
2092518968000.0,-6.238597842401501,1.5205201369606005,7.2198164684803,0.010079277,0.005192355,0.01160644,28.988613,-14.059148,-44.9037
2092523970000.0,-6.244078,1.5331077664720836,7.234773170869033,0.012217305,-0.00061086525,0.008246681,28.970911,-14.066918,-44.887432
2092529035000.0,-6.244078,1.5468089229074475,7.253041268176254,0.018936822,0.009773844,0.005192355,28.95605,-14.071802,-44.87508
2092534047000.0,-6.240925614907204,1.5388328633705846,7.262372050927959,0.0076358155,0.012217305,0.011911872,28.940708,-14.073622,-44.860287
2092539153000.0,-6.236046536918779,1.5193160928856515,7.267251230812214,0.008246681,0.0076358155,0.009773844,28.92967,-14.076499,-44.847683
2092543974000.0,-6.231321374380765,1.5226755432687324,7.256076330728574,0.010995574,0.008857546,0.002443461,28.913134,-14.079138,-44.83379
2092548974000.0,-6.226358787584205,1.5375634072960929,7.236226035361177,0.009162978,0.0061086523,0.003970624,28.895487,-14.082323,-44.817116
2092554041000.0,-6.234102718609984,1.544925340924325,7.227429927130005,0.016187929,0.0106901415,0.0012217305,28.889141,-14.07966,-44.80219
2092559123000.0,-6.246980465373082,1.5492178783559711,7.223137344875639,0.01282817,0.0018325958,0.0009162979,28.88354,-14.075532,-44.782776
2092563968000.0,-6.2557471158778775,1.5556269317557554,7.2209125,0.0067195175,0.002443461,0.004276057,28.868885,-14.0763645,-44.769257
2092569718000.0,-6.261187941883213,1.5665085837664263,7.2209125,0.00580322,-0.0009162979,0.0030543262,28.857996,-14.076521,-44.752968
2092573965000.0,-6.261204331791438,1.5685688317914386,7.214830074203692,0.0012217305,-0.002443461,0.0018325958,28.849121,-14.0725565,-44.737553
2092579013000.0,-6.256300326273077,1.5636648262730777,7.2001180064414685,0.008857546,0.0009162979,0.004276057,28.83915,-14.071427,-44.722538
2092583976000.0,-6.261607518999074,1.5510787785912885,7.198146441149212,-0.002443461,-0.002443461,0.002443461,28.83078,-14.067204,-44.706287
2092589018000.0,-6.27950778721038,1.5287032797775717,7.211571759128823,0.002443461,0.0018325958,-0.00580322,28.822544,-14.066839,-44.693577
2092598960000.0,-6.285915239666339,1.525229046947988,7.196725206104023,0.008552114,0.0036651916,-0.0009162979,28.818634,-14.067179,-44.677574
2092604068000.0,-6.2823853,1.5348716072005586,7.181314003141518,-0.0009162979,0.0036651916,0.0036651916,28.817547,-14.063657,-44.663303
2092609001000.0,-6.2823853,1.5442946851002293,7.176602488790266,0.007941248,0.008246681,0.005497787,28.820538,-14.057875,-44.653404
2092614061000.0,-6.284326742482504,1.549501257517496,7.178852797039145,0.00061086525,0.005192355,-0.0012217305,28.829384,-14.051365,-44.641582
2092618993000.0,-6.291591685064985,1.542236314935015,7.200647510997462,-0.0009162979,-0.00030543262,-0.004886922,28.836006,-14.048717,-44.630047
2092623936000.0,-6.2988728308851805,1.5349551691148196,7.222490834415135,0.013439035,0.0070249503,0.004886922,28.835762,-14.048687,-44.620285
2092629092000.0,-6.2930751931325934,1.5153613862651876,7.222025522592006,0.01038471,0.0027488936,0.009773844,28.840933,-14.04324,-44.60698
2092634038000.0,-6.280564138510301,1.490339277020602,7.209514511516112,0.0106901415,0.004276057,0.008857546,28.842787,-14.042059,-44.59699
2092639014000.0,-6.266063877286136,1.4714558386430678,7.20007278410767,0.0070249503,0.002443461,0.008246681,28.845427,-14.038645,-44.58372
2092643967000.0,-6.248573504719764,1.462710652359882,7.195700099649705,0.009773844,0.005192355,0.0036651916,28.84902,-14.035547,-44.57279
2092654031000.0,-6.240532286915984,1.4556746,7.198213138816948,0.01740966,0.0018325958,0.005192355,28.855179,-14.028513,-44.56155
2092659042000.0,-6.248318973004623,1.4585018956548537,7.2045862808936825,0.008857546,-0.005192355,0.010995574,28.861427,-14.0189295,-44.550232
2092663983000.0,-6.2629011912480745,1.4682233068104775,7.214307641294299,0.016798794,-0.0012217305,0.008552114,28.870373,-14.011083,-44.539806
2092668945000.0,-6.271672297493901,1.4748282,7.219776197493901,0.017715093,-0.0027488936,0.004886922,28.881413,-14.000593,-44.5251
2092679001000.0,-6.26455288440896,1.4748282,7.21265678440896,0.015577064,-0.0015271631,0.018020526,28.885862,-13.994207,-44.51107
2092683992000.0,-6.269546251682667,1.4811426846502795,7.220807394007807,0.0106901415,-0.005497787,0.009468411,28.893145,-13.983628,-44.500546
2092688993000.0,-6.279651394999473,1.491247880725815,7.23596513536238,0.019242255,-0.0033597588,0.0106901415,28.89076,-13.980128,-44.489914
2092693965000.0,-6.289350456782556,1.5009469204180064,7.247031120418006,0.01863139,-0.003970624,0.013133603,28.891588,-13.972766,-44.478237
2092698966000.0,-6.2989754219855305,1.5105718353697748,7.256656035369775,0.017715093,-0.0012217305,0.015577064,28.891163,-13.967384,-44.468067
2092704055000.0,-6.304698436415525,1.5099759305936074,7.2592196,0.01985312,0.0012217305,0.013744468,28.889603,-13.962758,-44.456963
2092709084000.0,-6.308927556919564,1.5057467659290482,7.2592196,0.007330383,0.00030543262,0.0143553335,28.8863,-13.956121,-44.44535
2092713968000.0,-6.3134236794698495,1.496634661590453,7.252295685690147,0.014049901,0.0106901415,0.010995574,28.878706,-13.957816,-44.43978
2092718965000.0,-6.318477567905798,1.4814729962826063,7.237134073154504,0.007330383,0.00030543262,0.013133603,28.871895,-13.955605,-44.427837
2092723963000.0,-6.309600436710114,1.4726097827091238,7.2216156076720015,0.009162978,0.0030543262,0.011911872,28.861856,-13.956237,-44.426014
2092729022000.0,-6.2896165520293685,1.4686129974261672,7.205628424806138,0.0067195175,-0.0036651916,0.01160644,28.853569,-13.955263,-44.41853
2092734006000.0,-6.272100969024934,1.4652514,7.192182,0.0061086523,0.0030543262,0.0106901415,28.850445,-13.953619,-44.41841
2092738983000.0,-6.267269858787756,1.4652514,7.192182,0.002443461,-0.0030543262,0.01282817,28.849033,-13.951398,-44.41274
2092748958000.0,-6.243931578401607,1.4575313194219173,7.192182,0.005497787,-0.002443461,0.01282817,28.843943,-13.951954,-44.411438
2092754925000.0,-6.224126862618701,1.4496094413807443,7.192182,0.016493361,0.0015271631,0.013439035,28.838362,-13.953838,-44.409084
2092758967000.0,-6.221011549476135,1.4446819904540162,7.199261473806752,0.010995574,0.009162978,0.019242255,28.82261,-13.955493,-44.409676
2092763990000.0,-6.241375192295481,1.4395910000105832,7.224716160228596,0.0143553335,0.011301007,0.0143553335,28.811243,-13.958803,-44.410667
2092768960000.0,-6.246205268996474,1.4350310693571655,7.246025784802821,0.009162978,0.004276057,0.018325957,28.792276,-13.96436,-44.408535
2092773955000.0,-6.22703401378647,1.4311968583520358,7.261362788970824,0.009162978,0.004581489,0.01740966,28.776154,-13.96936,-44.409687
2092779027000.0,-6.20756722571337,1.4273035413914716,7.276936219429304,0.0070249503,-0.0027488936,0.011301007,28.765034,-13.97179,-44.40747
2092783989000.0,-6.205771,1.443430807125072,7.270129924918597,0.021991149,0.005497787,0.0033597588,28.753155,-13.976859,-44.409653
2092788987000.0,-6.205771,1.4617662683202453,7.260962170388814,0.016187929,-0.0009162979,0.014049901,28.73982,-13.979817,-44.404587
2092793977000.0,-6.2291135472096535,1.469141824534942,7.251438750930116,0.017104227,0.0009162979,0.010079277,28.729036,-13.978364,-44.400787
2092798931000.0,-6.257737056832579,1.4739124094720966,7.241897581055807,0.021380283,0.0021380284,0.01282817,28.7129,-13.979974,-44.393375
2092804024000.0,-6.273954496738151,1.4819767142548206,7.225769046134438,0.01863139,0.0070249503,0.013133603,28.69447,-13.984509,-44.38827
2092809085000.0,-6.2870562756352495,1.4907112943233014,7.2082999772031,0.014660766,0.0061086523,0.016493361,28.67486,-13.9906225,-44.381317
2092813977000.0,-6.283428361803766,1.5025154976015858,7.20460353616452,0.014966198,0.010079277,0.016187929,28.656923,-13.995753,-44.382263
2092818971000.0,-6.269208478870168,1.5167354795242811,7.209343480644202,0.016493361,0.014049901,0.01740966,28.637705,-14.00114,-44.382313
2092824650000.0,-6.2632318,1.526238369289314,7.221914171048031,0.017715093,0.003970624,0.014966198,28.624193,-14.004161,-44.381798
2092829056000.0,-6.2632318,1.5305781184202407,7.234933373125578,0.01740966,0.016493361,0.021685716,28.603617,-14.009127,-44.38718
2092833977000.0,-6.260206146973606,1.5262376939472118,7.2309890725143875,0.01038471,0.014049901,0.01863139,28.585289,-14.01595,-44.3843
2092839055000.0,-6.255380686525104,1.5165867730502085,7.216512741555864,0.012217305,0.0061086523,0.013744468,28.564756,-14.025132,-44.38261
2092843966000.0,-6.253655,1.4861037339793282,7.2113357,0.014049901,0.0070249503,0.012217305,28.541712,-14.033746,-44.38073
2092848998000.0,-6.253655,1.4421543499999998,7.2113357,0.01863139,0.007330383,0.013439035,28.52109,-14.04255,-44.376644
2092854489000.0,-6.255930949576359,1.405951938065716,7.210880514837776,0.015271631,0.005497787,0.009773844,28.505594,-14.047211,-44.374416
2092859181000.0,-6.279145635255218,1.4848819663360198,7.206237626183095,0.013744468,0.004886922,0.0067195175,28.489641,-14.053242,-44.372295
2092864155000.0,-6.302842806158833,1.5623233106969203,7.201759,0.0076358155,0.006414085,0.006414085,28.489767,-14.048096,-44.37368
2092869071000.0,-6.317149750526743,1.5766303048622363,7.201759,0.009468411,0.0067195175,0.004581489,28.491957,-14.043273,-44.37489
2092874028000.0,-6.3302693,1.591320813581149,7.201366263403051,0.0036651916,0.00030543262,0.0070249503,28.475235,-14.052377,-44.37361
2092879250000.0,-6.3302693,1.6095909933601242,7.1967986230706,0.004581489,-0.0018325958,0.004886922,28.460796,-14.061475,-44.374004
2092884052000.0,-6.3302693,1.6263917216823454,7.192598353274271,0.004886922,-0.0021380284,0.0125227375,28.444454,-14.07372,-44.37161
2092889067000.0,-6.3061488785350965,1.6280571,7.184141887496532,0.00580322,-0.005497787,0.017715093,28.430977,-14.084918,-44.36816
2092894846000.0,-6.275439049135301,1.6280571,7.173905313326552,0.006414085,-0.0027488936,0.015577064,28.417057,-14.095741,-44.36617
2092899118000.0,-6.266486556200298,1.6280571,7.169867478100149,0.009773844,-0.004886922,0.0030543262,28.40159,-14.107922,-44.36165
2092904042000.0,-6.258244633068252,1.6280571,7.165746516534126,0.00580322,-0.014049901,0.0021380284,28.38371,-14.120237,-44.354958
2092908943000.0,-6.262599928942246,1.6235846121782391,7.154506724356479,-0.005192355,-0.0036651916,0.0067195175,28.365812,-14.129855,-44.349674
2092913891000.0,-6.283099932835821,1.613334556716418,7.134006613432836,-0.0009162979,-0.003970624,0.00580322,28.353382,-14.140036,-44.339767
2092918887000.0,-6.294709689194617,1.592417709118297,7.122396868186383,0.00061086525,-0.004886922,0.003970624,28.33978,-14.148025,-44.330532
2092923886000.0,-6.299517423980719,1.5635719028118096,7.117589233801968,-0.0061086523,-0.00061086525,0.008552114,28.323786,-14.156046,-44.322136
2092928912000.0,-6.296109487755696,1.543298445807077,7.13728560724188,-0.02076942,0.0015271631,0.0067195175,28.319586,-14.156442,-44.317654
2092933877000.0,-6.286890086834706,1.5294693684924867,7.174162970256908,-0.014660766,-0.007941248,-0.005497787,28.318817,-14.158233,-44.31175
2092938869000.0,-6.289895712224939,1.5101948462917685,7.189678555399348,-0.005497787,-0.009162978,-0.006414085,28.32472,-14.153485,-44.309124
2092948858000.0,-6.3085874512,1.4621868504,7.1826053,-0.0143553335,-0.0070249503,-0.0018325958,28.333847,-14.14507,-44.305557
2092953992000.0,-6.30384848466506,1.4384918197879517,7.1826053,0.00061086525,-0.007941248,0.0076358155,28.34376,-14.140512,-44.29543
2092958981000.0,-6.303896443620706,1.4222293142927842,7.177890363525686,0.0067195175,-0.01282817,0.014049901,28.359701,-14.130368,-44.28966
2092964187000.0,-6.308831245184599,1.4123595050480056,7.1680206573394045,0.0067195175,-0.0076358155,0.004276057,28.376734,-14.120663,-44.287125
2092968927000.0,-6.304696268469505,1.41207016570771,7.1634517,-0.004581489,-0.009162978,0.015577064,28.39058,-14.109458,-44.279213
2092973929000.0,-6.290915154085155,1.4212576712313003,7.1634517,-0.00061086525,-0.00061086525,0.009162978,28.412374,-14.095823,-44.27819
2092978941000.0,-6.2872178385304185,1.431776821710122,7.166673392353613,-0.0015271631,-0.0033597588,0.013439035,28.430643,-14.084123,-44.27441
2092983980000.0,-6.299927213089281,1.4444861520323062,7.175146308726188,0.00580322,-0.008857546,0.007941248,28.45398,-14.071686,-44.273754
2092988978000.0,-6.308852629443919,1.456240369115947,7.183736844139598,0.01282817,-0.0036651916,0.0125227375,28.462864,-14.068595,-44.273598
2092993928000.0,-6.288919890560286,1.4612235668453697,7.193703291632502,0.0076358155,-0.004886922,0.013744468,28.476608,-14.062663,-44.271122
2092998938000.0,-6.2728086,1.4669646963120568,7.200902333953901,0.007330383,-0.012217305,0.0076358155,28.491247,-14.054922,-44.266743
2093004118000.0,-6.2728086,1.475760409787234,7.19650438537234,0.008552114,-0.00580322,0.011301007,28.499935,-14.048779,-44.264706
2093009012000.0,-6.2728086,1.4840704912056737,7.192349257890071,0.013439035,-0.0030543262,0.016493361,28.50937,-14.042986,-44.255566
2093014038000.0,-6.26399557147213,1.4976245427918056,7.227434114111482,0.012217305,0.00061086525,0.0036651916,28.52306,-14.03334,-44.249928
2093018936000.0,-6.255056616464984,1.511032975302525,7.263189934140067,0.004276057,-0.0030543262,0.005192355,28.529924,-14.027376,-44.241283
2093024022000.0,-6.249614205980066,1.505053980730897,7.260715065116279,0.006414085,-0.005192355,0.004276057,28.542799,-14.02202,-44.234295
