timestamp,acc_x,acc_y,acc_z,gyro_x,gyro_y,gyro_z,ori_azimuth,ori_pitch,ori_roll
520083485000.0,-1.977335218798552,9.883849943262698,-0.3154838787845203,-1.1313224,0.7244862,0.03848451,270.58032,-7.9090495,-53.094208
520088486000.0,-1.9766047477650792,9.881171569813317,-0.3140229354463232,-1.1313224,0.75808376,0.028405234,270.58405,-7.908926,-53.11044
520093496000.0,-1.975872962146663,9.878488376255744,-0.3125593629359519,-1.1792754,0.7486154,0.035430185,-42.08746,-8.522572,-53.278008
520098488000.0,-1.9751438056981332,9.875814822914547,-0.3111010487699293,-1.176221,0.7415904,0.036651913,-41.782124,-9.131239,-53.446716
520103495000.0,-1.9744124582746985,9.873133236059704,-0.3096383526502826,-1.1691961,0.7440339,0.03359759,-40.81063,-9.72431,-53.604904
520108518000.0,-1.973678773811364,9.87044308012364,-0.3081709824467706,-1.1688906,0.73884153,0.033292156,-39.315548,-10.309772,-53.747982
520113502000.0,-1.972950785882784,9.867773811323056,-0.3067150053226807,-1.1673635,0.76174897,0.028710667,-37.38601,-10.887737,-53.888893
520118490000.0,-1.972222213694229,9.865102400252164,-0.3052578596776243,-1.1749994,0.7788532,0.03848451,-34.94015,-11.461088,-54.013878
520123486000.0,-1.9714924729857244,9.862426704640662,-0.3037983769906353,-1.1997393,0.7825184,0.04153884,266.21265,-12.023337,-54.13052
520128518000.0,-1.9707574739374467,9.859731728596412,-0.3023283776149489,-1.2189816,0.7858781,0.043982297,265.47763,-12.581949,-54.238476
520134082000.0,-1.969944768312523,9.856751830601535,-0.3007029649507362,-1.2305881,0.7703011,0.06627888,264.71506,-13.138257,-54.327393
520138502000.0,-1.9692991610403876,9.85438462191402,-0.2994117492829036,-1.2229522,0.766025,0.05681047,263.94482,-13.682924,-54.41087
520143491000.0,-1.968570442786839,9.85171267527555,-0.2979543115076056,-1.2428054,0.7644979,0.058337633,263.14612,-14.225103,-54.474503
520148490000.0,-1.9678402638833528,9.84903537296132,-0.2964939524298918,-1.2406673,0.754724,0.061391957,262.33948,-14.76599,-54.523106
520153515000.0,-1.967106287290032,9.846344145890104,-0.2950259979658966,-1.2415836,0.7458665,0.07666359,261.51477,-15.302841,-54.557095
520158496000.0,-1.9663787375564323,9.843676483792247,-0.2935708972325314,-1.2449434,0.7312057,0.08307768,260.68597,-15.8346195,-54.575226
520163500000.0,-1.9656478283279784,9.840996503640136,-0.2921090775036096,-1.2400564,0.72387534,0.09743301,259.8392,-16.36964,-54.577267
520168494000.0,-1.9649183797494607,9.838321879163784,-0.2906501790771038,-1.2479976,0.691194,0.103847094,258.99658,-16.898426,-54.557133
520173525000.0,-1.9641835267661771,9.83562743868711,-0.289180471831659,-1.235475,0.6356053,0.10140363,258.1552,-17.428968,-54.51669
520178557000.0,-1.9634485277179,9.83293246264286,-0.2877104724559727,-1.1545353,0.559858,0.10323623,257.32098,-17.967743,-54.450092
520183532000.0,-1.962721854374263,9.83026801395046,-0.286257124504057,-1.0519099,0.49510628,0.1001819,256.50177,-18.506393,-54.362717
520188549000.0,-1.9619890463008909,9.827581071419855,-0.2847915070819946,-0.9077458,0.42302418,0.09193522,255.70857,-19.05881,-54.245426
520193538000.0,-1.9612603280473424,9.824909124781389,-0.2833340693066966,-0.77732605,0.35979962,0.08979719,254.93398,-19.621378,-54.104385
520198533000.0,-1.9605307334038315,9.822233964737462,-0.2818748787499491,-0.65118235,0.27183503,0.07147124,254.20268,-20.194532,-53.935207
520204088000.0,-1.959719342363851,9.819258886850774,-0.2802520952579107,-0.4709771,0.015577064,0.019547688,253.56052,-20.781542,-53.710217
520208535000.0,-1.9590697913368853,9.816877217838694,-0.2789529920735552,0.00030543262,-0.029321533,-0.00030543262,252.88725,-21.428034,-53.50355
520213559000.0,-1.958335960808557,9.814186526335057,-0.2774853297398015,0.06658431,0.00030543262,0.01038471,252.28665,-22.0325,-53.2523
520218538000.0,-1.9576087032049456,9.81151993537235,-0.2760308132669195,0.006414085,0.0125227375,0.015577064,251.72739,-22.67553,-52.98474
520223547000.0,-1.9568770636515236,9.808837277382356,-0.2745675328867898,-0.01282817,-0.002443461,0.013439035,251.18018,-23.329409,-52.710712
520228565000.0,-1.956144109513157,9.806149799284174,-0.2731016233344857,-0.0009162979,0.0012217305,0.0106901415,250.63596,-23.974783,-52.43652
520233573000.0,-1.9554126160247287,9.803467676861755,-0.2716386350845975,-0.008857546,-0.0067195175,0.0070249503,250.11545,-24.608301,-52.15166
520238605000.0,-1.954677616976451,9.800772700817504,-0.2701686357089112,-0.004276057,0.008857546,0.006414085,249.60074,-25.239717,-51.867294
520243635000.0,-1.953942910058161,9.798078795908406,-0.2686992205937081,-0.014660766,0.018020526,0.01038471,249.10498,-25.862394,-51.574947
520248573000.0,-1.9532216411192909,9.795434163216331,-0.2672566814607313,-0.020158553,0.008857546,0.008857546,248.62695,-26.479038,-51.278873
520253563000.0,-1.9524927768007485,9.792761681010289,-0.2657989515551918,-0.021685716,0.012217305,0.009162978,248.15475,-27.090258,-50.981945
520258575000.0,-1.9517606990523448,9.790077416317564,-0.2643347947843372,-0.026267206,0.014966198,0.009773844,247.67728,-27.708004,-50.674458
520263544000.0,-1.95103490209867,9.787416181030624,-0.2628831996138712,-0.027183503,0.017715093,0.008857546,247.21466,-28.319305,-50.364395
520268568000.0,-1.9503010715703424,9.784725489526986,-0.2614155372801175,-0.022296581,0.022602014,0.01282817,246.76436,-28.925648,-50.050987
520273825000.0,-1.949533207898483,9.781910010778052,-0.2598798086000732,-0.029321533,0.022296581,0.014049901,246.33138,-29.522728,-49.735153
520278578000.0,-1.9488389609834469,9.779364458087606,-0.2584913135617908,-0.036651913,0.02076942,0.018325957,245.91055,-30.11555,-49.41608
520283561000.0,-1.94811111911986,9.776695724854598,-0.2570356285679424,-0.025350908,0.024129177,0.019242255,245.50398,-30.70272,-49.096237
520288588000.0,-1.9473768503965512,9.774003426648228,-0.255567089843464,-0.028099801,0.01740966,0.013133603,245.11713,-31.279516,-48.77329
520293565000.0,-1.9466498849229268,9.771337906820676,-0.2541131576310652,-0.0290161,0.009773844,0.011301007,244.74283,-31.852606,-48.448284
520298574000.0,-1.9459182453695043,9.768655248830685,-0.2526498772509354,-0.027183503,0.01282817,0.015882496,244.38171,-32.418957,-48.12285
520303586000.0,-1.9451861676211009,9.765970984137958,-0.251185720480081,-0.028710667,0.01282817,0.019547688,244.03929,-32.97721,-47.795517
520308569000.0,-1.944458325757514,9.76330225090495,-0.2497300354862325,-0.022907447,0.018936822,0.016187929,243.70834,-33.52921,-47.469894
520313584000.0,-1.9437258098141292,9.760616379509496,-0.2482650023246533,-0.022907447,0.017104227,0.016493361,243.39209,-34.07518,-47.14113
520318531000.0,-1.943003226290316,9.757966926709235,-0.2468198340195022,-0.018020526,0.014049901,0.01740966,243.08838,-34.61496,-46.813927
520323576000.0,-1.9422663283971204,9.755264988286491,-0.2453460369506751,-0.014966198,0.0009162979,0.0106901415,242.80371,-35.14571,-46.486973
520328674000.0,-1.941521689059259,9.752534664782202,-0.2438567569790438,-0.016798794,0.0027488936,0.02107485,242.52377,-35.674103,-46.1582
520333567000.0,-1.940806993045105,9.749914132631066,-0.2424273637069386,-0.018936822,0.005192355,0.019547688,242.26501,-36.191223,-45.832813
520338555000.0,-1.9400784208565505,9.747242721560172,-0.2409702180618823,-0.014966198,0.005497787,0.014966198,242.017,-36.703842,-45.50676
520343576000.0,-1.9393450285232032,9.744553636759264,-0.2395034321188534,-0.0125227375,0.0076358155,0.016493361,241.77856,-37.210236,-45.181526
520348549000.0,-1.938618647309554,9.741890259202018,-0.238050668427421,-0.02107485,0.0009162979,0.015577064,241.55634,-37.707035,-44.858242
520353542000.0,-1.9378893447960304,9.739216170293243,-0.2365920621311567,-0.009468411,0.0067195175,0.01863139,241.33932,-38.2013,-44.53737
520358545000.0,-1.93715858163257,9.736536725708708,-0.2351305345324765,-0.014049901,0.0036651916,0.013133603,241.14072,-38.68311,-44.21846
520363567000.0,-1.9364250432342291,9.73384710534022,-0.2336634564592061,-0.009468411,-0.008857546,0.012217305,240.95271,-39.162716,-43.89915
520368544000.0,-1.9356980777606048,9.731181585512669,-0.2322095242468072,-0.0027488936,0.00030543262,0.019242255,240.76831,-39.63585,-43.5839
520373460000.0,-1.9349800222515965,9.728548735307276,-0.2307734119791455,-0.016187929,0.0012217305,0.0061086523,240.60529,-40.094856,-43.273415
520378511000.0,-1.934242247968439,9.725843583479074,-0.2292978621288689,-0.01160644,0.0015271631,0.009468411,240.44492,-40.556293,-42.960545
520383493000.0,-1.9335145521698456,9.723175385813642,-0.2278424692652621,-0.0125227375,-0.01282817,0.007330383,240.3023,-41.00393,-42.653095
520388474000.0,-1.9327870024362468,9.720507723715786,-0.2263873685318969,-0.013439035,-0.01863139,0.006414085,240.16516,-41.446712,-42.34825
520393467000.0,-1.9320576999227237,9.717833634807011,-0.2249287622356326,-0.01160644,-0.014049901,0.0021380284,240.03934,-41.88177,-42.047043
520398502000.0,-1.9313222626794648,9.715137052060031,-0.2234578864692215,-0.007330383,-0.0106901415,0.009162978,239.92299,-42.313213,-41.7451
520403503000.0,-1.930591791645992,9.712458678610648,-0.2219969431310245,-0.0033597588,-0.014660766,-0.0012217305,239.81963,-42.732845,-41.451324
520408511000.0,-1.929860298157563,9.70977655618823,-0.2205339548811364,-0.002443461,-0.014966198,0.010079277,239.71745,-43.15363,-41.15395
520413500000.0,-1.9291315799040143,9.707104609549765,-0.2190765171058384,0.0009162979,-0.02107485,0.009468411,239.63028,-43.563126,-40.864212
520418489000.0,-1.9284028616504656,9.704432662911294,-0.2176190793305405,0.0070249503,-0.01740966,0.005497787,239.5464,-43.968807,-40.57665
520423484000.0,-1.9276732670069547,9.70175750286737,-0.216159888773793,0.009468411,-0.008246681,0.014660766,239.4684,-44.37145,-40.28887
520428502000.0,-1.9269403128685887,9.699070024769188,-0.214693979221489,0.0070249503,-0.008552114,0.01160644,239.40227,-44.76384,-40.007866
520433529000.0,-1.92620604414528,9.69637772656282,-0.2132254404970106,0.013439035,-0.0036651916,0.0070249503,239.33727,-45.153397,-39.72972
520438500000.0,-1.925479955061618,9.693715420140723,-0.2117732610660613,0.02076942,-0.004276057,0.013744468,239.28009,-45.538803,-39.451992
520443494000.0,-1.924570414978432,9.691851590953467,-0.2157774374645102,0.0106901415,0.004581489,0.007941248,239.2273,-45.91238,-39.183605
520448485000.0,-1.9231419207818208,9.692327739940826,-0.2355382531340592,0.018936822,0.009162978,0.010079277,239.1808,-46.28683,-38.914074
520453486000.0,-1.9217105644449648,9.692804842943389,-0.2553386617021648,0.016798794,0.0061086523,0.009162978,239.14124,-46.651722,-38.645065
520458824000.0,-1.9201827539818288,9.693314096258256,-0.2764733509516243,0.01863139,0.01160644,0.007941248,239.10382,-47.0128,-38.380096
520463499000.0,-1.918844703416981,9.693760098365228,-0.2949830310267879,0.021380283,0.01038471,0.0061086523,239.0766,-47.36764,-38.117733
520468485000.0,-1.9174176402904928,9.694235770344989,-0.3147240502470587,0.015577064,0.0125227375,0.009468411,239.05234,-47.71712,-37.858406
520473508000.0,-1.915979987245096,9.694714972180993,-0.3346115631919885,0.0070249503,0.0143553335,0.017104227,239.03464,-48.061672,-37.601475
520478530000.0,-1.914542620413724,9.695194078615476,-0.3544951168470627,0.017104227,0.01863139,0.014660766,239.02234,-48.40046,-37.350044
520483502000.0,-1.9131195642835797,9.69566841497395,-0.3741807060093544,0.01282817,0.013744468,0.011911872,239.01758,-48.733047,-37.099224
520488546000.0,-1.9116759007436663,9.69614962024188,-0.3941513640412528,0.015577064,0.016798794,0.012217305,239.01443,-49.06238,-36.852688
520493515000.0,-1.910253703255596,9.696623670395793,-0.4138250753339776,0.013133603,0.009468411,0.014966198,239.02211,-49.385227,-36.60807
520498514000.0,-1.9088229193467887,9.697100582595311,-0.4336175653223718,0.01740966,0.008246681,0.014049901,239.03256,-49.703014,-36.368504
520503512000.0,-1.9073924216520055,9.697577399393312,-0.4534060960209104,0.016187929,0.003970624,0.0106901415,239.05176,-50.014782,-36.13121
520508517000.0,-1.905959920459051,9.698054884001952,-0.4732223417484385,0.015882496,0.008857546,0.013744468,239.07278,-50.32346,-35.89643
520513541000.0,-1.9045219811996292,9.698534181239475,-0.4931138139832239,0.021991149,0.013744468,0.008857546,239.10144,-50.62471,-35.66762
520518521000.0,-1.903096635357289,9.699009280810111,-0.5128310774643609,0.017715093,0.0076358155,0.008857546,239.1361,-50.921844,-35.439407
520523526000.0,-1.9016641341643337,9.699486765418754,-0.5326473231918889,0.0061086523,0.007941248,0.016187929,239.17145,-51.214565,-35.214737
520529192000.0,-1.9000424455011409,9.700027310432253,-0.5550806595140017,0.008857546,0.0012217305,0.012217305,239.21689,-51.5006,-34.995266
520533532000.0,-1.8988002766345224,9.700441353029955,-0.5722639774875227,0.00580322,0.0076358155,0.016493361,239.26062,-51.78402,-34.775936
520538560000.0,-1.8973611925190024,9.700921031873564,-0.5921712868817307,0.008246681,0.01038471,0.011301007,239.31339,-52.060104,-34.56264
520543539000.0,-1.8959361328906863,9.701396036042675,-0.611884591073012,0.0012217305,0.0021380284,0.0067195175,239.3713,-52.33145,-34.350876
520548533000.0,-1.894506780052002,9.701872471234596,-0.6316572846121279,-0.0009162979,0.010995574,0.0143553335,239.42592,-52.6009,-34.141968
520553560000.0,-1.8930679821505063,9.702352054676682,-0.6515606347164803,-0.006414085,0.005497787,0.013133603,239.49316,-52.8612,-33.938072
520558514000.0,-1.8916500778728045,9.702824673807791,-0.6711749566613703,-0.002443461,0.010079277,0.011301007,239.55722,-53.119728,-33.736893
520563559000.0,-1.8902061281188671,9.703305974477242,-0.6911495739831244,-0.007941248,0.003970624,0.010079277,239.63022,-53.372135,-33.537727
520568539000.0,-1.8887807822765263,9.703781074047878,-0.7108668374642613,-0.0009162979,0.008246681,0.004581489,239.70236,-53.620434,-33.344486
520573550000.0,-1.887346563799424,9.70425913106564,-0.7307068389309233,-0.009162978,0.004581489,0.0009162979,239.78238,-53.86246,-33.153057
520578561000.0,-1.8859123453223217,9.704737188083405,-0.7505468403975853,-0.0027488936,0.010995574,0.01038471,239.86028,-54.104717,-32.96359
520583567000.0,-1.8844795579153424,9.705214768093564,-0.770367045414969,-0.0030543262,0.005192355,0.016798794,239.94714,-54.339565,-32.777733
520588571000.0,-1.8830473429364123,9.705692157300684,-0.7901793318526416,0.005497787,0.008857546,0.0009162979,240.03296,-54.5686,-32.59956
520593567000.0,-1.8816174176696785,9.706168783295643,-0.8099599439714689,0.00030543262,0.006414085,0.0027488936,240.12357,-54.79858,-32.416798
520598918000.0,-1.880085886424224,9.706679276830275,-0.8311461039890519,-0.002443461,0.0061086523,0.005497787,240.21645,-55.02186,-32.241444
520603529000.0,-1.878766153556948,9.707119173239956,-0.8494023895134538,0.004276057,0.010079277,0.0027488936,240.3118,-55.24079,-32.070057
520608553000.0,-1.8773282142975265,9.70759847047748,-0.8692938617482393,-0.0018325958,0.0070249503,0.0067195175,240.41147,-55.456867,-31.898338
520613585000.0,-1.8758879853259085,9.708078530927168,-0.88921700830187,-0.00030543262,0.010995574,0.0125227375,240.51024,-55.67049,-31.730385
520618564000.0,-1.874462925697592,9.708553535096282,-0.9089303124931511,-0.002443461,0.01160644,0.01038471,240.61395,-55.87839,-31.565836
520623574000.0,-1.8730289934345143,9.709031496712525,-0.9287663546699576,0.0012217305,0.00580322,0.01740966,240.71973,-56.087433,-31.399693
520628551000.0,-1.8716045062342477,9.7095063100786,-0.9484717402815276,0.004276057,0.005497787,0.01985312,240.82645,-56.290836,-31.23853
520633554000.0,-1.8701725774693416,9.7099836038842,-0.9682800674293444,0.011911872,0.0015271631,0.017104227,240.9384,-56.49203,-31.078943
520638584000.0,-1.8687329209257728,9.710463473530847,-0.9881952954032636,0.013744468,0.0030543262,0.013439035,241.05078,-56.689854,-30.92195
520643543000.0,-1.8679145988344945,9.710991324066498,-1.005510037681362,0.0067195175,0.011301007,0.01282817,241.1644,-56.88421,-30.767673
520648583000.0,-1.8717677214321355,9.711954599058016,-1.0050283976709842,0.014966198,0.009468411,0.016798794,241.28285,-57.077145,-30.615177
520653555000.0,-1.8755688574550464,9.712904877482188,-1.0045532559782069,0.014966198,0.0076358155,0.009162978,241.33585,-57.299435,-30.465355
520658549000.0,-1.8793868126638995,9.713859360678148,-1.0040760118885586,0.008552114,0.0015271631,0.013439035,241.39334,-57.52187,-30.31293
520663587000.0,-1.8832384062446368,9.714822253417688,-1.003594563005169,0.011301007,-0.0015271631,0.01985312,241.45425,-57.739517,-30.164297
520668590000.0,-1.8870632420295568,9.71577845674756,-1.0031164588440735,0.013744468,0.01038471,0.010995574,241.51639,-57.949387,-30.02148
520673567000.0,-1.8908682005947277,9.716729690801683,-1.0026408393338258,0.015271631,0.0036651916,0.01160644,241.58768,-58.159626,-29.875149
520678540000.0,-1.8946701011260905,9.717680160351849,-1.002165602077554,0.0036651916,-0.0033597588,0.01038471,241.65959,-58.362053,-29.734478
520683554000.0,-1.8985033465039811,9.718638466067617,-1.0016864467180235,0.011911872,0.0012217305,0.008857546,241.73337,-58.562717,-29.595955
520688574000.0,-1.902341178932584,9.719597918539325,-1.001206717977528,0.009773844,0.005192355,0.0076358155,241.81302,-58.757347,-29.45924
520693577000.0,-1.9061660147175048,9.7205541218692,-1.0007286138164329,0.0076358155,0.0018325958,0.013744468,241.89644,-58.950634,-29.322693
520698564000.0,-1.909978618367194,9.721507267183227,-1.0002520386712437,0.01038471,0.0015271631,0.0018325958,241.98189,-59.135307,-29.193861
520703540000.0,-1.913782812423913,9.722458310111362,-0.9997765147244896,0.0030543262,-0.009162978,-0.007330383,242.07425,-59.31773,-29.063791
520708553000.0,-1.917615293293352,9.72341642470114,-0.9992974549284532,-0.004886922,-0.010995574,0.006414085,242.1661,-59.499893,-28.93295
520713583000.0,-1.921460770806474,9.724377788432754,-0.9988167705530164,0.004276057,-0.013744468,0.008552114,242.26563,-59.67392,-28.809198
520718579000.0,-1.925280255032231,9.725332653880695,-0.9983393353363802,0.0106901415,-0.013744468,0.005192355,242.367,-59.845947,-28.685081
520723555000.0,-1.9290844490889496,9.726283696808828,-0.9978638113896262,0.0015271631,-0.016187929,-0.0036651916,242.47278,-60.013237,-28.563574
520728552000.0,-1.9329046978231583,9.72723875338276,-0.9973862806094956,-0.005192355,-0.013744468,-0.005192355,242.5792,-60.17915,-28.443045
520733556000.0,-1.9367302981165304,9.728195147838624,-0.9969080808849063,0.0015271631,-0.017104227,0.0018325958,242.69061,-60.34224,-28.32401
520738531000.0,-1.9405337276647967,9.72914599964077,-0.9964326525016464,0.00580322,-0.01038471,0.0009162979,242.8007,-60.49894,-28.210018
520743574000.0,-1.944389143787794,9.730109848010258,-0.9959507258007864,0.0018325958,-0.011911872,0.0021380284,242.91623,-60.655033,-28.094707
520748558000.0,-1.948199453912128,9.731062419946314,-0.9954744373460794,0.00580322,-0.018936822,-0.004886922,243.03392,-60.8066,-27.983831
520753554000.0,-1.9520189381378847,9.732017285394257,-0.994997002129443,0.010079277,-0.020463986,-0.002443461,243.15182,-60.957893,-27.871874
520758552000.0,-1.9558399513805456,9.73297253309418,-0.9945193757858184,0.0076358155,-0.017104227,-0.005497787,243.27292,-61.102695,-27.765074
520763591000.0,-1.9596923094697347,9.733935616959704,-0.9940378313389348,0.00580322,-0.020158553,0.0012217305,243.39783,-61.248436,-27.6562
520768564000.0,-1.9634942100010973,9.734886086509867,-0.9935625940826632,0.0012217305,-0.021380283,-0.00061086525,243.52339,-61.387844,-27.55251
520773561000.0,-1.9673144587353064,9.7358411430838,-0.9930850633025324,0.011301007,-0.020158553,0.004886922,243.6502,-61.529373,-27.4465
520778537000.0,-1.971118652792025,9.736792186011934,-0.9926095393557788,0.0106901415,-0.009162978,-0.0061086523,243.77673,-61.66204,-27.347694
520784225000.0,-1.9754671768665053,9.73787931064522,-0.9920659742012096,0.008246681,-0.005497787,-0.010079277,243.90622,-61.796135,-27.246765
520790542000.0,-1.9802965767572396,9.739086653526453,-0.9914622996088372,0.022296581,-0.0033597588,-0.01038471,244.03455,-61.92675,-27.149858
520793569000.0,-1.98261074384118,9.739665191899334,-0.991173028912128,0.013133603,-0.007330383,-0.020463986,244.1657,-62.049248,-27.058308
520798566000.0,-1.9864309925753885,9.740620248473268,-0.9906954981319976,0.004886922,0.002443461,-0.020463986,244.29282,-62.173046,-26.966051
520803576000.0,-1.9902611799194725,9.741577789685074,-0.9902167250264434,-0.0018325958,0.0021380284,-0.021991149,244.42625,-62.29074,-26.878023
520808557000.0,-1.9940691965184505,9.74252978824316,-0.9897407232622188,0.013439035,0.006414085,-0.025045475,244.55646,-62.40662,-26.792343
520813562000.0,-1.9978955613202745,9.743486373825014,-0.9892624279741352,-0.00061086525,0.003970624,-0.021991149,244.68997,-62.519157,-26.706503
520818562000.0,-2.001718103579839,9.744442003776918,-0.9887846105035224,-0.013133603,0.00030543262,-0.03145956,244.82428,-62.626266,-26.626541
520823556000.0,-2.005536058788692,9.745396486972878,-0.9883073664138744,-0.01160644,-0.0027488936,-0.034208454,244.95996,-62.733955,-26.545086
520828555000.0,-2.0093578365398046,9.74635192579879,-0.9878296445067556,-0.017715093,-0.007330383,-0.032375857,245.09846,-62.83698,-26.466135
520833587000.0,-2.0132048430698304,9.747313671782385,-0.9873487690043308,-0.018325957,-0.0018325958,-0.030848695,245.23581,-62.937634,-26.38952
520838610000.0,-2.017044969023789,9.748273697632069,-0.986868753573353,-0.01985312,-0.0015271631,-0.027794369,245.37701,-63.03687,-26.312887
520843762000.0,-2.0204300255295378,9.74953421786278,-0.9862730127827926,-0.028710667,-0.005192355,-0.029321533,245.51868,-63.132893,-26.238403
520848571000.0,-2.0167712844043253,9.754107641284596,-0.9844436424589628,-0.02565634,-0.010995574,-0.024740042,245.66144,-63.230236,-26.162498
520853641000.0,-2.0129139715524174,9.758929279202787,-0.982514986284744,-0.04062254,-0.014966198,-0.025045475,245.80917,-63.31378,-26.097427
520858613000.0,-2.0091312181994216,9.763657717808163,-0.9806236098551157,-0.04184427,-0.008552114,-0.021380283,245.95555,-63.399014,-26.031246
520863611000.0,-2.005328683754878,9.76841088276184,-0.978722342881004,-0.063224554,-0.008552114,-0.023823744,246.10556,-63.47885,-25.96776
520868599000.0,-2.0015337574224685,9.773154537581553,-0.9768248799624633,-0.07086037,-0.0015271631,-0.014660766,246.25104,-63.562073,-25.901497
520873590000.0,-1.9977365486564185,9.777901045441457,-0.974926275827251,-0.0852157,0.018020526,-0.013744468,246.39307,-63.639236,-25.83973
520878638000.0,-1.993895973651205,9.782701761064937,-0.9730059885752872,-0.10751228,0.028710667,-0.016493361,246.53583,-63.715687,-25.77739
520883596000.0,-1.990123871655197,9.787416885482765,-0.9711199378234576,-0.10293079,0.035430185,-0.015882496,246.6739,-63.792606,-25.715303
520888623000.0,-1.9862992736854648,9.792197629824926,-0.9692076390881916,-0.11881329,0.03848451,-0.014049901,246.81012,-63.865486,-25.65484
520893607000.0,-1.9825073905979085,9.796937480591057,-0.967311697791879,-0.129198,0.015882496,-0.015577064,246.95273,-63.936832,-25.595669
520898594000.0,-1.978713225076712,9.801680184397377,-0.9654146152788948,-0.122478485,0.0021380284,-0.0018325958,247.09134,-64.01178,-25.53292
520903724000.0,-1.9748102635520004,9.806558883119331,-0.9634631347712536,-0.14782938,-0.0290161,-0.0018325958,247.24313,-64.07904,-25.474504
520908579000.0,-1.971116525110972,9.811176053157366,-0.9616162657917996,-0.15118915,-0.035430185,0.016493361,247.39063,-64.15557,-25.408258
520913615000.0,-1.9672850798403192,9.815965356620094,-0.9597005434065204,-0.17531833,-0.05497787,0.027183503,247.55215,-64.22644,-25.344166
520918601000.0,-1.963491675130336,9.820707109413014,-0.9578038412990934,-0.18784106,-0.04642576,0.030848695,247.7063,-64.29967,-25.278519
520924244000.0,-1.9591984174531532,9.82607367800717,-0.9556572127406878,-0.19975294,-0.045814894,0.03390302,247.86845,-64.37333,-25.210535
520928578000.0,-1.9559010616543036,9.83019537006584,-0.9540085350564542,-0.21563543,-0.058948494,0.032070424,248.03189,-64.4446,-25.143976
520933594000.0,-1.9520848326079183,9.834965653260642,-0.952100420782316,-0.22082779,-0.07391469,0.03604105,248.19502,-64.51712,-25.076061
520938621000.0,-1.948260234638186,9.839746397602804,-0.9501881220470502,-0.21563543,-0.08093964,0.030848695,248.35953,-64.5851,-25.012346
520943606000.0,-1.9444675907394169,9.84448719938233,-0.9482918003451803,-0.21105394,-0.09865474,0.030543262,248.53122,-64.65416,-24.946684
520948611000.0,-1.940659730616379,9.849247021429775,-0.9463878705321696,-0.20586158,-0.10048734,0.023823744,248.6998,-64.71914,-24.88567
520953645000.0,-1.936829806968153,9.85403442286571,-0.9444729089580044,-0.21227567,-0.10903945,0.021380283,248.87521,-64.78381,-24.824081
520958633000.0,-1.9330348806357436,9.858778077685423,-0.9425754460394634,-0.20097467,-0.113926366,0.017715093,249.0495,-64.84635,-24.765852
520963604000.0,-1.9292528880939608,9.863505565277404,-0.940684450015392,-0.18997909,-0.11056661,0.022296581,249.22296,-64.90923,-24.706972
520968596000.0,-1.9254549185166976,9.868253024150704,-0.9387854654746228,-0.20677789,-0.122478485,0.010079277,249.40245,-64.96459,-24.654463
520973601000.0,-1.9216470583936605,9.87301284619815,-0.936881535661612,-0.20189096,-0.12308934,0.017715093,249.57597,-65.02745,-24.5963
520978697000.0,-1.917769964450204,9.877859210464642,-0.9349429889429102,-0.21746802,-0.12889257,0.024740042,249.75433,-65.084045,-24.54231
520983618000.0,-1.9140260124690915,9.88253914738682,-0.9330710131966912,-0.21502456,-0.116675265,0.02321288,249.92639,-65.14058,-24.489902
520988600000.0,-1.9102356510039624,9.887277096126155,-0.9311758327114924,-0.2125811,-0.124311075,0.02321288,250.1054,-65.197876,-24.435455
520993908000.0,-1.906197265083266,9.89232507523262,-0.929156640014697,-0.20677789,-0.11148291,0.027183503,250.2732,-65.25526,-24.381948
520998605000.0,-1.902623734813954,9.89679198515407,-0.927369875113256,-0.21471913,-0.119729586,0.018936822,250.44946,-65.30777,-24.33222
521003632000.0,-1.898799136844222,9.901572729496232,-0.9254575763779904,-0.20922135,-0.122478485,0.014660766,250.61893,-65.36254,-24.281551
521008618000.0,-1.8950057321342388,9.906314482289153,-0.9235608742705634,-0.18478674,-0.109650314,0.014049901,250.78534,-65.41571,-24.233194
521013589000.0,-1.891223739592457,9.911041969881133,-0.9216698782464922,-0.18417588,-0.096516706,0.0067195175,250.95187,-65.464134,-24.188728
521018609000.0,-1.8874044673012185,9.915816057129522,-0.9197602423501255,-0.18051068,-0.08155051,0.004581489,251.11295,-65.51431,-24.144064
521023592000.0,-1.8836133450248755,9.920554956882256,-0.9178646814593698,-0.183565,-0.07666359,-0.003970624,251.27267,-65.55956,-24.10411
521028578000.0,-1.8798199403148923,9.925296709675177,-0.9159679793519429,-0.18661933,-0.06078109,-0.015271631,251.42374,-65.60285,-24.066784
521033609000.0,-1.8759922991003068,9.930081258070924,-0.914054158994449,-0.17531833,-0.047647487,-0.025350908,251.57365,-65.64389,-24.032219
521038607000.0,-1.872189764655763,9.9348344230246,-0.9121528920203374,-0.17531833,-0.03359759,-0.040317107,251.71806,-65.679085,-24.00315
521043549000.0,-1.868429835639169,9.939534331228092,-0.9102729277574204,-0.19181168,-0.038179077,-0.04428773,251.86365,-65.71375,-23.974169
521048604000.0,-1.8507322824408676,9.91997573803729,-0.8894114202903534,-0.21410827,-0.048563786,-0.03634648,252.00621,-65.74686,-23.946571
521053605000.0,-1.8287123421796996,9.89269015847497,-0.862604535255396,-0.22876903,-0.08399397,-0.038179077,252.15778,-65.77526,-23.922647
521058625000.0,-1.806608742877347,9.865300914443209,-0.8356958044264646,-0.23701571,-0.13103059,-0.025045475,252.30888,-65.84371,-23.856247
521063647000.0,-1.7844963373601332,9.837900758362029,-0.8087763529876413,-0.26633725,-0.18112154,-0.002443461,252.47073,-65.91147,-23.788279
521068602000.0,-1.7626789400407794,9.810866155936251,-0.7822160419802,-0.26847526,-0.22174409,0.021991149,252.64261,-65.98298,-23.71673
521073591000.0,-1.7407118370687802,9.783646048670422,-0.7554734806045947,-0.26511553,-0.24770586,0.042455133,252.82355,-66.05732,-23.64072
521078625000.0,-1.7185465942623974,9.756180420292752,-0.7284897055064193,-0.25503623,-0.2565634,0.062002823,253.00955,-66.13703,-23.559204
521083617000.0,-1.6965662819681062,9.7289439449528,-0.701731063215976,-0.2602286,-0.25289822,0.07880162,253.19754,-66.21965,-23.474129
521088616000.0,-1.6745551479217995,9.701669277439894,-0.6749348987909106,-0.2773328,-0.24556783,0.08307768,253.3852,-66.3025,-23.388803
521093601000.0,-1.6526056573795234,9.674470994272893,-0.6482137786350893,-0.29016098,-0.23243423,0.09162979,253.56772,-66.38954,-23.299555
521098595000.0,-1.6306165388703704,9.647223606883523,-0.6214444157347541,-0.3115413,-0.22021692,0.08857546,253.74663,-66.471634,-23.214432
521103639000.0,-1.60840726498968,9.61970341825878,-0.5944070375871185,-0.34483343,-0.21166481,0.08827003,253.92065,-66.55408,-23.128159
521109509000.0,-1.5825610243711925,9.587676553225622,-0.5629420475540852,-0.364992,-0.2012801,0.07941248,254.08887,-66.63119,-23.047335
521113609000.0,-1.564508283905128,9.56530685192478,-0.540964797275476,-0.40500367,-0.19456059,0.07941248,254.25366,-66.70667,-22.96593
521118602000.0,-1.5425235685034058,9.538064920560116,-0.5142007946800866,-0.43951756,-0.1966986,0.07086037,254.41669,-66.77502,-22.891233
521123588000.0,-1.520569674853699,9.510861181368409,-0.4874743142193193,-0.47494772,-0.19853121,0.07819075,254.57544,-66.84445,-22.813765
521128598000.0,-1.498510106625654,9.48352649758372,-0.4606191864398479,-0.50518554,-0.18753563,0.07880162,254.72939,-66.9068,-22.742413
521133653000.0,-1.4762523985632257,9.455946292687193,-0.4335228449378064,-0.5177083,-0.18295415,0.07513642,254.88397,-66.96776,-22.671581
521138594000.0,-1.4544966447479024,9.428988074607323,-0.4070375781996093,-0.53878313,-0.18509217,0.065973446,255.03545,-67.02407,-22.60374
521143591000.0,-1.4324943169164572,9.401724319143833,-0.3802521343844359,-0.56382865,-0.19333886,0.07086037,255.1853,-67.08116,-22.534355
521148592000.0,-1.4104743766552892,9.374438739581512,-0.3534452493494786,-0.5946773,-0.19211712,0.06811147,255.33142,-67.1309,-22.471285
521153617000.0,-1.388348761815783,9.347022215426213,-0.3265097169958172,-0.61453044,-0.19333886,0.055588737,255.479,-67.17728,-22.410753
521158588000.0,-1.3664609147775373,9.319900316605114,-0.2998636411092399,-0.66645396,-0.17837265,0.04337143,255.61932,-67.21844,-22.352602
521163621000.0,-1.3443000750785854,9.292440144252152,-0.2728852263160105,-0.691194,-0.16432275,0.028099801,255.75867,-67.25447,-22.30007
521168606000.0,-1.3223505845363093,9.265241861085151,-0.2461641061601891,-0.7305948,-0.14874569,0.018020526,255.89107,-67.283844,-22.251009
521173593000.0,-1.3003922877791716,9.238032665868737,-0.2194322653944759,-0.77518797,-0.1572978,-0.0009162979,256.02524,-67.3038,-22.209555
521179809000.0,-1.2730225719896453,9.204118016286776,-0.1861126098501258,-0.8359691,-0.17867808,-0.017715093,256.1568,-67.31744,-22.171284
521183597000.0,-1.2563436010419735,9.18345059469468,-0.1658077747146692,-0.9401216,-0.19394971,-0.02107485,256.28717,-67.32345,-22.135223
521188602000.0,-1.2343060483510828,9.156143191033529,-0.1389794484599278,-0.9783007,-0.23548855,-0.0125227375,256.4301,-67.32757,-22.09996
521193588000.0,-1.2123521547013758,9.12893945184182,-0.1122529679991605,-1.0577132,-0.2773328,-0.007330383,256.57547,-67.3199,-22.066687
521198596000.0,-1.1903013926881925,9.101615680106546,-0.0854085608295811,-1.1242975,-0.33444872,0.005192355,256.73514,-67.31384,-22.027918
521203635000.0,-1.168114134344656,9.07412277160534,-0.0583979842066757,-1.1746938,-0.39003745,0.018020526,256.90396,-67.303856,-21.986994
521208693000.0,-1.1458432169599353,9.04652619863469,-0.0312855617897962,-1.2064588,-0.4364632,0.03726278,257.08356,-67.294365,-21.939865
521213615000.0,-1.1241711221857962,9.019671645024264,-0.004902140845573,-1.2357804,-0.49571714,0.04795292,257.2803,-67.280975,-21.890102
521218596000.0,-1.102239244073243,8.992495185956093,0.0217975380904642,-1.2669345,-0.5186246,0.06627888,257.4754,-67.27069,-21.833052
521223586000.0,-1.0802677379938133,8.965269622665554,0.0485454597710155,-1.287093,-0.50426924,0.08093964,257.67285,-67.25899,-21.77413
521228676000.0,-1.0578559211713086,8.937498456904263,0.0758294119461671,-1.3093897,-0.4633413,0.095294975,257.86435,-67.247574,-21.711123
521233636000.0,-1.036016508314801,8.91043657435495,0.1024165244783383,-1.3069462,-0.39400807,0.093462385,258.03873,-67.23415,-21.651072
521238606000.0,-1.014133064383986,8.883320131558563,0.1290572400599696,-1.3326025,-0.32620203,0.082161374,258.19705,-67.215805,-21.592146
521243524000.0,-0.99247858203957,8.856487402046966,0.1554192197844088,-1.3542882,-0.31031954,0.06414085,258.34695,-67.1938,-21.53737
521249346000.0,-0.9961839645277876,8.829423279818094,0.23907653979563,-1.3744467,-0.29657507,0.047647487,258.47412,-67.16538,-21.488752
521253637000.0,-1.0056203645477553,8.81055048834632,0.3127214740312395,-1.4269812,-0.29810223,0.04886922,258.59808,-67.13026,-21.44108
521258586000.0,-1.0165037818627916,8.78878366359829,0.3976594324400093,-1.425454,-0.3222314,0.04642576,258.744,-67.12204,-21.32388
521263622000.0,-1.0275785221332547,8.766634193113122,0.4840905414613399,-1.4340062,-0.35124752,0.056505036,258.8869,-67.10653,-21.204302
521268601000.0,-1.0385279128811968,8.744735421559183,0.5695433793916824,-1.4569136,-0.39461896,0.07422013,259.03696,-67.0863,-21.083403
521273609000.0,-1.0495410779476146,8.722709101426197,0.6554939341928785,-1.4840971,-0.4428773,0.089491755,259.19254,-67.06206,-20.960648
521278601000.0,-1.060519057183149,8.70075315292303,0.7411698865825691,-1.4929546,-0.47891834,0.10476339,259.35214,-67.03741,-20.833363
521283590000.0,-1.0714904390753932,8.678810399100453,0.8267943510201026,-1.505172,-0.45937067,0.13622294,259.5033,-67.01288,-20.69967
521288732000.0,-1.0827982854754572,8.656194716567743,0.9150447010176564,-1.5244142,-0.3933972,0.14110987,259.64722,-66.97897,-20.572014
521293593000.0,-1.093488180720636,8.634814935783709,0.9984723461631464,-1.5265522,-0.36193767,0.16126843,259.78864,-66.95329,-20.43289
521298619000.0,-1.1045409298467974,8.612709447567179,1.084731828677286,-1.5357152,-0.3475823,0.16584991,259.9117,-66.917366,-20.301754
521303599000.0,-1.1154925197091696,8.590806277786376,1.1702018292583476,-1.5522085,-0.355829,0.15882497,260.0277,-66.87832,-20.171186
521308743000.0,-1.126804764338094,8.568181798799937,1.2584865045573397,-1.5995506,-0.37751472,0.17348573,260.13806,-66.83643,-20.03577
521313601000.0,-1.1374880622399823,8.546815212696496,1.3418626617506726,-1.6404786,-0.42943826,0.17745635,260.2571,-66.784836,-19.9055
521318984000.0,-1.1493258952177234,8.523139557489655,1.4342492105715268,-1.6801848,-0.50793445,0.18906279,260.38525,-66.72835,-19.768486
521323593000.0,-1.1594616136264932,8.502868129875251,1.5133518677358064,-1.7162259,-0.5729916,0.19914207,260.52054,-66.66319,-19.630821
521328650000.0,-1.1705825352999906,8.48062629662595,1.600143392422238,-1.7235563,-0.6032294,0.21044308,260.66354,-66.59579,-19.489372
521333602000.0,-1.1814725499583172,8.458846277197326,1.685132838783165,-1.6939293,-0.6026186,0.23548855,260.81042,-66.530754,-19.341734
521338607000.0,-1.1924791176814444,8.436833151744931,1.771031905632204,-1.6881261,-0.5693264,0.2611449,260.9511,-66.46024,-19.19368
521343614000.0,-1.203490083633432,8.41481122983881,1.8569652977826807,-1.6969837,-0.54305923,0.27947086,261.08804,-66.392914,-19.04316
521348599000.0,-1.2144526690679551,8.392886068923689,1.9425211116173375,-1.6924021,-0.4841107,0.28893927,261.2002,-66.329605,-18.895552
521353600000.0,-1.2254504403333617,8.370890536378749,2.0283515278635003,-1.7027869,-0.40775254,0.29871312,261.29428,-66.26361,-18.749056
521358586000.0,-1.236415224882315,8.348960977236763,2.1139245043488764,-1.6872098,-0.3313944,0.26267207,261.37045,-66.191956,-18.620045
521363619000.0,-1.2474833678094877,8.326824701432187,2.2003041254180498,-1.6410894,-0.22815818,0.22693644,261.41272,-66.124054,-18.498995
521368620000.0,-1.258481139074894,8.304829168887247,2.2861345416642123,-1.5870279,-0.1328632,0.18936823,261.4354,-66.05031,-18.396402
521373596000.0,-1.2694239324795455,8.282943592013897,2.3715358916423974,-1.53205,-0.06780604,0.13958271,261.43863,-65.973404,-18.315065
521378656000.0,-1.2805514514963334,8.260688564084004,2.4583789042809863,-1.4996742,-0.03359759,0.105374254,261.4234,-65.89691,-18.246778
521383600000.0,-1.2914238732392187,8.23894373047029,2.5432310494361605,-1.4865406,-0.021380283,0.06383542,261.3992,-65.814354,-18.199198
521388630000.0,-1.3024854188231003,8.216820649346305,2.629559182553177,-1.4929546,-0.03634648,0.04184427,261.37317,-65.73119,-18.157484
521393598000.0,-1.3134106193123103,8.194970258287865,2.7148232313256093,-1.4908166,-0.04153884,0.04550946,261.3412,-65.64914,-18.122883
521398589000.0,-1.3243863994334149,8.173018708011561,2.800482021064581,-1.4782939,-0.052534413,0.061086524,261.31506,-65.56635,-18.090267
521403641000.0,-1.3354963255347614,8.150798865896578,2.8871877324974164,-1.4504995,-0.056505036,0.10415252,261.28473,-65.49428,-18.050144
521408598000.0,-1.346397335765239,8.128996855333636,2.972262992111939,-1.3842206,-0.05131268,0.16249016,261.25134,-65.43915,-18.002396
521413612000.0,-1.357423695518238,8.106944145839469,3.05831652281745,-1.3017539,-0.05681047,0.23793201,261.2161,-65.405655,-17.93816
521418591000.0,-1.36837308626618,8.085045374285528,3.1437693607477923,-1.2125676,-0.051618114,0.30451632,261.1714,-65.39667,-17.863194
521423592000.0,-1.3793708575315864,8.06304984174059,3.229599776993955,-1.1307116,-0.044898596,0.36377025,261.12158,-65.41601,-17.771149
521428598000.0,-1.3903796243691438,8.041032318061331,3.315516006493713,-1.0595458,0.004276057,0.41996986,261.05258,-65.462906,-17.667921
521434697000.0,-1.4037920232789045,8.01420753242014,3.4201910132294344,-1.0158689,0.081855945,0.44165558,260.97177,-65.524055,-17.563349
521438607000.0,-1.412390560700968,7.997010465383406,3.487296977541071,-1.054048,0.13316862,0.4260785,260.8836,-65.58507,-17.458126
521443523000.0,-1.4232014072398076,7.975388782121873,3.571668568476111,-1.1349876,0.17745635,0.40408736,260.77515,-65.64728,-17.357145
521448608000.0,-1.3610605410862564,7.902503683502796,3.6008794,-1.1939361,0.13958271,0.33750305,260.6822,-65.69185,-17.272266
521453602000.0,-1.2638026362635446,7.805960914780645,3.6008794,-1.2928963,0.026267206,0.28863382,260.59967,-65.70992,-17.187935
521458639000.0,-1.1657073085518903,7.708586880729088,3.6008794,-1.3833044,-0.0870483,0.23945917,260.59094,-65.410576,-17.158016
521463593000.0,-1.0692284017654037,7.612817382080804,3.6008794,-1.4477507,-0.18753563,0.21135938,260.6092,-65.09151,-17.128176
521468591000.0,-0.9718925971390692,7.516197286351266,3.6008794,-1.493871,-0.25045475,0.19394971,260.6479,-64.751305,-17.103012
521473589000.0,-0.8745567925127345,7.419577190621728,3.6008794,-1.5045611,-0.25992316,0.17104226,260.69812,-64.400345,-17.083612
521478615000.0,-0.7766756892610425,7.322415805840485,3.6008794,-1.4801265,-0.24190263,0.17165314,260.75253,-64.05071,-17.060116
521483612000.0,-0.6793593595856136,7.225815041862795,3.6008794,-1.4404203,-0.21044308,0.17684549,260.80258,-63.70149,-17.042646
521488603000.0,-0.5821598796156184,7.129330268396184,3.6008794,-1.3814718,-0.20280726,0.16554448,260.8512,-63.361942,-17.029455
521493601000.0,-0.4848240749892839,7.032710172666646,3.6008794,-1.3271047,-0.19150625,0.18020524,260.88235,-63.039375,-17.011938
521498589000.0,-0.3876830198720056,6.936283394455575,3.6008794,-1.289842,-0.1695151,0.18967366,260.9062,-62.726498,-17.00121
521504695000.0,-0.2687689696422339,6.818243717679954,3.6008794,-1.2583824,-0.13041973,0.22907446,260.91354,-62.43602,-16.982172
521508672000.0,-0.1913170898905469,6.741361340585843,3.6008794,-1.2443326,-0.090713486,0.26206118,260.9109,-62.15397,-16.965399
521513599000.0,-0.0953640067785119,6.646113799237417,3.6008794,-1.2614367,-0.0720821,0.310625,260.89404,-61.885002,-16.93678
521518593000.0,0.0018938980442,6.549571030515266,3.6008794,-1.3283265,-0.0693332,0.3484986,260.86523,-61.614834,-16.905767
521523595000.0,0.099307602474157,6.452873607778343,3.6008794,-1.4581354,-0.1563815,0.36560285,260.85016,-61.333897,-16.860504
521528625000.0,0.1972666055294716,6.355634895989713,3.6008794,-1.5796975,-0.28252518,0.38789943,260.83716,-61.04945,-16.800869
521533607000.0,0.294290810941316,6.2593241082897215,3.6008794,-1.6765196,-0.45814893,0.39920044,260.85733,-60.744404,-16.725225
521538612000.0,0.3917629402239899,6.162568690297258,3.6008794,-1.704925,-0.5503896,0.41722095,260.88135,-60.434692,-16.63873
521543594000.0,0.4887871456358346,6.0662579025972665,3.6008794,-1.6694947,-0.68233645,0.42546764,260.95862,-60.120304,-16.528374
521548586000.0,0.5860061005567354,5.969753797378809,3.6008794,-1.6487253,-0.7150178,0.44929138,261.02417,-59.804226,-16.412441
521553609000.0,0.6838287789557105,5.872650407853105,3.6008794,-1.6129897,-0.68783426,0.46273044,261.1038,-59.502384,-16.291092
521558587000.0,0.7807750845639323,5.7764169471605005,3.6008794,-1.5668694,-0.61483586,0.46670106,261.17252,-59.213078,-16.170717
521563586000.0,0.8781303641411726,5.679777519679117,3.6008794,-1.5442673,-0.5149594,0.4792238,261.21887,-58.932938,-16.054626
521568592000.0,0.975621968374752,5.583002769934806,3.6008794,-1.5354098,-0.40042216,0.4700608,261.23987,-58.660732,-15.95728
521574471000.0,1.090115204748946,5.469351400828374,3.6008794,-1.5149459,-0.22999077,0.50915617,261.2077,-58.409004,-15.867614
521578592000.0,1.1703714774310436,5.389685251468345,3.6008794,-1.5167783,0.017104227,0.5326745,261.1255,-58.15336,-15.812212
521583585000.0,1.2676099073028502,5.293161814498041,3.6008794,-1.5534303,0.31948254,0.5537493,260.97693,-57.902615,-15.780278
521588648000.0,1.3662115837380504,5.195285154898471,3.6008794,-1.6313156,0.62949663,0.56321776,260.75906,-57.646057,-15.78185
521593605000.0,1.4627489153772542,5.099457660994647,3.6008794,-1.704925,0.9080512,0.5693264,260.4682,-57.387383,-15.817257
521598603000.0,1.5600847200035888,5.002837565265109,3.6008794,-1.765706,1.1194105,0.6041457,260.1098,-57.12182,-15.877119
521603608000.0,1.6575568492862625,4.906082147272645,3.6008794,-1.8353447,1.2257011,0.6640105,259.70386,-56.844315,-15.953208
521608606000.0,1.754892653912597,4.809462051543108,3.6008794,-1.9068159,1.29198,0.7461719,259.24774,-56.563618,-16.038628
521613599000.0,1.852131083784404,4.7129386145728045,3.6008794,-2.010663,1.2993103,0.8142834,258.77563,-56.26808,-16.119253
521618590000.0,1.9493305637543987,4.616453841106193,3.6008794,-2.0470095,1.2620476,0.88239485,258.28897,-55.986958,-16.182783
521623611000.0,2.047114292251563,4.519389115084183,3.6008794,-2.0100522,1.212873,0.95814216,257.79526,-55.71255,-16.227833
521628592000.0,2.144119022712501,4.423097659136039,3.6008794,-1.9614882,1.0641272,1.0170907,257.3319,-55.442245,-16.241856
521633603000.0,2.241708001700609,4.326226250632494,3.6008794,-1.8982637,0.9306532,1.0268645,256.87616,-55.191063,-16.246086
521638601000.0,2.339043806326944,4.2296061549029575,3.6008794,-1.817935,0.9437868,1.0311406,256.41565,-54.965656,-16.23948
521644131000.0,2.446740284835073,4.122701567191005,3.6008794,-1.7788396,1.1029172,1.03786,255.95267,-54.748936,-16.234962
521648612000.0,2.428611028388981,4.07093483774776,3.638527006041947,-1.6759088,1.1273518,1.0509937,255.52185,-54.57099,-16.212301
521653603000.0,2.334733868813756,4.03764676724252,3.706779531198269,-1.6533068,1.1117748,1.0140363,255.07083,-54.378246,-16.220015
521658644000.0,2.239916244806802,4.004025215766479,3.775715812366976,-1.6325374,1.0903945,0.9560041,254.69946,-54.15956,-15.843836
521663599000.0,2.146716219622422,3.970977251560214,3.843476033194381,-1.6087136,1.1209377,0.9315695,254.3193,-53.939186,-15.476639
521668606000.0,2.0525381114290435,3.937582467144317,3.911947360274666,-1.598329,1.2073752,0.8738427,253.94525,-53.701828,-15.139566
521673595000.0,1.958698570431088,3.9043077358779086,3.980172535190493,-1.5946637,1.2843442,0.8399397,253.56625,-53.46248,-14.808671
521678619000.0,1.8642007043309212,3.87079956793194,4.048876339314989,-1.625207,1.4049901,0.80878556,253.16449,-53.204865,-14.514184
521683630000.0,1.7699473589830048,3.837378105038379,4.117402366876266,-1.6572775,1.5980235,0.82863873,252.72395,-52.945126,-14.242393
521688607000.0,1.676333529448664,3.8041834092049625,4.185463440349119,-1.6917913,1.7996091,0.8237518,252.2623,-52.666374,-14.007703
521693610000.0,1.582230658409824,3.770815303266729,4.253880066948414,-1.7440202,1.9569068,0.8405506,251.75897,-52.37613,-13.790401
521698592000.0,1.4885227824323104,3.737587259336233,4.322009516022507,-1.8310685,2.096184,0.8164214,251.22089,-52.06023,-13.616916
521703606000.0,1.39421300921849,3.704145787584424,4.390576568944526,-1.9135354,2.1230621,0.8381071,250.6633,-51.73666,-13.43909
521708647000.0,1.2993953852115356,3.670524236108384,4.459512850113233,-1.9398025,2.0525072,0.8943067,250.0958,-51.404854,-13.268549
521713901000.0,1.2005713827254143,3.6354820556967353,4.531361931894703,-1.9312505,2.0873265,0.92149025,249.5004,-51.05893,-13.125301
521718607000.0,1.112054870411047,3.6040948267250537,4.595717047780428,-1.9312505,2.0683897,0.8866709,248.93774,-50.70203,-12.965698
521723596000.0,1.018215329413091,3.570820095458645,4.663942222696255,-1.8707749,1.9098701,0.8943067,248.38927,-50.36972,-12.7751255
521728609000.0,0.923924365487905,3.537385293326252,4.7324956004980265,-1.8121318,1.72264,0.8765916,247.86438,-50.030468,-12.592903
521733624000.0,0.8295957829854499,3.5039371519550278,4.801076328540294,-1.6881261,1.6566665,0.7693848,247.36478,-49.71672,-12.425668
521738595000.0,0.7360948091829167,3.4707824738381063,4.869055351291661,-1.6084082,1.7324139,0.72326446,246.86972,-49.410133,-12.244316
521743599000.0,0.641973128855442,3.437407698280458,4.937485653011203,-1.5937474,1.8316795,0.58459806,246.42285,-49.10056,-12.103174
521748588000.0,0.5481335878574862,3.404132967014049,5.00571082792703,-1.609019,1.6966782,0.44440445,246.02255,-48.800316,-11.946139
521753603000.0,0.4538050053550311,3.370684825642824,5.074291555969297,-1.5952746,1.4236214,0.32925636,245.65347,-48.502983,-11.808336
521759119000.0,0.3500529692466481,3.333895204944185,5.149723519255667,-1.5247196,1.1215485,0.28802297,245.33484,-48.212715,-11.656121
521763621000.0,0.2653735518137363,3.3038685783333666,5.211288910610858,-1.3698653,1.0735956,0.28680122,245.03568,-47.94444,-11.518429
521768595000.0,0.171816150145299,3.270693891358198,5.27930895872297,-1.2232577,1.1252137,0.30695978,244.78622,-47.69276,-11.349576
521773593000.0,0.0778073255496321,3.237359133517045,5.347657209721025,-1.035722,1.1490375,0.2874121,244.56195,-47.49234,-11.177172
521778609000.0,-0.0165400662414576,3.2039043225264043,5.41625161288354,-0.9080512,1.207986,0.2706133,244.31479,-47.31841,-11.017753
521783605000.0,-0.1105112722598553,3.170582903924084,5.484572513641101,-0.8231409,1.5027285,0.17684549,244.03018,-47.17705,-10.929713
521788605000.0,-0.2045577154327915,3.137234806844099,5.552948114879652,-0.8347474,1.5653422,0.12736541,243.77885,-47.04659,-10.804119
521793601000.0,-0.2985289214511897,3.1039133882417778,5.621269015637213,-0.8042041,1.498147,0.056199603,243.51463,-46.9428,-10.73453
521798587000.0,-0.3923120345832416,3.070658665833617,5.689453165192297,-0.768163,1.2996159,0.007941248,243.27129,-46.836147,-10.657244
521803603000.0,-0.4866594263743313,3.0372038548429767,5.758047568354812,-0.7122689,1.2705997,-0.027183503,243.01782,-46.739895,-10.611663
521808674000.0,-0.5820413290403232,3.003382214784456,5.82739410313095,-0.70066243,1.2244794,-0.09285152,242.827,-46.63612,-10.541607
521813599000.0,-0.6746770755656653,2.970534339160671,5.894744070350923,-0.6924158,1.1301007,-0.1160644,242.65189,-46.548073,-10.455122
521818590000.0,-0.7685542351408903,2.9372462686554304,5.962996595507246,-0.6719518,1.1108584,-0.14660765,242.48523,-46.461906,-10.389674
521823592000.0,-0.8626382968910957,2.903884832336613,6.031399546986292,-0.6224717,1.022283,-0.13988814,242.35129,-46.387825,-10.289786
521829748000.0,-0.978428277725615,2.862826655211736,6.115583587231196,-0.5494733,0.93401295,-0.053450707,242.21193,-46.3302,-10.175981
521833631000.0,-1.0514647454937172,2.83692852301942,6.168684079153056,-0.4260785,1.0274754,-0.16737708,242.09096,-46.2867,-10.121448
521838600000.0,-1.144928100718981,2.8037871841413318,6.236635751663928,-0.43401974,1.1038336,-0.21319197,241.96228,-46.238277,-10.014819
521843573000.0,-1.2384666930987835,2.770619166785578,6.304642124655791,-0.40653083,1.1496484,-0.2666427,241.84415,-46.22508,-9.946185
521848599000.0,-1.1340624402234638,2.866153669273743,6.280205079189945,-0.34605515,1.2614367,-0.33108896,241.70694,-46.214878,-9.917141
521853625000.0,-0.911379929678771,3.0384175379189946,6.200375518976956,-0.28863382,1.3060299,-0.40469822,241.58679,-46.207165,-9.896761
521858561000.0,-0.8562618158406811,3.200655841562785,6.125780641633729,-0.22907446,1.361924,-0.4804455,241.51108,-45.684227,-10.50441
521863590000.0,-1.129603179750684,3.3519697207661903,6.057445211462451,-0.20463985,1.4349225,-0.54244834,241.43759,-45.1716,-11.123773
521868521000.0,-1.4642725544874176,3.618190936901492,6.11506505055304,-0.18387043,1.518611,-0.6209445,241.3465,-44.762184,-11.661253
521873594000.0,-1.933117286363299,4.1122812531215205,6.407191482852053,-0.17195857,1.6685784,-0.7107417,241.24362,-44.35769,-12.2304535
521878614000.0,-2.3970637783831936,4.601209577076683,6.696265933895034,-0.16279559,1.7776178,-0.7828238,241.11517,-44.00625,-12.894348
521883588000.0,-4.810035733741176,6.059916820047059,8.111317263717648,-0.17348573,1.7012597,-0.7012733,240.9824,-43.66273,-13.520088
521888626000.0,-8.215773758117647,8.017080956705882,10.100267979764704,-0.094989546,1.3179418,-0.464563,240.87491,-43.35876,-14.070575
521893597000.0,-10.78978438358658,9.228797454495092,11.882899323045269,0.13988814,0.2941316,-0.25717425,240.8344,-43.18076,-14.599231
521898995000.0,-12.884446329613802,9.903834954811648,13.6584525781893,0.33169982,-1.2391402,-0.18967366,240.96149,-43.022778,-14.896947
521903619000.0,-14.664115215825024,10.447748075587006,15.112459331617885,0.37201694,-2.6728408,-0.41050145,241.10947,-42.811104,-15.61345
521908672000.0,-15.992329340302348,9.596860690468532,13.882823944140668,0.21288654,-3.7546833,-0.8213083,241.5357,-42.58715,-16.016405
521913601000.0,-16.36792946551281,9.365625013023736,12.569693571073602,0.03176499,-4.044539,-1.314582,242.01523,-42.13968,-16.511028
521918588000.0,-11.73561023819724,12.393819351041042,10.621828030845686,-0.047647487,-3.333797,-1.5748106,242.54282,-41.704967,-16.916197
521923604000.0,-7.076353521891868,15.439623000428412,8.662635420101106,-0.16065755,-2.2696698,-1.7767016,243.06567,-41.149544,-17.512117
521928615000.0,-4.742019231375607,16.618651538894664,9.988828982328483,-0.4428773,-1.8524488,-1.8044959,243.59082,-40.5505,-18.046068
521933594000.0,-2.924582874393624,17.386931855336105,12.016922671517673,-0.64660084,-1.3206906,-1.7299703,243.89348,-39.953056,-18.760841
521938597000.0,-2.49017840879039,17.223120044976252,13.349556452462984,-0.7101309,-0.97433007,-1.5015068,244.259,-40.30067,-18.603626
521943598000.0,-3.391054609088369,16.16169167361952,14.005144755936309,-0.8582657,-0.6227771,-1.3054191,244.5078,-40.54262,-18.55776
521948594000.0,-4.378095043055953,14.80127709932323,14.16973311304928,-1.0525209,-0.20922135,-1.2687671,244.68346,-40.762188,-18.164734
521953625000.0,-5.526243813687923,12.899942742445903,13.46706579706415,-1.2492194,0.27916542,-1.395827,244.76875,-40.905033,-17.898829
521958652000.0,-6.546382661203964,11.300333601094511,12.98767365138293,-1.5128077,0.79443026,-1.6132951,244.789,-40.68079,-17.855352
521963587000.0,-7.21745299033427,10.510427763940246,13.096023944978551,-1.8121318,1.0118983,-1.8454239,244.80045,-40.37403,-17.897943
521969122000.0,-7.97011241723118,9.624484742937437,13.217547526549328,-2.101682,1.0170907,-2.097406,244.8039,-39.741833,-18.218042
521973597000.0,-8.39234741464104,9.300940331920104,13.277046523930656,-2.3112087,0.86620694,-2.2412646,244.81718,-39.054005,-18.56748
521978610000.0,-8.740629061051441,9.201430817787829,13.317754596570566,-2.439185,0.6469063,-2.4083362,244.89874,-38.298416,-18.946575
521983606000.0,-8.921771691405185,9.361990526057298,12.892908852387448,-2.5363126,0.52687126,-2.5867088,245.07913,-37.31261,-19.448837
521988611000.0,-8.89125553042292,9.854605887130512,11.8728024526603,-2.6367998,0.51893,-2.7510316,245.3069,-36.302258,-19.939535
521993553000.0,-8.63850438451189,10.243509040050062,10.894840226533168,-2.6734517,0.5354234,-2.8951957,245.65915,-35.23316,-20.471992
521998589000.0,-7.631222722841052,10.311416254067584,9.996963655819776,-2.6844473,0.5739079,-2.9553661,246.01987,-34.163918,-21.000889
522003636000.0,-6.621740882798811,10.379471795994991,9.097125877346684,-2.6902506,0.5992588,-2.957504,246.46829,-33.18372,-21.581566
522008594000.0,-5.6865059593030125,9.91613385098304,8.379985515483925,-2.7003298,0.51923543,-2.9651399,246.93991,-32.212738,-22.136501
522013615000.0,-4.765458820378028,9.202017666779174,7.73078940806683,-2.67223,0.48808134,-2.9410107,247.385,-31.274456,-22.68291
522018533000.0,-3.949681940979535,8.412339834144644,7.265222953596265,-2.6352727,0.47250426,-2.8835895,247.88893,-30.457306,-23.087666
522023594000.0,-3.3140964118418434,7.386735926981919,7.188182376336181,-2.59465,0.4700608,-2.8316658,248.38437,-29.66935,-23.468752
522028648000.0,-2.6736301206707225,6.567658866508384,7.0152932627096005,-2.5567765,0.41722095,-2.8747318,248.94107,-28.89118,-23.7385
522033579000.0,-2.0359517957857247,6.224293594947321,6.63338687368304,-2.483778,0.36926803,-2.8985555,249.47055,-28.160702,-23.982235
522039068000.0,-1.32611275192165,5.84207254939902,6.208263334975516,-2.4706445,0.4633413,-2.9116893,250.02277,-27.3687,-24.154377
522043608000.0,-0.842673011317949,5.4970155788769,5.4522041595495,-2.3994787,0.49938235,-2.912911,250.58382,-26.629725,-24.288372
522048578000.0,-0.3703419141784673,5.10340633582736,4.402579537512798,-2.3832908,0.58184916,-2.914438,251.1154,-25.89875,-24.445303
522053587000.0,0.0539785102887043,4.704899189950166,3.383299697574751,-2.3435845,0.6545421,-2.918714,251.63165,-25.25302,-24.399908
522058696000.0,-0.3239529812832226,4.2700747035299,2.9484753384551494,-2.2983804,0.72601336,-2.9077187,252.11664,-24.636005,-24.36714
522063540000.0,-0.6822814497064784,3.8578042372508303,2.5362049928737544,-2.2336287,0.74006325,-2.8973339,252.64911,-24.05067,-24.325848
522068596000.0,0.0315153309956866,4.210732063946801,1.2065004621225737,-2.1084013,0.74220127,-2.9190195,253.16422,-23.509802,-24.294456
522073595000.0,1.322163853465133,4.980819029403307,-0.5918032218008626,-2.007914,0.7351763,-2.9407053,253.66194,-22.99994,-24.255579
522078559000.0,2.677483276746324,5.583912113970588,-0.894146254319853,-1.9364429,1.212873,-2.833193,254.10457,-22.448395,-24.439726
522083595000.0,4.15360379773897,5.973998081911764,0.8346434395404414,-1.8741345,1.790446,-2.536618,254.47394,-21.959541,-24.62009
522088568000.0,5.081380497972973,5.576031186936937,3.2643538963963965,-1.6759088,1.6569719,-2.3726006,255.11278,-21.587893,-24.949501
522093594000.0,4.405122656981982,2.7884038412912915,7.920723830930932,-1.3329079,1.5754215,-2.1368067,255.55444,-21.320803,-25.393068
522098520000.0,1.829472101990932,-0.1471133979696435,11.563631657993298,-0.8353582,1.7910569,-1.7299703,256.0412,-21.239513,-25.517431
522103683000.0,-4.15500709812734,-3.5730816367041207,13.800501153558052,0.08857546,1.5470163,-1.149343,256.46634,-21.414541,-25.445482
522108641000.0,-8.563440442894969,-6.037766892586055,15.447629943071492,0.97341377,1.0684034,-0.17104226,256.8023,-21.316908,-25.197445
522113600000.0,-10.708167675639894,-7.106637324580759,16.2475364119594,1.3857478,0.8872818,0.2929099,257.0989,-21.34163,-24.9566
522118552000.0,-12.849867465225069,-8.173998965887026,17.04631375294204,1.0363328,1.3585643,0.3051272,256.99805,-20.803389,-25.3092
522123594000.0,-13.86346962996248,-8.472337885350319,17.057576924875665,0.40469822,1.6166549,-0.017715093,256.90674,-20.33644,-25.529865
522128683000.0,-14.20791114195969,-8.315000267515924,16.60257343556409,0.312763,1.808772,-0.40866885,256.7823,-19.931482,-25.847307
522133588000.0,-12.921980853243102,-7.7316365889432594,15.999398743779285,0.4841107,1.6856827,-0.6020077,256.67365,-19.138727,-26.438482
522138793000.0,-8.412112369484642,-6.27332477915669,15.03930086350859,0.93187493,1.6148223,-0.98471475,256.72018,-18.379189,-27.094995
522143596000.0,-4.620036449818082,-5.081328654502456,13.6637717063853,1.3176364,1.2721269,-1.3402383,256.87738,-17.694971,-27.61038
522148587000.0,-1.1593232190649445,-4.042245128142623,11.598647170820447,1.4150693,0.75441855,-1.5885551,257.1365,-17.056576,-28.040516
522153649000.0,1.911144183620617,-2.999478668376356,9.29823925574708,1.3329079,0.28588495,-1.7098118,257.58948,-16.66635,-28.144377
522158603000.0,3.52277906373497,-2.014147437837384,6.394105109156648,1.221425,-0.025350908,-1.745242,258.11975,-16.282898,-28.157875
522163543000.0,5.1298594649794,-1.0316007525603297,3.4981780433196006,1.2272283,-0.043676864,-1.7424932,258.71747,-16.108925,-28.016075
522168611000.0,6.097509549002659,-1.945651779388298,1.7814834308590428,1.25319,0.19517145,-1.6129897,259.2911,-15.9250145,-27.844786
522173540000.0,6.913537756610943,-3.187628408054712,0.3422252944772039,1.2525792,0.5510005,-1.5396858,259.86966,-15.728577,-27.699066
522178645000.0,6.10282386962113,-3.917028490800277,0.3163150390117716,1.212873,1.1734722,-1.6514742,260.36288,-15.761926,-27.692242
522183592000.0,4.7484071574735385,-4.432550374161638,0.7943444378696211,0.93523467,1.6526959,-1.8359555,260.83502,-15.734838,-27.734224
522188601000.0,3.51105851953342,-3.811512223495649,1.9965025961581189,0.6951646,1.8396207,-1.9575176,261.3249,-15.599339,-27.880165
522193602000.0,2.3272412164876872,-2.751840601870024,3.4729487474680614,0.6731735,2.037541,-2.0103576,261.80908,-15.42704,-28.161678
522198595000.0,1.1855404763074038,-1.3003363978444238,4.748103506747891,0.6826419,2.0650299,-2.0451767,262.3609,-15.070525,-28.59354
522203613000.0,0.0695786932271165,0.4661859939706341,5.874074096584401,0.6374379,2.0619757,-2.107485,262.93692,-14.673708,-29.069744
522208564000.0,-1.1305596159827216,1.474249139524838,6.521143564146868,0.50976706,2.0824397,-2.1499403,263.4946,-14.327898,-29.556347
522213615000.0,-2.411527869570852,2.0829362371114657,6.916335720386891,0.30115658,2.017077,-2.1487186,264.07718,-13.943327,-30.008799
522218601000.0,-3.2947341944753363,2.267222788053812,6.89254023070852,0.16157386,1.8976529,-2.0885482,264.5847,-13.741927,-30.307602
522223695000.0,-3.828517185130045,2.052834556807175,6.468139308627802,0.099571034,1.7681495,-1.998751,265.08545,-13.517905,-30.572445
522228555000.0,-4.084418689291662,1.7853084186146762,6.020677884255902,0.11209377,1.713477,-1.9639318,265.56058,-13.353958,-30.73412
522233629000.0,-3.674996252297442,1.337800260233173,5.439869377897521,0.13041973,1.6340646,-1.8695531,265.98962,-13.207805,-30.843323
522238572000.0,-3.1568376295495497,1.011201506966967,5.364915715315315,0.20586158,1.5754215,-1.6670512,266.40472,-13.029863,-31.218908
522243604000.0,-2.2403017451051053,1.0353209054854855,6.889259626426426,0.41630468,1.3921618,-1.3906348,266.77686,-12.921055,-31.513794
522248542000.0,-1.3463881226164944,1.249869484070969,8.292878092220706,0.745561,1.0164797,-1.1704178,267.1521,-12.838054,-31.727045
522253628000.0,-0.4442189352700332,2.114052528348606,9.427712046402808,1.061073,0.58551437,-1.0925325,267.49936,-12.826975,-31.856554
522258924000.0,0.354442017538214,2.9640793744971843,10.145051483507643,1.2473868,0.24801129,-1.1618657,267.8922,-12.851517,-31.718964
522263829000.0,0.6851134261514482,3.606526596691472,9.46008924648029,1.3087788,0.08277224,-1.2702943,268.28735,-12.930441,-31.51353
522268606000.0,0.8509892042743683,4.039311189206702,8.674352377765436,1.3264939,0.15882497,-1.3542882,268.68692,-13.128392,-31.201187
522273590000.0,0.4224149183249097,3.7477040526705543,7.3974661565305935,1.3359623,0.5170974,-1.3503176,269.07736,-13.336376,-30.930656
522278876000.0,-0.1662877570037171,3.3202502142375523,6.313214759422545,1.4315627,1.1218541,-1.2696834,269.3944,-13.68121,-30.77268
522283589000.0,-1.8752561903016944,1.896110023931536,7.729551520573997,1.5958854,1.8332067,-1.2140946,269.6713,-14.040274,-30.746887
522288540000.0,-3.6705251725334542,0.4000527181379669,9.217411334802904,1.7033978,2.4758368,-1.2541064,269.89523,-14.385204,-31.01703
522293609000.0,-4.861777403951701,-0.3670867239616804,11.33562637411436,1.6465873,2.810591,-1.3805555,270.08517,-14.719973,-31.394533
522298570000.0,-5.781550071350164,-0.8269731962778166,13.635058537670892,1.3295482,2.8115072,-1.5619824,270.27017,-14.99597,-31.855873
522303609000.0,-6.657418271333213,-1.3965758751037345,14.868564605538516,0.8332202,2.5017986,-1.7638733,270.70654,-14.830677,-32.321922
522308594000.0,-7.501466096518131,-1.999467153112033,15.665242340068554,0.29565877,1.9633209,-1.9620992,271.20923,-14.562603,-32.72332
522313612000.0,-8.558095494951576,-2.823464788213476,15.467446892025553,-0.0720821,1.4004086,-2.1300871,271.87906,-14.033911,-33.031567
522318603000.0,-9.808935945188544,-3.8526993363177415,14.305249399134556,-0.29046643,1.0283916,-2.2922719,272.612,-13.41603,-33.249706
522323571000.0,-10.6666652873489,-4.831792086693734,13.09522694601827,-0.36987892,0.9431759,-2.40742,273.44885,-12.6183,-33.470955
522328796000.0,-11.253075470056288,-5.824534034880502,11.779266073544338,-0.38240165,0.9279043,-2.7806585,274.40204,-11.765326,-33.62889
522333567000.0,-11.420393167728236,-6.601490177070064,11.192033399150745,-0.43463063,1.1258247,-2.896723,275.33826,-10.798661,-34.061142
522338614000.0,-11.037899049507816,-7.226540962449334,11.504559205848292,-0.52687126,1.3796391,-3.1471777,276.40588,-9.781678,-34.503185
522343526000.0,-10.407618441458284,-7.646932288618836,11.908488314637376,-0.6945538,1.4388931,-3.4437528,277.5879,-8.609806,-35.1161
522348588000.0,-9.184061234166862,-7.662037845524655,12.546701741450494,-0.91232723,1.1172725,-3.818824,278.8687,-7.388116,-35.656094
522353611000.0,-7.969930880112176,-7.677027022201448,13.179998075484926,-1.0928379,0.3753767,-4.2116103,280.26617,-6.054549,-35.983475
522358596000.0,-5.984508928043459,-6.9633952251313564,11.970812161991272,-1.2455542,-0.58551437,-4.505742,281.72742,-4.681126,-36.109253
522363544000.0,-3.7690248530590433,-6.026561994389527,10.19420475901683,-1.3946054,-1.1612549,-4.535369,283.1761,-3.2965124,-36.088673
522368595000.0,-1.6568409980553316,-4.166711472943421,7.271255782798856,-1.4941764,-0.99021256,-4.1621304,284.5923,-1.9126066,-35.842144
522373598000.0,0.2910324629412195,-1.452346287304616,3.305188716474646,-1.4822645,-0.2611449,-3.3860261,285.80878,-0.6305381,-35.56896
522378610000.0,2.242409993725692,1.266901825911793,-0.6680129897849856,-1.2596041,0.7305948,-2.3432791,286.891,0.44808546,-35.36903
522383570000.0,0.955184156043023,1.5140516856212851,-0.0741937390885931,-0.9095783,1.8451185,-1.2275337,287.6608,1.3371054,-35.400337
522388654000.0,-1.2543791805358997,1.0914325176997832,1.7862494132087934,-0.5476407,2.814867,-0.35216382,288.15298,2.0259624,-35.667736
522393600000.0,-3.653551881944445,0.0070052615740739,4.222884108796296,-0.3036,3.4150422,0.27763826,288.34045,2.1675398,-36.28657
522398659000.0,-6.230629953073287,-1.4342494711189917,7.024263150630417,-0.2049453,3.794695,0.6924158,288.30225,2.144589,-37.127293
522403592000.0,-7.968251096045198,-2.9004043694915254,8.629645550443906,-0.2910773,3.7760634,0.88300574,287.76105,1.8994955,-38.006386
522408626000.0,-9.30416504143126,-4.430869300564972,9.632661811676082,-0.49663344,3.418402,0.926988,287.13278,1.6142367,-38.866985
522413527000.0,-10.075938020580567,-6.013325673101464,9.742493314010964,-0.691194,2.955977,0.91904676,286.66788,1.5446466,-39.73116
522418599000.0,-10.054111144693088,-7.794399657176238,8.51145687579761,-0.8536842,2.7433958,0.9618073,286.17468,1.4951923,-40.534115
522423579000.0,-10.025804750755794,-9.527036887470608,7.181469208011421,-1.0241156,2.3985624,0.9935723,285.85443,1.7162272,-41.209476
522428673000.0,-9.96435334934498,-11.22309676419214,5.247797203056769,-1.0925325,2.1206186,1.0311406,285.52045,1.9314926,-41.816254
522433583000.0,-9.90512162949278,-12.857893386630838,3.383971222623446,-1.2024882,1.8930714,0.95814216,285.399,2.443848,-42.392773
522438583000.0,-9.837931542116632,-14.25042058387329,1.868458085437365,-1.278541,1.6539177,0.75533485,285.3098,2.9652686,-42.857025
522443554000.0,-9.769384350971922,-15.56567775449964,0.4589481198947083,-1.282817,1.3686435,0.48838675,285.26602,3.5071204,-43.216206
522448654000.0,-9.696483655669242,-15.668378110009048,-0.8119308416273403,-1.3261884,1.1374311,0.21380283,285.53543,4.353906,-43.660942
522453640000.0,-9.62336467884736,-14.874041191445674,-1.9286557076912367,-1.4834863,1.0864239,-0.034208454,285.88416,5.24865,-44.037304
522460488000.0,-9.527105973214288,-13.726321629464286,-3.3412367455357144,-1.704314,1.3109168,-0.29138273,286.58917,6.397674,-44.53892
522463594000.0,-9.513273411458334,-12.7995394140625,-3.1143826171875,-2.0247128,1.427592,-0.36102137,287.3011,7.580372,-44.954453
522468591000.0,-9.491019286830358,-11.308512134486609,-2.749414787388393,-2.1077905,1.636508,-0.4636467,288.12222,8.682871,-45.549156
522473581000.0,-9.3241744304181,-9.228052345435266,-1.6578448098060998,-2.2134702,1.7605137,-0.5296202,288.9621,9.837205,-46.105747
522478645000.0,-9.035210377903454,-6.6273776627449,0.0514498846798625,-2.2067506,1.7058412,-0.5403103,289.82343,10.97114,-46.62263
522483597000.0,-8.530875497568882,-4.060929154390419,1.5910192112641814,-2.0900755,1.5531249,-0.4822781,290.52676,11.90912,-47.098534
522488680000.0,-7.847109019448946,-1.4091427093210882,3.072513109886548,-1.9025398,1.2092078,-0.38881573,291.17792,12.809273,-47.47185
522493550000.0,-7.086449870970429,1.0688091118783842,4.311369924531445,-1.5577064,0.70616025,-0.24373524,291.5968,13.375519,-47.81286
522498592000.0,-6.0969938472469805,3.5142939040016667,5.248537741307788,-1.1233811,0.16310102,-0.07727446,291.9098,13.858534,-48.04822
522504045000.0,-5.047188693576,6.155554642275409,6.22014932201446,-0.7281514,-0.26725355,0.08674286,291.79138,13.92696,-48.10121
522508639000.0,-4.612093103016704,8.301782830341562,6.110461186686612,-0.45937067,-0.56291234,0.18081611,291.57098,13.915608,-48.053535
522514357000.0,-4.070543998354525,10.973122137995514,5.973935989080029,-0.29626966,-0.6569856,0.2049453,291.0498,13.525359,-47.965565
522518664000.0,-4.195743876733321,11.367082467202392,5.7631042519155296,-0.19150625,-0.79443026,0.20647246,290.45377,13.077672,-47.790104
522523658000.0,-4.678389198056438,10.799527573163894,5.450278822649972,-0.103847094,-0.9025534,0.21777347,289.84268,12.593017,-47.596302
522528590000.0,-4.906694660060637,9.97635803941433,5.10069967773423,-0.069027774,-1.0009027,0.2519819,288.97708,11.767445,-47.46581
522533604000.0,-4.7717623324706055,8.751315705893663,4.685250308659321,-0.086132,-1.0754282,0.25167647,288.1134,10.939644,-47.29586
522538553000.0,-4.638579227316424,7.542154455675516,4.275186701249723,-0.22876903,-1.0946705,0.24770586,287.3118,10.19265,-47.154648
522543604000.0,-4.751365708248304,5.691300835652689,3.881902351425186,-0.45540005,-1.1142182,0.21502456,286.52127,9.471075,-46.979836
522548707000.0,-4.976560483509973,3.5455179562569943,3.495854573168323,-0.66859204,-1.1184943,0.21594086,285.72723,8.7684145,-46.795734
522553633000.0,-5.193944270094135,1.4741625841419257,3.1231970470673422,-0.78801614,-1.1710287,0.3182608,285.10626,8.30415,-46.57917
522558582000.0,-6.272925542851743,0.2431267762071246,3.616421387309837,-0.7556403,-1.3787229,0.60048056,284.4062,7.8108287,-46.325474
522563601000.0,-7.808058043938392,-0.5698575354767078,4.561118216205235,-0.56230146,-1.7513506,1.0595458,283.58667,7.2488246,-46.02152
522568594000.0,-9.249044050139528,-1.6669704151228737,4.82087351142317,-0.27885997,-2.10046,1.6203201,283.14044,7.0910597,-45.66454
522573650000.0,-10.635097137186063,-3.022513165973536,4.507050199297867,0.008246681,-2.2000313,2.2293527,282.5,6.7955613,-45.30947
522578648000.0,-11.871109304879344,-5.020098611034336,3.4370658870118,0.21899518,-2.0928242,2.8530462,281.66385,6.411478,-45.014507
522584546000.0,-13.011958184649728,-8.93501006463272,0.374788398681833,0.29993483,-1.6698002,3.3512068,280.6809,5.9123187,-44.805836
522588629000.0,-13.159724510232603,-11.206346665868024,-1.3644602330478188,0.3659083,-0.7965683,3.606243,279.68878,5.4650645,-44.917606
522593662000.0,-12.688165521413596,-13.559329686133571,-3.120776887792753,0.35308012,0.28252518,3.6086864,278.65335,4.9811635,-45.206554
522598625000.0,-12.140728653676344,-15.285304592036,-3.627658968967567,0.32650748,1.3588698,3.3539557,278.05817,4.9329834,-45.96439
522603698000.0,-11.476618338597383,-16.29590709560197,-2.592307694056716,0.37201694,2.1429152,2.996294,277.55276,4.8809304,-46.906605
522608587000.0,-10.854076290082286,-17.23074831840624,-1.511444915305327,0.4822781,2.320677,2.6267207,277.61356,5.2262154,-47.977943
522613662000.0,-10.412046207795582,-17.74434491216977,0.5808323900216545,0.743423,1.9294178,2.2104158,277.85138,5.5774817,-49.02317
522618525000.0,-9.988481224512777,-18.236486830489387,2.5857081606236467,1.105666,1.593442,2.0048597,278.2541,6.0567036,-49.862568
522623656000.0,-9.769427793864216,-18.17375263289461,4.250562657115803,1.2861768,0.7877107,1.568091,278.85425,6.6201634,-50.381466
522628799000.0,-9.620188754568696,-17.93123931578449,5.780261884632138,1.5589281,-0.0015271631,1.1224649,279.49316,7.1126957,-50.7587
522633661000.0,-9.187138101114048,-16.68260425226586,6.285810303861405,1.6875153,-0.44440445,0.73761976,280.1497,7.7353034,-50.7061
522638648000.0,-8.609983720732629,-14.937613779456193,6.375990584573263,1.6630806,-0.57757306,0.49663344,280.8412,8.364335,-50.501507
522643644000.0,-8.0909949107101,-13.131102922427935,6.358686960510898,1.5121969,-0.73548174,0.36651915,281.42004,8.983656,-50.031593
522648661000.0,-7.618070644949613,-11.26943378603234,6.253592744551208,1.3301591,-0.94959,0.29993483,282.0012,9.61572,-49.514156
522654178000.0,-7.108178478901228,-9.054222646455706,5.948867415212491,1.1621711,-1.2144,0.3115413,282.33667,10.041752,-48.97724
522658659000.0,-6.778541871887785,-5.858180393437422,4.128699956082492,1.0772609,-1.4333953,0.37751472,282.63147,10.473336,-48.411392
522663646000.0,-6.4116822960841615,-2.3012371406362195,2.10299696150956,1.0763446,-1.5457945,0.50488013,282.64044,10.62838,-47.878723
522668597000.0,-6.364222095190156,-0.1796668982102909,0.648175104194631,1.1264355,-1.4880677,0.68569624,282.5932,10.760785,-47.363396
522673650000.0,-6.538209126078619,0.9957124168744008,-0.4460102604506233,1.2198979,-1.2486086,0.9083566,282.48672,10.847014,-46.90162
522678617000.0,-6.737058548368442,2.104407712664188,-1.477766649103676,1.349096,-0.8582657,1.1148291,282.0648,10.384364,-46.855633
522683643000.0,-7.230118905576208,2.736638404312268,-2.062281812936803,1.4929546,-0.37507126,1.2742649,281.61777,9.867533,-46.916412
522688596000.0,-7.716017821065676,3.3596862785130117,-2.6383072022057,1.5775595,0.16371189,1.3750577,281.0726,9.121467,-47.293144
522693646000.0,-8.25110981471198,3.7175248170442767,-2.524917517318229,1.6313156,0.6817256,1.4459181,280.5168,8.333442,-47.79462
522698651000.0,-8.801194927069451,3.934009781134311,-2.063555868754628,1.6465873,1.1383474,1.488984,279.96622,7.5297575,-48.41695
522704080000.0,-9.35935732679188,4.154469130927314,-1.5417295509525817,1.6835446,1.4049901,1.5021176,279.34515,6.5979166,-49.229786
522708647000.0,-9.25252787682136,4.124999037311548,-0.7828751077015075,1.7336355,1.4969252,1.500285,278.71207,5.6706433,-50.08552
522713578000.0,-9.137183883432998,4.093180112060979,0.0364617128964879,1.8118263,1.4789047,1.5125023,277.9565,4.671401,-50.947605
522718653000.0,-8.899028064429437,4.058021918116042,0.9373477774931092,1.8634444,1.3219124,1.5280794,277.17224,3.6879451,-51.751366
522723831000.0,-8.570988277081035,4.020434069673374,1.8975480550372104,2.0179935,1.0665708,1.5928311,276.3313,2.678519,-52.47963
522728628000.0,-8.26708583213892,3.985611955154355,2.787096284349504,2.1881194,0.6640105,1.6698002,275.39505,1.6643496,-52.98301
522733634000.0,-7.780026427817656,3.8755837985643695,4.352263649575837,2.3539693,0.1554652,1.7513506,14.376593,0.62695223,-53.348587
522738667000.0,-7.21386549178708,3.731796895665144,6.212506805537429,2.4651468,-0.4605924,1.8274034,16.845163,-0.42892444,-53.536743
522743653000.0,-6.551391764300533,3.413747673311085,8.350181871651484,2.499355,-1.1242975,1.892155,19.948967,-1.4846649,-53.340862
522748654000.0,-5.804066627888519,2.95152919957608,10.734711176062056,2.468201,-1.7870862,1.9504927,271.3767,-2.547024,-52.95594
522753647000.0,-5.701560041907971,2.487802720564389,12.10813063546383,2.38268,-2.4501805,2.01555,270.44196,-3.5687258,-52.1353
522758674000.0,-6.90297069590397,2.016363017110667,11.449128358744868,2.2110267,-3.0735686,2.0702224,269.60706,-4.5634604,-51.153088
522763568000.0,-8.264579417936188,1.767831519756635,10.15617250273067,2.0158553,-3.517362,2.0412061,268.8779,-5.4493365,-49.828804
522768612000.0,-9.93539028197758,1.8048578240586373,7.916082663121587,1.9013181,-3.6661077,1.967597,268.2387,-6.307712,-48.43093
522773576000.0,-11.71421550122417,1.957769992273039,5.707678387601606,1.9107865,-3.3423493,1.8637499,267.74777,-7.0643935,-47.18844
522778686000.0,-13.822970526197238,2.355557794643032,3.426389374674371,1.9969184,-2.4529295,1.6862935,267.33328,-7.769218,-46.113766
522783620000.0,-15.478313414888191,2.7442068457571565,1.6162669541991406,1.9996674,-0.86590147,1.351234,266.9037,-8.462039,-45.704388
522788694000.0,-16.271143562459027,3.1547797063442347,0.6924779568970794,1.8008307,1.2760975,0.8723156,266.50192,-9.050263,-45.733498
522793666000.0,-17.048035855269866,3.5570990328793064,-0.2127405875620946,1.3643675,3.4238997,0.28252518,265.9936,-9.615524,-46.569572
522798652000.0,-17.676907589290828,3.811408175412809,-0.1694848813171709,0.829555,5.0249777,-0.32375857,265.50812,-9.996643,-47.851307
522803720000.0,-18.195753340555505,3.9503847608475713,0.6365793529025483,0.32589662,5.8530054,-0.88300574,265.0688,-10.16088,-49.507843
522808583000.0,-18.57244539041096,3.999038339726028,2.3015494489726027,-0.07147124,5.9773164,-1.2638801,264.54944,-10.23232,-51.544502
522813615000.0,-18.8156566074261,3.946921766979092,5.102817274855804,-0.3042109,5.696624,-1.3564262,38.12217,-10.158238,-53.646336
522818553000.0,-18.50756019305172,3.703962567706277,7.6591793713146465,-0.36163223,4.75131,-1.3115277,33.884094,-9.97271,-55.510464
522823595000.0,-16.281016575996844,2.785132015712594,9.595967309996052,-0.4092797,3.2360587,-1.0754282,30.505556,-9.764448,-57.068157
522828630000.0,-14.057564153967627,1.8675771110540864,11.530066332459532,-0.39828414,1.5131133,-0.9789116,26.876917,-9.466993,-57.995647
522833577000.0,-12.514237849632416,1.4940661635835184,11.418425618567277,-0.38056904,0.3200934,-0.9841039,23.564154,-9.200043,-58.610313
522839425000.0,-11.01093641212173,1.316925554385365,10.278980462130278,-0.36102137,-0.2761111,-1.0228939,19.907047,-8.9558325,-58.897255
522843641000.0,-9.994977836050465,1.325440866454903,9.387128495767715,-0.3811799,-0.68111473,-1.0784826,16.688494,-8.596795,-58.443413
522848611000.0,-8.900457051243738,1.5426413842609163,8.228725689665355,-0.50823987,-1.0748174,-1.1114693,13.3411875,-8.234003,-57.851406
522853617000.0,-7.855314225001986,1.7499786744023509,7.127964753585895,-0.70066243,-1.2977833,-1.1111639,10.335094,-7.881554,-57.23426
522858639000.0,-7.198313817139226,1.879850841092844,6.474783953442936,-0.8912524,-1.3952162,-1.0638218,7.672655,-7.522993,-56.560333
522863576000.0,-6.552433487864348,2.007524852831388,5.832658583011675,-1.0125091,-1.5012014,-0.9981538,6.0414057,-7.227129,-55.87718
522868596000.0,-5.954069969532488,2.2429002457527734,5.176046167464342,-1.1200215,-1.6765196,-0.95081174,4.9905896,-6.916801,-55.161697
522873662000.0,-5.388945827456419,2.5504508435023774,4.510968119255151,-1.2275337,-1.8396207,-0.88331115,4.7049036,-6.612761,-54.432144
522878643000.0,-4.858838333757152,2.8261990924984106,3.786083737914813,-1.2189816,-1.9113973,-0.8017606,4.9330993,-6.369955,-53.710186
522883675000.0,-4.579284622059758,2.837687639542276,2.342360319465988,-1.063211,-1.8493946,-0.6630942,269.36078,-6.16727,-52.99239
522888592000.0,-4.306119757112206,2.8489136303639544,0.9316313750079463,-0.8038987,-1.6798794,-0.5177083,269.4893,-6.081115,-52.318653
522893651000.0,-4.351740005532386,2.781114829389735,0.2923726001515022,-0.5198463,-1.4724907,-0.39828414,269.54742,-6.055447,-51.68608
522898598000.0,-4.638039051493744,2.6561108889352285,0.2681783006409056,-0.2593123,-1.3093897,-0.2846632,269.52826,-6.105232,-51.0995
522903629000.0,-4.923268279469548,2.5117981288228552,0.3185495472568762,-0.07727446,-1.1866057,-0.18448131,269.44852,-6.2258763,-50.715458
522909546000.0,-5.234058995088408,2.2705874292239687,0.6896429644155206,0.06047566,-1.0906999,-0.087659165,269.31195,-6.4127393,-50.372612
522913526000.0,-5.443108690569744,2.1083399077766862,0.9392545581777996,0.15118915,-1.0320568,-0.03481932,269.19867,-6.5978355,-50.108047
522918601000.0,-5.749474813717924,1.9554617875651168,1.6793003259695158,0.20341812,-0.92271197,0.03970624,269.02454,-6.829322,-49.883865
522923519000.0,-6.058438224290951,1.8236980540710013,2.5244059161682424,0.28619036,-0.8304713,0.09407325,268.83673,-7.09178,-49.674244
522928620000.0,-6.340912398516857,1.772570578830732,3.40360718012417,0.33841935,-0.7266242,0.122783914,268.67746,-7.3135366,-49.50648
522933663000.0,-6.603276549943951,1.760077010537208,4.273990104190739,0.3594942,-0.54733527,0.12370021,268.4956,-7.5508127,-49.3879
522938532000.0,-6.785125342604299,1.8020620012642223,5.187202992414665,0.33414328,-0.3036,0.073303826,268.33188,-7.7530766,-49.255104
522943659000.0,-6.851973933783915,1.940534079432072,6.275879884946027,0.2779437,-0.08857546,0.003970624,268.16718,-7.947502,-49.168827
522948535000.0,-6.918943960876093,2.190530230106862,7.252073344696635,0.15668693,-0.031154128,-0.026267206,268.0017,-8.115245,-49.005577
522953707000.0,-6.997682784862668,2.7242061310165147,8.153198080544026,0.0125227375,-0.089186326,0.004886922,267.83835,-8.26211,-48.87455
522958599000.0,-7.095654864673767,3.215033415421104,8.917018206748411,-0.12095132,-0.12583824,0.03940081,267.70306,-8.378787,-48.68272
522963660000.0,-7.577170535129329,3.4970019594558317,8.274997765774636,-0.23548855,-0.13500121,0.08399397,267.55933,-8.476551,-48.487724
522968569000.0,-8.04422456126376,3.7705019757898506,7.652259503624809,-0.32803464,-0.090713486,0.116980694,267.394,-8.62104,-48.215946
522973650000.0,-8.362780704551366,3.762262099037712,6.847659178586909,-0.37843102,0.025961773,0.14508049,267.2144,-8.753487,-47.97177
522978543000.0,-8.634958760728217,3.693201953446034,6.039249468573905,-0.40317106,0.12186762,0.16829337,267.0289,-8.872705,-47.74373
522983560000.0,-8.855102498586506,3.538816032708255,5.192140611835658,-0.39553526,0.17592919,0.17134771,266.8001,-9.035456,-47.630444
522988710000.0,-9.02241683612891,3.2971397619770078,4.304445225480588,-0.37904188,0.16371189,0.17012598,266.5715,-9.19212,-47.52811
522993574000.0,-9.132765585247276,3.061779014920369,3.672133928088852,-0.3378085,0.10781772,0.14294247,266.34576,-9.343082,-47.535034
522998656000.0,-9.173561308298408,2.8047657041072926,3.333529128575021,-0.2724459,0.032986723,0.09987647,266.13953,-9.493011,-47.533142
523003983000.0,-9.195634019301847,2.53259922899384,3.0155338804517453,-0.22021692,-0.07147124,0.046731193,265.9851,-9.600113,-47.62422
523008577000.0,-9.010435918069817,2.270611663100616,3.1058744659548254,-0.15943582,-0.1151481,0.024129177,265.8406,-9.716868,-47.709736
523013760000.0,-8.790532314571609,1.9820575985928703,3.243677655722326,-0.13164146,-0.19914207,-0.01038471,265.76355,-9.779062,-47.803646
523018671000.0,-8.476791385240777,1.7761652288930585,3.7191908358348966,-0.09193522,-0.2959642,-0.018020526,265.69223,-9.855407,-47.88004
523023565000.0,-8.181255069537816,1.5789256898459385,4.190506649159664,-0.034513887,-0.39400807,-0.018936822,265.67993,-9.888881,-47.916176
523028635000.0,-7.985745591071429,1.4259181136904762,4.662280267857143,0.019547688,-0.48258355,-0.03268129,265.68588,-9.924917,-47.929653
523033541000.0,-7.796560285084033,1.2778598950280111,5.118793359243697,0.061391957,-0.5516113,-0.047647487,265.74316,-9.932542,-47.847843
523038679000.0,-7.628653333305802,1.1466421673549452,5.52733820565765,0.09987647,-0.6065892,-0.07544186,265.8183,-9.944321,-47.74989
523043532000.0,-7.475107940574024,1.0266848856493909,5.901604662037993,0.105068825,-0.6404922,-0.10262536,265.90305,-9.954987,-47.642666
523048919000.0,-7.488023189354378,0.943936571782386,6.04442749559231,0.08827003,-0.6056729,-0.1441642,266.0614,-9.918163,-47.464535
523053640000.0,-7.514593965074301,0.8756116802955252,6.146914931911678,0.07452556,-0.56321776,-0.15943582,266.2173,-9.884029,-47.28527
523058656000.0,-7.682650740826656,0.8483047386756644,6.215604143272881,0.04734206,-0.5195409,-0.16432275,266.40826,-9.81507,-47.052864
523063582000.0,-7.961206068325601,0.8582531395191902,6.25042365010544,0.01985312,-0.44440445,-0.17287487,266.5899,-9.741635,-46.85102
523068592000.0,-8.266537871904616,0.8900018303576888,6.207053241516356,-0.004276057,-0.32925636,-0.19211712,266.78802,-9.640831,-46.66154
523073652000.0,-8.58752172801386,0.9344457032813616,6.118165340976256,-0.014660766,-0.18936823,-0.20830505,266.96884,-9.539144,-46.507614
523078725000.0,-8.667860142883013,1.070129250878305,5.9017096740311485,-0.053145275,-0.042760566,-0.22113322,267.1256,-9.426315,-46.414093
523083603000.0,-8.642480320536038,1.2393276321984787,5.639452245925389,-0.09560041,0.06352998,-0.23762658,267.27405,-9.309563,-46.35275
523088655000.0,-8.483045048611897,1.3333501969027384,5.523174962832861,-0.13897185,0.14660765,-0.23915374,267.39853,-9.191012,-46.365498
523093642000.0,-8.180883566260624,1.3378600648536356,5.577293378243626,-0.18600847,0.17531833,-0.24862215,267.52368,-9.061567,-46.39341
523098534000.0,-7.886114054372229,1.340753,5.667068262635601,-0.19333886,0.14202617,-0.2452624,267.6151,-8.975895,-46.447487
523103595000.0,-7.584359341128196,1.340753,5.831661855428733,-0.17287487,0.10048734,-0.21685717,267.69577,-8.892137,-46.50407
523108553000.0,-7.326789417164237,1.3382649281003975,5.975019712557486,-0.14385876,-0.011911872,-0.20005837,267.79227,-8.814847,-46.487602
523113685000.0,-7.1965346248031805,1.3267718723049342,6.059302361742926,-0.12186762,-0.09285152,-0.16737708,267.8689,-8.751415,-46.46527
523118536000.0,-7.073411866084652,1.3159081128225114,6.138970158157299,-0.08460484,-0.14569137,-0.14049901,267.9482,-8.706004,-46.361404
523123599000.0,-6.945150433982578,1.237155336106489,6.286003601057062,-0.05222898,-0.16615535,-0.11728613,268.01685,-8.671113,-46.246334
523128631000.0,-6.817799758441813,1.123954593344426,6.465237757463052,-0.044898596,-0.16829337,-0.10048734,268.07745,-8.643615,-46.124935
523133577000.0,-6.692534071252624,1.0551900876106195,6.663628625344403,-0.03970624,-0.14844026,-0.09040806,268.13306,-8.624578,-45.98029
523138665000.0,-6.563615403247879,1.0107353761061946,6.881456669938874,-0.025961773,-0.13439035,-0.07941248,268.17987,-8.612529,-45.838165
523143655000.0,-6.44144539364602,1.004282893194849,7.076104277770467,-0.046731193,-0.12767084,-0.06688975,268.23068,-8.575508,-45.682693
523148609000.0,-6.325501118996146,1.0444174641319672,7.245561344712849,-0.06994407,-0.13958271,-0.037873644,268.26822,-8.546632,-45.53009
523153628000.0,-6.2381263163841805,1.0368922697175142,7.308618536723164,-0.10354166,-0.12858713,-0.023823744,268.31302,-8.498713,-45.364365
523158564000.0,-6.219050010976594,0.9224343456432608,7.129301146376109,-0.12156218,-0.067500606,-0.025961773,268.34677,-8.452144,-45.21507
523164676000.0,-6.200368043396226,0.7805278359056604,6.904118775471698,-0.14110987,0.00580322,-0.028405234,268.3706,-8.408526,-45.044334
523168609000.0,-6.283279723584906,0.6857716541226415,6.698813701886793,-0.14172074,0.03145956,-0.014966198,268.3858,-8.367983,-44.88316
523173522000.0,-6.38685081048218,0.5674047278322851,6.442352011949686,-0.13133603,0.029626964,-0.01038471,268.40594,-8.303975,-44.75887
523178586000.0,-6.650479581956556,0.1878341793372444,6.253458912620897,-0.10903945,0.01863139,-0.017715093,268.4223,-8.2430725,-44.643417
523183591000.0,-6.927872045330585,-0.2149550514896147,6.074863697027113,-0.07147124,-0.026267206,-0.027183503,268.43884,-8.188323,-44.521935
523188626000.0,-7.1458161805325,-0.5337905857529374,5.995168725406921,-0.034513887,-0.08827003,-0.03604105,268.46713,-8.119849,-44.421463
523193661000.0,-7.270561412719629,-0.7209083960418239,6.067936659922388,-0.012217305,-0.17195857,-0.04062254,268.5005,-8.055734,-44.30595
523198730000.0,-7.336887058567775,-0.8602593149616369,6.134973348721228,0.016798794,-0.2519819,-0.038789943,268.56976,-7.9105268,-44.23147
523203596000.0,-7.355223061754869,-0.956522896118434,6.194565287281133,0.026572637,-0.28160888,-0.036957346,268.63867,-7.7672806,-44.150093
523208610000.0,-7.343535074494706,-0.9635060245909528,6.292685735563041,0.039095376,-0.31673363,-0.040011674,268.72342,-7.598689,-44.05185
523213775000.0,-7.300688342252165,-0.8778125103946102,6.430747378633302,0.05222898,-0.34055737,-0.04642576,268.8045,-7.434551,-43.95131
523218655000.0,-7.248007545036648,-0.766757236874491,6.527323890028052,0.055588737,-0.36071593,-0.048258353,268.88452,-7.2569046,-43.837074
523223591000.0,-7.179566963804181,-0.6170432560582753,6.5829320772328295,0.06658431,-0.35735616,-0.036957346,268.95584,-7.0876756,-43.725967
523228678000.0,-7.117122020885685,-0.4647581890525232,6.603083194294542,0.07422013,-0.31856623,-0.03970624,269.0287,-6.9284906,-43.614082
523234481000.0,-7.077057953501544,-0.2987795997425335,6.48289164953656,0.06414085,-0.2648101,-0.0290161,269.08557,-6.775383,-43.510124
523238568000.0,-7.070324213372415,-0.2019398971317436,6.405674376938921,0.03726278,-0.19639318,-0.023518313,269.12805,-6.650789,-43.414753
523243659000.0,-7.116673608215162,-0.1324160597604373,6.32842576195833,0.02321288,-0.113926366,-0.022602014,269.16055,-6.5298634,-43.34159
523248580000.0,-7.161475291974966,-0.0652137805020993,6.253756652879664,0.0027488936,-0.05009095,-0.020158553,269.18222,-6.429977,-43.287422
523253609000.0,-7.1866772323036106,-0.0035256213717426,6.210616189728039,0.016798794,-0.005497787,-0.02443461,269.20023,-6.334688,-43.253002
523258759000.0,-7.205371639581162,0.0572312442494077,6.177901074594902,0.00580322,0.0106901415,-0.027183503,269.21277,-6.2322946,-43.229343
523263642000.0,-7.236522992663128,0.130864088632532,6.144214031095848,0.020158553,0.008857546,-0.03176499,269.21884,-6.155057,-43.223877
523268611000.0,-7.275151281935686,0.2140636054501405,6.108556902859819,0.025961773,-0.011911872,-0.027794369,269.22165,-6.0761266,-43.217346
523273598000.0,-7.313919500611926,0.2975645091268186,6.072770608129878,0.035124753,-0.029626964,-0.02443461,269.21185,-6.016261,-43.213863
523278601000.0,-7.357095966308452,0.3721019104618066,6.038873288556491,0.057421334,-0.029932396,-0.01863139,269.1992,-5.962299,-43.209305
523283611000.0,-7.405869982428115,0.4348114896805112,6.007518553514377,0.062308256,-0.032986723,-0.013133603,269.18597,-5.9078517,-43.199146
523288644000.0,-7.454867911196631,0.4978089571870461,5.976019874578856,0.07666359,-0.029321533,-0.017715093,269.16962,-5.8826046,-43.203262
523293601000.0,-7.47595185233472,0.5564252788368007,5.945201058511327,0.076052725,-0.013133603,-0.011301007,269.1464,-5.858626,-43.20937
523298629000.0,-7.484856735552474,0.6143058388811836,5.914034618122978,0.07971791,0.0018325958,-0.014049901,269.12848,-5.835896,-43.21664
523303767000.0,-7.412170280684707,0.704121379293498,5.959385517726117,0.089491755,0.027794369,-0.01038471,269.0996,-5.832679,-43.237263
523308531000.0,-7.279590868879404,0.8118422287159462,6.062963322448238,0.07849618,0.032375857,-0.007330383,269.0728,-5.8250613,-43.255703
523313503000.0,-7.1826053,0.89064306,6.1387334,0.0720821,0.061086524,-0.004276057,269.03714,-5.833675,-43.28634
523318549000.0,-7.1826053,0.89064306,6.1387334,0.06566802,0.06688975,0.0021380284,269.00067,-5.8408194,-43.310833
523323435000.0,-7.128491621893882,0.9158960909478852,6.228922750500377,0.058948494,0.047036625,0.0061086523,268.95496,-5.8710003,-43.301544
523328522000.0,-6.990508523885952,0.9802881553247734,6.458894292352719,0.055588737,0.033292156,0.02321288,268.90253,-5.90336,-43.294914
523333440000.0,-6.920478785892116,1.0401047750207468,6.600788070456432,0.042760566,-0.006414085,0.038179077,268.85406,-5.9316072,-43.273823
523338488000.0,-7.0107468705394185,1.0952687848962654,6.540609207717843,0.054367006,-0.03726278,0.049785517,268.80212,-5.965853,-43.251247
523343429000.0,-7.130212230109671,1.1270129983141484,6.452323388108402,0.04337143,-0.035430185,0.058643065,268.746,-6.003338,-43.200573
523348483000.0,-7.310077186839481,1.1182391113930934,6.307554299719025,0.040011674,0.004886922,0.08307768,268.68085,-6.0487094,-43.1531
523353545000.0,-7.4931671763066205,1.104502812543554,6.164193639721255,0.008246681,0.06688975,0.07788532,268.61594,-6.092754,-43.118263
523358539000.0,-7.68837773925336,1.0664129356893977,6.0308790458735695,-0.0143553335,0.12797627,0.08552113,268.53693,-6.1434593,-43.094532
523363528000.0,-7.865956978018575,1.0278074072271672,5.914862328328174,-0.02687807,0.2003638,0.07788532,268.46564,-6.1815023,-43.128025
523368517000.0,-7.949162840402477,0.9862044519011224,5.89174958877709,-0.055283304,0.26511553,0.07452556,268.38873,-6.212516,-43.17516
523373505000.0,-8.026613260066418,0.9460217213356164,5.87141544294313,-0.07788532,0.29932398,0.06352998,268.32303,-6.2289557,-43.26529
523378536000.0,-8.041613325446242,0.921021269520548,5.881415521336654,-0.0888809,0.31031954,0.052839845,268.2575,-6.2405615,-43.36449
523383526000.0,-8.037779451603582,0.9024445767061544,5.894927022941347,-0.093462385,0.29871312,0.04153884,268.20303,-6.2360373,-43.475372
523388515000.0,-7.936544026292978,0.916249441938746,5.927138482461716,-0.087964594,0.26847526,0.03573562,268.15198,-6.230081,-43.581112
523393487000.0,-7.835506131995202,0.9309981014434228,5.959114193794482,-0.086437434,0.25228736,0.020158553,268.11652,-6.211435,-43.687225
523398515000.0,-7.731538832706917,0.957952544002399,5.989919167612955,-0.06688975,0.19883664,0.02321288,268.08063,-6.2002516,-43.771027
523403537000.0,-7.627695599408236,0.984874821355458,6.020687381319473,-0.070554934,0.1459968,0.020463986,268.04785,-6.1861286,-43.832703
523408543000.0,-7.517921007393997,1.0361338370462123,6.084239708432587,-0.070554934,0.07849618,0.029321533,268.01395,-6.1796036,-43.87269
523413581000.0,-7.402990378294426,1.10509232011434,6.171587443544545,-0.06169739,0.005497787,0.040927973,267.98404,-6.174085,-43.89488
523418558000.0,-7.328778057810426,1.1812222903442782,6.223664405965129,-0.05222898,-0.079107046,0.06383542,267.95212,-6.179251,-43.87397
523423593000.0,-7.294637469174264,1.2665736282502875,6.240734566598814,-0.043676864,-0.13255776,0.07849618,267.922,-6.186369,-43.841618
523428557000.0,-7.313298436050378,1.34118915404534,6.184676905692696,-0.027183503,-0.12614368,0.105068825,267.87314,-6.2183495,-43.779095
523433593000.0,-7.507671596110831,1.384923097299748,5.883398776523929,-0.020463986,-0.06169739,0.12186762,267.8235,-6.250029,-43.72039
523438541000.0,-7.686718714129742,1.395190359066509,5.628211357492495,-0.03970624,0.043066,0.1255328,267.76508,-6.2980924,-43.67355
523443592000.0,-7.831954610226549,1.3027673072058956,5.496178373742153,-0.08093964,0.15271631,0.12736541,267.69897,-6.3443184,-43.647736
523448700000.0,-7.970714862980769,1.2078188849587912,5.380399348626374,-0.09285152,0.24617869,0.109650314,267.64,-6.39534,-43.698925
523453551000.0,-8.006610513822116,1.1001315992616758,5.480109721222528,-0.094989546,0.30085114,0.095294975,267.57654,-6.4397173,-43.768238
523458501000.0,-8.043238728966346,0.990246613856456,5.581854999381869,-0.08307768,0.31642818,0.07788532,267.52188,-6.4613633,-43.884357
523463560000.0,-8.020773816117783,1.030985403758233,5.688645402169702,-0.06994407,0.29840767,0.047036625,267.47806,-6.4767036,-44.00422
523468535000.0,-7.974624619343278,1.1325140510848508,5.7947890800077495,-0.064751714,0.25992316,0.03848451,267.43372,-6.4933586,-44.118935
523473561000.0,-7.952399272510413,1.266166484522908,5.814494317531239,-0.071776666,0.21655174,0.02321288,267.41364,-6.4754725,-44.225266
523478571000.0,-7.943315636009088,1.4160465342199924,5.787243408027263,-0.071776666,0.14813483,0.027794369,267.3936,-6.4625354,-44.310097
523483554000.0,-7.91945266742988,1.5411002191184888,5.732909373134898,-0.08124508,0.11301007,0.028099801,267.3803,-6.4601145,-44.37357
523489332000.0,-7.877220514653692,1.6625179270749857,5.643165710856707,-0.08155051,0.09865474,0.03634648,267.36542,-6.4620504,-44.421364
523493594000.0,-7.852372044130128,1.7311561465346534,5.591635888260255,-0.10903945,0.0711658,0.056199603,267.34213,-6.488146,-44.457783
523498603000.0,-7.829755263743517,1.7899598227722773,5.546402327487034,-0.129198,0.061086524,0.06261369,267.32147,-6.51409,-44.494022
523503675000.0,-7.797796263410498,1.839015696811668,5.528899253845501,-0.13439035,0.06841691,0.07391469,267.2848,-6.564561,-44.529842
523508580000.0,-7.749997614466209,1.8668982905537184,5.564748386127364,-0.13347405,0.076052725,0.08277224,267.2484,-6.61209,-44.561646
523513927000.0,-7.698762561321181,1.8948871196913637,5.60342243867882,-0.15302174,0.08155051,0.10629055,267.1988,-6.6716304,-44.593685
523518604000.0,-7.674509777547153,1.862550187212345,5.627675222452847,-0.15424347,0.0842994,0.13103059,267.14648,-6.735958,-44.62544
523523552000.0,-7.648851711668622,1.82833955178233,5.653333288331378,-0.14905111,0.09193522,0.1518,267.09915,-6.802414,-44.652134
523528676000.0,-7.642292,1.7653777781255091,5.638809084596577,-0.13988814,0.099571034,0.16920967,267.045,-6.872442,-44.6776
523533621000.0,-7.642292,1.6959049209942951,5.611791732518338,-0.14630222,0.11056661,0.17501289,266.9886,-6.9407773,-44.704754
523538622000.0,-7.660496814860681,1.6123181381836946,5.585269660474716,-0.13591751,0.13133603,0.1881465,266.92596,-7.0102353,-44.7319
523543607000.0,-7.719617988854489,1.4990025546955623,5.560635837977296,-0.14966199,0.14966199,0.1853976,266.8689,-7.0700502,-44.760994
523548522000.0,-7.7738535641541375,1.3820163620332568,5.536651017922932,-0.14385876,0.17287487,0.18173242,266.80978,-7.121548,-44.80445
523553695000.0,-7.823182237259783,1.2488288416309867,5.511986681370108,-0.13622294,0.1853976,0.17073683,266.75595,-7.1674924,-44.849113
523559333000.0,-7.792595730945863,1.1207937370247871,5.497087,-0.13744467,0.17959438,0.15760323,266.7034,-7.191786,-44.904827
523563630000.0,-7.689341421624087,1.039441826756387,5.497087,-0.12614368,0.1695151,0.14782938,266.65482,-7.2178717,-44.96129
523568523000.0,-7.571765593020072,0.9468062910469892,5.497087,-0.13255776,0.13255776,0.12186762,266.618,-7.212062,-45.016586
523573650000.0,-7.536947,0.8832366746390599,5.556220060436486,-0.11362094,0.09712757,0.12339478,266.57587,-7.2169685,-45.066666
523578642000.0,-7.536947,0.834189697313934,5.6364789613878,-0.10415252,0.10140363,0.11789699,266.54736,-7.211885,-45.11765
523583590000.0,-7.544590737253101,0.8293162579917317,5.674565842572347,-0.10720685,0.089186326,0.113926366,266.52502,-7.1886067,-45.136963
523588626000.0,-7.55788281626091,0.8559008046375747,5.683427259421221,-0.09254608,0.086132,0.12339478,266.4989,-7.1725335,-45.158947
523593733000.0,-7.609086379745725,0.8696806821394125,5.643405377939501,-0.09010262,0.11575896,0.122478485,266.48434,-7.1376987,-45.183807
523598659000.0,-7.708359640946953,0.8655443106532222,5.539995918018413,-0.10720685,0.14355333,0.12095132,266.46674,-7.104015,-45.206398
523603678000.0,-7.809069223344855,0.8501315086767703,5.4409562526810245,-0.11178834,0.21197024,0.116980694,266.43787,-7.0799594,-45.24675
523608577000.0,-7.904707186120712,0.7669678683417531,5.382741821678631,-0.12889257,0.2761111,0.10323623,266.41232,-7.0478563,-45.29342
523613540000.0,-8.001594552778515,0.68271778730834,5.323766883718869,-0.14019357,0.3277292,0.0983493,266.37476,-7.018619,-45.377872
523618666000.0,-8.059324453494925,0.6110073166196919,5.315128,-0.14172074,0.34391713,0.08399397,266.34515,-6.983498,-45.468945
523623518000.0,-8.107345304678692,0.5455244164693724,5.315128,-0.12583824,0.33169982,0.08277224,266.31116,-6.951701,-45.56314
523629360000.0,-8.113327608938548,0.5150180375080136,5.330736374668009,-0.10781772,0.2919936,0.06719518,266.2813,-6.8998394,-45.672672
523633632000.0,-8.105833709497206,0.5037774035305431,5.345723782306072,-0.07971791,0.24709499,0.07269296,266.2452,-6.857826,-45.772984
523638617000.0,-8.06657951744542,0.49799395,5.337097214762293,-0.05222898,0.20555615,0.064446285,266.23077,-6.7986264,-45.868267
523643599000.0,-8.003301713323811,0.49799395,5.307892031391553,-0.0125227375,0.15943582,0.06505715,266.21408,-6.7511587,-45.946224
523648596000.0,-7.947372722013307,0.5226271563986116,5.298711291495517,0.022907447,0.118202426,0.061086524,266.2068,-6.70341,-46.006542
523653784000.0,-7.89467482788545,0.5657435783945618,5.303501950024106,0.054061573,0.089186326,0.06719518,266.19736,-6.665519,-46.055084
523658572000.0,-7.869715896224189,0.627730032501475,5.303131870963619,0.07422013,0.057726767,0.076052725,266.18268,-6.6364455,-46.085705
523663678000.0,-7.864907821533923,0.7142772144837758,5.298323746066863,0.101098195,0.051923547,0.07666359,266.16916,-6.614632,-46.114594
523668598000.0,-7.872664430968959,0.7464616338555266,5.280815183195532,0.11209377,0.049480084,0.07238753,266.1542,-6.6034517,-46.12662
523673588000.0,-7.893459933870032,0.7256660585726719,5.24962178408036,0.12644911,0.027794369,0.07941248,266.13644,-6.6006,-46.130707
523678797000.0,-7.915168105134899,0.7039578117493472,5.217059376066144,0.1255328,0.06291912,0.084910266,266.11182,-6.612514,-46.149254
523683580000.0,-7.9296857608311635,0.6958846576050577,5.196894097712905,0.13225232,0.061086524,0.08124508,266.0927,-6.62786,-46.15125
523688708000.0,-7.943383232381926,0.6913188496467089,5.178630961230941,0.1386664,0.04550946,0.06994407,266.07376,-6.6420302,-46.159016
523693598000.0,-7.939866470774308,0.6917508631036703,5.158151282244044,0.13591751,0.028405234,0.06841691,266.0445,-6.6540513,-46.173096
523699009000.0,-7.923182655730844,0.6959218277527366,5.13312523303284,0.14080444,-0.027488936,0.05589417,266.02875,-6.66376,-46.172436
523703584000.0,-7.907622979896993,0.6969923312427313,5.109433046012627,0.17837265,-0.04520403,0.056505036,266.00418,-6.68138,-46.18266
523708581000.0,-7.875820175710251,0.6731401865924572,5.057753530719388,0.17959438,-0.08857546,0.04734206,265.9948,-6.6878314,-46.170937
523713590000.0,-7.843940998969928,0.6492307624273136,5.005949910126267,0.19822577,-0.105068825,0.054061573,265.97766,-6.7099853,-46.16101
523718600000.0,-7.907996935753317,0.7286028260343482,4.946037927041374,0.2171626,-0.13744467,0.052534413,265.97205,-6.728423,-46.13571
523723597000.0,-8.016334314285714,0.8556192714285714,4.882529762857143,0.24953845,-0.18600847,0.051618114,265.9662,-6.7542357,-46.10147
523728594000.0,-8.110217641378778,0.967703292413634,4.829385454481803,0.24190263,-0.20219639,0.053145275,265.9543,-6.773557,-46.070717
523733640000.0,-8.099063407324767,0.9714214221974302,4.851694233184581,0.27366763,-0.18753563,0.061086524,265.9419,-6.807573,-46.035915
523738538000.0,-8.088236328768177,0.9750304986304532,4.873348691782719,0.28344148,-0.18478674,0.06872234,265.91742,-6.868257,-46.015514
523743621000.0,-8.103391314588427,1.001513898981255,4.915020950407498,0.2932153,-0.18692477,0.07696902,265.89008,-6.935799,-45.99796
523748598000.0,-8.142237063243684,1.0481288379299103,4.973289532828036,0.30115658,-0.19364429,0.08857546,265.85974,-7.005949,-45.979805
523753605000.0,-8.185097139787562,1.0969050955728532,5.031075458574556,0.3173445,-0.21166481,0.09285152,265.83618,-7.0775666,-45.959286
523758634000.0,-8.278820116840995,1.171102234930674,5.077936783994162,0.3200934,-0.2556471,0.08552113,265.8164,-7.1467853,-45.93005
523763571000.0,-8.370828535555015,1.2439420195816104,5.123940833227925,0.31978795,-0.2950479,0.0888809,265.78363,-7.2316384,-45.892708
523768702000.0,-8.417893755828707,1.2855363311895325,5.147473501348136,0.31795537,-0.3268129,0.0888809,265.75955,-7.312987,-45.846775
523773590000.0,-8.43274265479778,1.3040975905709755,5.154898144647105,0.30970868,-0.36285394,0.08552113,265.74036,-7.3915243,-45.789948
523778604000.0,-8.4477517645938,1.3239508834574745,5.163242708340551,0.3109304,-0.39003745,0.087659165,265.71255,-7.4884014,-45.72725
523783727000.0,-8.460499364628443,1.3536956976615278,5.180239789398926,0.3036,-0.40591997,0.07391469,265.6962,-7.5762787,-45.660595
523788668000.0,-8.472794092672787,1.382383795842716,5.196633031153646,0.30604348,-0.42241332,0.076052725,265.6674,-7.675158,-45.584064
523793656000.0,-8.48206888458491,1.391934338999912,5.19690892656924,0.2941316,-0.42332962,0.07696902,265.64633,-7.7649555,-45.51064
523798614000.0,-8.490429262435073,1.396114396980368,5.192728824940576,0.28924468,-0.42638394,0.07360926,265.62927,-7.8545227,-45.434635
523803639000.0,-8.527785107554418,1.423081519846351,5.196846471190781,0.27091873,-0.42760566,0.074830994,265.61917,-7.942144,-45.361374
523808569000.0,-8.592268160904823,1.471443788817755,5.208937069995732,0.2415972,-0.42363504,0.06994407,265.614,-8.023113,-45.29165
523813598000.0,-8.651346068936489,1.5131354,5.21936,0.22204952,-0.40439278,0.063224554,265.60727,-8.102148,-45.23039
523818672000.0,-8.674072045552334,1.5131354,5.21936,0.19761491,-0.36651915,0.05375614,265.60275,-8.171437,-45.178078
523823906000.0,-8.700124888315846,1.5175193059221057,5.225767234927974,0.17989981,-0.32895094,0.052534413,265.59186,-8.248304,-45.135796
523828673000.0,-8.752897604481594,1.5702922340298773,5.302896752356394,0.15088372,-0.28221974,0.035430185,265.5882,-8.3115015,-45.109417
523833595000.0,-8.807386236528544,1.6247810849101902,5.382534152142984,0.11789699,-0.22602014,0.023518313,265.58176,-8.369269,-45.095673
523838662000.0,-8.816639677186568,1.6700271664100836,5.39412050470509,0.11178834,-0.15882497,0.004276057,265.58087,-8.420564,-45.100018
523843581000.0,-8.81210688944482,1.7108214514769555,5.385055118541326,0.096516706,-0.10873401,-0.019547688,265.58386,-8.459174,-45.116287
523848640000.0,-8.770141534029461,1.7113573242588105,5.40086714851762,0.05681047,-0.060170226,-0.036651913,265.586,-8.4973955,-45.147884
523853610000.0,-8.712454133320902,1.6936072977810928,5.427492095562185,0.019242255,-0.0015271631,-0.058948494,265.59488,-8.526277,-45.196968
523858575000.0,-8.618310558336697,1.6881277456600727,5.468333256762212,-0.004581489,0.019547688,-0.070249505,265.59604,-8.55967,-45.244423
523863592000.0,-8.492228811364555,1.6929770397254742,5.521675592753331,-0.021380283,0.008552114,-0.08307768,265.6046,-8.581493,-45.298897
523868609000.0,-8.383655156754193,1.6972352647896234,5.555673323948118,-0.032375857,-0.00061086525,-0.08827003,265.60938,-8.5964155,-45.34812
523873593000.0,-8.289280412685859,1.7010102387851944,5.574548193925973,-0.04337143,-0.020463986,-0.099571034,265.6235,-8.603872,-45.39088
523878715000.0,-8.19162818262477,1.703142141663586,5.593364818558226,-0.04062254,-0.040927973,-0.093462385,265.6392,-8.615234,-45.40764
523884284000.0,-8.073329137615527,1.673567303207024,5.603223080887246,-0.042455133,-0.064446285,-0.08857546,265.66144,-8.620963,-45.41817
523888572000.0,-7.982241634473198,1.6507953679759704,5.610813712754159,-0.043982297,-0.07696902,-0.086132,265.67273,-8.63404,-45.40419
523893670000.0,-7.876010758978404,1.6054414598856128,5.586947143161424,-0.03023783,-0.1001819,-0.074830994,265.68146,-8.652427,-45.380375
523898524000.0,-7.775164062636821,1.5596020089438911,5.559443568326595,-0.04550946,-0.124311075,-0.06719518,265.69177,-8.664296,-45.35355
523903779000.0,-7.695397064131713,1.5019894282732262,5.533942488043904,-0.035430185,-0.1414153,-0.052534413,265.6975,-8.683727,-45.30918
523908618000.0,-7.627273580399843,1.4474905938651508,5.51123466013328,-0.0290161,-0.14905111,-0.04886922,265.7058,-8.69849,-45.262432
523913680000.0,-7.58445104281067,1.4256045315549772,5.495747493558881,-0.027488936,-0.15974127,-0.04917465,265.7116,-8.709791,-45.20344
523918592000.0,-7.549472799925644,1.412487679059392,5.482630595408495,-0.016187929,-0.17256944,-0.03940081,265.7128,-8.726898,-45.14271
523923596000.0,-7.539528497507892,1.4387691440023258,5.498585865276624,-0.0106901415,-0.17867808,-0.040317107,265.72803,-8.729156,-45.079063
523928585000.0,-7.543497400764247,1.48639701917262,5.530337837315169,-0.007941248,-0.17562376,-0.021380283,265.73157,-8.739116,-45.014664
523933639000.0,-7.5691409414305,1.521635186954566,5.555624990553306,0.0070249503,-0.1685988,-0.007941248,265.73273,-8.751896,-44.939365
523938674000.0,-7.6602435927125505,1.5172969784075574,5.559963108502024,0.004581489,-0.1469131,0.004886922,265.72513,-8.765183,-44.8703
523943827000.0,-7.752037145225225,1.511081999099099,5.56529797981982,-0.0027488936,-0.11148291,0.0067195175,265.7194,-8.789618,-44.80551
523948617000.0,-7.817290072868658,1.4806306358937884,5.582698875599811,-0.004276057,-0.086437434,-0.0015271631,265.71207,-8.814643,-44.745888
523954506000.0,-7.893392592653421,1.4432928345858036,5.602432,-0.015577064,-0.056199603,0.0009162979,265.69836,-8.834744,-44.706924
523958580000.0,-7.912147190618491,1.4182866278080437,5.602432,-0.02321288,-0.03634648,-0.013133603,265.69354,-8.8497505,-44.674805
523963625000.0,-7.935371772536451,1.387320424274956,5.602432,-0.0125227375,-0.027794369,-0.02321288,265.6921,-8.856596,-44.65489
523968604000.0,-7.944557318223411,1.35411210572957,5.615008530738368,-0.006414085,-0.0290161,-0.02565634,265.69232,-8.85959,-44.63874
523973593000.0,-7.934468174526642,1.3171186724853945,5.645275926712184,-0.021380283,-0.046120327,-0.03268129,265.69888,-8.857453,-44.6219
523978664000.0,-7.92421320405434,1.2795172092700782,5.676040802435419,-0.0106901415,-0.051618114,-0.033292156,265.69745,-8.855781,-44.611675
523983796000.0,-7.899409733970041,1.240584982839047,5.718065296451191,-0.013744468,-0.08552113,-0.038789943,265.7045,-8.846018,-44.589943
523988609000.0,-7.866972717160952,1.2035139958882075,5.76440403013974,-0.004581489,-0.105374254,-0.03726278,265.7081,-8.842267,-44.570724
523993656000.0,-7.793744689606928,1.1898935764157228,5.80097773491006,-0.0021380284,-0.12950343,-0.04428773,265.73166,-8.819924,-44.537334
523998605000.0,-7.695069674616922,1.193840577015323,5.828606739107262,0.0015271631,-0.16432275,-0.04184427,265.7528,-8.802344,-44.49583
524003605000.0,-7.601891725291086,1.2021022599541895,5.857263919946555,0.009468411,-0.18509217,-0.04520403,265.78506,-8.774639,-44.445065
524008578000.0,-7.538257638747853,1.229373929967551,5.889080868295476,0.009162978,-0.20341812,-0.04062254,265.8148,-8.748739,-44.38644
524013563000.0,-7.479486,1.2594948216819974,5.91784995978975,0.020463986,-0.2171626,-0.03481932,265.84186,-8.7308445,-44.30796
524018606000.0,-7.479486,1.3229584253613669,5.909917009329829,0.02107485,-0.226631,-0.03573562,265.86978,-8.710717,-44.22839
524024009000.0,-7.479486,1.390952446911958,5.901417756636006,0.03023783,-0.21288654,-0.02443461,265.8939,-8.704188,-44.137215
524028658000.0,-7.486728755778894,1.4246902886934674,5.896898697654942,0.04520403,-0.18600847,-0.02107485,265.91998,-8.6974325,-44.050926
524033600000.0,-7.497539296116948,1.4499149204431243,5.89329510895386,0.021991149,-0.16249016,-0.011911872,265.93765,-8.688348,-43.96961
524038773000.0,-7.510849337689483,1.4732484500329537,5.888946134638923,0.022907447,-0.14172074,-0.015882496,265.9591,-8.700016,-43.897526
524043626000.0,-7.554608401412296,1.446993221984747,5.875818680538556,0.0061086523,-0.11148291,-0.021685716,265.97455,-8.704642,-43.83674
524048608000.0,-7.599530646511628,1.4200400906976742,5.862342279069767,0.00030543262,-0.09560041,-0.026267206,265.9936,-8.71686,-43.778526
524053641000.0,-7.624288173843998,1.380821744680056,5.87318773470341,-0.003970624,-0.08307768,-0.026267206,266.01044,-8.725584,-43.729755
524058595000.0,-7.646447663428304,1.340934617150864,5.886483243344232,0.004581489,-0.08674286,-0.022296581,266.02707,-8.73556,-43.682564
524063653000.0,-7.632696921887741,1.2576839345710074,5.905712564934501,0.005192355,-0.093767814,-0.032375857,266.05173,-8.73262,-43.648373
524068562000.0,-7.608225852867181,1.1638790643185564,5.926104909516787,0.002443461,-0.11178834,-0.038179077,266.0739,-8.732463,-43.61075
524073563000.0,-7.585259705035355,1.106335636597386,5.93762,0.005192355,-0.118507855,-0.038179077,266.10004,-8.7222395,-43.580536
524078622000.0,-7.564497389815013,1.0959544428540815,5.93762,0.004276057,-0.11942416,-0.035430185,266.1274,-8.71051,-43.548233
524083628000.0,-7.543952588472251,1.0856820064281123,5.93762,0.013439035,-0.129198,-0.039095376,266.15988,-8.678277,-43.50777
524088584000.0,-7.521155778319122,1.0821792,5.943936554628501,0.0033597588,-0.13530666,-0.03145956,266.18542,-8.645468,-43.468525
524093891000.0,-7.495361991473812,1.0821792,5.954254177101096,0.008246681,-0.13225232,-0.033292156,266.2149,-8.615723,-43.431217
524098592000.0,-7.471056861126449,1.0881812254003311,5.9567738,0.0076358155,-0.12705997,-0.02443461,266.24414,-8.582975,-43.388466
524103623000.0,-7.444452196024295,1.0970494162341249,5.9567738,0.003970624,-0.1151481,-0.030848695,266.2778,-8.547998,-43.350903
524108602000.0,-7.427174456116804,1.1124016597079895,5.961201343883196,0.009162978,-0.11301007,-0.022602014,266.30194,-8.520242,-43.30915
524113675000.0,-7.41836279267253,1.1344308183186724,5.970013007327469,0.009468411,-0.09743301,-0.016798794,266.32623,-8.489707,-43.27632
524118661000.0,-7.407699399811809,1.1575275193366268,5.973552912302988,0.013439035,-0.09560041,-0.01160644,266.35464,-8.463754,-43.23743
524123606000.0,-7.392845632619776,1.1835215149847096,5.96612606748216,0.018020526,-0.103847094,-0.019547688,266.38434,-8.437173,-43.201675
524130133000.0,-7.372380255822097,1.2152483574680442,5.960295298861845,0.032375857,-0.09285152,-0.020463986,266.4106,-8.420544,-43.16586
524133737000.0,-7.351227849098231,1.2031612318508145,6.00260023852215,0.026267206,-0.10842858,-0.017715093,266.4402,-8.400328,-43.121883
524138560000.0,-7.322920951864821,1.1869858137454037,6.059214201891088,0.029626964,-0.1142318,-0.01038471,266.45898,-8.395487,-43.082375
524143655000.0,-7.313937391873141,1.1711134843409317,6.093126906838454,0.0290161,-0.12186762,-0.01160644,266.48062,-8.387657,-43.039684
524148604000.0,-7.328029240198216,1.1570215869672944,6.097824140564915,0.04337143,-0.12767084,-0.009162978,266.49777,-8.385972,-42.996674
524153666000.0,-7.341897768154951,1.1593231013640084,6.10244695605165,0.040317107,-0.13133603,-0.0033597588,266.5183,-8.375029,-42.94635
524158587000.0,-7.3547542106756385,1.180750550313722,6.10673243689188,0.038179077,-0.12767084,0.0018325958,266.53723,-8.36786,-42.89809
524163626000.0,-7.367054852901266,1.195855673549367,6.10626680764557,0.045814894,-0.111177474,0.004276057,266.54608,-8.3622675,-42.84985
524168601000.0,-7.376704388091139,1.1910309059544304,6.091792454481013,0.038179077,-0.09621128,0.007330383,266.5522,-8.354305,-42.80363
524173639000.0,-7.390111047648854,1.1832620719427276,6.078075498427354,0.02687807,-0.07574729,0.008246681,266.5491,-8.353757,-42.76506
524178707000.0,-7.412895833502856,1.1680722279242626,6.066683184805571,0.026267206,-0.067500606,0.008552114,266.54486,-8.354205,-42.7285
524183582000.0,-7.434812927235741,1.1534608448165249,6.055724714224239,0.01282817,-0.060170226,0.0061086523,266.54138,-8.348617,-42.694355
524188629000.0,-7.441179,1.1424310919699483,6.062720226617231,0.018020526,-0.05467244,-0.0027488936,266.53976,-8.34552,-42.663517
524193661000.0,-7.441179,1.133027158395941,6.076826077880769,0.014660766,-0.05681047,-0.007330383,266.5374,-8.338204,-42.633545
524198599000.0,-7.447504962833777,1.142715290806976,6.097087072223864,0.01985312,-0.061391957,-0.009162978,266.53665,-8.328534,-42.611626
524203646000.0,-7.457029764272343,1.1617651423292934,6.120899324465465,0.018936822,-0.0729984,-0.01282817,266.53885,-8.315811,-42.588238
524209328000.0,-7.444024051104375,1.1977255280121264,6.142202951580771,0.015882496,-0.08124508,-0.0125227375,266.5384,-8.302597,-42.563686
524213624000.0,-7.426205977132958,1.2297980611606756,6.156457708445214,0.02321288,-0.09193522,-0.016187929,266.54166,-8.29008,-42.536503
524218599000.0,-7.403781975329755,1.2473396794414628,6.15301985330665,0.019547688,-0.10323623,-0.014660766,266.5471,-8.278353,-42.501953
524223594000.0,-7.377672933575912,1.225582144646593,6.109504465650868,0.025961773,-0.116980694,-0.01740966,266.55615,-8.268911,-42.465332
524228589000.0,-7.352396870418173,1.2086207471863706,6.069752259576665,0.03268129,-0.12370021,-0.01282817,266.56345,-8.268715,-42.42514
524233578000.0,-7.332663817160558,1.2234205371295817,6.054952521146102,0.044898596,-0.118202426,-0.009773844,266.57214,-8.270228,-42.386204
524238605000.0,-7.314747416131014,1.237341104053224,6.0458644959877175,0.045814894,-0.12644911,-0.0030543262,266.5775,-8.269871,-42.34168
524243696000.0,-7.304766867574207,1.2473217568270214,6.060835423039918,0.04153884,-0.122783914,0.0036651916,266.58023,-8.271545,-42.303215
524248569000.0,-7.29860005934859,1.2524155364827652,6.059891411860222,0.042760566,-0.12767084,-0.00061086525,266.5902,-8.276325,-42.256493
524253620000.0,-7.303193298983952,1.243228865359415,6.009364768644953,0.063224554,-0.12064589,0.0009162979,266.59415,-8.286564,-42.214893
524258607000.0,-7.305107262910893,1.236073545696369,5.971008705977546,0.056199603,-0.12034045,-0.00061086525,266.61194,-8.288718,-42.16767
524263621000.0,-7.290537198624456,1.2409302337918475,6.005005421219784,0.059253927,-0.1255328,0.008857546,266.6245,-8.299659,-42.12166
524268637000.0,-7.2783732,1.246972086,6.037362385833334,0.0571159,-0.1337795,0.0061086523,266.64117,-8.304523,-42.08479
524273647000.0,-7.2783732,1.258967028,6.0613523533333336,0.06414085,-0.14080444,0.013439035,266.65054,-8.315662,-42.046875
524278593000.0,-7.2783732,1.2708087412000002,6.085035862166667,0.076052725,-0.1432479,0.019242255,266.66534,-8.326167,-42.001328
524283580000.0,-7.292833736828414,1.2881758745772889,6.108924822031016,0.083383106,-0.1518,0.024740042,266.67816,-8.338433,-41.953224
524288546000.0,-7.311866608784392,1.307208796218109,6.132716110715357,0.07727446,-0.16279559,0.032070424,266.68823,-8.351652,-41.90482
524293664000.0,-7.327820718995984,1.3231628414457832,6.1387334,0.09101892,-0.1554652,0.03940081,266.69202,-8.374257,-41.861465
524298609000.0,-7.342085058052209,1.3374270812048192,6.1387334,0.096516706,-0.14660765,0.03573562,266.69788,-8.392767,-41.81723
524303587000.0,-7.402028094281299,1.374723256568779,6.169872742735703,0.09040806,-0.13408493,0.03726278,266.69864,-8.416742,-41.774517
524308633000.0,-7.476718253168469,1.419537351901082,6.2109522521329215,0.08979719,-0.108123146,0.039095376,266.69916,-8.44189,-41.739693
524313610000.0,-7.525590286236689,1.4347083837653205,6.238836466465743,0.087964594,-0.09407325,0.03359759,266.7046,-8.465735,-41.70812
524318662000.0,-7.462402931685754,1.3180549427767732,6.2096732204139045,0.08307768,-0.07941248,0.0421497,266.70227,-8.491374,-41.68407
524323628000.0,-7.4124484,1.2328047332802698,6.197949205187752,0.06627888,-0.060170226,0.04428773,266.7054,-8.519545,-41.668346
524328613000.0,-7.4124484,1.2685686889409122,6.256065510600243,0.058337633,-0.0720821,0.03940081,266.70956,-8.548216,-41.648678
524333793000.0,-7.414749637740468,1.3043635047918851,6.309965077124869,0.0580322,-0.076358154,0.042760566,266.7117,-8.554163,-41.632507
524338622000.0,-7.439013124746415,1.324583147674012,6.297833291395593,0.05375614,-0.063224554,0.042455133,266.71652,-8.555915,-41.61901
524343587000.0,-7.46395994872333,1.345372240013991,6.285359835991605,0.045814894,-0.035124753,0.038179077,266.72787,-8.561061,-41.59952
524349167000.0,-7.476756278523217,1.3400590967065138,6.251573154370985,0.029626964,-0.014049901,0.029626964,266.74026,-8.562605,-41.582893
524353605000.0,-7.483668976904936,1.3296902656745546,6.220466625185004,0.031154128,-0.0036651916,0.0290161,266.74973,-8.566908,-41.571636
524358543000.0,-7.492001554711878,1.3201301073018514,6.190316859891825,0.019547688,0.005497787,0.024129177,266.76276,-8.566582,-41.57672
524363613000.0,-7.50210221395881,1.3150797249427917,6.170115435926773,0.014660766,0.019547688,0.018020526,266.77512,-8.567688,-41.586243
524368520000.0,-7.4999161052499215,1.3134059824583464,6.157887,0.0076358155,0.030848695,0.013439035,266.79178,-8.562504,-41.59986
524373658000.0,-7.476713213832128,1.3172731310279786,6.157887,-0.0009162979,0.035430185,0.01038471,266.80927,-8.555322,-41.615547
524378647000.0,-7.454183197233574,1.3210281337944043,6.157887,-0.002443461,0.035124753,0.01740966,266.82654,-8.548113,-41.634182
524383576000.0,-7.433164526085807,1.3180811852171614,6.168441644348516,-0.00061086525,0.03481932,0.0143553335,266.8479,-8.537667,-41.654385
524388543000.0,-7.412211321258039,1.3138905442516078,6.181013567245177,-0.004276057,0.03726278,0.004581489,266.86856,-8.526121,-41.67484
524393632000.0,-7.386581083560139,1.307368166731468,6.184290183365734,-0.0036651916,0.04734206,0.020158553,266.87497,-8.52369,-41.689056
524398659000.0,-7.358096761423379,1.2992297889781084,6.180220994489054,-0.0070249503,0.034513887,0.010079277,266.89587,-8.513117,-41.699245
524403677000.0,-7.333107903842468,1.291960282303738,6.177949298719177,-0.0125227375,0.03756821,0.021380283,266.89264,-8.511103,-41.708885
524408645000.0,-7.320671498231245,1.2878147271935176,6.182094767256252,0.00580322,0.03604105,0.015271631,266.90097,-8.5082855,-41.715073
524413600000.0,-7.308267635549359,1.2836800199529494,6.186229388150213,-0.0030543262,0.04062254,0.029932396,266.90692,-8.5008745,-41.71598
524418918000.0,-7.288361303236213,1.27392090054441,6.153818136031858,0.0012217305,0.03848451,0.024129177,266.92313,-8.4952345,-41.71612
524423534000.0,-7.270534300998085,1.2650074459622946,6.122620649430386,0.0076358155,0.045814894,0.024740042,266.9301,-8.492378,-41.719055
524428780000.0,-7.247129149844325,1.2251373682705915,6.032910163628644,0.009162978,0.06047566,0.038179077,266.93463,-8.490015,-41.71965
524433551000.0,-7.225574844070195,1.1863395368525331,5.946692805491084,0.01160644,0.058643065,0.0290161,266.94785,-8.485114,-41.71901
524438677000.0,-7.255568398978589,1.2164538990964449,5.981952598526812,0.018020526,0.076052725,0.03604105,266.9401,-8.48834,-41.728462
524443528000.0,-7.296632337900216,1.2620805508348063,6.04582986331762,0.0143553335,0.06414085,0.05131268,266.93503,-8.489797,-41.729107
524448652000.0,-7.303647951633865,1.2737153,6.06557422053472,0.019242255,0.04520403,0.05222898,266.92603,-8.488734,-41.74156
524453588000.0,-7.299259713832157,1.2737153,6.069962549981433,0.015271631,0.05100725,0.04917465,266.91217,-8.48708,-41.756557
524458583000.0,-7.307989977223816,1.2841783591642757,6.100468774157102,0.018020526,0.07360926,0.050701816,266.8973,-8.495866,-41.766705
524463619000.0,-7.325288583034434,1.30147710044835,6.1480404142934,0.018020526,0.08124508,0.048563786,266.886,-8.501724,-41.774517
524468599000.0,-7.351667876118111,1.3102632763489468,6.178799923651053,0.037873644,0.0842994,0.05100725,266.8749,-8.51261,-41.78203
524473589000.0,-7.393034913725113,1.305666928171588,6.183396271828412,0.011911872,0.087659165,0.055588737,266.8635,-8.513618,-41.791508
524478617000.0,-7.428037006232573,1.3036482012465147,6.185414998753486,0.013133603,0.0852157,0.04917465,266.86176,-8.523239,-41.796658
524483579000.0,-7.447522032310973,1.3075452064621946,6.181517993537805,0.016493361,0.083383106,0.042760566,266.8582,-8.5285425,-41.80254
524489576000.0,-7.47073027065186,1.3120226,6.177314354978271,0.013439035,0.08246681,0.040927973,266.85486,-8.530549,-41.813934
524493669000.0,-7.48208655706422,1.3120226,6.181099757431193,0.012217305,0.0870483,0.03940081,266.85364,-8.532429,-41.826454
524498611000.0,-7.49579844747465,1.3120226,6.185670355750845,0.0143553335,0.09193522,0.030543262,266.8556,-8.533461,-41.84047
524503573000.0,-7.495560764927749,1.3212592981141318,6.171222903143113,0.0143553335,0.10140363,0.03145956,266.85382,-8.535338,-41.85637
