timestamp,acc_x,acc_y,acc_z,gyro_x,gyro_y,gyro_z,ori_azimuth,ori_pitch,ori_roll
2125450712000.0,2.134830299356738,9.646606987033936,0.5603047224103164,-0.50976706,1.8301523,0.5338962,31.721521,-10.822275,-42.02225
2125456697000.0,2.1310739518289608,9.649207525110404,0.5588599741734891,-0.50976706,0.75747293,0.04062254,31.998552,-10.723898,-41.76091
2125460649000.0,2.128593569969349,9.650924705808514,0.5579059816869492,-1.1844677,0.7602218,0.037873644,30.619774,-11.274942,-41.809822
2125465653000.0,2.1254529245175533,9.653098990275453,0.5566980418077373,-1.1881329,0.7657196,0.033292156,29.548893,-11.873192,-41.59104
2125470707000.0,2.1222808977163194,9.65529500020669,0.5554780321855276,-1.1951579,0.75686204,0.03359759,28.498539,-12.331423,-41.36528
2125475714000.0,2.119138369383557,9.65747058820149,0.5542693681217358,-1.196685,0.7516697,0.03359759,27.467772,-12.791447,-41.13865
2125480639000.0,2.1160473064638743,9.659610546434838,0.5530804984364602,-1.1930199,0.73823065,0.032375857,26.45744,-13.253216,-40.90366
2125485670000.0,2.112889715083382,9.661796562652498,0.5518660408960295,-1.1704178,0.77549344,0.035430185,25.457596,-13.722,-40.677002
2125490635000.0,2.1097735470841483,9.663953901257283,0.5506675154163557,-1.1991285,0.7806858,0.03970624,24.480057,-14.182994,-40.434254
2125495659000.0,2.106620349092577,9.666136875909944,0.5494547476399447,-1.2156218,0.7828238,0.04153884,23.514193,-14.654038,-40.196754
2125500680000.0,2.1034690339819724,9.668318547034744,0.5482427040481136,-1.2278391,0.7623598,0.060170226,22.55868,-15.1263,-39.9486
2125505654000.0,2.10034721733984,9.670479796223104,0.5470420060147002,-1.221425,0.7678576,0.05497787,21.622412,-15.597216,-39.706272
2125510732000.0,2.0971601274908758,9.672686234377206,0.5458162029158516,-1.2538009,0.7528914,0.064446285,20.694899,-16.065607,-39.445835
2125515640000.0,2.094079734230001,9.674818805952691,0.5446314369431953,-1.2507466,0.73823065,0.07147124,19.783936,-16.543608,-39.183846
2125520648000.0,2.0909365782702505,9.676994828456776,0.5434225314845436,-1.2476922,0.7339546,0.07849618,18.868305,-17.035913,-38.871506
2125526564000.0,2.0872235370046983,9.679565385392513,0.5419944394930531,-1.2421945,0.72021013,0.084910266,17.970978,-17.531065,-38.54884
2125530646000.0,2.084661563636547,9.681339052297796,0.5410090656747192,-1.2461652,0.70463306,0.09865474,17.086515,-18.027811,-38.219788
2125535645000.0,2.081524056319695,9.683511164218306,0.539802332769807,-1.2476922,0.655153,0.09437868,16.229465,-18.524244,-37.8765
2125540627000.0,2.078397218661652,9.685675889480954,0.5385997035775141,-1.2061534,0.5946773,0.0983493,15.38552,-19.033287,-37.520893
2125545676000.0,2.0752283299953618,9.68786972686576,0.5373809009296041,-1.106277,0.52564955,0.09987647,14.568985,-19.553328,-37.148457
2125550612000.0,2.0721303631788026,9.690014464701257,0.5361893759008691,-0.97433007,0.45845437,0.0852157,13.781974,-20.086864,-36.760098
2125555640000.0,2.0689746546792764,9.69219917739106,0.5349756425450183,-0.8384125,0.39187005,0.08460484,13.01737,-20.64541,-36.350063
2125560652000.0,2.0658289882115706,9.694376937932288,0.5337657715069266,-0.70524395,0.33536503,0.07666359,12.285852,-21.227568,-35.92606
2125565615000.0,2.0627140754663142,9.6965334075185,0.5325677288169728,-0.57940567,0.11056661,0.034208454,11.6203165,-21.830715,-35.444824
2125570711000.0,2.059515688331552,9.698747666839749,0.5313375806106451,-0.13103059,0.0033597588,0.016187929,10.957678,-22.537605,-34.97559
2125575663000.0,2.056407679483172,9.700899356823818,0.5301421932641508,0.07544186,0.01985312,0.016798794,10.337201,-23.212463,-34.482983
2125580692000.0,2.0532513433566573,9.703084504022907,0.52892821851344,0.0421497,0.025961773,0.027794369,9.75776,-23.930279,-33.96042
2125585640000.0,2.0501458450162326,9.705234455969832,0.5277337967463854,0.016187929,0.028710667,0.020158553,9.200691,-24.690536,-33.4422
2125590641000.0,2.047007082445403,9.707407436908914,0.5265265810517533,0.018325957,0.013439035,0.020158553,8.658695,-25.450033,-32.91734
2125596235000.0,2.0434961370702345,9.70983808185457,0.5251762182051682,0.03145956,0.018936822,0.005192355,8.137145,-26.199224,-32.400917
2125600635000.0,2.040734578319655,9.71174992271279,0.5241140808213688,0.03848451,0.014660766,0.00580322,7.632952,-26.946922,-31.87574
2125605656000.0,2.03758326320905,9.713931593837591,0.5229020372295377,0.032986723,0.016493361,0.0015271631,7.1492863,-27.687923,-31.356342
2125615656000.0,2.0313069933213685,9.718276686697182,0.5204880886299933,0.026572637,0.014660766,-0.00030543262,6.6826096,-28.427168,-30.834827
2125620650000.0,2.0281726241394606,9.720446626071263,0.5192825626993809,0.01863139,0.016187929,0.0061086523,6.229822,-29.161552,-30.31444
2125625632000.0,2.0250457864814178,9.722611351333912,0.518079933507088,0.018020526,0.022296581,-0.003970624,5.796934,-29.889051,-29.798498
2125630642000.0,2.021901375267689,9.724788242856569,0.5168705452587163,0.0021380284,0.021685716,-0.0143553335,5.37827,-30.607838,-29.281494
2125635662000.0,2.018750687784073,9.726969479472082,0.5156587430617451,0.005192355,0.015271631,-0.013744468,4.9737806,-31.326633,-28.765759
2125640666000.0,2.015610042332278,9.72914376393902,0.5144508031825331,-0.0009162979,0.01038471,-0.01740966,4.586931,-32.032524,-28.25436
2125645663000.0,2.012473790269404,9.731315006840958,0.5132445530673408,-0.02076942,0.0018325958,-0.018020526,4.214631,-32.73165,-27.741926
2125650613000.0,2.0093670366750014,9.733465827806455,0.5120496485105664,-0.015882496,-0.005497787,-0.01038471,3.8550432,-33.430946,-27.229998
2125655635000.0,2.006215093937408,9.735647933440545,0.5108373635238753,-0.026572637,-0.0070249503,-0.0070249503,3.5099757,-34.11584,-26.72073
2125660665000.0,2.0030581301839043,9.737833515148916,0.5096231473783045,-0.02565634,-0.013439035,-0.012217305,3.17996,-34.79921,-26.211592
2125665814000.0,1.9998264788187368,9.740070803462322,0.5083802052443992,-0.021685716,-0.014660766,-0.01282817,2.8592367,-35.476467,-25.704716
2125670655000.0,1.9967881365661104,9.74217426291565,0.5072116127273598,-0.018020526,-0.018936822,-0.0106901415,2.5526907,-36.147835,-25.199282
2125675605000.0,1.9936813829717088,9.744325083881147,0.5060167081705854,-0.021685716,-0.018020526,-0.01282817,2.2577634,-36.81183,-24.698883
2125680643000.0,1.9905193982022944,9.746514141663807,0.504800560866135,-0.019242255,-0.011911872,-0.016493361,1.9733921,-37.47234,-24.201998
2125685662000.0,1.9873693383456676,9.74869494377004,0.5035890000640237,-0.018936822,-0.02107485,-0.015271631,1.7019479,-38.125732,-23.705112
2125690647000.0,1.9842406178066585,9.750860972560544,0.5023856466871509,-0.008246681,-0.017715093,-0.011911872,1.4371449,-38.775852,-23.216164
2125695626000.0,1.9811156630295816,9.753024394295336,0.5011837416794378,-0.005192355,-0.014049901,-0.0106901415,1.1842965,-39.417675,-22.729378
2125700636000.0,1.9779712518158536,9.755201285817993,0.4999743534310661,-0.0015271631,-0.0070249503,-0.01160644,0.9393009,-40.05599,-22.247713
2125705623000.0,1.974841276022867,9.757368183627069,0.4987705172644734,-0.00061086525,-0.016187929,-0.005497787,0.7044527,-40.688934,-21.765898
2125710645000.0,1.9698137024141975,9.757820471238476,0.4986816064243518,0.0070249503,-0.01282817,-0.0061086523,0.47602376,-41.316692,-21.29376
2125715666000.0,1.9614449121769053,9.755190277381628,0.5005944723006236,0.003970624,-0.014966198,-0.0018325958,0.25708458,-41.936687,-20.820705
2125720655000.0,1.9531294581849008,9.752576846361547,0.5024951470380703,0.0076358155,-0.009468411,0.0036651916,0.035081856,-42.56939,-20.36895
2125725635000.0,1.9448290050118844,9.749968129889307,0.5043923930177223,0.008857546,-0.01160644,-0.0009162979,359.82468,-43.192707,-19.920681
2125730626000.0,1.9365102175045497,9.747353651191933,0.5062938297013456,0.0070249503,-0.009162978,0.007941248,359.61606,-43.81138,-19.474741
2125735639000.0,1.9281547613285797,9.744727648044275,0.508203647792911,0.01160644,-0.006414085,0.01282817,359.41736,-44.42343,-19.034586
2125740847000.0,1.9194742874078825,9.741999496360055,0.5101877556366918,0.012217305,-0.014966198,0.0030543262,359.22925,-45.0258,-18.598455
2125745678000.0,1.9114221811269905,9.739468831846525,0.5120282366261897,0.022602014,-0.014966198,0.022296581,359.03906,-45.62865,-18.161768
2125750601000.0,1.9032167331408936,9.736889974177284,0.5139037671398097,0.017104227,-0.014660766,0.016798794,358.86456,-46.215553,-17.735529
2125755579000.0,1.894919613483208,9.734282305382344,0.5158002511732852,0.014660766,-0.020463986,0.02076942,358.69257,-46.801826,-17.306664
2125760663000.0,1.8864458175130032,9.731619109690604,0.5177371183541188,0.019547688,-0.01740966,0.019242255,358.5272,-47.379463,-16.886639
2125765646000.0,1.878140364066991,9.72900882170242,0.5196355072530358,0.009468411,-0.009162978,0.024129177,358.36624,-47.946075,-16.469023
2125770827000.0,1.869504892603256,9.726294813661724,0.5216093288234329,0.013133603,-0.014049901,0.014966198,358.21667,-48.507816,-16.0579
2125775590000.0,1.8615661258436016,9.723799770176328,0.5234239036429275,0.0106901415,-0.015882496,0.01038471,358.06854,-49.058693,-15.651615
2125781625000.0,1.8515072433337312,9.72063840392935,0.5257230762307188,0.004886922,-0.01282817,0.01740966,357.92557,-49.602093,-15.249665
2125785645000.0,1.844806877519368,9.718532572560193,0.5272545880456186,0.009162978,-0.013133603,0.015882496,357.79163,-50.138145,-14.854686
2125790637000.0,1.8364864232543685,9.715917570024166,0.5291564057023301,0.013439035,-0.015577064,0.008857546,357.66235,-50.66507,-14.464515
2125795612000.0,1.828194303869678,9.713311472745174,0.5310517468165409,0.0067195175,-0.013439035,0.007941248,357.5363,-51.18292,-14.079011
2125800609000.0,1.819865515816352,9.710693851015902,0.5329554693386939,0.004276057,-0.015577064,-0.0012217305,357.41925,-51.69354,-13.700854
2125805660000.0,1.8114467228491011,9.708047941999585,0.5348797644076141,0.0036651916,-0.019547688,-0.01038471,357.3069,-52.195007,-13.327973
2125810656000.0,1.8031196015534403,9.70543084410896,0.5367831059566788,-0.0036651916,-0.013744468,-0.01160644,357.19727,-52.686226,-12.96162
2125815623000.0,1.7948408162300722,9.70282893753916,0.5386753992861831,-0.00580322,-0.015271631,-0.009162978,357.09546,-53.1704,-12.599626
2125820770000.0,1.7862620145269563,9.700132740012531,0.5406362677715786,-0.015577064,-0.018936822,-0.017715093,356.99884,-53.641712,-12.246054
2125825591000.0,1.7782265758227167,9.697607313885491,0.5424729390301937,-0.010079277,-0.0067195175,-0.004886922,356.89862,-54.11141,-11.89411
2125830632000.0,1.769824450432119,9.69496664325566,0.5443934243682311,-0.02443461,-0.014966198,0.00030543262,356.8106,-54.564,-11.547011
2125835646000.0,1.7614673274984831,9.692340116269357,0.5463036234328849,-0.015882496,-0.018325957,0.0018325958,356.72046,-55.017624,-11.205374
2125840634000.0,1.7531535402641445,9.689727209087923,0.5482039171972433,-0.016798794,-0.018020526,0.009468411,356.63306,-55.458485,-10.865218
2125845807000.0,1.7445314028617318,9.687017391756422,0.550174690982934,-0.014966198,-0.013133603,0.0143553335,356.54883,-55.894817,-10.530433
2125851586000.0,1.734899210314169,9.6839901282036,0.5523763344601247,-0.021685716,-0.004886922,0.018325957,356.46582,-56.32177,-10.199477
2125855637000.0,1.7281471750121828,9.681868057836322,0.5539196564407615,-0.029626964,-0.019547688,0.029626964,356.38843,-56.74256,-9.867678
2125860634000.0,1.7198183869588566,9.67925043610705,0.5558233789629143,-0.0125227375,-0.0036651916,0.024129177,356.30637,-57.159847,-9.549695
2125865628000.0,1.7114945991785264,9.676634385893726,0.5577259585658024,-0.004886922,-0.0027488936,0.020463986,356.23242,-57.566265,-9.228918
2125870768000.0,1.702927464779067,9.67394185523764,0.5596841602395799,-0.016798794,-0.007330383,0.02687807,356.15793,-57.965084,-8.913337
2125875619000.0,1.6948420233448698,9.67140071395113,0.5615322606908435,-0.023518313,-0.007941248,0.025961773,356.0865,-58.359215,-8.605875
2125880646000.0,1.6864632325615856,9.668767377062386,0.5634474124056449,-0.01160644,-0.008246681,0.022907447,356.01794,-58.74839,-8.301446
2125885704000.0,1.6780327722906785,9.666117801175522,0.5653743742861832,-0.008246681,-0.0036651916,0.024129177,355.9502,-59.12655,-8.001465
2125890636000.0,1.6698123234855944,9.663534228958438,0.5672533335575977,-0.016187929,-0.01863139,0.019547688,355.89096,-59.497135,-7.705476
2125895764000.0,1.6612651901781186,9.660847984366145,0.5692069635543158,-0.0106901415,-0.011911872,0.016187929,355.82693,-59.865562,-7.417175
2125900624000.0,1.6531647479249336,9.65830212853179,0.5710584927633738,-0.015271631,-0.013439035,0.010995574,355.7717,-60.221645,-7.1317625
2125905630000.0,1.6448209590526202,9.655679792254675,0.5729656440433213,-0.0036651916,-0.01282817,0.015271631,355.7153,-60.57736,-6.8505363
2125910646000.0,1.638995928107277,9.65355388346448,0.5748077211382058,-0.01985312,-0.009773844,0.008246681,355.6628,-60.916225,-6.5779943
2125915621000.0,1.6486210557119698,9.654492939197146,0.5762162760566344,-0.0290161,-0.019547688,0.0012217305,355.61456,-61.253883,-6.307116
2125925612000.0,1.667950633581012,9.656378789614244,0.579044994084779,-0.017104227,-0.0125227375,0.0012217305,355.55237,-61.57959,-6.0835624
2125930631000.0,1.6776608879424098,9.657326150563437,0.5804660065743455,-0.027183503,-0.008857546,-0.0030543262,355.49646,-61.890026,-5.864451
2125935642000.0,1.6873556647116792,9.658272001473264,0.5818847540509778,-0.0125227375,-0.01038471,-0.010079277,355.44183,-62.204647,-5.6495824
2125940657000.0,1.6970581802770126,9.659218607402773,0.5833046340340772,-0.015882496,-0.008246681,-0.018325957,355.38742,-62.50535,-5.4403205
2125945649000.0,1.7067161977649776,9.660160871969095,0.5847180021049909,-0.013744468,-0.00030543262,-0.0125227375,355.33218,-62.806393,-5.233003
2125950590000.0,1.7162755456031258,9.661093510034442,0.5861169307184493,-0.015271631,0.0027488936,-0.011911872,355.28052,-63.099133,-5.031889
2125955652000.0,1.726068992022212,9.662048987445246,0.5875501176525368,-0.021685716,0.003970624,-0.014049901,355.22797,-63.385735,-4.8338795
2125960646000.0,1.735730878908209,9.66299162952141,0.588964051976684,-0.009162978,0.0030543262,-0.01038471,355.17538,-63.67213,-4.637399
2125965652000.0,1.745415982182399,9.663936536656632,0.5903813838202325,-0.00061086525,-0.0030543262,-0.008246681,355.12524,-63.950043,-4.4443927
2125970714000.0,1.755209428601485,9.664892014067435,0.59181457075432,-0.00061086525,-0.0009162979,-0.008857546,355.07407,-64.223755,-4.2550673
2125975604000.0,1.7646701067898165,9.665815025631805,0.5931990599103232,0.007941248,0.0012217305,-0.008246681,355.0249,-64.49712,-4.067111
2125980638000.0,1.774409381636454,9.666765217904814,0.5946243192991412,0.015271631,-0.005192355,-0.00580322,354.97812,-64.76491,-3.8810186
2125985669000.0,1.784142852386044,9.667714843913062,0.5960487293081089,0.01985312,-0.017715093,-0.009162978,354.9338,-65.028854,-3.6987362
2125990892000.0,1.7942477853467091,9.668700710866167,0.5975274996274963,0.028710667,-0.017715093,-0.0036651916,354.88733,-65.29134,-3.5171666
2125995633000.0,1.8034201933816536,9.669595597947287,0.5988698029176008,0.029626964,-0.02565634,-0.009162978,354.8486,-65.5471,-3.3398175
2126000651000.0,1.813128513044035,9.67054277014156,0.6002905322805505,0.02565634,-0.03848451,-0.0021380284,354.80972,-65.79953,-3.160108
2126005638000.0,1.8227768570369205,9.67148409093328,0.6017024847183803,0.014660766,-0.04795292,-0.003970624,354.77438,-66.04457,-2.9865
2126010636000.0,1.8324464827189813,9.67242748802913,0.6031175515489946,0.013133603,-0.047647487,-0.004886922,354.73947,-66.28645,-2.8133664
2126015650000.0,1.8421470635852988,9.67337390520372,0.6045371484054772,0.002443461,-0.059864793,-0.0021380284,354.7107,-66.517746,-2.6401346
2126020611000.0,1.8517451054037672,9.674310318367487,0.6059417395512711,0.021685716,-0.055588737,0.008552114,354.6772,-66.7525,-2.4698217
2126025584000.0,1.861366363610428,9.67524899659031,0.607349728216466,0.0125227375,-0.065973446,0.004886922,354.65256,-66.97105,-2.3024082
2126030625000.0,1.871119181350178,9.676200510147767,0.6087769694916014,0.009773844,-0.077579886,-0.0061086523,354.62714,-67.192276,-2.1373446
2126035633000.0,1.8808081540223995,9.677145794792832,0.6101948675883835,0.006414085,-0.07086037,-0.01160644,354.59982,-67.40612,-1.9755169
2126040634000.0,1.8904835838015088,9.678089758153446,0.611610783798848,0.004276057,-0.080634214,-0.004276057,354.58008,-67.61503,-1.8129013
2126045749000.0,1.900379569268444,9.67905523957507,0.6130589764436244,0.00580322,-0.069027774,-0.0067195175,354.55484,-67.81922,-1.6600995
2126050636000.0,1.9098344433597272,9.679977684874675,0.6144426162197772,0.0012217305,-0.061391957,0.0030543262,354.5314,-68.01712,-1.5033315
2126055684000.0,1.9196008039925887,9.680930519716584,0.61587183938123,0.005192355,-0.059253927,-0.005192355,354.5088,-68.21319,-1.355299
2126060615000.0,1.9291408048405767,9.681861270232716,0.6172679367285208,0.006414085,-0.049480084,-0.0009162979,354.47998,-68.403366,-1.2055752
2126065655000.0,1.9388916878813112,9.682812595035257,0.6186948948770393,0.0076358155,-0.043982297,0.003970624,354.4528,-68.59036,-1.0601816
2126070646000.0,1.94854777067026,9.68375467084666,0.6201079798213363,0.0027488936,-0.042455133,-0.004581489,354.42517,-68.77174,-0.9203294
2126075589000.0,1.95811098790644,9.684687686421846,0.6215074746880281,-0.007330383,-0.03573562,-0.010079277,354.39407,-68.948074,-0.78192014
2126080641000.0,1.9678850873353664,9.685641276283436,0.6229378303559481,-0.0061086523,-0.025350908,0.004886922,354.36053,-69.12241,-0.64321554
2126085702000.0,1.9776765990554368,9.68659656493932,0.6243707341634188,-0.0061086523,-0.018020526,-0.0012217305,354.3289,-69.289474,-0.51427805
2126090688000.0,1.9873230083493056,9.687537696976118,0.6257824034746319,-0.008246681,-0.010079277,0.0036651916,354.29178,-69.45271,-0.38179207
2126095745000.0,1.997106781273312,9.688492230612315,0.6272141747756356,-0.0070249503,-0.005497787,0.0036651916,354.25488,-69.61316,-0.25485563
2126100651000.0,2.0065984146459,9.689418262255424,0.628603193957507,-0.00580322,-0.009468411,0.01740966,354.21646,-69.76943,-0.12503076
2126106449000.0,2.0178157995407755,9.690512663288184,0.630244762081537,0.006414085,-0.0030543262,0.0070249503,354.1765,-69.9256,-0.00530108
2126110681000.0,2.0260034457765665,9.691311474114444,0.6314429539237058,0.004886922,0.00030543262,0.013439035,354.13556,-70.07465,0.121177666
2126115651000.0,2.0317473860285777,9.694657758156296,0.6275429515857464,0.010995574,-0.002443461,0.01038471,354.09662,-70.22592,0.24021715
2126120633000.0,2.0343926257654794,9.699948212519846,0.6193667662848719,0.01038471,0.005192355,0.0106901415,354.0531,-70.37133,0.35850808
2126125626000.0,2.037043706055795,9.70525034793478,0.6111725283869862,0.015271631,0.01160644,0.014660766,354.01596,-70.51768,0.5166547
2126130587000.0,2.0396777956452707,9.710518502109322,0.6030308071349513,0.018020526,0.005497787,0.025961773,353.97922,-70.659134,0.67437583
2126135671000.0,2.042377193241097,9.715917271676622,0.5946872250254278,0.017715093,0.016187929,0.024129177,353.93686,-70.79722,0.82453316
2126140700000.0,2.045047388069857,9.721257635986996,0.5864339059009602,0.01740966,0.0021380284,0.01985312,353.9018,-70.9321,0.9770958
2126145716000.0,2.0477106804264005,9.726584195418464,0.5782019216638694,0.011911872,0.00580322,0.014966198,353.85907,-71.06161,1.1235305
2126150597000.0,2.0503022932637784,9.731767396492025,0.570191492026461,0.010079277,0.0015271631,0.017715093,353.82172,-71.188354,1.2701532
2126155593000.0,2.052954966432297,9.737072717648246,0.5619923306930269,0.0143553335,0.0070249503,0.011301007,353.78168,-71.31199,1.4090395
2126160704000.0,2.055668699931957,9.742500158887124,0.5536044376635669,0.013439035,0.011301007,0.011911872,353.74194,-71.42996,1.5484375
2126165671000.0,2.0583059752778405,9.74777468454424,0.545452869540435,0.010995574,0.0067195175,0.01282817,353.70337,-71.5455,1.6839288
2126170634000.0,2.060941126786119,9.753044962546308,0.5373078659980344,0.007941248,0.011911872,0.014660766,353.66052,-71.65726,1.8160771
2126176536000.0,2.064074849172148,9.759312377571131,0.5276218271289534,0.0125227375,0.0009162979,0.013133603,353.6233,-71.767365,1.9469694
2126180599000.0,2.066232137219324,9.763626933187169,0.5209538542511025,0.012217305,0.009162978,0.015271631,353.57864,-71.87192,2.074777
2126185683000.0,2.068931534815151,9.769025702754467,0.5126102721415791,0.003970624,0.007941248,0.014966198,353.53964,-71.97257,2.2009556
2126190679000.0,2.071584207983669,9.774331023910689,0.504411110808145,-0.005192355,0.008246681,0.020463986,353.497,-72.069595,2.3261251
2126195626000.0,2.0742108641415284,9.77958431129256,0.4962923655886696,-0.0106901415,0.010995574,0.025045475,353.4539,-72.16248,2.4485924
2126200592000.0,2.076847608528011,9.784857775035912,0.4881424386107205,-0.013744468,0.011301007,0.032375857,353.4104,-72.25034,2.571252
2126205693000.0,2.079556032433658,9.79027459713717,0.4797709570330889,-0.018936822,0.009468411,0.02321288,353.36752,-72.33388,2.6883836
2126210630000.0,2.082177378997505,9.795517265381417,0.4716686232654419,-0.022907447,0.01282817,0.022296581,353.32156,-72.413635,2.807089
2126215682000.0,2.0848597858924927,9.800882053708325,0.4633775578017691,-0.027183503,0.008857546,0.01985312,353.2788,-72.48984,2.9215312
2126220663000.0,2.087504494669993,9.806171446158112,0.4552030136460775,-0.03726278,0.01160644,0.024129177,353.23257,-72.56061,3.0346313
2126225637000.0,2.0901454867316853,9.811453405211562,0.4470399575066657,-0.023823744,0.011911872,0.017104227,353.18903,-72.635185,3.1424842
2126230646000.0,2.09280506237242,9.816772531246691,0.4388194612858547,-0.03023783,0.006414085,0.006414085,353.1461,-72.69916,3.2487495
2126235722000.0,2.095500212293037,9.822162805503892,0.4304890083377939,-0.03359759,0.005497787,0.008246681,353.1011,-72.76529,3.3541813
2126240600000.0,2.0980902322522117,9.827342820836169,0.4224835021359341,-0.03359759,0.008857546,0.0036651916,353.0577,-72.82945,3.4531786
2126246575000.0,2.101262714674529,9.833687755565636,0.4126776596685063,-0.028710667,0.00580322,0.0009162979,353.0158,-72.89186,3.5519605
2126250611000.0,2.1034056668178724,9.837973639510096,0.406053997710592,-0.025350908,0.01985312,0.0033597588,352.96805,-72.95184,3.6474628
2126255613000.0,2.106061525742799,9.843285332148888,0.3978449895060608,-0.0421497,0.019242255,-0.005192355,352.9261,-73.006546,3.7389328
2126260652000.0,2.1087370301655706,9.848636315596886,0.3895752589297648,-0.03726278,0.017104227,-0.010079277,352.88,-73.066,3.829384
2126265629000.0,2.111379615105466,9.853921460391623,0.3814072793548045,-0.0421497,0.024129177,-0.016187929,352.83224,-73.117,3.91486
2126270633000.0,2.114036535949195,9.859235276857945,0.3731949888599077,-0.03604105,0.025045475,-0.008246681,352.78586,-73.17012,4.001982
2126275607000.0,2.1166775280108867,9.864517235911396,0.3650319327204959,-0.046120327,0.029932396,-0.008552114,352.73746,-73.21675,4.0828
2126280646000.0,2.1193530324336587,9.869868219359391,0.3567622021442,-0.04184427,0.031154128,-0.009468411,352.6891,-73.26699,4.164377
2126285675000.0,2.1220232272624178,9.875208583669767,0.3485088830197324,-0.0421497,0.040317107,-0.01038471,352.63715,-73.31171,4.243407
2126290618000.0,2.124647759582672,9.88045762339659,0.3403967023809884,-0.041233405,0.05589417,-0.011301007,352.58304,-73.35653,4.320179
2126295638000.0,2.12731317577682,9.885788430483103,0.3321581535631662,-0.04520403,0.062002823,-0.004886922,352.52844,-73.39802,4.397393
2126300606000.0,2.129950982082105,9.89106401805398,0.3240049442948514,-0.03726278,0.06811147,-0.0018325958,352.46985,-73.44196,4.47091
2126305614000.0,2.1326100267634387,9.89638208217535,0.3157860892192233,-0.03940081,0.086132,0.01160644,352.40494,-73.479385,4.5463576
2126311486000.0,2.135440815331528,9.902337778265156,0.3067252266080826,-0.027488936,0.099265605,0.01282817,352.34042,-73.52223,4.617935
2126316050000.0,2.13089660880543,9.900390267638338,0.3132169487319606,-0.026572637,0.10415252,0.02107485,352.27167,-73.55848,4.6931224
2126320635000.0,2.1263314933535984,9.898433796073054,0.3197385407429117,-0.017104227,0.11575896,0.025961773,352.19186,-73.64522,4.771331
2126325604000.0,2.121384043259781,9.896313467347232,0.3268063249746273,-0.015271631,0.115453534,0.032375857,352.1136,-73.726616,4.8514476
2126330651000.0,2.116358931441811,9.894159855135676,0.3339850545011857,-0.010079277,0.12370021,0.03390302,352.03015,-73.80884,4.9287133
2126335650000.0,2.1113816114540893,9.892026725069188,0.3410955100001485,-0.0076358155,0.122783914,0.03481932,351.94928,-73.8877,5.0069985
2126340629000.0,2.1064242047289703,9.88990212922981,0.3481775179876132,-0.003970624,0.1133155,0.04337143,351.86823,-73.9649,5.0865617
2126345648000.0,2.101426971478645,9.88776046493621,0.3553164209980741,0.0070249503,0.11362094,0.04428773,351.78558,-74.04284,5.162345
2126350613000.0,2.096483504037349,9.88564184305581,0.3623785157274901,0.0143553335,0.10445796,0.050396383,351.70752,-74.11699,5.24205
2126355698000.0,2.091420557020432,9.883472015812742,0.3696112955258949,0.017104227,0.09896017,0.040927973,351.62982,-74.1918,5.3161273
2126360668000.0,2.0864721112634848,9.881351260375563,0.3766805021331855,0.024129177,0.105374254,0.031154128,351.55127,-74.26675,5.3903165
2126365635000.0,2.081526652495928,9.879231785072456,0.3837454416137512,0.039095376,0.092240654,0.027794369,351.48022,-74.34244,5.464256
2126370620000.0,2.076563271792028,9.877104628964943,0.3908359838546653,0.035124753,0.0870483,0.03023783,351.4058,-74.41296,5.5348935
2126375614000.0,2.071590930119957,9.874973632455234,0.3979393274757536,0.03940081,0.09468412,0.014966198,351.3333,-74.48947,5.598583
2126380616000.0,2.0666106231428443,9.872839222254678,0.4050540501014411,0.04428773,0.09437868,0.0070249503,351.26404,-74.56178,5.6647882
2126385646000.0,2.0616024375980877,9.870692864136169,0.4122085992432261,0.044898596,0.08460484,0.0012217305,351.1965,-74.63324,5.7264476
2126390675000.0,2.05659524771646,9.86854693272901,0.4193617260094361,0.03970624,0.086437434,-0.007330383,351.1269,-74.7034,5.783368
2126395611000.0,2.0516806545059385,9.866440685477922,0.4263825718471797,0.046731193,0.083383106,-0.014966198,351.06195,-74.775345,5.839024
2126400605000.0,2.046708312833867,9.864309688968213,0.4334859154682681,0.03481932,0.084910266,-0.026572637,350.9964,-74.84028,5.889868
2126405625000.0,2.041710083920412,9.862167597963255,0.4406262408543039,0.036957346,0.09254608,-0.030848695,350.93024,-74.90879,5.9395905
2126410691000.0,2.036666054502968,9.860005878235944,0.4478319955167855,0.03756821,0.09468412,-0.035430185,350.8663,-74.97321,5.9855175
2126415722000.0,2.0316568732950806,9.857859093406075,0.4549879670341454,0.036651913,0.0983493,-0.04642576,350.80078,-75.03719,6.0271354
2126420628000.0,2.026772149978464,9.855765647495655,0.4619661416046418,0.031154128,0.09773844,-0.051618114,350.73605,-75.098206,6.0685678
2126425680000.0,2.021742059844843,9.853609901727324,0.4691519830090747,0.032070424,0.1001819,-0.050701816,350.67007,-75.15948,6.107593
2126431530000.0,2.015917430533346,9.851113640297244,0.4774728801222838,0.04062254,0.102319926,-0.052534413,350.60516,-75.220566,6.1439085
2126435671000.0,2.01179438951131,9.849346628573834,0.483362937377976,0.033292156,0.09560041,-0.052839845,350.54218,-75.27585,6.180778
2126440655000.0,2.006832004470541,9.847219899177675,0.4904520572433152,0.04062254,0.095294975,-0.05375614,350.47723,-75.335815,6.215868
2126445650000.0,2.001858667135339,9.845088475956612,0.4975568232399784,0.040317107,0.086437434,-0.046120327,350.41632,-75.38933,6.2537336
2126450609000.0,1.996921173672824,9.842972414344343,0.5046103837159449,0.043676864,0.094989546,-0.0421497,350.3512,-75.44467,6.2886806
2126455673000.0,1.9918791355816403,9.840811548039746,0.5118132936272767,0.043066,0.080634214,-0.034208454,350.2945,-75.49595,6.328373
2126460743000.0,1.9868311235116765,9.83864812146701,0.5190247377920579,0.05009095,0.07147124,-0.030848695,350.23425,-75.54861,6.3664346
2126465674000.0,1.9819215086168056,9.8365440077727,0.5260384717519271,0.04886922,0.07422013,-0.03145956,350.17468,-75.59704,6.4051456
2126470598000.0,1.9770188633638464,9.83444288105788,0.5330422490827718,0.051923547,0.070249505,-0.036957346,350.11987,-75.647095,6.443811
2126475646000.0,1.971992755882746,9.832288842134968,0.540222400984905,0.04734206,0.058948494,-0.03970624,350.06647,-75.693214,6.482736
2126480643000.0,1.9670174272212844,9.83015656549119,0.5473300117327181,0.05589417,0.055588737,-0.03634648,350.01215,-75.74196,6.520986
2126485680000.0,1.962002272034616,9.82800722039319,0.5544945175035274,0.05009095,0.04520403,-0.035124753,349.9635,-75.78519,6.5584364
2126490633000.0,1.9570707525508813,9.825893719049056,0.5615395437260444,0.046120327,0.042455133,-0.029321533,349.91333,-75.82864,6.597232
2126495632000.0,1.9520934325631596,9.823760588982568,0.5686499992250074,0.04795292,0.03634648,-0.03481932,349.86783,-75.87217,6.63345
2126501700000.0,1.946051748689285,9.821171304476977,0.5772809742135463,0.049785517,0.029932396,-0.03848451,349.82288,-75.912445,6.671346
2126505711000.0,1.9420581438741715,9.819459765229787,0.5829861226445004,0.044593163,0.026267206,-0.032986723,349.7788,-75.94971,6.709859
2126510619000.0,1.9371714292312947,9.817365465896655,0.5899671419661466,0.01863139,0.023823744,-0.03481932,349.737,-75.98255,6.745018
2126515635000.0,1.9480487504664457,9.829760797572474,0.5824839051900893,0.017104227,0.029626964,-0.03604105,349.6937,-76.01829,6.7809863
2126520611000.0,1.97673015690641,9.85844230384191,0.5585827131908917,0.011911872,0.030848695,-0.03940081,349.6527,-76.046234,6.815662
2126525611000.0,1.9919758,9.896167469243911,0.5330325564288765,-0.008552114,0.02321288,-0.032070424,349.5901,-76.05756,6.824768
2126530655000.0,1.9919758,9.94431457874128,0.5055198526612559,-0.02321288,0.023823744,-0.026267206,349.52567,-76.06918,6.832025
2126535645000.0,1.9919758,9.991946235440697,0.4783016940965399,-0.019242255,0.02687807,-0.015882496,349.44492,-76.094315,6.8405766
2126540612000.0,1.994824654857554,10.024856188640245,0.4550192397627393,-0.030543262,0.03481932,-0.021380283,349.36414,-76.112595,6.846182
2126545749000.0,1.99924597431473,10.051384197717264,0.4329126332434618,-0.023518313,0.04153884,-0.015577064,349.28244,-76.13251,6.857894
2126550578000.0,2.005429138557167,10.069100417121868,0.4136264147899793,-0.03023783,0.04917465,-0.0061086523,349.17172,-76.17525,6.855863
2126555655000.0,2.014587438349972,10.078258430024489,0.3953097960783575,-0.040011674,0.051618114,0.0021380284,349.06216,-76.216484,6.855799
2126560662000.0,2.016302916868327,10.072268005871884,0.3852739038647687,-0.043982297,0.064751714,0.008552114,348.91043,-76.28787,6.8424997
2126565676000.0,2.002632290476868,10.034673890355872,0.3921092241978647,-0.04917465,0.06994407,0.009162978,348.76364,-76.35295,6.831893
2126570644000.0,1.9890870826761569,9.997424674982208,0.3988818351701067,-0.042455133,0.07574729,0.014049901,348.55927,-76.46674,6.806035
2126575587000.0,1.982399,9.95124565625,0.40222588,-0.04795292,0.09560041,0.027488936,348.3559,-76.56867,6.7852197
2126580656000.0,1.982399,9.894678784375,0.40222588,-0.046731193,0.09285152,0.021991149,348.16467,-76.67008,6.764712
2126585648000.0,1.968513607052975,9.852859958909429,0.4161112850295168,-0.046731193,0.10354166,0.01863139,347.8783,-76.84577,6.7174172
2126590656000.0,1.9461612933664751,9.819331566179898,0.4384636181660711,-0.05497787,0.10629055,0.023518313,347.60883,-77.00701,6.6788945
2126595689000.0,1.9253751523059248,9.7850937577548,0.4603421589151485,-0.04917465,0.109650314,0.034208454,347.20374,-77.32422,6.6100883
2126600597000.0,1.933089403807648,9.74266529394387,0.4719135442228787,-0.055588737,0.100792766,0.037873644,346.83417,-77.6057,6.5577908
2126605619000.0,1.9409828371902185,9.699251327917285,0.4837537025389792,-0.039095376,0.10140363,0.031154128,346.40637,-78.03419,6.514456
2126610637000.0,1.934526013241334,9.653454539839002,0.4812428049367505,-0.049480084,0.09896017,0.03573562,346.02115,-78.40326,6.494806
2126615643000.0,1.9187739314933463,9.606198130113356,0.4694287354016757,-0.040927973,0.101098195,0.029321533,345.6692,-78.74076,6.484876
2126620630000.0,1.8954765856486508,9.560358,0.4603739292824325,-0.04153884,0.08460484,0.022907447,345.32733,-79.136604,6.511178
2126625632000.0,1.8354525020800267,9.520342,0.4643755251040013,-0.042760566,0.08827003,0.015271631,345.00677,-79.48765,6.5449286
2126630562000.0,1.7762924197143095,9.480902,0.4683195209857154,-0.042455133,0.07727446,0.00030543262,344.7515,-79.82382,6.6048193
2126635711000.0,1.7450843558665232,9.478281360064583,0.4794923571609257,-0.03756821,0.07513642,-0.0018325958,344.50677,-80.12181,6.670283
2126640605000.0,1.7240631595981342,9.486690014172945,0.4921050880920344,-0.03940081,0.070554934,-0.01038471,344.27945,-80.387924,6.7338624
2126645626000.0,1.7071858326684637,9.504741183827491,0.5074107187331537,-0.03481932,0.06719518,-0.015271631,344.12823,-80.583534,6.7991176
2126650606000.0,1.694330721078167,9.530451496495957,0.5245508898921833,-0.03023783,0.06963864,-0.033292156,343.98126,-80.765,6.8591337
2126655605000.0,1.6954293470453805,9.555510406790727,0.5338233554766569,-0.029626964,0.07696902,-0.036957346,343.83267,-80.93101,6.916889
2126660732000.0,1.72748958445968,9.57955525008162,0.5258082710153444,-0.033292156,0.077579886,-0.046731193,343.68967,-81.085815,6.968887
2126665617000.0,1.7580365436500165,9.60246515050604,0.5181715072951355,-0.02443461,0.07880162,-0.059864793,343.54877,-81.229195,7.016491
2126670626000.0,1.791335215987994,9.601365523861933,0.5421785139309655,-0.0143553335,0.08857546,-0.07391469,343.4087,-81.36002,7.061682
2126675566000.0,1.8244684063831915,9.596632613406705,0.5705783787033517,-0.0033597588,0.09407325,-0.06841691,343.2724,-81.476944,7.1096296
2126680638000.0,1.8546037732575296,9.6104944516969,0.5891419427514972,-0.0061086523,0.1001819,-0.084910266,343.1265,-81.58967,7.1526484
2126685693000.0,1.8840174585279053,9.627302184098603,0.6059497804565576,-0.0106901415,0.09987647,-0.09162979,342.98364,-81.68634,7.2007756
2126690623000.0,1.9019794622767856,9.648697330357145,0.6013721636607143,-0.009468411,0.10751228,-0.07666359,342.8337,-81.76287,7.256231
2126695640000.0,1.9121935474064624,9.674232409863944,0.5809440787244898,-0.02076942,0.11453723,-0.07880162,342.6873,-81.830956,7.3055825
2126700604000.0,1.9315363104965804,9.711266771335117,0.5616684716027357,-0.017715093,0.12064589,-0.073303826,342.535,-81.87883,7.3658795
2126705642000.0,1.9554474604618888,9.754306741401528,0.5425395516304887,-0.019547688,0.112399206,-0.070554934,342.38745,-81.91556,7.4253287
2126710666000.0,1.9285728751950435,9.800538788435064,0.5288713632813218,-0.025961773,0.10598512,-0.06627888,342.23865,-81.9418,7.488148
2126715627000.0,1.8776972775738103,9.847780227780328,0.5179694348692061,-0.03359759,0.10415252,-0.052839845,342.09317,-81.95523,7.5545826
2126720652000.0,1.8276962044227332,9.89402014108625,0.5066864029614455,-0.037873644,0.098043874,-0.04642576,341.9448,-81.96153,7.6224594
2126725647000.0,1.802569554564555,9.914121880764789,0.4916104182939385,-0.04062254,0.09865474,-0.03359759,341.79724,-81.95351,7.6958137
2126730673000.0,1.772064059876855,9.932685957201976,0.4757663352881801,-0.034513887,0.09407325,-0.027488936,341.6657,-81.95033,7.7570543
2126735652000.0,1.714307408589886,9.942311755829213,0.4565141098162915,-0.050396383,0.083383106,-0.022602014,341.53796,-81.93529,7.8214564
2126740628000.0,1.658378198763478,9.94870481145514,0.4405331,-0.038789943,0.08674286,-0.0076358155,341.41162,-81.917175,7.8847346
2126745634000.0,1.610953615857157,9.939220201899298,0.4405331,-0.05100725,0.08277224,-0.0070249503,341.29272,-81.893715,7.945154
2126750608000.0,1.5699512820582964,9.929858937175736,0.4392430641165928,-0.040317107,0.07666359,-0.010995574,341.1774,-81.87574,7.9974036
2126756649000.0,1.564493924375059,9.918943993868504,0.4283283487501179,-0.051923547,0.08002335,-0.007941248,341.06262,-81.84922,8.051526
2126760787000.0,1.5610195,9.90962916318857,0.4211166280842264,-0.04520403,0.07422013,-0.0027488936,340.95218,-81.82997,8.094977
2126765631000.0,1.5610195,9.870382199097577,0.4167558350705019,-0.050396383,0.06536258,-0.005192355,340.84393,-81.80729,8.137003
2126770674000.0,1.5610195,9.829522901015228,0.4122158930456852,-0.047647487,0.067500606,-0.00580322,340.7285,-81.782875,8.177828
2126775605000.0,1.565109210618793,9.79717585485103,0.407712969381207,-0.05589417,0.056505036,-0.006414085,340.62167,-81.755585,8.217915
2126780598000.0,1.5696753834988542,9.765212453972495,0.4031467965011459,-0.058948494,0.051923547,-0.007941248,340.5145,-81.72617,8.257377
2126785629000.0,1.5783862824540125,9.712026349302608,0.4100158705882353,-0.060170226,0.05497787,-0.007941248,340.40726,-81.69358,8.297358
2126790622000.0,1.588052132949262,9.65403154912068,0.4196817311764706,-0.06078109,0.04886922,-0.02107485,340.30603,-81.66302,8.332962
2126795618000.0,1.6054314103160403,9.636004081097198,0.4449017859421586,-0.05375614,0.051618114,-0.02687807,340.20197,-81.626884,8.372078
2126800637000.0,1.624539324925462,9.62644992426953,0.4735636827966607,-0.05375614,0.04337143,-0.03604105,340.1048,-81.593666,8.406326
2126805611000.0,1.6546160938371992,9.608091650517848,0.4854800897928614,-0.04184427,0.04428773,-0.04642576,340.00034,-98.44205,8.441309
2126810647000.0,1.687641055062912,9.58745107669263,0.4937363193229478,-0.026267206,0.053145275,-0.05009095,339.8979,-98.478676,8.475525
2126815613000.0,1.7221151127823162,9.563724336953388,0.5067157063911581,-0.015577064,0.053450707,-0.06169739,339.79022,-98.514145,8.507134
2126820653000.0,1.7592258364728497,9.535891233637674,0.5252710682364248,0.0030543262,0.05467244,-0.06811147,339.68173,-98.55173,8.539236
2126826635000.0,1.8021898461988304,9.51702331302794,0.5664955243177389,0.0106901415,0.05589417,-0.074830994,339.57272,-98.59393,8.575019
2126830623000.0,1.830108178362573,9.513921211338532,0.6068220365009747,0.018936822,0.06291912,-0.08277224,339.46356,-98.63539,8.608648
2126836032000.0,1.8675359621344143,9.50953435268743,0.6615036462255198,0.035430185,0.07422013,-0.086132,339.35193,-98.68571,8.65009
2126840648000.0,1.871349827098611,9.494278972478648,0.7072700656198775,0.029321533,0.073303826,-0.0852157,339.2435,-98.73537,8.690436
2126845634000.0,1.87546939614356,9.47780078233112,0.7567049371753947,0.034208454,0.06566802,-0.08979719,339.1298,-98.78984,8.735787
2126850647000.0,1.8799540311221996,9.477261983367576,0.7786213220379611,0.032986723,0.06658431,-0.095294975,339.01538,-98.84424,8.781089
2126855633000.0,1.8846257779962825,9.48660567224342,0.783293054277468,0.04642576,0.059253927,-0.09437868,338.90704,-98.90006,8.826756
2126860725000.0,1.888402247969925,9.51364344962406,0.7746700692330827,0.045814894,0.05131268,-0.09682214,338.79584,-98.95327,8.871489
2126865681000.0,1.8913760963909771,9.552303354887218,0.7568269569699249,0.034513887,0.04153884,-0.0983493,338.68866,-99.00709,8.916626
2126870653000.0,1.894359545614035,9.591088070175438,0.7389262398245614,0.026267206,0.036651913,-0.0983493,338.58344,-99.06128,8.962114
2126875608000.0,1.9007163782306664,9.642166069383997,0.7293401875125544,0.025961773,0.03145956,-0.08827003,338.48242,-99.1176,9.00985
2126880660000.0,1.9128645608553727,9.71505516513224,0.733389567626381,0.017104227,0.036651913,-0.08277224,338.38098,-99.171684,9.056158
2126886151000.0,1.923657656140351,9.793899697012804,0.7352798676623992,0.011301007,0.023823744,-0.0888809,338.28418,-99.22217,9.098202
2126890656000.0,1.911383507017544,9.855270229018492,0.7148230236605027,-0.0021380284,0.009468411,-0.080634214,338.18774,-99.27709,9.145689
2126896688000.0,1.8900774824904745,9.94302625666782,0.6833998824904746,-0.009773844,0.010079277,-0.06169739,338.09412,-99.333885,9.195332
2126900664000.0,1.8373204590751644,10.045242647384828,0.6306428590751646,-0.034208454,0.009773844,-0.04642576,338.00598,-99.38989,9.24575
2126905591000.0,1.7719447411759612,10.171907676827155,0.5652671411759612,-0.050701816,0.005192355,-0.030543262,337.92026,-99.444786,9.294743
2126910721000.0,1.701679196095194,10.24107101840727,0.5145645556146026,-0.06627888,0.008857546,-0.02687807,337.8333,-99.498604,9.344136
2126915623000.0,1.6329819927218114,10.26276493569008,0.4784081149029575,-0.079107046,0.009468411,-0.010079277,337.74985,-99.559044,9.401125
2126921222000.0,1.5494072078397212,10.285006144599302,0.4453715580139373,-0.101098195,0.015271631,-0.002443461,337.67883,-99.599106,9.436618
2126925637000.0,1.438915246875,10.28040221875,0.491409903125,-0.1020145,0.03481932,0.004276057,337.6048,-99.6434,9.476305
2126930644000.0,1.3257746866116429,10.268056276093784,0.532372826766489,-0.09743301,0.026267206,0.0036651916,337.55252,-99.67043,9.497803
2126935700000.0,1.2868714790738442,10.211469956905995,0.5040795859279819,-0.09896017,0.032070424,0.01282817,337.49152,-99.70136,9.524123
2126940678000.0,1.2485684396903076,10.155756607041122,0.4762228310043094,-0.103847094,0.05467244,-0.006414085,337.4438,-99.70262,9.5225725
2126945575000.0,1.229498488326925,10.091513418367349,0.3386694290535344,-0.08307768,0.06872234,-0.006414085,337.39777,-99.71321,9.52924
2126950648000.0,1.239078120861678,10.010086591836735,0.022541330340136,-0.054061573,0.12492194,-0.011301007,337.33347,-99.71742,9.529891
2126955587000.0,1.2202083330380953,9.907022291619048,-0.0964010456838095,-0.041233405,0.17073683,-0.024740042,337.27454,-99.71486,9.521521
2126960650000.0,1.1509406585333333,9.759251162666668,0.1160198292266666,-0.027488936,0.16646078,-0.05009095,337.21475,-99.709656,9.508889
2126965739000.0,1.103628156880734,9.602923052752294,0.3106147298566514,-0.024129177,0.13255776,-0.07086037,337.16196,-99.71727,9.496062
2126970627000.0,1.111297127785059,9.434205372542596,0.4524907836770969,-0.008246681,0.13408493,-0.103847094,337.10147,-99.716705,9.473286
2126975583000.0,1.1190727865006551,9.263140556028834,0.5963405632871888,0.0033597588,0.17379116,-0.12583824,337.03418,-99.69618,9.440246
2126980590000.0,1.1696964815053188,9.225011213819611,0.6963075449173147,0.010079277,0.2125811,-0.15271631,336.9676,-99.666916,9.3974695
2126985654000.0,1.230388116367212,9.216341258335568,0.7873449881567891,0.019242255,0.23976462,-0.17470746,336.89413,-99.63513,9.351401
2126990774000.0,1.284672719224392,9.21836255407148,0.8126559117161016,-0.00030543262,0.24098633,-0.2003638,336.8033,-99.59587,9.307399
2126995655000.0,1.332037168091378,9.226973994104643,0.7954324966101695,-0.020463986,0.21777347,-0.2098322,336.7133,-99.55699,9.263272
2127000626000.0,1.3599066,9.252007411741753,0.7881504853891451,-0.046731193,0.20677789,-0.226631,336.60928,-99.51703,9.225112
2127005574000.0,1.3599066,9.299074493827598,0.7948742855537424,-0.09040806,0.21502456,-0.23823744,336.5079,-99.47467,9.187104
2127012546000.0,1.3599066,9.365394561794965,0.8043484841688542,-0.116980694,0.24312437,-0.2489276,336.39752,-99.43797,9.154657
2127015673000.0,1.3101798815396937,9.412918996996696,0.8190772686635298,-0.1441642,0.25809056,-0.25442538,336.2901,-99.39798,9.1217375
2127020638000.0,1.229257837240965,9.489080725147662,0.8428778751907098,-0.14660765,0.25809056,-0.2593123,336.18042,-99.35676,9.087588
2127025626000.0,1.175351339524373,9.565952131496823,0.8492287245668783,-0.16523905,0.25228736,-0.27030787,336.07382,-99.30975,9.050817
2127030597000.0,1.1394916164317228,9.642794280641343,0.8441059146239105,-0.17104226,0.24495697,-0.28313604,335.96924,-99.2634,9.013602
2127035652000.0,1.0892201100669343,9.727866497456493,0.8091235097456493,-0.1695151,0.20555615,-0.29657507,335.88,-99.19701,8.9562435
2127040865000.0,1.0324124719076304,9.81809047751004,0.762340742751004,-0.16340645,0.22204952,-0.30695978,335.77823,-99.13003,8.898475
2127045610000.0,0.980704771338688,9.900214549129853,0.7197579249129853,-0.15424347,0.22999077,-0.30634892,335.69504,-99.056366,8.8324795
2127050645000.0,0.9672575,9.96399355200544,0.7086837,-0.1282817,0.24617869,-0.30634892,335.60605,-98.983376,8.765628
2127055590000.0,0.9672575,10.019182863940951,0.7086837,-0.1142318,0.25686884,-0.30695978,335.51785,-98.91242,8.700788
2127060648000.0,0.9732198358068525,10.063323604518018,0.7265707074205574,-0.124005646,0.2406809,-0.31398472,335.447,-98.82482,8.615834
2127065663000.0,0.9817459590094088,10.101691292472928,0.7521490770282265,-0.10842858,0.25045475,-0.31031954,335.36716,-98.74485,8.536456
2127070605000.0,1.0080405989519112,10.148639849054664,0.770470411083025,-0.106901415,0.24801129,-0.2968805,335.29654,-98.665955,8.458863
2127075661000.0,1.0577943508631318,10.20834423705302,0.7804211874414303,-0.10903945,0.22357668,-0.29565877,335.23087,-98.58771,8.3809805
2127080588000.0,1.1142728770305932,10.235313548333496,0.7646665191125013,-0.1151481,0.18234327,-0.28924468,335.16663,-98.51382,8.309177
2127085653000.0,1.180648734180432,10.230572320203304,0.7219963224015248,-0.12705997,0.16218472,-0.269697,335.10492,-98.445595,8.243546
2127090608000.0,1.2162545,10.22596034581604,0.6991069,-0.14294247,0.15790866,-0.25809056,335.04718,-98.3855,8.186936
2127095664000.0,1.2162545,10.221286925103756,0.6991069,-0.13316862,0.13194689,-0.24404067,335.00287,-98.334076,8.137822
2127100793000.0,1.2221386959475566,10.200799453118792,0.718720900828367,-0.14569137,0.106901415,-0.23762658,334.95407,-98.29565,8.102814
2127105504000.0,1.2355821717520858,10.160469119288836,0.7635325195977354,-0.13744467,0.0870483,-0.22602014,334.9124,-98.26557,8.074177
2127110488000.0,1.2629211435584675,10.106171994304436,0.8209640403951612,-0.13072516,0.07391469,-0.21930063,334.87476,-98.235855,8.046468
2127115502000.0,1.3161670436189516,10.028723637550405,0.8984125892177419,-0.113926366,0.0571159,-0.21197024,334.84473,-98.21152,8.0228615
2127120457000.0,1.3669294766530369,9.944173267427946,0.9796432287074898,-0.101098195,0.042455133,-0.19639318,334.8056,-98.192474,8.006176
2127125464000.0,1.414751445008477,9.843747388550913,1.0705049486087563,-0.09040806,0.04550946,-0.1853976,334.76694,-98.17578,7.99095
2127130503000.0,1.4698797302082351,9.755723658249316,1.1649432507490811,-0.07452556,0.016493361,-0.1853976,334.73138,-98.1694,7.988267
2127135530000.0,1.5379225648450014,9.692217107321213,1.2647395029492132,-0.06505715,-0.0009162979,-0.17898351,334.69235,-98.168564,7.9909906
2127140499000.0,1.5995365615537849,9.634058258964144,1.3516270557768926,-0.047036625,-0.025350908,-0.17348573,334.64752,-98.17589,8.003824
2127145473000.0,1.6422373111752988,9.591357162549802,1.3990722780876494,-0.0421497,-0.04795292,-0.1685988,334.60776,-98.18491,8.01828
2127150918000.0,1.679812527738845,9.547329513261776,1.4313592162068658,-0.049785517,-0.07666359,-0.16279559,334.55923,-98.20889,8.05061
2127155528000.0,1.6915615869067684,9.515998852390668,1.4156937630887962,-0.062308256,-0.10567969,-0.14966199,334.51776,-98.23645,8.08604
2127160904000.0,1.7019476692276256,9.483762937883125,1.3973057262362074,-0.06627888,-0.11301007,-0.1386664,334.46722,-98.27025,8.129555
2127165548000.0,1.6474220894564773,9.538288659991828,1.3791305962402942,-0.08032878,-0.11789699,-0.12095132,334.42462,-98.308586,8.178101
2127170865000.0,1.5852806001632418,9.603409826579606,1.3565546241501825,-0.11484267,-0.11881329,-0.11148291,334.3744,-98.348495,8.228298
2127175513000.0,1.533988487468792,9.688896606683311,1.318085528471289,-0.14049901,-0.122783914,-0.09437868,334.32678,-98.39534,8.285079
2127180525000.0,1.4786795225753793,9.781078134626464,1.276603792769349,-0.172264,-0.12767084,-0.083383106,334.28937,-98.4282,8.328667
2127185561000.0,1.43028467665972,9.921127197925973,1.2113543859283518,-0.20066923,-0.12217305,-0.07574729,334.25024,-98.464264,8.375663
2127190555000.0,1.382823538285204,10.063510216582316,1.1449088120273891,-0.21105394,-0.115453534,-0.05589417,334.21225,-98.50665,8.428655
2127195519000.0,1.2900368743224493,10.232614949357137,1.038477184393673,-0.21777347,-0.11942416,-0.05375614,334.17926,-98.52936,8.461053
2127200569000.0,1.1916202172139487,10.407081448755896,0.9266400086467488,-0.2302962,-0.10170906,-0.050396383,334.13824,-98.55791,8.499154
2127205602000.0,1.20568649391172,10.455759964992389,0.8517090445357687,-0.22235495,-0.07696902,-0.040927973,334.10916,-98.57731,8.525415
2127210599000.0,1.254245874530695,10.465471536884827,0.7885818193079654,-0.20738874,-0.076052725,-0.043982297,334.08197,-98.59428,8.548752
2127215585000.0,1.2853897677043526,10.42848933637804,0.7934307441401808,-0.2012801,-0.059253927,-0.040317107,334.05487,-98.58763,8.5461445
2127220738000.0,1.312987495144002,10.3778934947339,0.8164287911044832,-0.18906279,-0.038789943,-0.036957346,334.02695,-98.581184,8.54291
2127225550000.0,1.3248800657970703,10.253842823158346,0.8400087026879076,-0.17195857,-0.03726278,-0.03481932,333.99506,-98.58363,8.547216
2127230549000.0,1.3299986826258954,10.084928147118571,0.8656018082112691,-0.15821409,-0.023518313,-0.043982297,333.95453,-98.584236,8.549484
2127235586000.0,1.320321314230171,9.897719818915242,0.8859626036955677,-0.14110987,-0.0061086523,-0.051923547,333.90167,-98.59046,8.557411
2127240613000.0,1.3062828499222396,9.705860708981335,0.9046805854237948,-0.11148291,0.018325957,-0.059253927,333.84387,-98.59509,8.563093
2127245580000.0,1.3552159599156524,9.531389867439854,0.9493742937122592,-0.09682214,0.05100725,-0.06811147,333.77808,-98.602295,8.57188
2127250849000.0,1.4326014240391067,9.352435779641525,1.0074134120061344,-0.082161374,0.08002335,-0.08155051,333.70743,-98.607,8.577484
2127255637000.0,1.4846331100574413,9.180027489399478,1.0311535431227157,-0.07819075,0.07238753,-0.100792766,333.63312,-98.608986,8.580637
2127260622000.0,1.5295066483342037,8.995547607415144,1.0411254694412533,-0.063224554,0.10323623,-0.121256754,333.54077,-98.60783,8.580253
2127265624000.0,1.5517215873617545,8.869177371112581,0.92888964432366,-0.069027774,0.12858713,-0.12614368,333.4418,-98.62704,8.6012535
2127270738000.0,1.5656101169203138,8.76269846724643,0.7668560904716892,-0.0711658,0.11911872,-0.14110987,333.3455,-98.63834,8.61385
2127275692000.0,1.5300829397172238,8.73939705569837,0.7449324983861754,-0.087659165,0.112704635,-0.15057829,333.22897,-98.661,8.6385145
2127280763000.0,1.4641935073907455,8.763672241216796,0.8038862048057698,-0.09468412,0.076052725,-0.17012598,333.1257,-98.677124,8.656267
2127285688000.0,1.4002011086118251,8.787248515852614,0.8611425653099114,-0.109650314,0.027488936,-0.18509217,333.0396,-98.69882,8.677869
2127291291000.0,1.225823628757515,8.92266404519038,0.903147560766533,-0.13775012,-0.016187929,-0.20219639,332.96436,-98.71408,8.693364
2127295643000.0,1.0754812159318636,9.043773053607216,0.9323808125501002,-0.16554448,-0.058337633,-0.20097467,332.90414,-98.73016,8.709868
2127300672000.0,0.8923971885843849,9.24789853568612,0.919107222036672,-0.17989981,-0.111177474,-0.20372356,332.86203,-98.71871,8.700103
2127305677000.0,0.7081163351242115,9.465255363860413,0.8954814955037461,-0.1863139,-0.16646078,-0.204029,332.83368,-98.70871,8.691907
2127310648000.0,0.559308049678727,9.685946482314788,0.863833415305564,-0.17928895,-0.21074851,-0.20219639,332.83405,-98.66102,8.646077
2127315630000.0,0.4190792054058984,9.908378366980848,0.8299850499057464,-0.17654006,-0.258396,-0.20066923,332.85162,-98.61427,8.60105
2127320610000.0,0.3121680509893048,10.12276161942959,0.8197729329055258,-0.16462818,-0.2941316,-0.19058995,332.9049,-98.52952,8.51724
2127325606000.0,0.2126671301931075,10.335978214002774,0.8150347973539315,-0.1572978,-0.33475417,-0.1872302,332.9729,-98.44496,8.433456
2127330669000.0,0.1586125151789365,10.48002977639378,0.7975667433072761,-0.13836098,-0.34300083,-0.17562376,333.06165,-98.33556,8.323921
2127335672000.0,0.1174538832574521,10.603505587062967,0.7769874157426337,-0.11942416,-0.33017266,-0.15851954,333.15506,-98.230835,8.218861
2127340618000.0,0.0910850793365791,10.67792891553768,0.8036083944221,-0.102319926,-0.34238997,-0.14660765,333.27115,-98.10584,8.092957
2127345759000.0,0.0806629043778577,10.698773145745132,0.8869858321814141,-0.100792766,-0.34300083,-0.15118915,333.37897,-97.98346,7.969604
2127350591000.0,0.1458448414096544,10.663899546293854,0.9551822819045108,-0.09437868,-0.34483343,-0.15057829,333.49527,-97.85537,7.8397098
2127355721000.0,0.2711188757699815,10.586143487206542,1.0199792158269587,-0.08093964,-0.3323107,-0.15088372,333.60626,-97.728516,7.7108
2127360626000.0,0.4384611341221034,10.43120222704991,1.0896456266934047,-0.063224554,-0.33017266,-0.15577064,333.71408,-97.60134,7.5820475
2127365661000.0,0.7213873500237671,10.083811534462267,1.179179250207962,-0.06688975,-0.3472769,-0.16371189,333.8227,-97.47559,7.4547896
2127370583000.0,0.9979638812388592,9.744217296345813,1.2667034795900178,-0.061391957,-0.38789943,-0.19792034,333.91232,-97.36905,7.347472
2127375574000.0,1.208054493934496,9.442819286176096,1.2878740481582307,-0.069027774,-0.37751472,-0.21930063,333.99133,-97.26544,7.2435284
2127380661000.0,1.3738297624500213,9.16514568328371,1.2630077275882603,-0.07452556,-0.36041048,-0.24495697,334.079,-97.15302,7.1304474
2127385649000.0,1.528420490088845,8.880254166535044,1.22530565035538,-0.07513642,-0.37140608,-0.27916542,334.12097,-97.11557,7.0946765
2127390753000.0,1.6635281566633762,8.552135490128332,1.1481012766535044,-0.09560041,-0.3735441,-0.30634892,334.15503,-97.073074,7.054332
2127395639000.0,1.7889915951128867,8.25481745080368,1.0679959402954566,-0.12675454,-0.3680463,-0.34391713,334.16815,-97.06182,7.045229
2127400607000.0,1.9039239648982629,8.007270914707796,0.9663249871411316,-0.1337795,-0.37690386,-0.38545597,334.18564,-97.04225,7.027506
2127405638000.0,2.0160272995974235,7.764734497246376,0.8638364364339775,-0.14996742,-0.3866777,-0.43096542,334.18823,-97.04309,7.0301304
2127410732000.0,2.0788733966988726,7.61547512942029,0.7656394681586152,-0.15088372,-0.36896262,-0.45448375,334.18518,-97.03898,7.0275426
2127415657000.0,2.1396344937198064,7.471167633043478,0.6707003105700483,-0.15515977,-0.35002577,-0.48747048,334.17038,-97.0526,7.0413594
2127420648000.0,2.2025073969327043,7.388972075338531,0.5616402100523185,-0.1337795,-0.35888332,-0.52381694,334.1584,-97.059,7.0475526
2127425590000.0,2.265625020917111,7.3501304293803855,0.4451151961315141,-0.10751228,-0.39920044,-0.5580254,334.15012,-97.05693,7.0452414
2127430590000.0,2.294657119040365,7.321332952399087,0.2195125530369383,-0.093767814,-0.39553526,-0.57726765,334.122,-97.07229,7.058348
2127435697000.0,2.3039695176694592,7.298051955826352,-0.0738282079817212,-0.059253927,-0.3717115,-0.5830709,334.1,-97.08251,7.065315
2127440639000.0,2.2661354693032583,7.319356143518798,-0.2560737294175438,-0.015577064,-0.35888332,-0.5910121,334.0804,-97.09484,7.072954
2127445969000.0,2.1842598832380955,7.380762873142857,-0.3635355810666666,0.0070249503,-0.37293324,-0.5830709,334.06238,-97.11038,7.0832024
2127450590000.0,2.076470673075759,7.434195883546858,-0.4518227922082114,0.0693332,-0.3912592,-0.58062744,334.06897,-97.11725,7.079049
2127455672000.0,1.9291812094824976,7.493111504932917,-0.545106103770806,0.093767814,-0.43157628,-0.58093286,334.08624,-97.12577,7.075604
2127460659000.0,1.7994525395029342,7.525351339606489,-0.5898539651087332,0.1414153,-0.453262,-0.5882632,334.1172,-97.11534,7.047281
2127465717000.0,1.6790644224301,7.538727855257163,-0.5998862994684157,0.18906279,-0.42088616,-0.573297,334.14417,-97.11375,7.0248575
2127470596000.0,1.5629367784604762,7.551630982947877,-0.6095635947117708,0.24923302,-0.37323865,-0.5534439,334.19424,-97.08665,6.9683886
2127476490000.0,1.3606881919925704,7.610108460509751,-0.5672165419089877,0.2959642,-0.3494149,-0.5174029,334.242,-97.07341,6.9208193
2127480632000.0,1.2010536912392942,7.663320017748426,-0.5221914076813539,0.3213151,-0.36377025,-0.5006041,334.28723,-97.06586,6.8733487
2127485791000.0,1.0481022647227092,7.724415338506967,-0.4839773507815816,0.3631594,-0.40194935,-0.4859433,334.354,-97.04331,6.800522
2127490664000.0,0.9189121413859924,7.780397776248039,-0.4538329916674356,0.38881573,-0.46028697,-0.49449542,334.43066,-97.024025,6.7255
2127495737000.0,0.8038539024681116,7.778971199751115,-0.469562463922016,0.43279803,-0.47739118,-0.47494772,334.52386,-96.993126,6.6275687
2127500606000.0,0.7071423738048326,7.735451034574303,-0.5179182534999481,0.47891834,-0.44898596,-0.4596761,334.61993,-96.96702,6.526182
2127505630000.0,0.6495613032899501,7.650513547822683,-0.5035916033956356,0.5186246,-0.45540005,-0.4529566,334.7474,-96.927986,6.399959
2127510662000.0,0.6165508810255407,7.542050631920931,-0.4517180798806146,0.5363397,-0.48258355,-0.45662177,334.8719,-96.89949,6.2756844
2127515622000.0,0.6107303105213518,7.432116342153523,-0.4309563,0.55955255,-0.50671273,-0.45265114,335.0068,-96.87543,6.1362653
2127520602000.0,0.6232250570238408,7.319663584490437,-0.4309563,0.55833083,-0.537256,-0.462425,335.15005,-96.85398,5.991913
2127525630000.0,0.6565790383831269,7.197730875688854,-0.4554661002399381,0.55680364,-0.56016344,-0.46883908,335.2993,-96.83902,5.8473997
2127530596000.0,0.7375608803196595,7.05785314626161,-0.5364479152708979,0.55833083,-0.5729916,-0.4810564,335.45267,-96.827644,5.6986356
2127535677000.0,0.8204180568962849,6.914736202399381,-0.6193050643188855,0.5564982,-0.5739079,-0.49235737,335.59973,-96.82282,5.5514226
2127540629000.0,0.8757783605792789,6.813110368813441,-0.6926759468253413,0.56199604,-0.59986967,-0.49266282,335.7562,-96.825645,5.4037957
2127547039000.0,0.9348666077353868,6.700305586874344,-0.7839941933776688,0.5500842,-0.6072,-0.50762904,335.90564,-96.82544,5.2499413
2127550617000.0,0.9569535188416738,6.617511635202761,-0.8376379956320104,0.56077427,-0.6044512,-0.5137377,336.05515,-96.86128,5.120939
2127555620000.0,0.9776234036292062,6.4831573436151855,-0.9151500109760567,0.56291234,-0.59986967,-0.5137377,336.20425,-96.89603,4.989767
2127560705000.0,0.9691972935102288,6.383959185801094,-0.9614923699311322,0.57879484,-0.59131753,-0.5354234,336.34546,-96.9395,4.8566723
2127565666000.0,0.940327214404159,6.3133880145567485,-0.983946882229424,0.6093381,-0.57726765,-0.5488624,336.48218,-96.99232,4.7267594
2127570596000.0,0.9116375369212072,6.243257824225237,-1.0062610821146445,0.64812803,-0.5687156,-0.5717699,336.61108,-97.05481,4.588372
2127575599000.0,0.8734568014795321,6.188584786507937,-1.024873538370927,0.6951646,-0.56230146,-0.5925393,336.73483,-97.1286,4.4480753
2127581480000.0,0.8216996337192982,6.136827319047619,-1.043694359699248,0.7470882,-0.55924714,-0.5992588,336.85547,-97.21544,4.3065414
2127585691000.0,0.7741777072618566,6.116301709040963,-1.0489493891330697,0.80481493,-0.5644395,-0.61544675,336.97964,-97.31147,4.146179
2127590609000.0,0.6866548025789772,6.142939292930436,-1.0299226456734265,0.8582657,-0.5653558,-0.6404922,337.09995,-97.42191,3.9829652
2127595695000.0,0.5961420955401148,6.170486822751879,-1.0102459443241498,0.91690874,-0.5861252,-0.66737026,337.2311,-97.544556,3.8008947
2127600592000.0,0.5396656191637803,6.313317337624938,-0.876276405432954,0.97097033,-0.59986967,-0.6753115,337.35904,-97.68453,3.6188986
2127605681000.0,0.4914356729539832,6.501413979277586,-0.6978255969025235,1.0238101,-0.6068946,-0.70005155,337.48816,-97.83893,3.4257417
2127610728000.0,0.5086366392364017,6.744211570313808,-0.59163030208159,1.0567969,-0.636827,-0.7128797,337.64285,-97.99746,3.2113705
2127615681000.0,0.5483302972751046,7.0022203346129706,-0.5122429600993724,1.072374,-0.677755,-0.72418076,337.80045,-98.16817,2.9916525
2127620643000.0,0.6378262954694237,7.185815467593489,-0.4602403507470303,1.0873401,-0.73273283,-0.73639804,337.96222,-98.32948,2.7631948
2127625630000.0,0.7386823347294325,7.353908917553893,-0.4140146695600528,1.0845913,-0.7984009,-0.7309003,338.13763,-98.49519,2.536822
2127630585000.0,0.8785330613089115,7.487542952031069,-0.3713382456345124,1.0925325,-0.8072584,-0.6969972,338.29462,-98.672676,2.3289297
2127635805000.0,1.062188205698541,7.5977360726356675,-0.3293599228466463,1.0705414,-0.82344633,-0.6444628,338.47165,-98.844696,2.1271987
2127640644000.0,1.1741865308477093,7.612930644963827,-0.3047293358189575,1.056186,-0.85062987,-0.6178902,338.6327,-99.02129,1.9589093
2127645655000.0,1.2587532673900947,7.58177432721202,-0.2869258226099054,1.0369438,-0.893085,-0.5571091,338.8045,-99.19415,1.8150448
2127651208000.0,1.3230385501710022,7.477422417846409,-0.2806692214530003,1.003957,-0.9239337,-0.46944994,338.9565,-99.364044,1.7310102
2127655588000.0,1.3534691324075034,7.347005727619442,-0.2850164474867862,0.97524637,-0.93828905,-0.45020768,339.11328,-99.525154,1.643318
2127660689000.0,1.3439400272281274,7.183497829026983,-0.3201456795502861,0.97035944,-0.97097033,-0.3924809,339.2721,-99.69253,1.6121126
2127665737000.0,1.2978230938402835,7.012206386726628,-0.3794388801117471,0.9810496,-0.9807441,-0.35002577,339.42615,-99.851654,1.5808922
2127670809000.0,1.2514869040337966,6.840100563559552,-0.4390139817852275,0.9789116,-0.98440933,-0.32803464,339.57904,-100.009766,1.563604
2127675630000.0,1.1698960196277672,6.649355224764299,-0.5354350603044905,1.0030408,-0.97402465,-0.3222314,339.72906,-100.17451,1.5517045
2127680572000.0,1.06412643413297,6.437816191829038,-0.6577311231482645,1.022283,-0.95478237,-0.3368922,339.87476,-100.33245,1.5382754
2127685685000.0,0.9546970754452128,6.218957617284726,-0.7842587980410642,1.063211,-0.9193522,-0.38637227,340.01834,-100.52182,1.4968909
2127690860000.0,0.6453927448340331,5.952351152771827,-0.8726956364184731,1.1282681,-0.8881981,-0.45020768,340.15356,-100.71684,1.4464283
2127695647000.0,0.3036531231750493,5.693100095450261,-0.9434003934213008,1.1863003,-0.86070913,-0.4783075,340.2769,-100.91542,1.3925844
2127700633000.0,0.0499231775144258,5.555451243508367,-0.9520274292267744,1.2189816,-0.8344419,-0.50915617,340.41614,-101.15429,1.2788012
2127705587000.0,-0.0595828821044431,5.603360396999423,-0.8698978703981535,1.2278391,-0.8176431,-0.56321776,340.54572,-101.395226,1.151487
2127710814000.0,-0.1751234904265724,5.653909679457588,-0.7832423992642815,1.2208142,-0.81581056,-0.59528816,340.72278,-101.670525,0.91450125
2127715711000.0,-0.3109060232940185,5.619361778713844,-0.762462801151362,1.2272283,-0.80939645,-0.6597345,340.88766,-101.94771,0.6560173
2127720836000.0,-0.4671129577927548,5.541258179537583,-0.7716514852756716,1.2385293,-0.8332202,-0.7128797,341.05804,-102.221886,0.39196962
2127725637000.0,-0.4876356924279363,5.5466392448444,-0.8087444165136957,1.2544118,-0.8564331,-0.7199047,341.2399,-102.49654,0.09734305
2127730599000.0,-0.3922274551412592,5.62501030960849,-0.8734857076796214,1.258077,-0.86559606,-0.7651087,341.41803,-102.77005,-0.22027415
2127736075000.0,-0.2869361396672881,5.711499618485587,-0.9449333720134806,1.2544118,-0.8359691,-0.82619524,341.60736,-103.07488,-0.57923806
2127740702000.0,-0.2009624859100785,5.645136375530671,-1.1095842379408325,1.1951579,-0.8219192,-0.8313876,341.80322,-103.36507,-0.9331671
2127745816000.0,-0.1068254953742269,5.530534823767341,-1.322415660688618,1.1652255,-0.7901542,-0.84421575,341.98065,-103.66389,-1.299068
2127750612000.0,0.0172934902095611,5.345520682452579,-1.5507696588507034,1.1050552,-0.7113526,-0.8729264,342.12332,-103.94873,-1.6240999
2127755597000.0,0.2211265819377056,4.991318864401204,-1.8481654357457828,1.033584,-0.59589905,-0.9089675,342.24496,-104.22059,-1.9454923
2127760680000.0,0.4289668237138658,4.630153800979912,-2.151407709358158,0.9633345,-0.51007247,-0.9025534,342.34723,-104.5128,-2.234009
2127766668000.0,0.6438527442015787,4.339345823375835,-2.444894133029751,0.9053023,-0.40317106,-0.9007208,342.40894,-104.78599,-2.519128
2127770670000.0,0.7718400412264723,4.215236845840923,-2.607787115421979,0.86315256,-0.28252518,-0.9263771,342.44214,-105.04141,-2.7976184
2127775631000.0,0.8556962736826992,4.046447493022254,-2.822812273639627,0.8503244,-0.23518312,-0.906524,342.44516,-105.36009,-2.9948156
2127780572000.0,0.8624900954773869,3.863014269095477,-3.0504055165829147,0.86406887,-0.1591304,-0.88422745,342.40402,-105.67242,-3.1830914
2127786123000.0,0.8701226607035175,3.6569349681407033,-3.306096690753769,0.915687,-0.027488936,-0.88270026,342.31638,-106.014435,-3.3268158
2127790666000.0,0.973183564291725,3.743972707769986,-3.3296368237868164,0.9611965,0.08735373,-0.8536842,342.21512,-106.35266,-3.4478638
2127795670000.0,1.1165697570546984,3.918724552706872,-3.298270984460028,1.0033462,0.12858713,-0.799928,342.09927,-106.69928,-3.5528626
2127800648000.0,1.2557054903476483,4.124051066298569,-3.1793156480981595,1.0888673,0.14080444,-0.79901177,341.96222,-107.13014,-3.66932
2127805585000.0,1.3910694486503068,4.351269121134969,-2.995607455030675,1.2269229,0.2003638,-0.8014552,341.80347,-107.58178,-3.7600408
2127810728000.0,1.47291294,4.670347452727273,-2.835605418181818,1.3246613,0.20952678,-0.7302894,341.63867,-108.01096,-3.7777064
2127815793000.0,1.5162223078571428,5.036508759667208,-2.697802884090909,1.3933836,0.18753563,-0.7131852,341.4612,-108.4702,-3.8043337
2127820653000.0,1.5132899360599077,5.381518132770097,-2.4864196857398877,1.4541647,0.13958271,-0.7467828,341.26953,-108.896965,-3.770737
2127825627000.0,1.2571875773041474,5.698597092012289,-1.8197404750384023,1.4761559,0.06841691,-0.72112644,341.0983,-109.32251,-3.7180436
2127830566000.0,1.0028873059139785,6.013444896535245,-1.1577524127837515,1.4566082,0.06566802,-0.7110472,340.90552,-109.691444,-3.6416082
2127836363000.0,0.4959539632635946,6.217317213285664,-1.0151415,1.4465289,0.039095376,-0.6973027,340.74344,-110.06046,-3.5657053
2127840624000.0,0.0888948744438559,6.339795272404661,-1.0151415,1.4288138,-0.07819075,-0.65270954,340.61276,-110.41276,-3.4878044
2127845757000.0,-0.3099029892897407,6.549743719063237,-1.2047057472378804,1.3842206,-0.12461651,-0.6398814,340.5139,-110.58211,-3.4698615
2127850631000.0,-0.6160781081172491,6.798511040575997,-1.53480083156708,1.3472633,-0.1957823,-0.59406644,340.46115,-110.740166,-3.4459634
2127855573000.0,-0.9137571862338156,6.980443720639756,-1.673335478903275,1.2782356,-0.19425514,-0.6093381,340.43277,-110.96581,-3.580138
2127860696000.0,-1.2126877965822545,7.11589673804265,-1.668664691926885,1.1896601,-0.108123146,-0.6930266,340.39932,-111.17123,-3.716312
2127865749000.0,-1.5010807998814932,7.383598983784317,-1.6400437801106065,1.0754282,-0.05589417,-0.72173727,340.41577,-111.407616,-3.9328737
2127870724000.0,-1.7786861929290934,7.77883359913095,-1.588286829932846,0.9465357,0.03268129,-0.8555168,340.3816,-111.62037,-4.1812177
2127875628000.0,-2.052717263469181,8.148910121094055,-1.4962781173303203,0.8542951,-0.0106901415,-0.9477574,340.3889,-111.857544,-4.510076
2127880582000.0,-2.3299916745188187,8.500124246411595,-1.355792436320424,0.7583892,0.05467244,-1.054048,340.32993,-112.06419,-4.848161
2127886477000.0,-2.675377986977782,8.901028945268937,-1.2177349446341252,0.66614854,0.096516706,-1.1594223,340.29224,-112.26845,-5.2740216
2127890650000.0,-3.1244889052329072,8.959310616196277,-1.5057144371364846,0.5842926,0.06536258,-1.219287,340.25177,-112.45423,-5.703747
2127895665000.0,-3.664218417586,9.029351972462898,-1.8518005034914644,0.51159966,0.105374254,-1.3252722,340.18646,-112.63715,-6.2240767
2127900616000.0,-4.137235935838151,9.198945789430224,-1.920912887861272,0.40469822,0.03176499,-1.3756685,340.16052,-112.79351,-6.744932
2127906413000.0,-4.636423163904945,9.489289377465823,-1.7528192484264613,0.24587326,-0.06169739,-1.4731015,340.1144,-112.93457,-7.288355
2127910650000.0,-5.048326840417136,9.447800463923338,-1.7010330773111613,0.07971791,-0.09132435,-1.5824465,340.13043,-113.18968,-8.007361
2127915968000.0,-5.636857744560316,9.009991017756484,-1.7440963242531005,-0.12858713,-0.17440203,-1.5800029,340.18716,-113.39929,-8.712684
2127920849000.0,-6.177026857595829,8.608158015360766,-1.7836209027268886,-0.32528573,-0.34330627,-1.6319265,340.29163,-113.63012,-9.560994
2127925599000.0,-6.38049863877551,8.394950571428572,-1.824186255102041,-0.4792238,-0.42821655,-1.7580702,340.38727,-113.843414,-10.398856
2127930588000.0,-6.331252447062462,8.316156047619048,-1.868507827643785,-0.59681535,-0.54336464,-1.7641789,340.5435,-114.024796,-11.210928
2127935674000.0,-6.263512054358842,8.379144448252168,-1.98183800815082,-0.6401868,-0.6914995,-1.7030923,340.81134,-114.38653,-12.251337
2127940708000.0,-6.184839450236193,8.536489915915142,-2.1391829137421627,-0.65179324,-0.893085,-1.6890424,341.11734,-114.75602,-13.286195
2127945648000.0,-6.116848727834811,8.721700740083994,-2.202346043280448,-0.59803706,-1.1484267,-1.7467692,341.45944,-115.16277,-14.305325
2127950609000.0,-6.072508584616581,8.987741985223208,-2.028680215476746,-0.5198463,-1.320996,-1.7525724,341.83893,-115.57718,-15.286172
2127955586000.0,-6.028025437509721,9.25464125493856,-1.8544542882485613,-0.48166725,-1.5497651,-1.6212363,342.2787,-115.987885,-16.213627
2127960693000.0,-6.364810828259151,9.550129734790625,-1.73751574845931,-0.44715336,-1.7348573,-1.5711454,342.7419,-116.437836,-17.14695
2127965660000.0,-6.853394616829076,9.846620521464317,-1.649821229014134,-0.46914452,-1.9617938,-1.5876387,343.28458,-116.87863,-18.062033
2127970740000.0,-7.388565192947485,10.29269614894263,-1.53479011171709,-0.54336464,-2.0867157,-1.5800029,343.8335,-117.252075,-18.915907
2127976292000.0,-8.023403613508044,10.981334589901852,-1.3733904999392896,-0.6945538,-2.122146,-1.4654657,344.42838,-117.59362,-19.733408
2127980574000.0,-8.408653955219455,11.500081465697903,-1.2133689777382364,-0.9049969,-2.2094996,-1.4676038,345.0997,-117.992325,-20.66883
2127985730000.0,-8.75033681524318,12.110229029557138,-0.9790723050612892,-1.1511755,-2.25562,-1.5399913,345.77155,-118.35541,-21.561626
2127990624000.0,-8.15507052550068,12.447114947004414,-0.8112784091437543,-1.4395039,-2.4013114,-1.6526959,346.53268,-118.71517,-22.521776
2127995609000.0,-6.307682869738629,12.463320215801089,-0.7140474859046164,-1.7305813,-2.4553728,-1.9828686,347.2507,-119.11275,-23.519602
2128000640000.0,-4.607031413310982,12.537652674610367,-0.7005743000063429,-1.9159788,-2.3017402,-2.3124304,347.95728,-119.50908,-24.528631
2128005589000.0,-5.178218167542588,13.405169413918086,-1.847242474075752,-1.8872682,-2.295937,-2.8722885,348.67386,-120.05011,-25.666636
2128011650000.0,-5.852518838172607,14.4828191759696,-3.1240844187893084,-1.6087136,-2.0790799,-3.526525,349.05054,-120.400635,-26.48661
2128015682000.0,-5.990810450751223,15.386773817479035,-2.405643196147799,-1.3118331,-1.7751744,-4.2824707,349.35156,-120.94774,-27.461885
2128020609000.0,-6.15979923427673,16.491383073113205,-1.527726553301887,-1.0149527,-1.6875153,-5.1034737,349.51364,-121.786514,-28.588795
2128025647000.0,-6.625872883432455,17.263159524214103,-1.1227158334749363,-1.0861185,-1.72264,-5.9443297,349.55923,-122.81687,-29.889257
2128030595000.0,-7.302972918405808,17.753598924847452,-1.0934358418784274,-1.2342533,-1.6471981,-6.323677,349.5122,-123.95834,-31.242758
2128035674000.0,-7.99799940943848,18.257022877114387,-1.0633806524445817,-1.5803084,-1.2623531,-6.975165,349.36652,-125.25032,-32.820217
2128040671000.0,-8.106525415429008,18.53181589994059,-0.5855238647375032,-2.196366,-0.9935723,-7.302894,349.24097,-126.521484,-34.383224
2128045731000.0,-8.209340080624628,18.807359803869986,-0.0961256916712213,-3.0360003,-0.8594874,-7.369478,349.01392,-127.84956,-36.002304
2128050649000.0,-9.147698511788745,19.008339269726505,0.328062082426281,-3.7223074,-1.1249083,-7.1168857,348.89178,-129.19017,-37.650997
2128055591000.0,-10.571077370428586,19.17200320873939,0.7248226761946978,-4.062254,-1.8958203,-6.607424,348.94574,-130.45007,-39.22737
2128060706000.0,-12.380304242038216,19.2853035568064,3.428823162494445,-4.0662246,-2.9126055,-5.9040127,349.33582,-131.57076,-40.6796
2128065626000.0,-14.250781694267516,19.37254592090061,6.918520276996,-3.6984837,-3.8444805,-4.4672575,350.103,-132.3675,-41.77003
2128070853000.0,-16.17470756402177,19.46113638814093,10.546228938985964,-3.1795535,-4.7919326,-3.043636,351.4697,-133.11984,-42.79013
2128075644000.0,-16.954530303637927,19.47866038670868,12.631597120022915,-3.0066788,-4.7439795,-1.7437148,352.8828,-133.52982,-43.382545
2128080615000.0,-17.76365133027786,19.496842769693497,14.795313510741906,-3.048523,-4.414112,-0.40500367,355.55777,-133.85431,-43.842373
2128085693000.0,-18.15219026983871,19.50557373177419,10.643161154903224,-2.9721649,-4.3875394,-0.013133603,358.2437,-45.86973,-44.106884
2128090639000.0,-18.492162753870968,19.513213307419356,6.04016928632258,-3.0790663,-3.404352,-0.7742717,0.32007548,-45.600437,-44.257584
2128095869000.0,-18.300588050745024,18.6212757294988,1.5921258695842453,-3.9275582,-1.3307699,-1.1835514,2.1832361,-45.3767,-44.2541
2128100633000.0,-17.549459583098884,16.86705844409711,-2.020895900218818,-5.196936,0.029626964,-1.2034045,3.8274992,-44.97112,-44.332466
2128105587000.0,-16.022913721514097,15.88917967168791,-4.225429434588644,-6.298326,0.13041973,-1.3680327,4.2363734,-44.459595,-44.586376
2128110704000.0,-13.723165133642333,15.699900082657395,-4.996744253997683,-6.8844514,-0.5137377,-1.5262468,4.4004984,-43.893646,-44.85295
2128115853000.0,-11.767849088505326,13.018864990451709,-6.353221251560779,-6.9501195,-1.4957036,-1.6933185,4.109313,-43.305946,-45.20659
2128120741000.0,-10.282535777598238,7.899348272126331,-8.24080673051781,-6.648963,-2.4000895,-1.5528195,4.061273,-42.74528,-45.46326
2128125685000.0,-8.7802057839148,2.721179152772676,-10.150017575027544,-6.0106087,-2.7751608,-1.3127494,3.9595146,-42.38106,-45.564354
2128130586000.0,-8.117981863356054,0.6446782637617656,-11.46921702345018,-5.699373,-3.53355,-0.89369583,4.348228,-42.094982,-45.46783
2128135741000.0,-7.741429274910743,-0.3567912493021747,-12.634927580493343,-5.317582,-4.221079,-0.6020077,4.8485837,-41.88664,-45.301834
2128140619000.0,-7.316603297241053,-1.2543699850228598,-13.66138834857323,-5.0869803,-4.7403145,-0.45753807,5.78831,-41.149776,-45.425293
2128145800000.0,-6.663433573561406,-2.0600763779047773,-14.525762603184612,-4.8698177,-5.004208,-0.35124752,6.8277245,-40.485287,-45.423706
2128150579000.0,-6.060944071638026,-2.8032670460349998,-15.323069023332806,-4.5695777,-5.0368896,-0.22876903,7.8322883,-39.825783,-45.41226
2128155580000.0,-5.22503467800615,-3.485134594497492,-15.772393098964232,-4.140139,-4.860044,-0.089186326,8.810596,-39.213394,-45.3509
2128161449000.0,-4.147118503803204,-4.240130676080272,-16.118053833144522,-3.5460727,-4.411058,0.087964594,9.649257,-38.678417,-45.26993
2128165583000.0,-3.4077890046830843,-4.760113567137666,-15.992590379087606,-2.9498682,-3.7455204,0.22174409,10.266213,-38.195763,-45.248577
2128170816000.0,-2.532741617642309,-5.382257109820347,-14.707838703976584,-2.486527,-3.0341678,0.32589662,10.674314,-37.800594,-45.256973
2128175591000.0,-1.478538219642316,-5.894897517308275,-12.973077683237346,-2.2284365,-2.4541512,0.410196,10.891913,-37.486122,-45.292835
2128180606000.0,0.3376042022279477,-6.280691365860866,-9.59192295491058,-2.1587977,-2.096184,0.4465425,10.929398,-37.220333,-45.386845
2128185640000.0,2.160627323204001,-6.66794684614277,-6.197958268490452,-2.175291,-1.8924606,0.4196644,10.98837,-36.937935,-45.48145
2128190859000.0,3.749298166132765,-6.4280518438015,-4.006641305397649,-2.179567,-1.6930131,0.3295618,10.926982,-36.658333,-45.640316
2128195754000.0,5.0860789324506985,-5.876846700157393,-2.626458598518656,-2.2036965,-1.5097535,0.15363261,10.821822,-36.34452,-45.860794
2128200628000.0,6.035564242171354,-5.143540564630477,-1.5942120409522564,-2.2009475,-1.3607023,-0.07544186,11.260894,-35.937767,-45.83608
2128205575000.0,6.584003221687378,-4.198490176971877,-0.9187333508122956,-2.1755965,-1.2718215,-0.29443705,11.694219,-35.47855,-45.870678
2128210678000.0,7.149736820327012,-3.223638321661217,-0.2219539378783517,-2.1432207,-1.2360858,-0.4746423,12.291247,-35.06251,-45.729607
2128215862000.0,7.08952649547166,-1.9357770030019328,0.671354880118042,-2.1533,-1.2357804,-0.61941737,12.916319,-34.587032,-45.631523
2128220662000.0,6.294301747328788,-0.3967830719955225,1.7145026713055864,-2.2574525,-1.2403619,-0.65209866,13.552205,-34.074425,-45.54537
2128225662000.0,5.0209086602012105,0.9848594438827916,2.755936552757844,-2.405282,-1.244638,-0.6432411,14.22704,-33.69582,-45.23075
2128231381000.0,2.951726218460673,2.2602773363092723,3.884931810370057,-2.5017986,-1.169807,-0.52106804,14.856474,-33.31942,-44.8951
2128236275000.0,1.1810357358801182,3.351708559518784,4.851062740734487,-2.8060095,-1.1166617,-0.43096542,15.451557,-32.977146,-44.444828
2128240710000.0,-2.8401815785928006,5.524529026368111,6.611185415577647,-2.9513955,-1.0812315,-0.38331795,15.996983,-32.65618,-43.972008
2128245730000.0,-8.566004383148346,8.559122466383553,9.03329224580639,-2.993545,-1.0033462,-0.33964106,16.47949,-32.31595,-43.483166
2128250600000.0,-12.265237579525438,9.73961822660864,9.509790002196665,-3.0045407,-0.91446525,-0.32834008,16.53969,-32.154636,-43.137497
2128255577000.0,-14.43334430038338,9.41366108330743,8.368941341456845,-2.9880474,-0.53786683,-0.32986724,16.465824,-32.003044,-42.85828
2128260690000.0,-15.743292990470438,8.808206539762432,8.050868194148045,-3.0586023,0.11789699,-0.34666604,16.376898,-31.615833,-42.849617
2128265737000.0,-16.434197857257903,8.032966204751359,8.297388250372459,-3.1991012,0.63316184,-0.31031954,16.20277,-31.238165,-42.87706
2128270621000.0,-17.102788974632574,7.282763352325348,8.53594659287296,-3.359148,0.5861252,-0.22632557,15.766829,-30.837828,-43.232624
2128275594000.0,-16.895279248939737,5.562521866554888,8.808723158595521,-3.4465017,0.06780604,-0.16218472,15.36107,-30.446007,-43.552845
2128280576000.0,-16.137652617911037,3.247290305454187,9.100479967353785,-3.40985,-0.4016439,-0.25350907,15.014714,-30.046919,-43.853527
2128285704000.0,-14.676016521480502,0.9243264458030402,9.361236900198282,-3.2042937,-0.8210029,-0.4196644,15.007636,-29.437868,-44.1731
2128290711000.0,-12.793469240052875,-1.303671073364177,9.589424389292796,-2.9562824,-1.2428054,-0.55924714,15.166949,-28.853615,-44.38
2128295718000.0,-10.910921958625249,-3.5316685925313944,9.817611878387307,-2.7293458,-1.5861117,-0.59803706,15.761139,-28.002226,-44.55095
2128300601000.0,-9.247719936161449,-5.085426345510709,9.36851519686985,-2.5027149,-1.7705929,-0.5852089,16.435585,-27.202833,-44.66446
2128305638000.0,-7.663284182763592,-6.217876042287892,8.39500603315486,-2.2989914,-1.7745636,-0.6041457,17.154955,-26.449282,-44.74138
2128310650000.0,-6.200997557810556,-6.816267280371424,7.721415854407321,-2.1218405,-1.6716328,-0.7107417,18.279896,-25.419489,-44.71623
2128315618000.0,-4.818567639488181,-7.099517398658255,7.226784884796516,-1.9908098,-1.6053538,-0.8228355,19.394732,-24.428774,-44.669025
2128320621000.0,-3.4486055592927385,-7.019202945624317,6.85587488970895,-1.865277,-1.5155567,-0.8790351,20.519133,-23.443933,-44.630596
2128325635000.0,-2.113046745087911,-6.322804416449786,6.698469656054435,-1.806634,-1.5045611,-0.9486737,21.666046,-22.457518,-44.595715
2128330576000.0,-0.9413587978862744,-5.598550607333333,6.496315920784314,-1.7143933,-1.5457945,-0.9981538,22.803371,-21.533407,-44.47791
2128335782000.0,0.0166749131764705,-4.76271516,6.193264452941176,-1.6511687,-1.6151277,-1.0262536,23.937153,-20.61704,-44.35246
2128340582000.0,0.7901428903529412,-4.034539884705882,5.905058934117648,-1.6187929,-1.6618589,-1.0812315,25.016542,-19.779121,-44.07533
2128345651000.0,1.3660178467882351,-3.3587196341764702,5.5814267903627455,-1.5760323,-1.6603317,-1.1481212,26.08697,-18.954699,-43.788975
2128350619000.0,1.8205409049882395,-2.704654593251683,5.330646903487712,-1.5241088,-1.6187929,-1.2278391,27.065474,-18.228004,-43.394688
2128355613000.0,1.995104637780842,-2.0684668714899828,5.249183944302052,-1.4764613,-1.5360206,-1.2928963,28.0265,-17.505392,-43.01084
2128360653000.0,2.171276286414145,-1.4264191907372858,5.166970625460297,-1.4398094,-1.4074335,-1.3524556,28.889242,-16.873257,-42.590126
2128365608000.0,2.1655405258512856,-0.8125212217546907,5.253572396499305,-1.3744467,-1.2345587,-1.4129313,29.72865,-16.252108,-42.20704
2128370958000.0,2.1165833785267547,-0.1538245558408615,5.387091749782835,-1.2977833,-0.9810496,-1.4819591,30.537823,-15.636455,-41.884037
2128375639000.0,2.0090407407407405,0.3745989685596708,5.680189094650205,-1.2241739,-0.6899723,-1.5531249,31.231192,-15.114075,-41.57224
2128380603000.0,1.8389234215781,0.893456614371086,6.143758660583289,-1.1340714,-0.34574974,-1.598329,31.880802,-14.612341,-41.34636
2128385689000.0,1.4550380442162414,1.5124899833785777,7.087963707593268,-1.0659598,0.045814894,-1.6181821,32.42574,-14.179853,-41.1703
2128390617000.0,0.5728635737035601,2.325115425153184,9.145150867137207,-1.0024298,0.5561928,-1.6233743,32.912617,-13.768714,-41.121983
2128395896000.0,-0.3721443463119518,3.1956206416970447,11.34886251795548,-0.9560041,1.1847731,-1.6606371,33.302944,-13.408032,-41.163063
2128400626000.0,-0.9557186926014688,3.105676625666796,13.064645304599924,-0.9059132,1.8597792,-1.7531832,33.644497,-13.058279,-41.358692
2128405600000.0,-1.4712892510320834,2.686775555353692,14.772472626787785,-0.84604836,2.36863,-1.8408424,33.943672,-12.7214365,-41.678085
2128410732000.0,-1.4605500121054489,1.414135164344913,16.008660366602008,-0.7675522,2.5506678,-1.8084666,34.165848,-12.433051,-41.91756
2128415689000.0,-1.1466355749382824,-0.2851882446834772,16.908548604831598,-0.66767573,2.5396724,-1.6319265,34.33063,-12.179809,-42.23268
2128420641000.0,-0.5841999961059029,-2.4552034656330486,17.671276811476254,-0.52595496,2.3075435,-1.5085317,34.65039,-11.818794,-42.438396
2128425636000.0,0.4161851168280625,-5.466214937199959,18.20350082816524,-0.45112398,1.7999145,-1.2159272,34.870773,-11.540682,-42.536385
2128430611000.0,1.259565224775353,-8.27154608254172,18.09299703851091,-0.3268129,1.1007792,-0.8671232,35.39575,-11.049052,-42.443123
2128435641000.0,1.8969661592080576,-10.835420228784438,17.079814872025278,-0.19028452,0.3979787,-0.52473325,35.85159,-10.644986,-42.191914
2128440647000.0,1.8095476021188888,-12.34843952878218,15.191018681371132,0.0036651916,-0.09132435,-0.22571471,36.657978,-9.960138,-41.76129
2128445663000.0,0.6249434252603414,-12.285908566676309,11.960280116141163,0.21533,-0.39858958,0.06047566,37.342182,-9.39593,-41.17521
2128450731000.0,-0.5719413371637256,-12.2227293569569,8.696049045849001,0.4147775,-0.6053675,0.3998113,38.21718,-8.628734,-40.581528
2128455576000.0,-1.4905133363204626,-11.898389894280404,6.6216309572578975,0.4886922,-0.73975784,0.72204274,38.94412,-7.9628735,-39.91618
2128460724000.0,-2.330357450423292,-11.39448381912038,5.0488319190584345,0.44135013,-0.75319684,0.9266826,39.534237,-7.383044,-39.227264
2128465653000.0,-3.003990714471766,-10.70517983205365,3.906593398940616,0.32803464,-0.73456544,1.0012082,40.092815,-6.842474,-39.02596
2128470668000.0,-3.634152930236175,-9.916310437554673,2.898334058431334,0.23335053,-0.6817256,0.94714653,40.598896,-6.32247,-38.828213
2128475594000.0,-4.16197235867102,-8.893816362444786,2.220928908651815,0.14477506,-0.602924,0.8008443,41.033806,-5.8565054,-38.865902
2128480660000.0,-4.651139948146725,-7.696520481227195,1.708467691617054,0.07391469,-0.5186246,0.602924,41.496727,-5.366641,-38.925323
2128485719000.0,-5.327255107852983,-6.483775332496485,1.3804700232576823,0.0067195175,-0.48533243,0.41263947,41.9181,-4.9393196,-39.138615
2128490647000.0,-6.128206045792328,-5.289457607652139,1.2003745361317535,-0.053145275,-0.48563787,0.21410827,42.418095,-4.468571,-39.37128
2128495632000.0,-6.986052650706663,-4.032901899105855,1.1462584326795502,-0.09560041,-0.5155703,-0.027794369,42.871395,-4.0862484,-39.657597
2128500650000.0,-7.887024153831362,-2.7299589250841265,1.1924620982693972,-0.11056661,-0.5174029,-0.28099802,43.411507,-3.661159,-39.954536
2128505628000.0,-8.82140023481133,-1.466967188857972,1.3883609595135622,-0.10842858,-0.410196,-0.52381694,43.95046,-3.2689342,-40.282963
2128510661000.0,-9.810391535481934,-0.2222852420418375,1.7501871127014312,-0.06566802,-0.118507855,-0.74067414,44.575886,-2.8408873,-40.666355
2128515609000.0,-10.689248712859603,0.75367877747527,2.6472748995190125,-0.0027488936,0.12217305,-0.8353582,45.106247,-2.5260508,-41.084652
2128520784000.0,-11.503329423450404,1.4957965645702878,4.194478121000091,0.045814894,0.66950834,-1.1386528,45.789303,-2.137361,-41.677246
2128525597000.0,-12.121629097258486,2.0649247224951046,5.573593943219648,0.23457226,1.0775663,-1.2284501,46.26152,-1.9639264,-42.31928
2128530630000.0,-12.396923027415143,2.336286087548956,6.855678130303525,0.5537493,1.174083,-1.3600914,46.86316,-1.7617494,-43.024628
2128535639000.0,-12.67090421083551,2.6063534584122063,8.131648663405677,0.9108001,1.1081096,-1.400714,47.300877,-1.7333375,-43.713024
2128540636000.0,-12.462727242033656,2.695320731292517,9.361426492660222,1.1972959,0.9645562,-1.3457361,47.75282,-1.7432017,-44.39023
2128545789000.0,-12.144686775689223,2.748327398809524,10.620336402882206,1.3787229,0.73853606,-1.2260065,48.198227,-1.8017201,-45.009274
2128550638000.0,-11.53878402984592,2.4616437338648853,11.81489309438638,1.46852,0.31123585,-1.0326678,48.49869,-1.9895061,-45.403687
2128556530000.0,-10.566018067557374,1.853664690011852,13.274043307509968,1.4156802,-0.22113322,-0.81122905,48.752148,-2.1989555,-45.68735
2128560686000.0,-10.01465781936984,1.1880492279483683,13.183896774472862,1.2449434,-0.6365216,-0.56779927,48.859257,-2.4770176,-45.729286
2128565655000.0,-9.373701836366552,0.360147975651407,12.924462228894413,1.0100657,-0.87872964,-0.33505958,48.898033,-2.755197,-45.66508
2128570844000.0,-8.50908071757565,-0.9469643253592788,12.481505978041596,0.68783426,-1.0387764,-0.1160644,48.888058,-2.9704459,-45.346375
2128575587000.0,-7.2440701621887,-3.2174957071498707,11.658438196554494,0.33322698,-1.1420126,0.064446285,48.80716,-3.1621056,-44.985558
2128580962000.0,-5.865383178618926,-5.700326648470588,10.761299114168798,0.030848695,-1.2428054,0.20158553,48.82938,-3.207351,-44.55211
2128585756000.0,-5.376916020358056,-6.696048344470588,10.441916703734016,-0.18784106,-1.3726143,0.30604348,48.79183,-3.227618,-44.090584
2128590887000.0,-4.883148728392569,-7.670039192180937,10.078831251292408,-0.28802297,-1.4902058,0.36865717,49.124947,-2.901699,-43.600136
2128595643000.0,-4.684477200928917,-7.754658497382876,9.552719688449113,-0.28252518,-1.6035212,0.40775254,49.41159,-2.5738263,-43.07865
2128600591000.0,-4.477785292205169,-7.842693888917609,9.005368970840065,-0.17898351,-1.6285667,0.4370741,49.80644,-2.1363173,-42.557407
2128605666000.0,-4.3429258518804845,-7.449194916631843,8.324494086418722,-0.010995574,-1.5717562,0.43463063,50.176773,-1.7219449,-42.033066
2128610875000.0,-4.264751724519432,-6.66745255463853,7.532328609026327,0.18173242,-1.4596626,0.43035457,50.51549,-1.346822,-41.523773
2128615608000.0,-4.144998064452458,-6.007794963256785,6.94359196636933,0.36896262,-1.385137,0.41874814,50.86618,-0.9946792,-41.063416
2128620622000.0,-3.994628118808123,-5.333408822964509,6.383122307382805,0.43401974,-1.2599095,0.36713,51.21764,-0.6537453,-40.65597
2128625599000.0,-3.829425047647264,-4.822405238009759,5.973399431770652,0.5369505,-1.1612549,0.32834008,51.47538,-0.4543763,-40.311676
2128630646000.0,-3.6483193721854303,-4.43913519602649,5.682788193377483,0.62980205,-1.071763,0.3100141,51.73822,-0.26216745,-40.006596
2128635864000.0,-3.5092370173727523,-4.0931025787564765,5.472717408869247,0.700357,-0.9957104,0.28527406,51.92781,-0.1690628,-39.751934
2128640640000.0,-3.4918113861627558,-3.890965183937824,5.4866579866199325,0.77304995,-0.9398162,0.26511553,52.120956,-0.09292477,-39.522465
2128645773000.0,-3.473083210911308,-3.673718272797928,5.5016406050441935,0.84879726,-0.8857546,0.2406809,52.26867,-0.08531422,-39.316223
2128650592000.0,-3.543022994519505,-3.377868292997145,5.6026434592959085,0.9108001,-0.8567385,0.22266038,52.4217,-0.08577012,-39.123653
2128655675000.0,-3.6680782395623215,-3.0119659505518555,5.76012040945766,0.95417154,-0.80909103,0.18509217,52.591423,-0.08819229,-38.956577
2128660681000.0,-3.917704195140452,-2.380591303700925,6.191284730432608,0.97402465,-0.7284568,0.15607607,52.726765,-0.13410148,-38.79866
2128665691000.0,-4.277642648503793,-1.5127395347586896,6.863169954738685,0.9828822,-0.61575216,0.1020145,52.885876,-0.17278782,-38.667976
2128670696000.0,-4.617511241015724,-0.7062622837677626,7.502740175060961,0.9786061,-0.48899764,0.04550946,53.003834,-0.26059818,-38.560413
2128675645000.0,-4.832710431068696,-0.2798492073169091,7.941108887833179,0.95905846,-0.39064834,-0.025350908,53.14779,-0.33118922,-38.48057
2128680576000.0,-5.047126920491046,0.1450129628142604,8.377883210459935,0.9492846,-0.31856623,-0.09285152,53.137608,-0.5600998,-38.4072
2128685685000.0,-5.240075677103718,0.5976678717105497,8.833722192759296,0.93859446,-0.2657264,-0.16340645,53.154842,-0.76583725,-38.358295
2128690627000.0,-5.416894827788649,1.039715629730475,9.275770069471625,0.9126327,-0.2556471,-0.20341812,53.185886,-0.95415753,-38.31919
2128695721000.0,-5.519066819639279,1.4923505626753508,9.594454325651302,0.8594874,-0.2764165,-0.24098633,53.15415,-1.2081298,-38.27343
2128700634000.0,-5.542639373947895,1.9260859065531064,9.773605541482963,0.79412484,-0.310625,-0.2657264,53.1328,-1.4415959,-38.22718
2128705586000.0,-5.511190898128497,2.325478986667953,9.859547004244646,0.72204274,-0.3549127,-0.26145032,53.023808,-1.7424687,-38.155376
2128710777000.0,-5.420070770268184,2.704346720673355,9.84995522207216,0.66767573,-0.37568212,-0.24862215,52.921803,-2.0207152,-38.080845
2128715664000.0,-5.268513784355469,3.0466609863867187,9.800062136914065,0.6392705,-0.41813725,-0.23548855,52.7479,-2.3635912,-37.97853
2128720608000.0,-5.032699903261719,3.374950939042969,9.698338854101562,0.627664,-0.4615087,-0.21380283,52.56858,-2.6910925,-37.8697
2128725620000.0,-4.753593761625085,3.648779241685273,9.598976734297642,0.591623,-0.49632803,-0.17470746,52.319317,-3.0731785,-37.74371
2128730603000.0,-4.410775600232987,3.8248210224638384,9.506323216386756,0.5513059,-0.52687126,-0.12767084,52.062786,-3.4440873,-37.605354
2128735633000.0,-4.082580131691555,3.946990889214916,9.44003896533054,0.4999932,-0.5656612,-0.07696902,51.740826,-3.8552763,-37.41775
2128740627000.0,-3.79439261968387,3.951167514767269,9.431685539778185,0.44532076,-0.6105598,-0.039095376,51.411724,-4.2506533,-37.219612
2128745930000.0,-3.4940672182581323,3.9403284138509966,9.423578,0.3594942,-0.643852,0.018936822,51.03259,-4.6638665,-36.96353
2128750659000.0,-3.2802170497114376,3.785881076792585,9.423578,0.28160888,-0.6588182,0.07849618,50.64506,-5.062964,-36.70141
2128755618000.0,-3.0559660482686253,3.623922027422176,9.423578,0.18509217,-0.657291,0.1301143,50.244343,-5.453027,-36.391666
2128760811000.0,-2.763831231122355,3.138365486476541,9.344529097792089,0.099571034,-0.6133087,0.18325958,49.82537,-5.829841,-36.09195
2128765624000.0,-2.475483958344066,2.591353646182153,9.246999652437902,0.010995574,-0.5421429,0.23396139,49.3925,-6.184504,-35.80268
2128770655000.0,-2.258342493790606,2.185029810064969,9.153458273405048,-0.064751714,-0.46975538,0.2742785,48.975983,-6.498035,-35.487885
2128775593000.0,-2.107239167856002,1.9080071685696027,9.06783296421344,-0.1301143,-0.39522982,0.31337386,48.5427,-6.796988,-35.19621
2128780604000.0,-1.9897896646386093,1.7172625129460202,8.947203737419946,-0.16920967,-0.31520647,0.3472769,48.212017,-6.9930034,-34.878754
2128785820000.0,-1.8846743797346752,1.5618746278591034,8.805527060384263,-0.1881465,-0.25411993,0.37598756,47.869156,-7.182551,-34.579815
2128790644000.0,-1.8239275104580464,1.4347042160417511,8.706576526145115,-0.18478674,-0.19822577,0.39767328,47.569042,-7.335767,-34.286842
2128795652000.0,-1.7947662126874746,1.3180589742095663,8.633673281718687,-0.16523905,-0.14996742,0.41263947,47.260426,-7.491035,-34.011253
2128800600000.0,-1.8085758341991345,1.2715811806867376,8.58756857536403,-0.12889257,-0.11178834,0.41874814,46.97487,-7.631646,-33.749058
2128805650000.0,-1.8609165701298704,1.2858559765348287,8.56377733175915,-0.09743301,-0.09162979,0.4269948,46.683357,-7.7777658,-33.496872
2128811566000.0,-1.9894124938742663,1.3271294662469229,8.53963070185571,-0.05467244,-0.045814894,0.43157628,46.40888,-7.917092,-33.267155
2128815635000.0,-2.1111645478697216,1.3677134071956067,8.524872968187845,-0.038789943,-0.013439035,0.43310347,46.133545,-8.057483,-33.04084
2128820619000.0,-2.2625631698567337,1.4105455634383954,8.513782,0.00580322,0.03268129,0.441961,45.857582,-8.215823,-32.83732
2128825628000.0,-2.418340390735435,1.4426173723495703,8.513782,0.052534413,0.069027774,0.441961,45.58407,-8.376255,-32.64181
2128830590000.0,-2.560833922050696,1.4873901205927198,8.511177391842958,0.10262536,0.10170906,0.44043383,45.308838,-8.554072,-32.481663
2128835728000.0,-2.6780570933866974,1.567101926062512,8.501799342290834,0.13988814,0.14019357,0.44165558,45.031624,-8.738789,-32.333717
2128840653000.0,-2.789043897239836,1.634283279522566,8.506190850428945,0.17440203,0.16982053,0.43768495,44.765194,-8.933486,-32.213024
2128845822000.0,-2.899829150083924,1.6665956509604625,8.566199257926147,0.2134974,0.19211712,0.4370741,44.496937,-9.136614,-32.100613
2128850619000.0,-3.000384624748357,1.6964220563680226,8.623676589302054,0.23487769,0.2180789,0.4352415,44.22588,-9.353341,-32.013935
2128855629000.0,-3.0602546457116717,1.7243613605856418,8.719468406122619,0.24404067,0.22907446,0.43096542,43.957226,-9.572861,-31.928473
2128860688000.0,-3.1207102217702354,1.7525739234672657,8.81619710897596,0.24709499,0.22907446,0.42455134,43.691235,-9.795329,-31.858562
2128865593000.0,-3.164421292953785,1.771423871138644,8.927946492550927,0.23976462,0.22418754,0.42119157,43.427418,-10.013615,-31.789064
2128870682000.0,-3.201466203496504,1.7862418895104897,9.05389962937063,0.226631,0.21288654,0.4175264,43.16845,-10.2265415,-31.71688
2128875723000.0,-3.2352936179745195,1.8014655359165788,9.179453728637506,0.2134974,0.2098322,0.40653083,42.91621,-10.437888,-31.646091
2128881383000.0,-3.178111083039844,1.8366548164489167,9.346603086748358,0.19272798,0.20738874,0.39706242,42.66775,-10.640102,-31.57158
2128885612000.0,-3.1353858285807026,1.862947301850199,9.4714925983121,0.16310102,0.2098322,0.40042216,42.421375,-10.833944,-31.489754
2128890922000.0,-3.082539439454511,1.8933756577153,9.554821586119932,0.12095132,0.20647246,0.39675698,42.183407,-11.01359,-31.406345
2128896301000.0,-3.0296111044087426,1.9222456540818236,9.58369163272931,0.076052725,0.18448131,0.39828414,41.946285,-11.183325,-31.317644
2128900817000.0,-2.9787305955250334,1.9368805587062472,9.6290787724856,0.043982297,0.17898351,0.40225476,41.698116,-11.349276,-31.208479
2128905505000.0,-2.919054868808152,1.941853535932654,9.69870034980062,0.00061086525,0.17562376,0.41141775,41.451736,-11.499793,-31.094172
2128910515000.0,-2.873021291281191,1.9523093914784493,9.760167225959169,-0.011301007,0.17012598,0.4251622,41.200577,-11.654254,-30.964354
2128915627000.0,-2.839221437015485,1.9667950216983925,9.81328130427064,-0.040927973,0.16035213,0.45234573,40.945137,-11.794874,-30.832172
2128920489000.0,-2.815052823929398,1.957664475462963,9.832854659818672,-0.064446285,0.15485434,0.46273044,40.687386,-11.93399,-30.688148
2128925468000.0,-2.796656600289352,1.930070212037037,9.828255519868828,-0.0870483,0.14110987,0.48655418,40.420544,-12.069955,-30.537968
2128930484000.0,-2.75866463455382,1.9023524240774463,9.830140181922744,-0.10262536,0.12492194,0.52931476,40.139835,-12.204002,-30.375084
2128935531000.0,-2.698438100977667,1.874555514051567,9.839405512220836,-0.12217305,0.14874569,0.5561928,39.857124,-12.330781,-30.220926
2128940481000.0,-2.5847792530228157,1.8637184739669856,9.806170506886764,-0.15118915,0.16065755,0.59864795,39.562202,-12.455689,-30.057539
2128945499000.0,-2.3826704525391653,1.878876622132268,9.70511618578488,-0.20097467,0.1826487,0.636827,39.26013,-12.572178,-29.903683
2128950798000.0,-2.117186253389213,1.879479710787172,9.593827756559769,-0.24831672,0.21930063,0.6789767,38.9446,-12.686925,-29.747847
2128955519000.0,-1.8370820887663992,1.8671221836005831,9.490848363338191,-0.28496864,0.2574797,0.7467828,38.6098,-12.799803,-29.59544
2128960562000.0,-1.5221701124032454,1.8701182353352608,9.416716105847245,-0.32162055,0.30757064,0.79290307,38.246426,-12.915152,-29.436378
2128965553000.0,-1.1744846156299542,1.910235812347291,9.425631298796976,-0.35918877,0.3680463,0.83260936,37.862988,-13.028697,-29.28716
2128970524000.0,-0.8220242982150472,1.9861591495887907,9.429464883643009,-0.3924809,0.42485678,0.8744536,37.43982,-13.149844,-29.107018
2128975503000.0,-0.4347125340684334,2.2621187459031376,9.405257914813689,-0.42485678,0.5235115,0.9224065,36.997196,-13.267348,-28.952147
2128980538000.0,-0.0526342355626466,2.536477659530737,9.366169478836229,-0.47250426,0.6374379,0.95447695,36.50787,-13.3998995,-28.756914
2128985597000.0,0.2883962637972783,2.791113771290474,9.261586583200376,-0.51007247,0.7657196,0.97310835,36.002098,-13.530465,-28.590176
2128990630000.0,0.5811348712526845,3.0384137010436527,9.178534562568991,-0.5204572,0.88147855,0.9841039,35.403233,-13.729455,-28.385376
2128995509000.0,0.28104300555143,3.202526516256899,9.361403301555445,-0.5564982,0.8558222,0.97066486,34.812954,-13.90995,-28.175936
2129000598000.0,-0.0187090742068767,3.3825776591977075,9.533648474498568,-0.59498274,0.799928,0.91629785,34.152233,-14.153946,-27.935564
2129005594000.0,-0.144051950485878,3.672432940933279,9.467059954154728,-0.6603453,0.7107417,0.9092729,33.493156,-14.383866,-27.67406
2129010596000.0,-0.2695453586419156,3.96263632749079,9.400391463610315,-0.6957755,0.64934975,0.89980453,32.850883,-14.618399,-27.440786
2129015606000.0,-0.727439989745932,4.193852038624036,8.846333262841373,-0.7867944,0.60994893,0.88056225,32.227695,-14.816421,-27.189787
2129020860000.0,-1.4121165221010563,4.399733845760776,7.9653509020458655,-0.8958339,0.49693888,0.86315256,31.627035,-14.996151,-26.902433
2129025552000.0,-1.815103170993147,4.199907231921857,7.445863068507722,-1.0183123,0.5131268,0.87995136,30.963675,-15.226173,-26.662914
2129030591000.0,-2.066830108785926,3.652031043469367,7.120098650547202,-1.1365148,0.6579019,0.9410379,30.300404,-15.42755,-26.42525
2129035620000.0,-2.2296292526730936,2.9322024971954423,6.993599391761613,-1.2296717,0.8793405,1.0439687,29.625803,-15.635599,-26.364676
2129040575000.0,-2.3252840294478525,2.096263077300613,7.014393889570552,-1.2394456,1.1016954,1.1527027,28.930246,-15.838875,-26.330385
2129045581000.0,-2.4074975958105056,1.2236337713696424,7.138697111182727,-1.1636983,1.2568552,1.2363913,28.293182,-15.954751,-26.414436
2129050551000.0,-2.45351438214631,0.2879584912213986,7.517057781501772,-1.0073168,1.3494014,1.2626585,27.638655,-16.09543,-26.525692
2129055664000.0,-2.580843545983702,-0.3400713999185099,7.957913934807916,-0.7669413,1.3860532,1.2501358,27.117683,-16.079792,-26.71682
2129060675000.0,-2.808607204772992,-0.5248608223264977,8.456415322736635,-0.50976706,1.3775011,1.1884383,26.606815,-16.108803,-26.914528
2129065645000.0,-3.0940877663727453,-0.635001808472946,8.84602115230461,-0.2855795,1.2745703,1.1142182,26.246641,-16.01316,-27.128393
2129070665000.0,-3.61434441987976,-0.4615829105571142,8.83156978957916,-0.10751228,1.135904,1.0189233,25.921175,-15.961966,-27.33146
2129075608000.0,-4.139490431653871,-0.2585117554782469,8.797872470169546,0.035124753,1.0186177,0.87872964,25.692827,-15.883524,-27.536848
2129080604000.0,-4.721108338051824,0.0743879703119002,8.68690605206334,0.19211712,0.91751957,0.7189884,25.515547,-15.838918,-27.713951
2129085775000.0,-5.323099169513756,0.4189485151599488,8.572052699776073,0.2706133,0.89369583,0.55741453,25.39818,-15.801445,-27.966932
2129090915000.0,-5.963659859735634,0.9419880543901752,8.207292362801162,0.26236662,0.9053023,0.40103304,25.33822,-15.76016,-28.210522
2129095637000.0,-6.565654700384363,1.480391875532015,7.791831174650792,0.21594086,0.9776898,0.25167647,25.325089,-15.707129,-28.472956
2129100660000.0,-7.033240729766233,1.976696619677922,7.279274872872727,0.093462385,1.026559,0.116980694,25.347681,-15.675917,-28.848204
2129105593000.0,-7.367005203428572,2.408626922057143,6.724636695199999,-0.047036625,1.1398746,0.065973446,25.381392,-15.617464,-29.257818
2129110665000.0,-7.314864139219369,2.43157992552703,6.648099459855284,-0.12980886,1.2425,-0.010079277,25.410757,-15.6154995,-29.795042
2129115669000.0,-7.04812879670215,2.224860100354832,6.841482561420719,-0.27550024,1.3222178,-0.04153884,25.442085,-15.556333,-30.34166
2129120759000.0,-6.776809273638071,2.0145875363807138,7.038189193508663,-0.35705075,1.3008375,-0.05589417,25.441853,-15.525246,-30.947603
2129125637000.0,-6.572098375690875,1.8471387755745177,7.325035972074081,-0.34574974,1.1850786,-0.06994407,25.460436,-15.472243,-31.534
2129130569000.0,-6.3797412892950645,1.6868412195190536,7.641051253757394,-0.28130344,1.0137309,-0.06658431,25.492676,-15.40993,-32.0816
2129135615000.0,-6.3715145604376,1.63445752122265,7.807940299934266,-0.1685988,0.8323039,-0.047036625,25.527708,-15.338955,-32.53144
2129140718000.0,-6.444941789886374,1.6298683193821015,7.908902692506339,-0.05681047,0.6808093,-0.016798794,25.579523,-15.283777,-32.929176
2129145666000.0,-6.586909996822283,1.603254757179286,7.937726252510789,0.027488936,0.58246,-0.010079277,25.63267,-15.237302,-33.248245
2129150627000.0,-6.777958710160847,1.5613173261180855,7.919087421292664,0.070249505,0.5412266,0.00061086525,25.68884,-15.211037,-33.530964
2129155580000.0,-6.956599665820896,1.4613136027985074,7.851212750746269,0.10598512,0.5170974,0.014049901,25.739195,-15.19415,-33.796272
2129160688000.0,-7.130004258208955,1.3061621529850749,7.737130907462687,0.12767084,0.5039638,0.0067195175,25.799406,-15.18017,-34.047844
2129165703000.0,-7.250495621443521,1.1950713368414758,7.628656024529092,0.13469578,0.4804455,0.008246681,25.858784,-15.162701,-34.326096
2129170691000.0,-7.299055977336603,1.143654491179812,7.525822213897028,0.13591751,0.45173484,-0.003970624,25.930532,-15.143152,-34.594227
2129175619000.0,-7.3470322070561505,1.092856132033726,7.424225377731268,0.12950343,0.42119157,-0.01160644,26.02935,-15.095707,-34.905434
2129180700000.0,-7.408198009631923,1.069342615256278,7.320295804635363,0.11453723,0.39064834,-0.01282817,26.13622,-15.044286,-35.201694
2129185674000.0,-7.633509772273822,1.4544211571551426,7.230171227906776,0.0983493,0.37415496,-0.005192355,26.246923,-14.990319,-35.486183
2129190752000.0,-7.863532516683866,1.847551200533196,7.13816226115411,0.07696902,0.34574974,0.003970624,26.363073,-14.91926,-35.795155
2129195630000.0,-7.821587888530991,2.178290307632992,7.03071309068814,0.058337633,0.34513888,-0.0027488936,26.483221,-14.84335,-36.100445
2129200614000.0,-7.686478921425086,2.499756945485603,6.914239564714495,0.029321533,0.35216382,-0.008857546,26.604515,-14.761886,-36.392136
2129206306000.0,-7.4899515169611,2.747075922556784,6.815211184553129,0.013133603,0.37873647,-0.023823744,26.659126,-14.728841,-36.70565
2129210702000.0,-7.325084760821513,2.9009515310155773,6.749264566260552,0.019242255,0.3885103,-0.037873644,26.719542,-14.692006,-37.008705
2129215747000.0,-7.059094359694355,3.0031109538933363,6.723796730533319,0.044593163,0.38606682,-0.054367006,26.707008,-14.709354,-37.28239
2129220650000.0,-6.68810067603701,2.9933479742904665,6.772611628547666,0.074830994,0.37323865,-0.0852157,26.70837,-14.721124,-37.551052
2129225600000.0,-6.378216347705186,2.9604988816556714,6.83310102102575,0.11453723,0.36193767,-0.110872045,26.646505,-14.782882,-37.785824
2129230599000.0,-6.143887327303681,2.8993694841030004,6.9078145281974885,0.129198,0.35124752,-0.1600467,26.609627,-14.83162,-38.016144
2129236421000.0,-5.870980034489608,2.828176174930836,6.994828338710364,0.13347405,0.34238997,-0.20005837,26.528788,-14.908483,-38.19823
2129240868000.0,-5.686713021490056,2.750826060819234,7.09440400011873,0.12980886,0.32925636,-0.22204952,26.465328,-14.97663,-38.374546
2129245656000.0,-5.496166065123182,2.660089552537845,7.212361711962006,0.116675265,0.31581733,-0.226631,26.415136,-15.035381,-38.546066
2129250596000.0,-5.34656916002845,2.559010014793741,7.341991487339971,0.10262536,0.3100141,-0.23304509,26.342047,-15.096612,-38.67582
2129255583000.0,-5.225253671174558,2.452252289341597,7.477864891607397,0.081855945,0.30818152,-0.22907446,26.27193,-15.151352,-38.799137
2129260694000.0,-5.267261112837433,2.280888670905819,7.535780535092981,0.051618114,0.30848694,-0.204029,26.184357,-15.201286,-38.891632
2129265871000.0,-5.402750169686063,2.0726979433646604,7.548998914017197,0.023518313,0.3191771,-0.1863139,26.100119,-15.244321,-38.98397
2129270645000.0,-5.527692174205159,1.880713679644071,7.561188317336533,0.009162978,0.32834008,-0.160963,26.00272,-15.286237,-39.054394
2129276393000.0,-5.799691544346431,1.7372400358861266,7.561846743985566,-0.0012217305,0.3472769,-0.15974127,25.907871,-15.32029,-39.12838
2129280606000.0,-6.038312215557338,1.6603961152566158,7.557802416018444,0.0009162979,0.364992,-0.15515977,25.805,-15.357979,-39.19912
2129285671000.0,-6.313643322465005,1.547329454284739,7.496900203277569,0.006414085,0.37843102,-0.14569137,25.768538,-15.333745,-39.317623
2129290705000.0,-6.581108860037555,1.4238838380846706,7.406373535506999,-0.004886922,0.4016439,-0.16279559,25.73801,-15.302599,-39.442448
2129295626000.0,-6.825354146083499,1.3057738503578529,7.342496012524851,-0.015271631,0.40103304,-0.172264,25.736204,-15.256862,-39.60944
2129300633000.0,-7.03508055335984,1.1913776372564613,7.332962803976144,-0.032986723,0.40133846,-0.17562376,25.737143,-15.205642,-39.779633
2129305588000.0,-7.217786640248153,1.0757281862797374,7.337515072374898,-0.043982297,0.3979787,-0.19150625,25.788385,-15.114322,-40.01534
2129310617000.0,-7.341252767329778,0.9522618013535684,7.3770243856849875,-0.06811147,0.3594942,-0.19456059,25.842888,-15.019691,-40.234882
2129315619000.0,-7.433062608770917,0.8399535466435852,7.401294841084824,-0.08124508,0.32162055,-0.2003638,25.94235,-14.896211,-40.48858
2129320619000.0,-7.465298615695326,0.7478511711867667,7.396689820888633,-0.08124508,0.2733622,-0.20830505,26.05121,-14.771837,-40.72334
2129325584000.0,-7.472579816162617,0.652192157046533,7.381149491352079,-0.06963864,0.22999077,-0.2134974,26.187992,-14.626602,-40.96877
2129330584000.0,-7.408142037283094,0.5436654058601884,7.3336690040654435,-0.064751714,0.17623462,-0.2134974,26.333477,-14.482652,-41.19265
2129335657000.0,-7.342763466831928,0.4335541641065231,7.285495301664423,-0.053145275,0.1255328,-0.21502456,26.502506,-14.328976,-41.414345
2129340775000.0,-7.277285394692338,0.3436772091860228,7.229401394692339,-0.034208454,0.07147124,-0.2134974,26.677006,-14.181847,-41.615147
2129346320000.0,-7.206957045721271,0.2733487528850856,7.159073045721272,-0.0125227375,0.03940081,-0.20066923,26.850597,-14.042904,-41.802643
2129350625000.0,-7.143443118910741,0.237478723751891,7.107077357942512,0.005497787,0.002443461,-0.1863139,27.049345,-13.890556,-41.975834
2129355589000.0,-7.061933237599597,0.2135053173050932,7.0495408680584974,0.034513887,-0.01282817,-0.17073683,27.242693,-13.750901,-42.141354
2129360663000.0,-6.989704977859669,0.2046534215654481,7.02156927682783,0.049480084,-0.03940081,-0.15790866,27.441664,-13.610381,-42.29281
2129365879000.0,-6.927117091303066,0.2120167197494104,7.025251000884434,0.07727446,-0.05955936,-0.1414153,27.633095,-13.484904,-42.437263
2129370577000.0,-6.870744796241156,0.2186487701459316,7.028567093602595,0.105068825,-0.06047566,-0.12614368,27.81417,-13.367652,-42.5749
2129375650000.0,-6.796028887956518,0.2310250471240583,7.02220367357681,0.12675454,-0.06780604,-0.10842858,27.99011,-13.260576,-42.701424
2129380584000.0,-6.7194308786306856,0.2445423439944693,7.013192148603032,0.1554652,-0.06688975,-0.09285152,28.15904,-13.164903,-42.826714
2129385789000.0,-6.636689055050327,0.264128262155218,7.025353676355289,0.17745635,-0.08032878,-0.08307768,28.317312,-13.083121,-42.931263
2129390935000.0,-6.554015243731238,0.285884515139502,7.047109906621932,0.1966986,-0.08674286,-0.08002335,28.470373,-13.009356,-43.035675
2129395779000.0,-6.49177712354808,0.312787655620438,7.067195900645298,0.22540927,-0.07727446,-0.0720821,28.605627,-12.952726,-43.12849
2129400635000.0,-6.44750075972707,0.347224848029197,7.086874284565746,0.23060162,-0.07971791,-0.07086037,28.74361,-12.894963,-43.2156
2129405586000.0,-6.401810775939996,0.3808772369608416,7.1133722933274885,0.24984388,-0.08827003,-0.0729984,28.864552,-12.854152,-43.28668
2129410691000.0,-6.354187978355737,0.4142132151607247,7.146708500272745,0.2669481,-0.090713486,-0.06872234,28.9815,-12.815635,-43.357357
2129416053000.0,-6.319529437735471,0.4551209382284569,7.187616355050101,0.2782491,-0.10170906,-0.07574729,29.099205,-12.784535,-43.41184
2129420647000.0,-6.301895796833668,0.4947965450981963,7.227291989539078,0.28099802,-0.10751228,-0.08002335,29.213285,-12.756379,-43.46608
2129425622000.0,-6.2803178365933165,0.5660530652159739,7.254300616727791,0.28588495,-0.11178834,-0.08032878,29.31816,-12.737149,-43.505146
2129430584000.0,-6.256112416055419,0.6677159123553382,7.2639826838427055,0.27580565,-0.115453534,-0.09254608,29.428967,-12.711882,-43.544106
2129435697000.0,-6.244078,0.807849115916955,7.32407443303746,0.25900686,-0.119729586,-0.09682214,29.51856,-12.696843,-43.574192
2129440814000.0,-6.244078,0.9811011747404844,7.430974544546412,0.23915374,-0.116980694,-0.09682214,29.609982,-12.677252,-43.605858
2129445613000.0,-6.244078,1.143586347750865,7.531231264329773,0.22052236,-0.110872045,-0.11178834,29.679686,-12.668132,-43.630592
2129450635000.0,-6.207641323807647,1.2533896506700828,7.578912000867167,0.19242255,-0.119729586,-0.116980694,29.746592,-12.654739,-43.65113
2129455588000.0,-6.165573524931021,1.351548124625542,7.616305881868349,0.15851954,-0.13439035,-0.11178834,29.814497,-12.63535,-43.67207
2129460665000.0,-6.101459015217583,1.4223844631123663,7.633718686274164,0.13805555,-0.1459968,-0.10781772,29.827095,-12.650442,-43.665974
2129465635000.0,-6.034237758178127,1.4854041859475682,7.646322718580634,0.09987647,-0.15363261,-0.10262536,29.838326,-12.655926,-43.656673
2129470855000.0,-5.948135583009012,1.5607330604875052,7.684592286747234,0.064751714,-0.16218472,-0.09621128,29.81774,-12.677254,-43.629883
2129475636000.0,-5.859038240004097,1.635762541130684,7.736174889430561,0.038179077,-0.17562376,-0.07452556,29.790945,-12.696285,-43.59841
2129480572000.0,-5.778332590380969,1.6811530527150491,7.772002252715049,0.02321288,-0.17562376,-0.057421334,29.741268,-12.725421,-43.55199
2129485666000.0,-5.702645901499741,1.706381919737976,7.797231119737977,0.0033597588,-0.18112154,-0.035430185,29.684034,-12.75315,-43.498966
2129490627000.0,-5.62782553376173,1.7196082430844553,7.817485704610363,-0.017715093,-0.17898351,-0.01282817,29.596548,-12.797996,-43.423763
2129495714000.0,-5.5483196256629945,1.7047009047735615,7.8274239301509585,-0.025350908,-0.1881465,-0.0009162979,29.507421,-12.843153,-43.344284
2129500592000.0,-5.493366293389182,1.686723156704911,7.832897799065137,-0.030848695,-0.1826487,0.016798794,29.400135,-12.896706,-43.247932
2129505571000.0,-5.481787919504644,1.660671649226006,7.83000313003096,-0.042455133,-0.19150625,0.029626964,29.293724,-12.94816,-43.146233
2129510647000.0,-5.469983977781824,1.6341126108723365,7.827052067565106,-0.040317107,-0.18875736,0.046731193,29.179625,-13.0075245,-43.036354
2129515758000.0,-5.455043951318965,1.600497396563202,7.821915972622119,-0.04062254,-0.17989981,0.06811147,29.060179,-13.066732,-42.9261
2129520774000.0,-5.391084838062745,1.456589496088874,7.781941579013065,-0.05131268,-0.18020524,0.07452556,28.941515,-13.123871,-42.815727
2129525636000.0,-5.329089381792461,1.317099820629109,7.743194469418324,-0.050701816,-0.17501289,0.077579886,28.827433,-13.179115,-42.707848
2129531362000.0,-5.292324056865712,1.214537169751713,7.718562878971255,-0.04642576,-0.15577064,0.084910266,28.708447,-13.234397,-42.6045
2129535680000.0,-5.277603969119872,1.1593365140784908,7.707522909228442,-0.04337143,-0.14019357,0.0842994,28.591866,-13.287905,-42.50369
2129540646000.0,-5.261523430305848,1.0956973310291382,7.697846110250052,-0.04184427,-0.13225232,0.09315695,28.50315,-13.320789,-42.409332
2129545739000.0,-5.246404145691258,1.0301806064476131,7.69280626100434,-0.027794369,-0.116980694,0.09896017,28.413202,-13.355996,-42.322937
2129550625000.0,-5.243105104189082,0.9929268411950364,7.688645438634245,-0.035430185,-0.105068825,0.096516706,28.345776,-13.375066,-42.23838
2129555610000.0,-5.253378509432609,0.9860779282045764,7.685220910623341,-0.03145956,-0.093462385,0.090713486,28.275679,-13.399832,-42.15898
2129561350000.0,-5.265207866724051,0.9781917174592928,7.6812777229036655,-0.016187929,-0.095294975,0.09560041,28.219193,-13.417209,-42.08008
2129565779000.0,-5.283451834349793,0.986559000609876,7.667632800216408,-0.009468411,-0.08582657,0.096516706,28.163397,-13.4318075,-42.009438
2129570616000.0,-5.306235122565414,1.0002289735392489,7.64940626480425,-0.0009162979,-0.087659165,0.094989546,28.108227,-13.450437,-41.936157
2129575596000.0,-5.330105979564998,1.0235383067577135,7.648283191826,0.012217305,-0.076052725,0.092240654,28.05468,-13.468731,-41.872967
2129580581000.0,-5.354253854122408,1.0525158066565503,7.657942341648964,0.014049901,-0.0720821,0.087964594,28.003359,-13.485815,-41.808514
2129585664000.0,-5.363012,1.0986541029272985,7.6751488593498784,0.0290161,-0.07086037,0.071776666,27.95559,-13.510058,-41.754543
2129590704000.0,-5.363012,1.153483921172667,7.696237234044041,0.017715093,-0.07360926,0.0711658,27.903856,-13.53119,-41.700382
2129595637000.0,-5.384734360184409,1.2110567167225483,7.714760199497066,0.025350908,-0.08674286,0.06505715,27.854954,-13.556396,-41.647377
2129601389000.0,-5.453995455406538,1.286089760729254,7.732075503436715,0.026267206,-0.08368854,0.053145275,27.806946,-13.576391,-41.599358
2129605630000.0,-5.492313644958584,1.3880325091116823,7.740114363610397,0.015271631,-0.08093964,0.051618114,27.74666,-13.603319,-41.54046
2129610669000.0,-5.524476119146911,1.5580342543463772,7.744709098733695,0.013744468,-0.08399397,0.04886922,27.691717,-13.629556,-41.482906
2129615653000.0,-5.548216659256428,1.6907068613686322,7.746014136480933,0.01160644,-0.08979719,0.04153884,27.637432,-13.660079,-41.42782
2129620656000.0,-5.557375166453216,1.7593957131606612,7.74143478725031,0.008246681,-0.09132435,0.032986723,27.584793,-13.688807,-41.37433
2129625600000.0,-5.564961795743794,1.8175512616941367,7.737222786772376,0.006414085,-0.09101892,0.033292156,27.500225,-13.74797,-41.31431
2129630585000.0,-5.568281939564643,1.847432556081786,7.733902573614299,0.004886922,-0.09407325,0.027488936,27.422592,-13.8024235,-41.25519
2129635649000.0,-5.571654699506224,1.8777873955560191,7.730529743236664,-0.01160644,-0.0888809,0.022296581,27.329697,-13.870948,-41.1991
2129640616000.0,-5.571848267674704,1.9054733809767064,7.719217338373518,-0.017715093,-0.09773844,0.023823744,27.23996,-13.939803,-41.13907
2129645818000.0,-5.566758513526768,1.9309222048630976,7.693768567633837,-0.023518313,-0.09315695,0.022602014,27.15216,-14.002185,-41.085552
2129650640000.0,-5.5583289585566815,1.9440918,7.680599,-0.038179077,-0.09987647,0.022907447,27.062092,-14.0665045,-41.02423
2129655592000.0,-5.544854772440572,1.9440918,7.680599,-0.043066,-0.092240654,0.029321533,26.969389,-14.130997,-40.96834
2129660678000.0,-5.533068653240775,1.935952989217536,7.686412427601298,-0.0571159,-0.102319926,0.033292156,26.878677,-14.194145,-40.90703
2129665766000.0,-5.525715412525466,1.9102163395834904,7.70479572134611,-0.058948494,-0.10354166,0.03023783,26.787708,-14.257074,-40.85089
2129670665000.0,-5.518635316954652,1.8854357093639176,7.722496145099223,-0.06383542,-0.080634214,0.029321533,26.68879,-14.318766,-40.7985
2129675652000.0,-5.497136786301917,1.8292943662739616,7.744402900159744,-0.064446285,-0.09040806,0.03604105,26.593979,-14.380318,-40.737152
2129680623000.0,-5.468618750898562,1.7579989799820288,7.768168012380191,-0.06078109,-0.084910266,0.03145956,26.50044,-14.437931,-40.687756
2129685638000.0,-5.439749858064516,1.6436889806451611,7.781804264516128,-0.07544186,-0.086437434,0.030543262,26.412237,-14.483441,-40.630512
2129690715000.0,-5.410472273032258,1.505666859655914,7.790169413591397,-0.06505715,-0.07544186,0.027794369,26.325369,-14.532773,-40.57939
2129695769000.0,-5.397401010099247,1.3947315974806411,7.795521,-0.06078109,-0.0571159,0.027794369,26.251114,-14.565371,-40.52715
2129700639000.0,-5.412660909979278,1.3336923697567893,7.795521,-0.069027774,-0.065973446,0.032375857,26.179024,-14.597343,-40.4711
2129705608000.0,-5.413923440950101,1.287164512465476,7.802070022279507,-0.06414085,-0.06047566,0.02687807,26.1434,-14.597342,-40.424534
2129710669000.0,-5.400536811728963,1.2559292151261277,7.815456371938869,-0.0580322,-0.046731193,0.025045475,26.104822,-14.597842,-40.377884
2129715634000.0,-5.391742,1.227718903877411,7.822713192891413,-0.057421334,-0.027794369,0.026267206,26.082905,-14.585568,-40.33894
2129720765000.0,-5.391742,1.2036620347889944,7.817901919553511,-0.052534413,-0.03145956,0.01038471,26.068516,-14.572468,-40.300095
2129725575000.0,-5.389834607468879,1.1875241,7.819442931120332,-0.04642576,-0.03176499,0.0076358155,26.046444,-14.555269,-40.265583
2129730586000.0,-5.3828478063187015,1.1875241,7.836910116386402,-0.046731193,-0.02443461,0.012217305,26.026566,-14.536868,-40.233513
2129735648000.0,-5.375789896236442,1.1875241,7.854555075838975,-0.029321533,-0.011911872,0.0030543262,26.013067,-14.519571,-40.208614
2129740664000.0,-5.380278689352489,1.192650826234993,7.852304893997244,-0.021380283,-0.013439035,-0.0015271631,25.99689,-14.502657,-40.18143
2129745751000.0,-5.3946608527848845,1.2022389351899232,7.8331285759692975,-0.021991149,-0.0143553335,-0.013133603,25.984632,-14.485149,-40.159634
2129750629000.0,-5.410932902417189,1.20908118815279,7.814637097582811,-0.015271631,-0.0143553335,-0.013744468,25.971546,-14.472159,-40.132137
2129755583000.0,-5.429810140853476,1.2138005224012731,7.795759859146523,-0.008857546,-0.009773844,-0.0036651916,25.958017,-14.459383,-40.106155
2129760648000.0,-5.450682988217831,1.2184658976435665,7.774887011782169,0.008246681,-0.007941248,-0.010995574,25.95073,-14.446091,-40.084587
2129765692000.0,-5.473090159198441,1.2229473318396884,7.752479840801558,0.0009162979,-0.005497787,-0.0070249503,25.935066,-14.433496,-40.062767
2129770592000.0,-5.4890543461051,1.227375613853953,7.739604346105099,0.01740966,-0.0036651916,-0.011911872,25.92915,-14.427642,-40.047066
2129775641000.0,-5.4937686166520425,1.2320897859510578,7.744318616652042,0.00061086525,-0.005192355,-0.019242255,25.922674,-14.413758,-40.031227
2129780637000.0,-5.498301816502463,1.2378376822660098,7.750066556896551,0.0027488936,-0.005192355,-0.0125227375,25.913767,-14.410476,-40.02217
2129785680000.0,-5.50255030445109,1.2463344807178045,7.758563266625615,0.006414085,-0.007941248,-0.020463986,25.913042,-14.40009,-40.014107
2129790859000.0,-5.507130464242224,1.2538619963304265,7.767723338226098,0.004581489,0.0030543262,-0.0125227375,25.89599,-14.393143,-40.009274
2129795644000.0,-5.514671110860622,1.242550908293566,7.782804788941912,0.0036651916,-0.006414085,-0.008246681,25.885866,-14.385289,-39.999268
2129800635000.0,-5.522536391377325,1.2307528643245025,7.798535514233997,0.004886922,-0.004886922,-0.002443461,25.869343,-14.379614,-39.99265
2129805571000.0,-5.5258174,1.2325058267887667,7.802872804200244,0.008552114,0.004276057,-0.008246681,25.855728,-14.373154,-39.986282
2129810629000.0,-5.5258174,1.2443347533821734,7.798929911013431,-0.00030543262,-0.0030543262,-0.004581489,25.838654,-14.367411,-39.9745
2129815747000.0,-5.525090998452454,1.2545617,7.799153007737732,0.004886922,-0.0125227375,0.004276057,25.827879,-14.362426,-39.963856
2129820781000.0,-5.520182669069436,1.2545617,7.82369465465282,0.0076358155,-0.0076358155,0.008857546,25.816456,-14.355221,-39.955273
2129825692000.0,-5.5155837458870005,1.253904832169103,7.84209123690241,0.004886922,0.00030543262,0.010079277,25.802782,-14.350483,-39.943367
2129830579000.0,-5.511885536151718,1.250206545199526,7.834694508494666,0.01282817,0.004276057,0.0125227375,25.787031,-14.349899,-39.931328
2129835644000.0,-5.508052625918609,1.2463735549190045,7.827028367838799,0.005192355,-0.00030543262,0.0125227375,25.773935,-14.344522,-39.914776
2129845713000.0,-5.466283330602212,1.2369087661204423,7.848479570299058,0.0018325958,0.013439035,0.010079277,25.758251,-14.341887,-39.904446
