timestamp,acc_x,acc_y,acc_z,gyro_x,gyro_y,gyro_z,ori_azimuth,ori_pitch,ori_roll
525396058000.0,2.946868360910872,9.496261242740932,-0.3497698008835579,-5.22076,6.443712,-1.7721201,183.16124,-163.55232,-25.246132
525401049000.0,2.945212755238208,9.495551707331316,-0.3535540458786097,-5.22076,0.74372846,0.026572637,184.25693,-163.33916,-26.648214
525406033000.0,2.943559471593136,9.494843167062529,-0.3573329833771747,-1.1685852,0.73884153,0.027488936,183.43188,-162.81491,-24.706995
525411368000.0,2.9417897548502663,9.494084727589415,-0.361378053913861,-1.1682798,0.7492262,0.03268129,183.68501,-161.01547,-24.150244
525416029000.0,2.940243616192625,9.493422105961642,-0.3649120883602518,-1.1716396,0.7464773,0.038179077,183.92998,-160.24866,-23.596226
525421850000.0,2.938312684391267,9.492594575282546,-0.3693256507958751,-1.1749994,0.77763146,0.03604105,184.15646,-159.47404,-23.029593
525426027000.0,2.93692709735566,9.492000760534808,-0.3724927097708964,-1.2018774,0.7257079,0.029626964,184.38103,-158.6846,-22.484661
525431066000.0,2.9352555692080835,9.491284401302378,-0.3763133490275716,-1.1481212,0.7443393,0.023823744,184.58069,-157.90811,-21.912397
525436552000.0,2.933435763012885,9.49050449522,-0.3804729098456149,-1.1676689,0.77457714,0.03023783,184.77469,-157.09784,-21.349514
525441082000.0,2.931933079443026,9.489860496941988,-0.383907618286325,-1.2043208,0.8341365,0.048563786,184.95221,-156.29,-20.773165
525446095000.0,2.930270175969361,9.489147833946916,-0.3877085439846208,-1.6019942,0.7812967,0.06536258,185.12973,-155.37495,-20.217525
525451086000.0,2.9286145702966966,9.488438298537302,-0.3914927889796726,-1.2473868,0.77518797,0.052839845,185.27852,-154.64517,-19.63615
525456074000.0,2.9269599597787144,9.487729189616612,-0.3952747593333729,-1.2473868,0.75502944,0.065973446,185.43515,-153.70703,-19.066483
525461563000.0,2.925139158428834,9.486948857045308,-0.3994365947927676,-1.2592987,0.75411314,0.07666359,185.5744,-152.8573,-18.495955
525466141000.0,2.9236205523840626,9.486298034944484,-0.4029076974951012,-1.2501358,0.7357872,0.08827003,185.71136,-152.00813,-17.933752
525471074000.0,2.9219841863685847,9.485596744987433,-0.4066479660906913,-1.2556335,0.70921457,0.09987647,185.8413,-151.14769,-17.373291
525476027000.0,2.92034118598856,9.484892611770878,-0.4104033989619579,-1.2687671,0.6768387,0.10262536,185.9646,-150.28485,-16.81955
525481052000.0,2.918674301896166,9.484178242820104,-0.4142134232256596,-1.2247849,0.6072,0.10140363,186.08917,-149.43329,-16.281576
525486320000.0,2.9169268102745285,9.483429328266336,-0.4182076934388298,-1.1246029,0.5338962,0.094989546,186.2087,-148.59233,-15.75396
525491039000.0,2.9153614319597017,9.482758461185997,-0.4217857042846822,-1.0042624,0.45448375,0.098043874,186.33282,-147.76727,-15.244544
525496092000.0,2.9136852597569423,9.482040111671912,-0.4256169585343309,-0.8561276,0.38912117,0.089186326,186.45317,-146.97826,-14.753394
525501069000.0,2.9120342981394614,9.481332566543951,-0.4293905885364091,-0.7257079,0.3387248,0.08460484,186.57774,-146.21646,-14.277638
525506084000.0,2.910370731229341,9.48061961922293,-0.4331930306622726,-0.6059783,0.28252518,0.03268129,186.69315,-145.497,-13.829278
525511428000.0,2.9085980290224254,9.47985990028304,-0.4372449251230133,-0.49602258,-0.03390302,-0.0033597588,186.85834,-144.80978,-13.452498
525516107000.0,2.907045919436692,9.479194719721711,-0.4407926074175128,0.064751714,-0.029932396,-0.0018325958,186.96613,-144.27141,-13.021802
525521085000.0,2.905394626100984,9.478487032430776,-0.4445669956333749,0.06383542,0.004581489,0.007941248,187.11218,-143.61139,-12.661922
525526058000.0,2.903744991356412,9.477780055954714,-0.4483375927803179,0.00580322,0.013744468,0.004276057,187.25471,-143.09036,-12.310034
525530998000.0,2.9021063033133423,9.477077770856836,-0.4520831688723947,-0.003970624,-0.00030543262,0.007941248,187.3947,-142.58089,-11.953825
525537358000.0,2.8999965753874477,9.476173614334066,-0.4569054085374978,0.01282817,0.002443461,0.004886922,187.52304,-142.06383,-11.594958
525541054000.0,2.8987705448191914,9.475648179977435,-0.4597077666825011,0.007330383,0.0012217305,0.0067195175,187.65213,-141.5379,-11.2400055
525546111000.0,2.8970930457435227,9.474929261811452,-0.463542053787285,0.00030543262,0.0125227375,0.0076358155,187.77309,-141.01738,-10.8839445
525551056000.0,2.8954526991093164,9.4742262658987,-0.467291420948281,-0.00061086525,0.0018325958,0.009773844,187.8947,-140.49803,-10.53408
525556008000.0,2.893810030447519,9.47352227484512,-0.4710460956057637,0.013744468,0.003970624,0.009773844,188.00722,-139.98262,-10.180951
525561395000.0,2.8920230643568274,9.472756442897294,-0.4751305932592087,0.005192355,0.0021380284,0.0061086523,188.11797,-139.4625,-9.833185
525566108000.0,2.8904596763513646,9.472086428794809,-0.4787040548223581,0.0012217305,0.009773844,0.0061086523,188.22314,-138.94945,-9.484243
525571424000.0,2.8886962622548147,9.471330690418226,-0.4827347192971518,0.007941248,0.01038471,0.009162978,188.3258,-138.43939,-9.1394
525576013000.0,2.887174007309542,9.470678304524672,-0.4862141623511074,0.0036651916,0.009162978,0.0106901415,188.42302,-137.92786,-8.795818
525581059000.0,2.8855001571343744,9.469960950151416,-0.4900401091042694,0.0030543262,0.007941248,0.009468411,188.51625,-137.42204,-8.454377
525586570000.0,2.8836720579834925,9.469177489994657,-0.4942186252669082,-0.0009162979,0.0061086523,0.01160644,188.60703,-136.91689,-8.114774
525591118000.0,2.882163403485541,9.46853093278309,-0.4976669815557271,0.0018325958,0.01282817,0.0033597588,188.69014,-136.41739,-7.7784586
525596103000.0,2.880509788122241,9.467822250351324,-0.5014466772680759,-0.0018325958,0.009773844,0.002443461,188.77388,-135.91798,-7.445244
525601085000.0,2.8788571679136234,9.467113994408487,-0.5052240983390733,-0.0070249503,0.0030543262,0.0009162979,188.85162,-135.42308,-7.115822
525606965000.0,2.8769066647368526,9.466278076113849,-0.5096823953879421,-0.005497787,0.00580322,0.0030543262,188.9251,-134.93285,-6.7872887
525616131000.0,2.873866135465036,9.464975010282446,-0.5166321829304475,-0.0033597588,-0.0012217305,0.0067195175,188.9986,-134.44542,-6.464828
525621083000.0,2.8722234668032383,9.464271019228866,-0.5203868575879302,-0.00061086525,0.00061086525,-0.0021380284,189.0643,-133.96335,-6.145056
525626073000.0,2.8705681928488014,9.463561625982226,-0.5241703443691982,-0.0067195175,-0.0012217305,-0.0018325958,189.13159,-133.48322,-5.827669
525631067000.0,2.868911592021456,9.462851664083685,-0.5279568640056015,-0.008246681,0.00030543262,-0.0030543262,189.19263,-133.01021,-5.5143824
525636358000.0,2.867156470880589,9.462099479781486,-0.5319685731357996,-0.010995574,-0.0012217305,-0.0012217305,189.25233,-132.5397,-5.204351
525641117000.0,2.8655778238366683,9.461422926182134,-0.5355769125330048,-0.02076942,0.0070249503,-0.00061086525,189.30621,-132.07178,-4.895731
525646111000.0,2.8639212230093225,9.460712964283594,-0.5393634321694081,-0.018020526,0.00580322,-0.0027488936,189.35944,-131.61165,-4.5925384
525651087000.0,2.8622705931100687,9.460005561318606,-0.5431363039577025,-0.0143553335,0.011301007,-0.0021380284,189.40729,-131.15408,-4.28898
525656074000.0,2.860616314310314,9.459296594560891,-0.546917516097619,-0.013744468,0.013133603,-0.0012217305,189.45316,-130.70178,-3.9899728
525661362000.0,2.8588621883241294,9.45854483674762,-0.5509269505864656,-0.017104227,0.011911872,0.003970624,189.4968,-130.25461,-3.6927311
525671087000.0,2.8556362285632284,9.457162301813035,-0.558300579634127,-0.022907447,-0.004886922,0.004581489,189.54025,-129.81252,-3.4021347
525681054000.0,2.852329992991311,9.455745363438432,-0.5658576964174733,-0.01863139,-0.003970624,0.0015271631,189.57794,-129.37785,-3.1115477
525686338000.0,2.850577193878036,9.45499417427706,-0.5698640980511847,-0.014660766,0.0021380284,-0.0012217305,189.616,-128.94711,-2.8262317
525696066000.0,2.8473502389624525,9.453611212853552,-0.5772400017401975,-0.0125227375,0.00030543262,0.00030543262,189.65358,-128.52275,-2.5452576
525701083000.0,2.845686008615878,9.45289798120658,-0.5810439602936287,-0.0009162979,-0.0015271631,-0.004276057,189.68607,-128.10818,-2.2685633
525706015000.0,2.8443117,9.45208007749288,-0.5824683258578397,-0.009773844,0.005497787,0.00061086525,189.71681,-127.694,-1.9915681
525711354000.0,2.8443117,9.450531006180444,-0.5708503225561997,-0.016798794,0.006414085,0.0009162979,189.74574,-127.28963,-1.7214544
525716156000.0,2.8443117,9.449137741441296,-0.5604008653817334,-0.0125227375,0.0009162979,0.0009162979,189.76697,-126.89558,-1.45276
525721091000.0,2.8443117,9.447705887737069,-0.5496619917549131,-0.016493361,0.007330383,0.0012217305,189.78354,-126.50298,-1.1851747
525731067000.0,2.8443117,9.444811425213588,-0.5279535817648099,-0.013744468,0.003970624,0.0030543262,189.80215,-126.11937,-0.923289
525736352000.0,2.8443117,9.44327802160126,-0.5164530858949526,-0.021991149,0.004276057,0.004581489,189.81676,-125.73739,-0.6631574
525741150000.0,2.8443117,9.44188591743249,-0.5060123329746925,-0.022602014,0.007941248,0.004276057,189.82977,-125.3643,-0.40650257
525746855000.0,2.8443117,9.44023065393044,-0.493597890413191,-0.021685716,0.006414085,0.005497787,189.84288,-124.995255,-0.1534169
525751074000.0,2.8443117,9.439006542323929,-0.4844170782892691,-0.018325957,0.005192355,0.003970624,189.85312,-124.63274,0.09613283
525755928000.0,2.8443117,9.437598190169862,-0.473854465810123,-0.021685716,0.007330383,0.0018325958,189.8616,-124.27456,0.3426449
525761061000.0,2.8443117,9.436108888231908,-0.462684731600099,-0.02076942,-0.00061086525,0.004581489,189.872,-123.92457,0.5846824
525766094000.0,2.8443117,9.434648600553412,-0.4517326037452284,-0.0143553335,0.0030543262,0.005497787,189.87723,-123.58119,0.82453954
525770914000.0,2.8443117,9.43325011324756,-0.4412439774268345,-0.016493361,0.004581489,0.004886922,189.88385,-123.24161,1.0596616
525775898000.0,2.8443117,9.4318040425562,-0.430398476685989,-0.0036651916,0.011301007,-0.005192355,189.88588,-122.914,1.2906924
525780894000.0,2.8443117,9.430354490153702,-0.4195268631825251,-0.013133603,0.004581489,-0.0012217305,189.89182,-122.585495,1.5196956
525785982000.0,2.8443117,9.428878244632504,-0.4084550518323201,-0.019242255,0.00030543262,0.0033597588,189.89307,-122.267365,1.7444798
525791079000.0,2.8443117,9.427399387827958,-0.3973636559101513,-0.009468411,0.0009162979,0.0021380284,189.89354,-121.95691,1.9651861
525795940000.0,2.8443117,9.425989004675728,-0.3867858109861445,-0.01282817,-0.0021380284,0.002443461,189.89598,-121.64693,2.1828496
525805955000.0,2.8443117,9.42308322659106,-0.3649925345175315,-0.017715093,0.0012217305,0.0036651916,189.89583,-121.34511,2.398195
525811239000.0,2.8443117,9.421550113121326,-0.3534942147112258,-0.008552114,0.00580322,0.003970624,189.89523,-121.05211,2.609841
525820982000.0,2.8443117,9.418723253822382,-0.33229282752863,-0.008552114,0.00580322,0.0067195175,189.89474,-120.76095,2.8189557
525825963000.0,2.8443117,9.417278053558803,-0.3214538549784391,-0.0125227375,0.00030543262,0.003970624,189.89305,-120.47682,3.0234206
525830962000.0,2.8443117,9.415827630728524,-0.3105757132843207,-0.007330383,-0.005497787,0.009773844,189.89243,-120.201294,3.2274203
525836238000.0,2.8443117,9.414296838399547,-0.2990948019864273,-0.009773844,-0.00030543262,0.01038471,189.88867,-119.92783,3.427073
525841005000.0,2.8443117,9.412913728651208,-0.2887215070362647,-0.0070249503,0.006414085,0.01038471,189.88617,-119.66303,3.624248
525845980000.0,2.8443117,9.411470269243198,-0.277895590867383,-0.0106901415,-0.0015271631,0.01282817,189.88596,-119.40136,3.817731
525851010000.0,2.8443117,9.410010851992489,-0.266949991203167,-0.002443461,0.008857546,0.007941248,189.87796,-119.14899,4.009761
525855995000.0,2.8443117,9.40856449115853,-0.25610231439877,-0.007330383,0.0143553335,0.009773844,189.87401,-118.89764,4.199215
525862359000.0,2.8443117,9.406718023686656,-0.2422538459568076,-0.01740966,0.022602014,0.011911872,189.86572,-118.65227,4.386265
525866051000.0,2.8443117,9.405646817227485,-0.234219819324544,-0.009773844,0.013439035,0.0033597588,189.85889,-118.415375,4.5664163
525871025000.0,2.8443117,9.404203647962069,-0.2233960792192139,-0.012217305,0.0076358155,0.003970624,189.85034,-118.17859,4.74796
525876005000.0,2.8443117,9.402758737841085,-0.2125592827325746,-0.014660766,0.01038471,0.01160644,189.84148,-117.94905,4.9260893
525881004000.0,2.8443117,9.401308315010803,-0.2016811410384561,-0.009773844,0.0070249503,0.010995574,189.83437,-117.7256,5.0978045
525886427000.0,2.8443117,9.399734871720426,-0.1898803483984872,-0.01160644,0.012217305,0.005497787,189.82454,-117.50473,5.2687993
525891065000.0,2.8443117,9.398389190366789,-0.1797877656464725,-0.013133603,0.0070249503,0.0021380284,189.81825,-117.290344,5.4355416
525896013000.0,2.8443117,9.39695356480883,-0.1690206031934822,-0.01160644,0.00580322,0.0012217305,189.8091,-117.08101,5.599891
525901033000.0,2.8443117,9.395497048984064,-0.1580967641647815,-0.01038471,0.008857546,0.002443461,189.7999,-116.8759,5.761068
525906003000.0,2.843530937970945,9.395108244951228,-0.1628582815000149,0.0030543262,0.007330383,0.0070249503,189.79242,-116.679504,5.919442
525911355000.0,2.842001981373982,9.39561787941115,-0.1817153602662351,-0.004886922,0.006414085,0.005192355,189.78328,-116.48181,6.0742726
525916116000.0,2.840641861351908,9.39607123697163,-0.1984901270834949,-0.006414085,-0.0018325958,0.0021380284,189.76921,-116.24678,6.232263
525921086000.0,2.839222034317732,9.396544496176752,-0.2160012783294057,-0.0061086523,0.0009162979,-0.0036651916,189.7516,-116.01512,6.387884
525926069000.0,2.837798493450268,9.397018993283218,-0.2335582333914526,-0.0106901415,0.0067195175,0.005497787,189.73648,-115.78787,6.5435667
525936377000.0,2.834853709331901,9.398000553823742,-0.2698771362169754,-0.01863139,0.004276057,0.0030543262,189.72038,-115.56375,6.691728
525941135000.0,2.8334944463482783,9.398453625714684,-0.2866413329228191,-0.026572637,0.005497787,0.0106901415,189.70389,-115.34508,6.843659
525946056000.0,2.832088617608806,9.398922218983982,-0.3039798390156012,-0.022602014,0.010079277,0.0067195175,189.68529,-115.13155,6.9896846
525951095000.0,2.8306490786902523,9.39940204858853,-0.321734102824081,-0.014966198,0.009468411,0.014660766,189.66988,-114.92361,7.137993
525956017000.0,2.8292429642712964,9.39987073708101,-0.339076132287335,-0.027488936,0.009162978,0.0076358155,189.65083,-114.71471,7.279586
525961394000.0,2.82770686568724,9.400382752120434,-0.3580212953153556,-0.024129177,0.010995574,0.003970624,189.6326,-114.51814,7.421971
525966122000.0,2.8263561730881284,9.400832967315973,-0.3746797909070389,-0.021991149,0.0030543262,0.004581489,189.61665,-114.32253,7.560209
525970984000.0,2.8249671994381966,9.401295942417644,-0.3918104181419721,-0.021685716,0.0106901415,0.009773844,189.59615,-114.132286,7.698406
525976031000.0,2.823525375083773,9.401776533807634,-0.409592868914228,-0.018020526,0.0030543262,-0.004276057,189.5797,-113.94649,7.8268795
525981007000.0,2.822103833972695,9.402250364351838,-0.4271251603829709,-0.008857546,0.010079277,0.0036651916,189.56036,-113.769516,7.9627814
525986262000.0,2.8206025882856545,9.402750762163292,-0.4456404722134057,-0.018325957,0.0018325958,0.0015271631,189.5445,-113.59074,8.087672
525991170000.0,2.8192004733794707,9.403218117531248,-0.4629331744900516,-0.012217305,0.0067195175,0.0018325958,189.52444,-113.42406,8.215362
525996059000.0,2.817803786383478,9.403683663658782,-0.4801589327277292,-0.01863139,0.011301007,0.004276057,189.50676,-113.255905,8.340034
526001094000.0,2.81636539018286,9.404163112370613,-0.4978991030543209,-0.016187929,-0.0015271631,0.0030543262,189.49219,-113.09569,8.460419
526006047000.0,2.814950419699908,9.404634752781671,-0.5153503570022074,-0.0125227375,0.0015271631,-0.0015271631,189.47212,-112.938225,8.580649
526016047000.0,2.8120936248625323,9.405586984582724,-0.5505840617223499,-0.01282817,0.0033597588,0.0036651916,189.45686,-112.78545,8.699681
526021010000.0,2.810675797584743,9.406059577225587,-0.5680705493749565,-0.018936822,-0.006414085,-0.00030543262,189.44264,-112.63465,8.8122
526026093000.0,2.809223688768905,9.406543596650062,-0.5859798414842048,-0.019547688,-0.01282817,0.0036651916,189.42856,-112.49068,8.926815
526031030000.0,2.807813289157693,9.40701371349024,-0.6033747215045391,-0.021380283,-0.00030543262,0.0018325958,189.41113,-112.347595,9.037833
526036272000.0,2.806315757303941,9.407512873400352,-0.6218442295188378,-0.016493361,0.0021380284,0.002443461,189.39902,-112.21071,9.147028
526041146000.0,2.804923355500204,9.407976991180185,-0.6390171371994352,-0.020463986,0.008857546,0.01038471,189.38309,-112.07552,9.257507
526046065000.0,2.803518098119699,9.408445394003122,-0.6563485965512732,-0.02076942,0.009468411,0.005192355,189.36713,-111.94471,9.362402
526051068000.0,2.80208884366256,9.408921795573187,-0.6739760190227604,-0.030543262,0.00580322,0.0015271631,189.35167,-111.81524,9.468211
526056050000.0,2.80066558847458,9.409396197456472,-0.6915294507143355,-0.030848695,0.008246681,0.013744468,189.33565,-111.693085,9.575731
526061402000.0,2.7991366318776163,9.409905831916396,-0.7103865294805556,-0.024129177,0.004886922,0.008857546,189.32047,-111.571106,9.674959
526066135000.0,2.797784510881087,9.410356523227836,-0.7270626419245989,-0.023823744,0.018936822,0.01160644,189.30202,-111.45347,9.779618
526071950000.0,2.7961232846831527,9.410910246020146,-0.7475510412193618,-0.03390302,0.0143553335,0.0036651916,189.28838,-111.3362,9.876227
526076028000.0,2.794958283748471,9.411298566148616,-0.7619193460042359,-0.023518313,0.01160644,0.002443461,189.27156,-111.22874,9.975126
526080999000.0,2.793538171034812,9.411771920576918,-0.7794340206206187,-0.022296581,0.009468411,-0.00061086525,189.25523,-111.11835,10.069306
526086388000.0,2.7919986442969504,9.412285078294506,-0.7984214640943035,-0.026572637,0.007330383,0.005192355,189.24068,-111.01338,10.163649
526091108000.0,2.7906502371337094,9.4127345317046,-0.8150517727222106,-0.025350908,0.008857546,-0.0027488936,189.22447,-110.91078,10.251949
526096090000.0,2.789226981945729,9.413208933587883,-0.8326052044137855,-0.02321288,0.0021380284,-0.0067195175,189.21234,-110.81169,10.34036
526101030000.0,2.7878157252960656,9.413679336097603,-0.8500106545455359,-0.01740966,0.0076358155,-0.005192355,189.19653,-110.716385,10.427782
526106020000.0,2.787684656891768,9.414380070594763,-0.8613819009298375,-0.02565634,0.008246681,0.0015271631,189.18436,-110.62117,10.51301
526111287000.0,2.7904095023935924,9.415618634380513,-0.8596479108538161,-0.029626964,0.009773844,-0.0018325958,189.16998,-110.5299,10.59498
526121137000.0,2.7955053307955238,9.417934915620227,-0.8564051156670285,-0.02107485,0.011301007,0.0070249503,189.15718,-110.50048,10.676772
526126077000.0,2.798061005141263,9.419096583571925,-0.8547787798068528,-0.025045475,0.009162978,-0.0012217305,189.14374,-110.46514,10.751267
526131026000.0,2.800621335573868,9.420260367922722,-0.8531494809866079,-0.02565634,0.017715093,0.0076358155,189.12975,-110.43776,10.832368
526136374000.0,2.803388085857475,9.421517979300388,-0.8513888242699642,-0.028099801,0.016798794,0.0009162979,189.11746,-110.4064,10.9045
526141837000.0,2.8062143305843525,9.422802633555472,-0.8495903075079926,-0.026267206,0.012217305,0.0015271631,189.10577,-110.37949,10.979992
526146126000.0,2.808433214646879,9.423811215305436,-0.8481782924261517,-0.026572637,0.0125227375,0.0009162979,189.09286,-110.35129,11.052219
526151018000.0,2.810964056529341,9.424961595795256,-0.8465677590196782,-0.025350908,0.016493361,0.003970624,189.08113,-110.325554,11.1241455
526156040000.0,2.813562152999848,9.426142546494326,-0.8449144273010947,-0.025961773,0.020463986,-0.0015271631,189.06908,-110.29882,11.192228
526161406000.0,2.816338215457184,9.427404390670196,-0.8431478446643127,-0.028099801,0.01985312,0.00030543262,189.05861,-110.27461,11.261745
526166102000.0,2.818767658114592,9.428508680690676,-0.8416018379437894,-0.019242255,0.018020526,-0.0027488936,189.04703,-110.252075,11.327345
526171434000.0,2.82152613091044,9.429762529581048,-0.8398464487117131,-0.031154128,0.021685716,0.004276057,189.03561,-110.22699,11.395326
526176016000.0,2.8238965964675606,9.430840011879564,-0.8383379728187323,-0.03023783,0.017715093,-0.0018325958,189.02597,-110.20517,11.456842
526180999000.0,2.8264745165616545,9.43201179151586,-0.8366974805937818,-0.016187929,0.02107485,-0.0036651916,189.01472,-110.18632,11.521105
526187448000.0,2.8298108614717106,9.433528309050372,-0.8345743550953459,-0.022296581,0.015271631,0.0015271631,189.00775,-110.16397,11.583365
526191122000.0,2.831711579598481,9.434392270195014,-0.8333648089515634,-0.027183503,0.015271631,-0.004276057,188.99762,-110.14378,11.641683
526196145000.0,2.834310193411974,9.435573456049545,-0.8317111480151944,-0.02107485,0.018020526,-0.0076358155,188.98946,-110.12676,11.700718
526201059000.0,2.8368524168401046,9.436729009959388,-0.8300933718174407,-0.023823744,0.011911872,-0.008552114,188.98401,-110.106735,11.757021
526206048000.0,2.8394334409921083,9.437902200528418,-0.8284509042857774,-0.019547688,0.011911872,-0.008246681,188.97633,-110.09012,11.812412
526211526000.0,2.8422674458637607,9.439190382115338,-0.8266474492570238,-0.02076942,0.007941248,-0.005497787,188.97208,-110.07256,11.866405
526216120000.0,2.8446441195367016,9.440270686279325,-0.8251350227506176,-0.018936822,0.0125227375,-0.00580322,188.96562,-110.0569,11.919341
526221106000.0,2.84722359165975,9.441443171381987,-0.8234935428723107,-0.018020526,0.018325957,0.0027488936,188.9613,-110.04338,11.974276
526226067000.0,2.8497901302081745,9.442609777598255,-0.8218602934386402,-0.015271631,0.022296581,-0.00030543262,188.95563,-110.02923,12.0251665
526231027000.0,2.852356151413614,9.443776148659069,-0.8202273732227553,-0.02076942,0.022296581,-0.00061086525,188.95078,-110.01595,12.078312
526236423000.0,2.855147734160499,9.445045047498612,-0.8184509140524096,-0.028710667,0.02687807,-0.005192355,188.94331,-110.00198,12.129123
526241111000.0,2.8575730380740274,9.446147456275446,-0.81690754107417,-0.015882496,0.023823744,-0.0030543262,188.93892,-109.99312,12.18012
526246099000.0,2.8601535448830457,9.44732041168902,-0.8152654027602921,-0.018020526,0.036957346,-0.009773844,188.92796,-109.977264,12.228113
526251113000.0,2.8627475026096736,9.448499481144449,-0.8136147047839922,-0.023823744,0.030543262,-0.00580322,188.9248,-109.96623,12.276934
526257163000.0,2.8658774276687278,9.44992217165209,-0.8116229371819552,-0.022296581,0.03573562,-0.015577064,188.91342,-109.9532,12.321155
526261511000.0,2.8681268349673665,9.450944627573946,-0.8101914982507722,-0.016798794,0.034208454,-0.02076942,188.90681,-109.94175,12.365812
526266087000.0,2.8704941964665784,9.452020698939728,-0.8086849976645042,-0.021991149,0.037873644,-0.016798794,188.8976,-109.92864,12.410279
526271069000.0,2.873071599217687,9.453192243420569,-0.8070448346573391,-0.0143553335,0.044593163,-0.022907447,188.8871,-109.917305,12.449862
526276054000.0,2.8756505539977506,9.454364493367777,-0.8054036839968177,-0.01985312,0.042455133,-0.020463986,188.87944,-109.904625,12.491696
526281129000.0,2.878276069646461,9.455557907306009,-0.8037329037356048,-0.023823744,0.043982297,-0.024129177,188.86826,-109.89217,12.530197
526286145000.0,2.8808710620590587,9.456737447072344,-0.802081547323734,-0.02565634,0.038789943,-0.018020526,188.8609,-109.88164,12.570628
526291060000.0,2.883413802830175,9.457893236137645,-0.8004634419081949,-0.023518313,0.04428773,-0.03359759,188.84846,-109.86688,12.60427
526296083000.0,2.886012416643667,9.459074421992172,-0.7988097809718259,-0.012217305,0.05009095,-0.032070424,188.83958,-109.85842,12.643207
526301097000.0,2.8886063743702945,9.4602534914476,-0.7971590829955261,-0.022907447,0.04153884,-0.03573562,188.83192,-109.84222,12.67508
526305957000.0,2.8911206612772373,9.461396346962829,-0.7955590845581872,-0.01740966,0.044898596,-0.043066,188.81944,-109.83198,12.707054
526310994000.0,2.8980666440979697,9.4617418182397,-0.7885744415960242,-0.0143553335,0.058643065,-0.04153884,188.80719,-109.82025,12.739982
526316075000.0,2.9081478428008367,9.461495955947004,-0.7777555890037292,-0.019242255,0.056505036,-0.04917465,188.79752,-109.80531,12.766835
526320967000.0,2.9178540471020424,9.461259239092866,-0.7673391696214211,-0.02076942,0.06078109,-0.04337143,188.76595,-109.7926,12.815011
526326284000.0,2.928403492782645,9.461001957099112,-0.7560178078357032,-0.013744468,0.0580322,-0.055588737,188.73557,-109.77641,12.85451
526330931000.0,2.9376235932298456,9.460777095443108,-0.7461230611330079,-0.013133603,0.06719518,-0.056199603,188.70251,-109.762276,12.899125
526336167000.0,2.9480123270240224,9.460523732923022,-0.7349741707229986,-0.0021380284,0.06414085,-0.062002823,188.67294,-109.74909,12.936982
526340993000.0,2.957587580899251,9.460290209714096,-0.7246982835727496,-0.004886922,0.071776666,-0.061086524,188.63878,-109.73471,12.977186
526345899000.0,2.9673215625635425,9.460052815420063,-0.7142520543230351,-0.0070249503,0.06505715,-0.061391957,188.60957,-109.7219,13.01339
526350919000.0,2.977281731327249,9.45980990482976,-0.7035630875815824,0.0012217305,0.07422013,-0.062308256,188.5743,-109.71118,13.050648
526355938000.0,2.9872399159935927,9.45956704262802,-0.6928762501163731,-0.0009162979,0.06536258,-0.06261369,188.54659,-109.698265,13.085423
526361165000.0,2.9976107929115,9.45931411560501,-0.6817465231925537,0.004581489,0.06872234,-0.058337633,188.51364,-109.68977,13.122057
526365961000.0,3.00712652386583,9.459082044052998,-0.6715345143296041,0.007941248,0.06352998,-0.071776666,188.48482,-109.67725,13.151721
526370935000.0,3.016995424150825,9.458841359336628,-0.660943494295344,-0.003970624,0.064446285,-0.06872234,188.45537,-109.666985,13.187123
526375928000.0,3.026902022285723,9.458599755237548,-0.650312018012461,0.003970624,0.057726767,-0.06047566,188.42944,-109.66035,13.218682
526380901000.0,3.036768938473355,9.458359118909742,-0.6397231272544441,0.0143553335,0.06352998,-0.06536258,188.39944,-109.65008,13.247801
526386111000.0,3.047106085736086,9.458107014492317,-0.6286295980267612,0.02076942,0.06505715,-0.065973446,188.37396,-109.64338,13.27895
526390956000.0,3.056719037461217,9.457872571900676,-0.6183132546278891,0.022296581,0.063224554,-0.06811147,188.34778,-109.636795,13.307888
526396376000.0,3.067472845170239,9.45761030588485,-0.6067725773891095,0.019547688,0.06658431,-0.074830994,188.31975,-109.629845,13.335275
526401049000.0,3.0767445321488847,9.457384186126186,-0.596822469504088,0.032986723,0.06536258,-0.069027774,188.29475,-109.628815,13.364508
526406019000.0,3.086605496044427,9.457143694964072,-0.5862399665748012,0.03481932,0.064751714,-0.067500606,188.26826,-109.622856,13.390447
526411435000.0,3.0973513673639954,9.456881622502502,-0.5747078064409948,0.027488936,0.06536258,-0.069027774,188.2424,-109.61845,13.4166
526416073000.0,3.106553610934926,9.45665719634357,-0.5648322232244893,0.030848695,0.06291912,-0.070554934,188.21812,-109.61705,13.442374
526421020000.0,3.1163689405911126,9.456417818118425,-0.5542986936487989,0.02443461,0.06963864,-0.0693332,188.19157,-109.61251,13.468661
526426326000.0,3.12689656120072,9.456161068398872,-0.5430007539017575,0.036957346,0.08032878,-0.063224554,188.16522,-109.61337,13.495484
526431026000.0,3.136221818808174,9.455933642148986,-0.5329931555581664,0.034208454,0.067500606,-0.07086037,188.14317,-109.607414,13.517136
526436445000.0,3.1469736424198325,9.455671424521723,-0.5214546075956301,0.03390302,0.06169739,-0.064446285,188.11797,-109.60864,13.5450945
526441142000.0,3.1562929477351966,9.455444143437528,-0.5114533970807689,0.03970624,0.0571159,-0.06658431,188.09529,-109.607414,13.5672655
526446084000.0,3.166098356904567,9.4552050071552,-0.500930513886295,0.032986723,0.05955936,-0.06505715,188.07338,-109.60566,13.59183
526451076000.0,3.1760029709421014,9.454963451444684,-0.4903011668796552,0.042760566,0.059253927,-0.058948494,188.05408,-109.60903,13.6161
526456047000.0,3.185865918935007,9.454722911894006,-0.479716534674125,0.036957346,0.050701816,-0.057421334,188.03658,-109.60731,13.638655
526461049000.0,3.195790373946174,9.45448087229785,-0.4690658949050521,0.04550946,0.049480084,-0.05681047,188.01778,-109.61157,13.662664
526466872000.0,3.2073437728926013,9.45419910569081,-0.4566671193402157,0.03604105,0.03604105,-0.053145275,188.00557,-109.61194,13.686024
526471099000.0,3.21573055244722,9.453994567231604,-0.4476666686597136,0.050396383,0.035430185,-0.062308256,187.98947,-109.61642,13.70635
526476176000.0,3.225803814760634,9.453748898493163,-0.4368563331723918,0.05009095,0.035430185,-0.05955936,187.97842,-109.61916,13.729659
526481004000.0,3.2353830368305894,9.45351527850711,-0.4265761874696561,0.044593163,0.022296581,-0.074830994,187.96959,-109.618256,13.744067
526486388000.0,3.246065417034533,9.45325475447958,-0.4151121641756359,0.05375614,0.019242255,-0.061086524,187.9604,-109.62667,13.767612
526491044000.0,3.2553033743580024,9.4530294573265,-0.4051982539867508,0.04550946,0.023518313,-0.059864793,187.9511,-109.62486,13.782741
526496020000.0,3.2651762428377245,9.452788675833004,-0.394602975400004,0.052839845,0.026572637,-0.06505715,187.94373,-109.629524,13.799262
526501084000.0,3.275223711885416,9.452543636145894,-0.3838203205038454,0.054367006,0.022296581,-0.05955936,187.9383,-109.63376,13.818524
526506277000.0,3.284761938217804,9.451614638612742,-0.3736442513287935,0.051923547,0.026267206,-0.064446285,187.9287,-109.63549,13.833923
526511279000.0,3.283559978233661,9.441518139603856,-0.3758077810573541,0.04886922,0.016798794,-0.059864793,187.92545,-109.64041,13.85191
526516130000.0,3.2823943029271696,9.431726432948096,-0.3779059983131012,0.060170226,0.016798794,-0.049785517,187.88591,-109.64327,13.919541
526521106000.0,3.281198590635868,9.421682414741731,-0.3800582821854158,0.0842994,0.013439035,-0.048258353,187.85051,-109.64771,13.983874
526526062000.0,3.2800076842621357,9.411678766383467,-0.3822019153990796,0.08735373,0.01160644,-0.05009095,187.81586,-109.65192,14.048861
526531024000.0,3.2788153361131323,9.401663007070772,-0.3843481438103386,0.09743301,0.004581489,-0.048563786,187.78467,-109.66351,14.11333
526536489000.0,3.2775021191372558,9.390631946078456,-0.3867119362866649,0.106901415,0.0061086523,-0.04520403,187.75218,-109.67574,14.177006
526541028000.0,3.276411416144848,9.381470009053,-0.3886752032674599,0.118202426,0.00030543262,-0.055283304,187.72359,-109.6879,14.23517
526546134000.0,3.2751844653893443,9.37116358683401,-0.3908837164210045,0.110872045,-0.0061086523,-0.052839845,187.69643,-109.70157,14.296613
526551012000.0,3.274012302094133,9.36131738088332,-0.3929936120659303,0.10629055,-0.013133603,-0.05222898,187.67082,-109.71547,14.353179
526556003000.0,3.2728129853646544,9.351243085290886,-0.395152383932233,0.10720685,-0.033292156,-0.05222898,187.65149,-109.72937,14.407838
526561188000.0,3.271567051234751,9.340777202171916,-0.3973950671874482,0.09560041,-0.0421497,-0.0571159,187.63115,-109.73905,14.460528
526566073000.0,3.27039320586839,9.330916866774391,-0.3995079905629017,0.11362094,-0.05009095,-0.063224554,187.61668,-109.75433,14.5105715
526571437000.0,3.26910425877624,9.320089673514962,-0.4018280972130415,0.11636983,-0.058643065,-0.06047566,187.60562,-109.76532,14.560133
526576017000.0,3.2680037036528145,9.310844978300906,-0.4038090980440706,0.111177474,-0.064446285,-0.06505715,187.59549,-109.775345,14.604714
526581002000.0,3.2668058286986064,9.3007827936629,-0.4059652747127781,0.110872045,-0.0711658,-0.06352998,187.58902,-109.78864,14.650261
526586415000.0,3.2655051071084102,9.289856694275636,-0.4083065754766122,0.11484267,-0.07086037,-0.062002823,187.58218,-109.800766,14.693789
526591132000.0,3.264371631449634,9.28033546560212,-0.4103468333193992,0.10751228,-0.06719518,-0.062002823,187.57661,-109.81064,14.73629
526596082000.0,3.2631821668511725,9.270343928198283,-0.4124878713354677,0.10170906,-0.06414085,-0.060170226,187.57161,-109.82222,14.778912
526601062000.0,3.261985493376357,9.2602918360223,-0.4146418853395125,0.09773844,-0.06291912,-0.053450707,187.5667,-109.83377,14.822232
526606010000.0,3.2607965093696523,9.250304335603271,-0.416782058289716,0.09773844,-0.06047566,-0.06414085,187.55977,-109.8416,14.860708
526611210000.0,3.259546970801572,9.239808175098233,-0.4190312295389193,0.098043874,-0.06414085,-0.058337633,187.55612,-109.85372,14.904528
526616134000.0,3.2583637538959507,9.22986911849692,-0.4211610216987419,0.09315695,-0.062308256,-0.059864793,187.54924,-109.86098,14.943105
526621080000.0,3.257175250481003,9.219885655062702,-0.4233003295830803,0.099571034,-0.0580322,-0.064751714,187.54314,-109.8709,14.981535
526626064000.0,3.255977615822674,9.209825488917105,-0.4254560737188552,0.09621128,-0.06780604,-0.06352998,187.54114,-109.8791,15.019715
526631032000.0,3.2547838258984,9.19979761864998,-0.4276048973277095,0.10476339,-0.06414085,-0.06505715,187.53377,-109.889,15.056226
526636410000.0,3.25349151466395,9.18894216649688,-0.4299310594389048,0.111177474,-0.061391957,-0.06841691,187.5297,-109.89773,15.091193
526641120000.0,3.2523597210763238,9.1794350672702,-0.4319682895511639,0.13225232,-0.071776666,-0.06688975,187.52881,-109.911415,15.125821
526646081000.0,3.2511676132231986,9.16942132644991,-0.4341140854294905,0.13225232,-0.070249505,-0.07666359,187.52295,-109.919106,15.156678
526651871000.0,3.2497763000868165,9.157734255426028,-0.4366184511088919,0.14049901,-0.0711658,-0.07696902,187.5217,-109.93442,15.1891575
526656033000.0,3.248776188640595,9.149333290037186,-0.4384186531741196,0.1591304,-0.070554934,-0.08307768,187.5187,-109.948074,15.216927
526661439000.0,3.2474771491215484,9.138421320096752,-0.440756926207426,0.17379116,-0.067500606,-0.08399397,187.51578,-109.963394,15.24562
526666129000.0,3.246350161451491,9.128954590718168,-0.4427855056610345,0.16615535,-0.06719518,-0.09132435,187.51276,-109.97507,15.27017
526671140000.0,3.2451460388044424,9.118839925277635,-0.4449529281859879,0.17073683,-0.0729984,-0.08979719,187.5113,-109.99311,15.296249
526676049000.0,3.2439664263369985,9.108931146062398,-0.4470762323518223,0.1994475,-0.0870483,-0.09773844,187.51118,-110.010216,15.316677
526681006000.0,3.242775279667388,9.098925479211726,-0.4492202980984187,0.19883664,-0.09162979,-0.10048734,187.51056,-110.024055,15.338778
526686421000.0,3.2414740774854347,9.087995342839651,-0.451562463928118,0.21899518,-0.0983493,-0.10842858,187.51381,-110.04367,15.355796
526691121000.0,3.2403446868565924,9.078508428537017,-0.4535953687110517,0.21197024,-0.098043874,-0.10720685,187.51682,-110.05936,15.374424
526696055000.0,3.239159066992187,9.068549187011657,-0.4557294862001997,0.22571471,-0.11789699,-0.103847094,187.5272,-110.080864,15.389403
526701039000.0,3.237961432333857,9.058489020866055,-0.4578852303359746,0.24862215,-0.13500121,-0.10476339,187.53653,-110.10176,15.403439
526706025000.0,3.233771863607278,9.04779871039034,-0.4633478721785564,0.25625798,-0.15485434,-0.103847094,187.55267,-110.12318,15.417187
526711190000.0,3.213711177287657,9.033434287937354,-0.4863805145077206,0.27091873,-0.1572978,-0.10170906,187.5686,-110.14966,15.430794
526716050000.0,3.194835100711982,9.019918103402697,-0.5080530492066051,0.27885997,-0.16707164,-0.10751228,187.57556,-110.1898,15.453182
526722287000.0,3.170610802439868,9.002572333249885,-0.5358661354035068,0.29016098,-0.18325958,-0.10170906,187.58612,-110.23549,15.478406
526725998000.0,3.1561974032274542,8.99225164172558,-0.5524148548001242,0.30970868,-0.17684549,-0.0983493,187.59245,-110.28154,15.501789
526731008000.0,3.13673873169574,8.978318291001582,-0.5747562948909495,0.3118467,-0.18600847,-0.10629055,187.60759,-110.32447,15.521198
526736400000.0,3.115796385009313,8.963322557048727,-0.5988012140465843,0.31673363,-0.1908954,-0.09621128,187.62106,-110.375305,15.546866
526741134000.0,3.0974096881967115,8.950156792113116,-0.6199118682162383,0.3203988,-0.204029,-0.10415252,187.63776,-110.419754,15.563811
526746063000.0,3.078265617941259,8.93644871113136,-0.6418920993954156,0.3313944,-0.21502456,-0.112704635,187.6558,-110.46766,15.582831
526751028000.0,3.0589817248963573,8.922640510264165,-0.6640328678686587,0.33536503,-0.21685717,-0.118202426,187.67453,-110.51305,15.599917
526756002000.0,3.0396628761540927,8.908807279425607,-0.6862137706654182,0.33628133,-0.23457226,-0.12461651,187.7002,-110.55699,15.612319
526761205000.0,3.019454599112275,8.894337174871323,-0.7094158690272074,0.34666604,-0.24495697,-0.119729586,187.72446,-110.6039,15.626476
526766063000.0,3.000586290469348,8.880826552552522,-0.7310794849875327,0.3390302,-0.2452624,-0.12522738,187.7495,-110.64322,15.635286
526771173000.0,2.9807392223002744,8.866615091035628,-0.7538668620063187,0.3231477,-0.24678956,-0.113926366,187.77908,-110.68689,15.649187
526776068000.0,2.961727206901524,8.853001567723458,-0.7756954746299893,0.312763,-0.26725355,-0.12370021,187.81209,-110.72363,15.654245
526781041000.0,2.9424122421256333,8.83917111799283,-0.7978719180574692,0.31795537,-0.27091873,-0.121256754,187.84203,-110.76475,15.666698
526786076000.0,2.92285647143458,8.825168239570608,-0.8203248423802847,0.30787608,-0.27152961,-0.11728613,187.87605,-110.7987,15.675572
526791866000.0,2.9003683061314613,8.809065624662034,-0.8461445905092027,0.30848694,-0.28160888,-0.09987647,187.91464,-110.83843,15.687856
526796061000.0,2.884075067194228,8.797398876900122,-0.8648516446371493,0.301462,-0.2782491,-0.09590584,187.94847,-110.8722,15.698261
526801101000.0,2.8644998766713066,8.783382092938254,-0.8873268658063627,0.3005457,-0.27763826,-0.07696902,187.98795,-110.91361,15.7165985
526806114000.0,2.845029553240472,8.769440398890469,-0.9096816840050268,0.32070425,-0.26908615,-0.06566802,188.02351,-110.95621,15.734483
526810948000.0,2.826254459790511,8.755996523161963,-0.9312382751026416,0.33169982,-0.26542094,-0.048258353,188.06175,-111.00166,15.758729
526815935000.0,2.80688511948539,8.74212713792033,-0.953477149700036,0.34391713,-0.27000242,-0.028405234,188.10056,-111.05329,15.786439
526821045000.0,2.7870380513163164,8.727915676403438,-0.976264526718822,0.35979962,-0.2764165,-0.014966198,188.13928,-111.10913,15.816857
526825931000.0,2.7680609916149286,8.714327183062627,-0.998053005018976,0.36163223,-0.29565877,-0.007330383,188.18369,-111.16667,15.84941
526830920000.0,2.74868388337706,8.700452235605136,-1.0203007983549297,0.3894266,-0.312763,0.016798794,188.23112,-111.237434,15.889357
526835920000.0,2.7292640515090825,8.686546695960425,-1.042597644752959,0.39614612,-0.3268129,0.03634648,188.283,-111.30413,15.928409
526840952000.0,2.709719932717149,8.67255216086199,-1.0650371909679357,0.40775254,-0.36041048,0.059253927,188.34695,-111.38162,15.971789
526845940000.0,2.690346708445655,8.658679994512427,-1.0872805249346096,0.4361578,-0.39187005,0.0888809,188.41573,-111.467865,16.020826
526850925000.0,2.670985136073281,8.644816171486651,-1.1095104807934448,0.4908302,-0.43188173,0.12370021,188.49805,-111.565834,16.073805
526855920000.0,2.6515847240371717,8.630924537381587,-1.131785030345076,0.5561928,-0.47952923,0.1572978,188.59297,-111.6757,16.1309
526861117000.0,2.631399750793596,8.616471119474875,-1.1549603724911877,0.6267477,-0.5384777,0.19547687,188.70471,-111.80342,16.194096
526866097000.0,2.6120575982530894,8.602621201988745,-1.1771680315036248,0.6835582,-0.61453044,0.2302962,188.83627,-111.945175,16.259703
526871096000.0,2.592641650351485,8.588718443451963,-1.1994604185323745,0.71929383,-0.6743952,0.25167647,188.98068,-112.09904,16.327616
526875994000.0,2.573617983053614,8.575096576816007,-1.221302409263884,0.7501425,-0.71959925,0.2733622,189.14386,-112.26746,16.399208
526881005000.0,2.5541554275555267,8.561160444984079,-1.243648308723989,0.7663304,-0.7324274,0.28710666,189.31415,-112.43979,16.470959
526886368000.0,2.533325715893933,8.546245363161162,-1.267563906170515,0.77549344,-0.7715228,0.2932153,189.50412,-112.61658,16.539612
526891082000.0,2.5150166984088043,8.53313522038413,-1.288585372954577,0.77549344,-0.81489426,0.29535335,189.69775,-112.793625,16.608004
526896031000.0,2.49579494882588,8.519371517243798,-1.3106547915193465,0.7620544,-0.8530733,0.29565877,189.89928,-112.96759,16.673374
526901018000.0,2.4764256085207585,8.505502132002164,-1.332893666116741,0.7629707,-0.87781334,0.2929099,190.10703,-113.141045,16.734644
526906008000.0,2.486975144622616,8.442441411667128,-1.388218682775781,0.7654142,-0.87598073,0.29016098,190.3157,-113.30927,16.793726
526911446000.0,2.6165598881946366,8.17967227522809,-1.5789962240116118,0.76083267,-0.86009824,0.29138273,190.52505,-113.47365,16.851036
526916121000.0,2.727962734130495,7.953771997027924,-1.7430059712123307,0.7458665,-0.82894415,0.28588495,190.72614,-113.66027,16.849257
526920991000.0,2.8335103271108446,7.748149468087234,-1.8685972918667464,0.7480045,-0.8078693,0.2773328,190.9221,-113.84574,16.84702
526926013000.0,2.920115510904361,7.598995967607043,-1.9022770967286915,0.7275405,-0.795652,0.28405234,191.10948,-114.02252,16.848904
526931115000.0,2.994314383968059,7.4624408758862755,-1.9538972095296596,0.72356987,-0.79351395,0.2929099,191.19781,-114.28789,16.943933
526936419000.0,3.0433447815110566,7.351008471533872,-2.0430432260968763,0.68203104,-0.79229224,0.29443705,191.28687,-114.53341,17.03584
526941094000.0,3.085531368777343,7.254946084181441,-2.124571572415381,0.6597345,-0.7800749,0.3100141,191.19472,-114.76508,17.237276
526946084000.0,3.1148740164863,7.185257051715404,-2.2566136977511704,0.65148777,-0.754724,0.33658674,191.12437,-114.98241,17.429914
526951000000.0,3.143781522726226,7.116601483859084,-2.386697683352521,0.65179324,-0.7275405,0.35735616,191.09352,-115.16628,17.632952
526955996000.0,3.17658111082369,7.067113229991247,-2.5160318792375764,0.6536258,-0.70249504,0.38331795,191.07045,-115.34969,17.838093
526961438000.0,3.2171271597004765,7.041771916366819,-2.6528750257317903,0.6606508,-0.6844745,0.4129449,191.05434,-115.53399,18.043598
526966024000.0,3.231992765255685,7.0575272307000985,-2.7181570666127435,0.6780604,-0.66889745,0.42394048,191.06696,-115.72416,18.254818
526971258000.0,3.218478395686169,7.134109112968455,-2.713652308115395,0.68294734,-0.67011917,0.4529566,191.0898,-115.91865,18.472605
526976999000.0,3.189080727533677,7.235268506805839,-2.7078426065660484,0.71868294,-0.6814202,0.4636467,191.12079,-116.11372,18.694546
526981014000.0,3.145691600303265,7.332893972282953,-2.702418972741378,0.7473936,-0.69058317,0.46578476,191.15825,-116.308655,18.915947
526986008000.0,3.0917226584879045,7.454324003314761,-2.6956728638197336,0.75869465,-0.7147123,0.46944994,191.17526,-116.46591,19.139837
526991014000.0,3.0402456868989547,7.523532806271777,-2.7018140409756097,0.7724391,-0.7476991,0.4810564,191.20319,-116.62863,19.35842
526996085000.0,2.9937122826480835,7.4812297114982576,-2.7356564726219514,0.77518797,-0.7870999,0.49174652,191.24438,-116.78937,19.569038
527001173000.0,2.9508203965064577,7.436814388100783,-2.76682408065848,0.7678576,-0.82436264,0.49968776,191.3237,-116.93267,19.73614
527006030000.0,2.9705174185687064,7.362950555367351,-2.7520513655303835,0.7519751,-0.8445212,0.5103779,191.41168,-117.07533,19.90115
527011243000.0,2.981915124847476,7.276356949070992,-2.746829860330006,0.72387534,-0.8393288,0.5174029,191.53493,-117.226944,20.04403
527016061000.0,2.9499260632834163,7.16439503318081,-2.788415707168608,0.70066243,-0.8304713,0.53969944,191.66493,-117.379364,20.189936
527021054000.0,2.916775091014975,7.048366422545757,-2.8315120403494176,0.66828656,-0.83291477,0.53878313,191.79816,-117.52655,20.336763
527026055000.0,2.8769720320110133,6.897637827605548,-2.9053303770344687,0.6392705,-0.83291477,0.5342017,191.9295,-117.671585,20.487123
527030998000.0,2.819042400856618,6.65143695820926,-3.0646368249031206,0.6062838,-0.8359691,0.5439755,192.0633,-117.81053,20.638199
527036018000.0,2.807348497612078,6.428809525543059,-3.26757523766754,0.5839872,-0.8717047,0.5552765,192.22447,-117.96457,20.779654
527041025000.0,2.910770894276691,6.273675834124171,-3.570455193506393,0.5861252,-0.91813046,0.57757306,192.39102,-118.11927,20.923332
527047104000.0,3.036336052919427,6.085327979094131,-3.93818182652904,0.5861252,-0.9630291,0.5858198,192.5993,-118.306015,21.056898
527051009000.0,3.3310799451219517,6.034288107388809,-4.077019897417504,0.58459806,-0.9837985,0.61391956,192.81721,-118.499214,21.19791
527055971000.0,3.7401484353658536,5.9807197120823945,-4.237725540992007,0.5925393,-0.9966267,0.6423248,193.04547,-118.69325,21.335962
527061025000.0,4.054395153037211,5.942752288660097,-4.17595145199294,0.6243043,-0.96852684,0.6762278,193.32773,-118.98527,21.505136
527066117000.0,4.334118357567289,5.910476542932784,-4.032503468524784,0.64660084,-0.9450085,0.70402217,193.61653,-119.27776,21.675991
527071007000.0,4.601687708059648,5.879067922119652,-3.8922120416030537,0.65668017,-0.9425651,0.7174612,193.93517,-119.65178,21.925251
527076073000.0,4.829927960678146,5.827391034812711,-3.629520605725191,0.6114761,-0.9486737,0.7501425,194.25502,-120.02418,22.184101
527080999000.0,5.051860744807385,5.777142249405291,-3.3740887041984733,0.5693264,-0.9944886,0.74128497,194.57317,-120.417564,22.511204
527086025000.0,5.126931665072602,5.884132276732458,-3.15612044977828,0.5525276,-1.026559,0.7156286,194.89243,-120.80521,22.837608
527091057000.0,5.156262611598992,6.039166223484914,-2.9508048741587687,0.5180137,-1.0555751,0.70829827,195.2264,-121.17866,23.156778
527096000000.0,5.122623170738664,6.242773233035459,-2.8230713529518017,0.5045747,-1.0797043,0.7098254,195.54042,-121.546585,23.531952
527101208000.0,5.013568076528188,6.517781378448522,-2.775656124736192,0.5018258,-1.0793989,0.71685034,195.85762,-121.906296,23.900488
527105964000.0,4.827106489299094,6.72606726614672,-2.7473836641305085,0.5027421,-1.0842859,0.72387534,196.13884,-122.21419,24.26915
527111477000.0,4.442304947401404,6.884303284013351,-2.7437873901437237,0.49968776,-1.0644327,0.7150178,196.41379,-122.517334,24.632355
527116041000.0,4.12374259709829,7.015300778216743,-2.7408101736598325,0.4859433,-1.0580186,0.6881397,196.66765,-122.762794,24.945631
527121075000.0,3.838656508809892,7.127053524574961,-2.7389667,0.48258355,-1.0372492,0.66737026,196.91234,-123.00801,25.256596
527126041000.0,3.641108913678516,7.195965601313755,-2.7389667,0.46761733,-1.0094548,0.6453791,197.15073,-123.24152,25.556593
527131019000.0,3.489264547563183,7.263178207548434,-2.7563008918616347,0.4538729,-0.98837996,0.6114761,197.35481,-123.37659,25.7295
527136024000.0,3.418573225648589,7.327442984648387,-2.804499575343568,0.43860126,-0.9795224,0.5580254,197.5484,-123.49899,25.89063
527141002000.0,3.348263255520547,7.391361078635114,-2.852438245947577,0.4596761,-0.9636399,0.5109888,197.71968,-123.58482,25.999378
527146095000.0,3.281444481456622,7.474830115908635,-3.046133680224404,0.47342056,-0.93767816,0.48197266,197.87962,-123.65874,26.099527
527151060000.0,3.2242830661590864,7.5843898890002,-3.4605545007012624,0.52198434,-0.883922,0.4550946,198.01984,-123.73216,26.191284
527155984000.0,3.2272611364615384,7.903886175384615,-3.781478219230769,0.5552765,-0.82558435,0.43401974,198.147,-123.7847,26.246508
527161078000.0,3.3315009646153846,8.591868753846153,-3.960770692307692,0.5928447,-0.7687739,0.41630468,198.2543,-123.84071,26.30041
527166127000.0,3.425811164095292,9.206863196256382,-4.1237429051786725,0.6377433,-0.70738196,0.41722095,198.38786,-123.930954,26.316597
527171007000.0,3.383397237833239,8.809233156551333,-4.062772993437323,0.67347896,-0.6414085,0.4728097,198.50555,-124.03307,26.349056
527176038000.0,3.339670913442995,8.399299400453772,-3.999916512705616,0.6927212,-0.6035349,0.47739118,198.57478,-124.0721,26.322487
527180995000.0,3.296587751049348,7.995395280204198,-3.937984575717527,0.72387534,-0.55741453,0.47861293,198.6268,-124.130844,26.318228
527186002000.0,3.317511626559201,7.706339544809057,-3.780605769334101,0.7620544,-0.49235737,0.5009095,198.66377,-124.19941,26.327206
527191037000.0,3.4007918406256,7.530525673671081,-3.5307652237574363,0.77121735,-0.42271876,0.47739118,198.67908,-124.25743,26.330017
527196013000.0,3.4686244239141546,7.368679928257537,-3.323072723474706,0.7528914,-0.35094208,0.45998153,198.71829,-124.386734,26.391434
527201032000.0,3.517746507920286,7.221313676239141,-3.1658820546550843,0.7128797,-0.3036,0.4804455,198.74496,-124.514244,26.460304
527205989000.0,3.5325704256248485,7.095482039796166,-3.0945799554962385,0.64934975,-0.267559,0.48166725,198.7311,-124.62746,26.566776
527210999000.0,3.509284927930114,6.990697138073283,-3.1178654126668284,0.59773165,-0.2510656,0.4804455,198.71146,-124.73726,26.67871
527216306000.0,3.49014644481944,6.881069733378332,-3.136771141849477,0.5516113,-0.25167647,0.5015204,198.68033,-124.84614,26.82402
527221114000.0,3.560076881943976,6.803369337833277,-3.062955684947688,0.50976706,-0.23060162,0.46853364,198.6319,-124.93243,26.95612
527226042000.0,3.631752671076612,6.723729664529193,-2.9872979121498484,0.4813618,-0.26236662,0.43493605,198.61885,-125.03261,27.086962
527231063000.0,3.683341385253456,6.607820197926267,-2.9910530377880185,0.44898596,-0.30665436,0.43890667,198.60464,-125.12424,27.217339
527236081000.0,3.722632317793965,6.472087773621228,-3.041059753798127,0.4092797,-0.35460728,0.42210788,198.59476,-125.19594,27.327074
527241515000.0,3.7707891775920297,6.32285625037994,-3.094080892164809,0.38331795,-0.3820962,0.37995818,198.5856,-125.27187,27.454205
527246093000.0,3.941066271918271,6.145175930167174,-3.1125892467747382,0.3827071,-0.42760566,0.3381139,198.5948,-125.34075,27.5673
527251086000.0,4.1267791447821685,5.951388722036474,-3.1327754011144884,0.38759398,-0.5204572,0.36010507,198.66386,-125.44884,27.695667
527256221000.0,4.155140731039307,5.813325376486222,-3.227078492565394,0.37018433,-0.4615087,0.3915646,198.6974,-125.544586,27.825802
527261087000.0,4.076918674975521,5.722066401832424,-3.3639668864806267,0.34605515,-0.4831944,0.3491095,198.77583,-125.62701,27.921398
527266108000.0,3.996204958679536,5.627900493131907,-3.505215679297804,0.35521814,-0.5021312,0.30787608,198.8745,-125.778564,28.090755
527271087000.0,3.997708975977795,5.582014420893263,-3.7067581496088815,0.38606682,-0.50854534,0.25625798,198.96948,-125.916214,28.243181
527276026000.0,4.029536508470015,5.554165091092607,-3.929551583278661,0.43035457,-0.52290064,0.25289822,199.0736,-126.05806,28.39268
527280992000.0,4.048365663671352,5.55375765562249,-4.111199905747992,0.45204028,-0.52473325,0.25259277,199.21141,-126.21495,28.50621
527286095000.0,4.040187969544847,5.611002453815261,-4.209333388052209,0.48655418,-0.52748215,0.22602014,199.34903,-126.372536,28.609108
527291499000.0,4.0318356,5.666440755584843,-4.303807450477759,0.51923543,-0.55741453,0.24556783,199.54326,-126.58065,28.716167
527296096000.0,4.0318356,5.593912440082372,-4.1660040069686985,0.5030475,-0.6921103,0.2779437,199.7663,-126.7804,28.80591
527301491000.0,4.0318356,5.508793827479408,-4.004279060757825,0.4196644,-0.57757306,0.25350907,199.92397,-126.96573,28.895952
527306065000.0,4.065542686437327,5.3887088958323455,-3.8881441759430606,0.39095375,-0.5739079,0.18448131,200.15062,-127.151855,28.953243
527311074000.0,4.130034205140372,5.217996313183076,-3.778129423345196,0.34880406,-0.6273586,0.14172074,200.35825,-127.319214,29.016615
527316377000.0,4.194181526169405,5.047207041719343,-3.65618511011378,0.30909783,-0.6750061,0.08827003,200.53598,-127.45579,29.076643
527321095000.0,4.1865652864053935,5.051015241129372,-3.461970876839444,0.26450464,-0.7254025,0.033292156,200.72249,-127.57237,29.118013
527326096000.0,4.178492201399073,5.05505186793089,-3.2561070827307206,0.24801129,-0.79809546,-0.04153884,200.9232,-127.69479,29.17378
527331070000.0,4.0522699403595785,5.196201117104085,-3.286288837845285,0.21380283,-0.890947,-0.060170226,201.14331,-127.805664,29.22132
527336107000.0,3.852896549287043,5.422157599228491,-3.459079033774196,0.16279559,-0.8738427,-0.1001819,201.3369,-127.887924,29.248892
527341119000.0,3.6545127025418473,5.646992597919681,-3.631011624998278,0.1301143,-0.88239485,-0.13500121,201.5217,-127.93441,29.271715
527346082000.0,3.387234223846438,5.972441813362865,-4.162181185898856,0.109650314,-0.8915578,-0.13805555,201.69908,-127.97276,29.295313
527351077000.0,3.0914588206072358,6.338850001485788,-4.833193794702843,0.087659165,-1.0051788,-0.13103059,201.90523,-128.00023,29.299719
527356063000.0,2.874325946797939,6.4517073438075085,-5.036131158805668,0.06811147,-0.87017757,-0.106595986,202.03249,-127.97362,29.234015
527361090000.0,2.719284441332352,6.35868254228929,-4.858941111336033,0.0693332,-0.7510588,-0.18325958,202.18196,-127.926346,29.130512
527366063000.0,2.562689150840257,6.342442894920695,-4.66317535867636,0.08827003,-0.70096785,-0.22571471,202.34955,-127.86859,28.914904
527371074000.0,2.399583229758308,6.451179986404834,-4.432108601661631,0.07849618,-0.68325275,-0.2507602,202.47935,-127.79437,28.698286
527375990000.0,2.2631884597944696,6.598223834092594,-4.219593407458417,0.048258353,-0.65148777,-0.2510656,202.56082,-127.689445,28.4731
527381081000.0,2.1960392539040154,6.877151520457676,-4.043972299565632,0.037873644,-0.6017023,-0.27855456,202.62157,-127.576706,28.24259
527386020000.0,2.1679008018154318,7.084971888149269,-3.899625342292822,0.01985312,-0.591623,-0.32528573,202.623,-127.38924,27.977266
527391146000.0,2.2050344453857798,7.188121070398386,-3.796476246209447,-0.016187929,-0.61300325,-0.36987892,202.61417,-127.19384,27.711548
527396418000.0,2.2420210656577213,7.268819135327761,-3.6890474685085786,-0.02687807,-0.60903263,-0.41263947,202.5336,-126.93021,27.416506
527401074000.0,2.2577147148614167,6.982409791553014,-3.5752684298460182,-0.020158553,-0.6753115,-0.4016439,202.48123,-126.669624,27.116982
527405970000.0,2.2742173150549934,6.681237079542455,-3.455624492283326,-0.043676864,-0.62888575,-0.5375614,202.3487,-126.34036,26.792677
527411097000.0,2.4392612475591657,6.550881353315629,-3.502977925876748,-0.009468411,-0.6377433,-0.63194007,202.25989,-126.03989,26.47152
527416126000.0,2.66120488727642,6.498216768163712,-3.61959235601031,-0.0061086523,-0.6591236,-0.7031059,202.14757,-125.71052,26.130404
527421108000.0,2.853639741560177,6.478754127369915,-3.735123385717865,0.005497787,-0.6441574,-0.7593055,202.0442,-125.41237,25.816177
527426057000.0,2.9090592825941703,6.621261725273532,-3.849921089100476,-0.002443461,-0.6291912,-0.79381937,201.94168,-125.1055,25.491108
527431009000.0,2.9645124180155347,6.763855708869958,-3.964788380907041,-0.0061086523,-0.6469063,-0.81336707,201.89401,-124.866196,25.212511
527436094000.0,3.031775809615074,6.879616209566758,-3.946071646513126,-0.013133603,-0.6627888,-0.82741696,201.83847,-124.62291,24.932907
527442026000.0,3.114121886535674,7.003135086100821,-3.872875218618135,-0.008552114,-0.7144069,-0.8585711,201.79414,-124.37779,24.641926
527445986000.0,3.1815458530127816,7.090165153499696,-3.774899866585514,0.009162978,-0.784351,-0.90224797,201.762,-124.137375,24.336964
527451065000.0,3.2999648658551437,7.213518493670115,-3.5232595286975044,0.024740042,-0.8509353,-0.93370754,201.74153,-123.89839,24.026562
527455975000.0,3.390835751681012,7.30366069606415,-3.305879566026632,-0.0061086523,-0.90316427,-0.96791595,201.71616,-123.63546,23.715187
527461088000.0,3.426858798300596,7.325274471374972,-3.143775498896491,-0.03268129,-0.9477574,-1.003957,201.70384,-123.37492,23.393852
527466013000.0,3.461557312793349,7.346093529345987,-2.987631839476201,-0.087964594,-1.0180069,-1.054048,201.67033,-123.06612,23.088343
527471017000.0,3.2373315634704767,7.350206618763988,-2.744029594422448,-0.13225232,-1.0690142,-1.0836749,201.6445,-122.75771,22.781162
527476039000.0,2.8233642304183166,7.341927278154588,-2.437693818970563,-0.15088372,-1.1933253,-1.1319333,201.65277,-122.43645,22.445028
527480990000.0,2.4531168258227,7.285385328366353,-2.1769283203744125,-0.17654006,-1.3487904,-1.185384,201.65298,-122.077156,22.120882
527486094000.0,2.186394091638684,7.080213997674614,-2.0333083503274008,-0.1863139,-1.464244,-1.2360858,201.67432,-121.71672,21.780931
527491044000.0,1.927719026158496,6.881233181270988,-1.894021741445601,-0.21685717,-1.568702,-1.284955,201.64345,-121.22505,21.34468
527496022000.0,1.8087527642072785,6.811365018858336,-1.8428326189218625,-0.27763826,-1.647809,-1.3735305,201.63075,-120.71893,20.881584
527501009000.0,1.7090641322533806,6.759353537063254,-1.8038240415191944,-0.31887165,-1.7171422,-1.4618006,201.64209,-120.21298,20.402933
527506060000.0,1.9126626633213288,6.866936159903962,-1.7596468736054425,-0.35185838,-1.7892243,-1.5241088,201.6501,-119.653404,19.868261
527511000000.0,2.257213054837935,7.048677158703481,-1.7142116436734691,-0.39614612,-1.8206838,-1.5735888,201.65977,-119.080956,19.319416
527516046000.0,2.725729146342528,7.533202083537011,-1.6670632579172486,-0.45081854,-1.7745636,-1.5989398,201.66685,-118.48968,18.751787
527521032000.0,3.7302455877706,9.40051871010824,-1.6170458350645949,-0.3912592,-1.7687603,-1.6035212,201.69212,-117.92126,18.178362
527526003000.0,4.731740018243714,11.262217657297484,-1.5671788858065645,-0.0842994,-1.7815884,-1.6267341,201.70723,-117.41896,17.71057
527531014000.0,4.135076015661393,13.622825090434503,-1.8958369771986183,0.56382865,-1.5607607,-1.6462818,201.65855,-117.01851,17.273897
527536016000.0,3.3155932656814717,16.04664741619147,-2.276723268066822,1.3185526,-1.2116512,-1.681712,201.57623,-116.71523,16.845503
527541029000.0,1.8803528076220504,17.739964855061434,-3.0645426584103515,1.851838,-0.8863655,-1.6328428,201.46593,-116.506744,16.562092
527546528000.0,-0.7421968251603785,18.34120340426226,-4.622039370240296,1.8500054,-0.64996064,-1.5671748,201.28897,-116.35172,16.302456
527551009000.0,-2.1564284752388536,17.401301212579618,-5.969224856528663,1.4031575,-0.3408628,-1.5436565,200.79092,-115.88124,15.695383
527555990000.0,-3.219850510539411,15.350416598825635,-7.521630938077229,0.8848383,0.11209377,-1.779145,200.19829,-115.39663,15.101537
527560993000.0,-3.2480253436370936,13.944711460056205,-8.439334504215175,0.64476824,0.38087448,-2.1200078,199.59125,-114.80594,14.060533
527566071000.0,-2.3616952007226013,13.093522055640303,-8.806361173022882,0.57451874,0.52626044,-2.5250115,198.89436,-114.15006,13.023653
527571083000.0,-1.3859195682952004,12.333442224066744,-9.020003056511268,0.66553766,0.4972443,-2.878397,198.27556,-113.699425,11.805643
527576040000.0,1.0681326918974714,12.762186908825049,-7.039611631515568,0.77182823,0.33353242,-3.029586,197.64456,-113.28238,10.574373
527580981000.0,3.5142638634956143,13.189547709186307,-5.065612432220884,1.0677924,-0.19883664,-3.2528574,197.20413,-113.153,9.423252
527586071000.0,4.619859553889914,13.24137718711562,-3.0446808245464325,1.2928963,-0.9682214,-3.3857207,196.86285,-113.0955,8.240087
527591079000.0,5.1729113041974175,13.145514488468637,-1.0610685801429884,1.2751812,-1.8026633,-3.5231652,196.65187,-113.10168,6.9606094
527596043000.0,5.599679994120468,12.955015318338768,0.687727929925187,0.9550878,-2.4226916,-3.6505308,196.63663,-112.92386,6.1234293
527601064000.0,5.203044447285632,12.111011994436984,0.9736745059850374,0.55955255,-2.5763242,-3.688099,196.71223,-112.746506,5.2519784
527606241000.0,4.7514233104809644,11.264045137239544,1.0798483705232649,0.21624629,-2.398257,-3.6318994,196.94325,-112.37387,4.4447646
527611040000.0,3.87659478190506,10.727627758577473,-0.839014111217296,0.005497787,-1.8664987,-3.4938438,197.13222,-111.95629,3.6876032
527619080000.0,2.172501652567237,9.934226597321144,-4.157306455107898,-0.11636983,-1.0781772,-3.3371568,197.23361,-111.51164,2.9512537
527621037000.0,0.8555741496332518,10.139436156904432,-5.356686743680238,0.05467244,-0.86009824,-3.3466253,197.35109,-111.113945,2.2178643
527626075000.0,-2.534656182396088,10.667717077282877,-8.44430958160944,0.11301007,-0.70707655,-3.4959817,197.18153,-110.89786,1.4291823
527631071000.0,-3.500167240844096,10.644220219903136,-9.465346246771215,0.2321288,-0.820392,-3.662137,197.02516,-110.77822,0.6411598
527636036000.0,-2.965571686704336,10.27959873841098,-9.207643738699264,0.20616703,-0.90285885,-3.7794232,196.81378,-110.6622,-0.14260682
527641054000.0,-2.4252694730742617,9.911085023581643,-8.947190327721401,0.11056661,-0.8127562,-3.8295143,196.46887,-111.00315,-1.4899584
527646062000.0,-1.847968170491174,9.352890674549116,-8.609852483288565,-0.0018325958,-0.6960809,-3.8817432,196.11804,-111.41278,-2.8463092
527651067000.0,-1.043278444282425,7.656144539428243,-7.809760884765924,-0.057421334,-0.6426302,-3.9950588,195.7403,-111.88854,-4.201843
527656165000.0,-0.1922675369561226,5.936099195355242,-7.073423668367909,-0.1142318,-0.679893,-4.129449,195.39844,-112.35512,-5.412225
527661985000.0,1.2044834199008627,4.083997293758032,-7.298541097411419,-0.17348573,-0.7696902,-4.258036,195.03732,-112.86434,-6.63073
527666010000.0,2.17044950260694,2.803119260436937,-7.4542279791812,-0.23518312,-0.8023715,-4.365854,194.69943,-113.38127,-7.7628164
527671021000.0,2.189433450901481,3.1092848517546683,-8.027048846265293,-0.28038713,-0.80970186,-4.4214425,194.36081,-113.93681,-8.907676
527676047000.0,2.0305913811976817,3.7020370276883448,-8.658542849323888,-0.33414328,-0.73364913,-4.488638,193.9858,-114.52706,-10.063781
527681022000.0,1.632576521562357,4.5148846706258565,-9.25778793855642,-0.33444872,-0.5879578,-4.4846673,193.61215,-115.18332,-11.0287695
527686012000.0,0.8539341404751029,5.68648682381605,-9.818119650906045,-0.2687807,-0.40469822,-4.3343945,193.20134,-115.85383,-11.948894
527691029000.0,0.0710786643398815,6.864428307294046,-10.381483218212272,-0.11056661,-0.11759156,-4.0955462,192.70418,-116.60869,-12.81032
527696187000.0,-1.2824894294632794,7.775009800039538,-10.387689718888998,0.13316862,0.23701571,-3.844786,192.1433,-117.38562,-13.586278
527700979000.0,-2.693226861492537,8.537080134328358,-10.233460925373134,0.38148534,0.41416663,-3.6807685,191.55717,-118.18277,-14.295568
527706037000.0,-3.180036017428704,9.02275942479984,-9.029450724872628,0.7431176,0.5564982,-3.5344663,190.87074,-119.09027,-14.996598
527710990000.0,-3.2961648098656786,9.383700328161185,-7.475835254284391,1.0216721,0.66889745,-3.4238997,190.1523,-120.00706,-15.628164
527716015000.0,-3.413981725269636,9.749888101105007,-5.899635427975914,1.237613,0.7443393,-3.2531629,189.38536,-121.006874,-16.389683
527721104000.0,-2.1946621408577465,10.371793298190834,-6.117463476444118,1.2666291,0.80481493,-3.0534098,188.60806,-121.98755,-17.077974
527726060000.0,-0.4947415790430707,11.073555433924144,-7.024087873174763,1.112691,0.88147855,-2.7947085,187.83662,-122.91842,-17.67168
527731951000.0,0.0968788456585962,11.139477081723625,-8.84669944095796,0.9016371,1.001819,-2.3704627,187.28702,-123.42085,-18.1504
527736072000.0,-0.1204412554881566,10.846267625557209,-10.450728722926318,0.5717699,0.88453287,-1.928807,186.82558,-123.80578,-18.570887
527741084000.0,-1.593048721228446,10.968149871237628,-12.402398615651464,0.3463606,0.2773328,-1.8597792,186.57985,-124.00905,-18.671707
527746123000.0,-6.531555287682889,12.460041423936334,-14.366969036424855,0.19792034,0.019547688,-2.2586741,186.27234,-124.15635,-18.75196
527751044000.0,-10.587163698295454,13.903121910984847,-15.97939015814394,0.37843102,-0.4184427,-2.485,186.00696,-124.6348,-18.93574
527756065000.0,-12.87302957869318,15.342033053977271,-16.88554039346591,0.8686504,-1.1148291,-2.2162192,185.89522,-125.125626,-19.167065
527761057000.0,-14.96158309094116,16.166060457245663,-17.164453731656554,1.010982,-1.2962561,-2.201253,185.41248,-126.07624,-20.114283
527766187000.0,-16.264850289332582,14.235422561803302,-14.602978751763793,1.0238101,-1.6517797,-2.3741279,185.17949,-127.0598,-21.125143
527771478000.0,-17.609019245802173,12.244193496542966,-11.961114401157047,1.0323622,-2.627026,-2.6459627,185.13501,-128.11623,-22.441654
527776007000.0,-17.735579739315796,10.061369691223874,-9.97994702308412,0.75747293,-2.9599476,-2.7818804,185.02167,-129.07542,-23.664492
527781041000.0,-15.966004420401372,6.742789858947697,-8.300604989497764,0.5867361,-3.2403347,-2.9816332,185.10315,-130.08899,-25.052103
527786041000.0,-13.893886774882752,3.956112901716172,-6.981660157721035,0.3454443,-3.2494977,-3.0763173,185.14926,-131.13258,-26.81897
527791132000.0,-11.344744282438771,1.830416089636964,-6.126300086069133,0.1386664,-3.0454686,-3.0531044,185.21202,-132.1605,-28.557034
527796036000.0,-8.934429446556612,-0.0559229945889611,-5.39473486001334,-0.02565634,-2.761111,-2.9452868,185.19812,-133.23053,-30.275213
527801804000.0,-6.488880162581291,-0.8849228169134566,-5.330257237868935,-0.10140363,-2.5625796,-2.787378,185.16495,-134.27354,-31.931982
527805976000.0,-4.720011991162248,-1.4845391932549608,-5.283620511172253,-0.19120082,-2.3588562,-2.5631905,185.07794,-135.23827,-33.362015
527811071000.0,-2.784960932194885,-2.1143087402719325,-5.222227593234056,-0.31856623,-2.1621575,-2.3970351,184.94084,-136.17743,-34.73455
527816134000.0,-0.9523612629669796,-2.6990140239074134,-5.159440246827452,-0.36896262,-1.8753563,-2.417194,184.71068,-137.12103,-36.048504
527821053000.0,0.7332006207817782,-2.4141180865540046,-4.653556684191036,-0.20708331,-1.6636915,-2.4529295,184.49248,-137.97346,-37.10952
527826061000.0,2.167439032561352,0.4085474664217483,-2.817590726889052,-0.02565634,-1.6639969,-2.459038,184.23366,-138.82922,-38.156647
527831035000.0,3.5919402027274066,3.2120495551800143,-0.9940893946965464,-0.027183503,-1.8664987,-2.4104743,183.99718,-139.57019,-39.01426
527836071000.0,4.023025104,5.470655,-0.2601060764,-0.14844026,-2.1881194,-2.3209825,183.78131,-140.3201,-39.881847
527841147000.0,3.550044612972973,7.22681381081081,-0.5184935045405406,-0.2556471,-2.4611762,-2.1966715,183.60747,-141.05917,-40.75356
527845996000.0,2.757142241636856,8.653042707890595,-0.9364541900137742,-0.36010507,-2.543032,-2.0503693,184.19998,-141.07564,-41.198055
527851064000.0,1.1240197163283154,9.550782264364424,-1.7768915897382922,-0.44868052,-2.5082128,-1.8515326,184.89468,-141.02928,-41.609745
527855998000.0,-0.5789473586911282,10.101868084374722,-2.534987559461136,-0.5693264,-2.3383923,-1.6157386,185.78412,-140.73587,-41.825714
527861060000.0,-2.641283716355402,9.76673882974386,-3.145095349658779,-0.7293731,-2.0247128,-1.3900238,186.66081,-140.37389,-41.949287
527866125000.0,-4.710136420699195,9.388226572887325,-3.772023780155936,-0.8915578,-1.8240436,-1.1844677,187.51355,-139.98706,-42.050667
527871546000.0,-7.086567159356137,7.660308909859155,-4.94718182474849,-1.0137309,-1.4001031,-1.119716,188.19559,-139.5689,-42.040245
527876022000.0,-9.048733546780683,6.233605449295775,-5.917483873742455,-1.0760391,-1.2470814,-1.1191051,188.72247,-139.3317,-42.24226
527881151000.0,-10.810757769993987,4.443983998256163,-6.742918488875526,-1.0714576,-0.9569204,-1.1969905,189.04123,-139.10991,-42.366158
527886069000.0,-12.23492687823211,2.6435425587406582,-7.378130300833262,-1.0085385,-0.7593055,-1.3710871,189.30853,-138.9302,-42.503902
527891018000.0,-13.26547276323841,1.2161972949505766,-7.828743787557857,-0.8897252,-0.5983425,-1.5357152,189.07098,-139.38715,-43.109634
527896130000.0,-13.369170326900448,0.6593045461795717,-7.844106416317565,-0.74128497,-0.4810564,-1.6581937,188.7567,-139.88428,-43.718834
527900978000.0,-13.467512617321724,0.1311715168286655,-7.85867566988311,-0.5357288,-0.4709771,-1.7012597,188.0645,-140.87221,-44.719303
527906067000.0,-13.16803123945495,0.3133293996737349,-7.478411349414377,-0.32162055,-0.47342056,-1.6218473,187.33316,-141.8553,-45.680195
527911028000.0,-12.742498739569776,0.7352250255121335,-6.9765010207456175,-0.11484267,-0.48472157,-1.4892895,186.60011,-142.83522,-46.612568
527916055000.0,-12.349075441493904,1.164147551207392,-6.419087653622175,0.08979719,-0.52503866,-1.3466524,185.81812,-143.89288,-47.588108
527921094000.0,-12.180460461837098,1.602545794052333,-5.568520182157,0.26267207,-0.65301496,-1.2131784,185.09299,-144.91257,-48.520077
527926061000.0,-12.014254745632424,2.0346799619846263,-4.730106085953878,0.41172317,-0.86193085,-1.1120802,184.5976,-145.76758,-49.33872
527931030000.0,-11.78777926352724,2.3688421701754385,-4.212525211486611,0.5699373,-1.1835514,-1.0186177,184.21835,-146.59286,-50.144497
527936047000.0,-11.512718879963066,2.6305931429824563,-3.937464735272392,0.61819565,-1.459357,-0.93492925,183.92018,-147.38167,-50.93612
527941056000.0,-11.06439441752674,2.736179344361044,-3.7008741652842936,0.52564955,-1.5143349,-0.8848383,183.9075,-148.01813,-51.694115
527946085000.0,-10.354936901013325,2.6096519126290114,-3.5201207318258585,0.54275376,-1.4789047,-0.8503244,183.98329,-148.64279,-52.449703
527951038000.0,-9.511247426255649,2.51983517770396,-3.097342402843476,0.66431594,-1.5106697,-0.83169305,184.22253,-149.17764,-53.16028
527956073000.0,-8.255471862875366,2.5241065650279038,-1.9953351997918327,0.7965683,-1.5827519,-0.7635816,184.48729,-149.68417,-53.839268
527961556000.0,-7.0077321985932,2.5240331191090277,-0.8688712319460727,0.8863655,-1.5845845,-0.68019843,184.78825,-150.14056,-54.45097
527966099000.0,-6.834314579914029,2.490029678389996,-0.4642300033411489,0.9379836,-1.5803084,-0.64568454,185.12259,-150.59431,-55.058628
527971018000.0,-6.646544105275498,2.4532119533411487,-0.0260987677022275,0.929126,-1.5143349,-0.6032294,185.76314,-150.83931,-55.558464
527976022000.0,-6.58694341778818,2.4116070315974256,0.3665804401287302,0.82711154,-1.4996742,-0.6215554,186.41216,-151.0877,-56.062805
527981024000.0,-6.689720029842013,2.364890478447435,0.6935965609615761,0.61361414,-1.5635096,-0.6957755,187.05983,-151.32925,-56.56363
527986016000.0,-6.845967473750249,2.421627573192591,0.8434838211551484,0.37782016,-1.6410894,-0.80664754,187.80038,-151.5665,-57.09434
527991108000.0,-7.088773170583549,2.640152563433579,0.7220809676677953,0.14935656,-1.7308867,-0.9431759,188.55386,-151.81615,-57.650887
527996087000.0,-7.342660544384151,2.887740032507423,0.4603348840176103,-0.03970624,-1.8237382,-1.0729848,189.37057,-152.11717,-58.282726
528001108000.0,-7.623284270369612,3.188056956383741,-0.0172180448551244,-0.1994475,-1.9333885,-1.1765264,190.23001,-152.43628,-58.944275
528006003000.0,-7.954076372781064,3.3185619974358973,-0.4739480642998027,-0.31612277,-2.0167716,-1.2437216,191.15079,-152.7525,-59.605633
528011062000.0,-8.371066965034965,3.2403762727272727,-0.9343749384615384,-0.3313944,-2.107485,-1.2675453,192.13881,-153.08595,-60.280838
528016071000.0,-8.86402488435441,3.135161600068837,-1.3432534049562397,-0.26389378,-2.159714,-1.2599095,193.17441,-153.37077,-60.88795
528021295000.0,-9.685627699183794,2.9186912460123904,-1.5892423128921231,-0.15118915,-2.1313088,-1.2104294,194.22691,-153.65935,-61.474247
528026067000.0,-10.445159442379182,2.6814773687918216,-1.7469599196096657,0.007941248,-2.0094411,-1.1050552,195.15805,-154.0109,-62.061863
528031054000.0,-11.27961987732342,2.2553700132342005,-1.6093627498141263,0.21899518,-1.8139644,-0.9816604,196.05612,-154.35066,-62.605022
528036435000.0,-12.180049353128991,1.7704181265325671,-1.4582285581577266,0.4279111,-1.5632042,-0.8228355,196.81523,-154.76112,-63.176052
528041061000.0,-12.9544907899106,1.144499500670498,-1.306169264766922,0.61300325,-1.323745,-0.66431594,197.49913,-155.13832,-63.68172
528046018000.0,-13.784345135376755,0.4737950846743295,-1.1432298100893998,0.75319684,-1.0931433,-0.5143485,198.05733,-155.62054,-64.27162
528051129000.0,-14.653006995347392,-0.4593421395471463,-1.1212092423387097,0.8371908,-0.9089675,-0.38148534,198.53394,-156.05556,-64.78975
528056956000.0,-15.656926438585607,-1.7748222720223326,-1.2481415088709678,0.872621,-0.73364913,-0.25900686,198.90424,-156.44287,-65.2366
528061005000.0,-15.986988106557378,-2.561921584021331,-1.3851972437586413,0.874759,-0.6603453,-0.20219639,199.20189,-157.01588,-65.87299
528066060000.0,-16.211687,-3.479842390361446,-1.58121158313253,0.8539896,-0.56107974,-0.09682214,199.41467,-157.52039,-66.424286
528071044000.0,-16.171387309297522,-4.148918146446281,-1.7573875885123966,0.82527894,-0.52320606,0.00580322,199.49875,-158.21916,-67.16616
528076170000.0,-15.917820028615704,-4.645910959173554,-1.924742274421488,0.8042041,-0.52656585,0.106595986,199.5845,-158.85764,-67.844444
528081036000.0,-14.921502583486802,-4.555153313996317,-1.843435339011664,0.7672467,-0.5821546,0.18081611,199.57196,-159.6,-68.62162
528086033000.0,-13.456319452578269,-4.132857350138122,-1.6194348828959484,0.7443393,-0.68477994,0.23732115,199.6395,-160.28593,-69.348114
528091164000.0,-11.95976562104303,-3.681559217405301,-1.3974080135958793,0.7510588,-0.8194757,0.27275133,199.7226,-160.98683,-70.08967
528096100000.0,-10.71191764894302,-2.8192253455306364,-1.3771178702757807,0.77946407,-0.95233893,0.32406402,199.93166,-161.63963,-70.79265
528101104000.0,-9.55170626112622,-2.0140526970949124,-1.3625013566690989,0.8185594,-1.035722,0.39828414,200.41998,-162.08984,-71.30435
528106081000.0,-8.932080489553625,-1.5651400721761624,-1.3783080934403396,0.8671232,-1.1053606,0.49235737,201.05232,-162.51259,-71.796364
528111075000.0,-8.310338254626252,-1.1146940908934138,-1.394168821476421,0.9016371,-1.1695015,0.5849035,201.89941,-162.73555,-72.08939
528116091000.0,-7.636202600347599,-0.6622928015801289,-1.4783768879354044,0.9477574,-1.1887437,0.6563747,202.79797,-162.93785,-72.35947
528121153000.0,-6.660257358201173,-0.2059155649894997,-1.9698601007676155,0.9663888,-1.1081096,0.7067711,203.6891,-163.11887,-72.602585
528126979000.0,-5.537014177492939,0.3193419973133462,-2.535522131182562,0.9049969,-0.95081174,0.73639804,204.60861,-163.13571,-72.67198
528131054000.0,-4.9820262507462685,0.4992231906865671,-2.728989692537313,0.80664754,-0.7800749,0.74128497,205.43454,-163.14627,-72.72636
528136024000.0,-4.633285104658525,0.4518632671949344,-2.677324395838987,0.71685034,-0.6429357,0.7507534,206.14012,-163.14757,-72.76259
528141045000.0,-4.323222534184915,0.3911791483373885,-2.575717456305758,0.6606508,-0.56779927,0.7675522,206.49876,-162.97699,-72.59422
528146037000.0,-4.231135923965937,0.2651660882887267,-2.2219114806366584,0.6365216,-0.57971114,0.7819075,206.79686,-162.80507,-72.42182
528151087000.0,-4.17457702127207,0.148616725796639,-1.8686375337162304,0.63499445,-0.6383542,0.8017606,207.08669,-162.61841,-72.234
528155929000.0,-4.263353613231227,0.0795683741055094,-1.5480559339714954,0.61269784,-0.6606508,0.84788096,207.34819,-162.42093,-72.0342
528160927000.0,-4.3584262151298905,0.0320314697001282,-1.270209292691629,0.5885687,-0.7165449,0.8750645,207.83025,-162.24562,-71.87313
528165959000.0,-4.462751251371071,0.0436231529457985,-1.123381265911642,0.5458081,-0.7672467,0.9859365,208.33363,-162.03426,-71.67723
528170928000.0,-4.5657701514271976,0.055069709791533,-0.9783915073524696,0.3915646,-0.8142834,1.1588113,209.03395,-161.81387,-71.48826
528175897000.0,-5.383197875412263,-0.0101913043255813,-1.5012596053541225,0.06261369,-0.58276546,1.2311989,209.51138,-161.58948,-71.285164
528180897000.0,-6.395545338414377,-0.0962408392093023,-2.204841079984144,-0.15057829,-0.23151793,1.2846496,209.9273,-161.32399,-71.03707
528185898000.0,-8.64057749041868,-0.3941372513204508,-2.779278765217392,-0.2434298,0.11178834,1.3909402,210.25626,-161.02704,-70.756424
528190910000.0,-11.036660688446055,-0.7178016889452495,-3.3396530521739125,-0.28130344,0.41538838,1.4080443,210.2995,-160.74246,-70.47523
528195931000.0,-12.164698749803382,-1.478272241299646,-2.602986789018875,-0.23365596,0.47983465,1.3652838,209.97415,-160.5149,-70.22848
528200880000.0,-13.152495698977583,-2.27037365475816,-1.7503129628981515,-0.17379116,0.25870144,1.3787229,209.65556,-160.27016,-69.964134
528205911000.0,-13.419954727883132,-3.0026153192269307,-2.0750292058343165,-0.20005837,-0.11056661,1.3845261,209.20435,-160.24268,-69.912964
528210875000.0,-13.575241313492423,-3.71434554080392,-2.5710836490971785,-0.21410827,-0.39614612,1.2901474,208.86943,-160.23907,-69.89116
528215967000.0,-13.587604276752767,-3.469568255514555,-2.762411994300943,0.03023783,-0.6068946,1.0809261,209.13269,-160.49625,-70.176926
528220973000.0,-13.52863599815498,-2.7570305532595327,-2.796810336408364,0.516792,-0.958753,0.86009824,209.74687,-160.77454,-70.49846
528225976000.0,-13.146699253349698,-1.9419317985987523,-2.665996089454843,0.98349303,-1.3704761,0.6759224,210.31183,-161.23041,-70.989105
528230973000.0,-12.647441352664416,-1.0902572964426716,-2.475103585199959,1.3020593,-1.6349808,0.50243664,211.05627,-161.73068,-71.525566
528235989000.0,-12.461992061160926,-0.3078335657517697,-2.270307960528551,1.425454,-1.6734654,0.35705075,211.98763,-162.13223,-71.9617
528240999000.0,-12.366893324020763,0.452959906225578,-2.0619954232940065,1.3933836,-1.5317446,0.24770586,213.0011,-162.55844,-72.42038
528245960000.0,-12.39770673909782,1.2579995271754352,-1.5085778996179235,1.3066407,-1.349096,0.19181168,214.13779,-162.82628,-72.718155
528250972000.0,-12.493723535057011,2.09814933669734,-0.7692461093478695,1.2458596,-1.1982121,0.18112154,215.17226,-163.10222,-73.01731
528255970000.0,-12.480847231308834,2.701088662255612,-0.1180041395564807,1.2250903,-1.1395692,0.19181168,216.26552,-163.23064,-73.166855
528260961000.0,-12.411625341057205,3.1813167371469957,0.4876889925850832,1.2305881,-1.0348058,0.2452624,217.16116,-163.34393,-73.29413
528266075000.0,-12.300953006656313,3.4376804986021745,1.0853154642866651,1.2305881,-0.9230174,0.32528573,218.4434,-163.29077,-73.26099
528271026000.0,-12.148409038606612,3.4166400118926115,1.637628646862658,1.1389582,-0.8390234,0.3924809,219.6086,-163.22513,-73.209175
528275978000.0,-11.998230765461464,3.182365596431969,2.115102916079924,0.98746365,-0.7654142,0.41538838,221.08264,-163.02464,-73.02102
528281065000.0,-11.845265014272124,2.8254459459372026,2.5647289548430066,0.8240572,-0.7156286,0.41263947,222.40594,-17.179468,-72.82053
528286002000.0,-11.566594623265644,2.505013876688413,2.9468070577046768,0.6404922,-0.68783426,0.40561453,223.94261,-17.410818,-72.58293
528291092000.0,-11.17243462050905,2.1959565879812555,3.2961761361756867,0.44501534,-0.6533204,0.37782016,225.31355,-17.621649,-72.35511
528295969000.0,-10.74819576247631,1.9242635917561592,3.4016115053695515,0.25961772,-0.5699373,0.35063666,226.8339,-17.783457,-72.15869
528301017000.0,-10.229027723731312,1.6850390418298589,3.116577976458202,0.10140363,-0.44440445,0.3191771,228.17911,-17.920177,-71.9758
528306063000.0,-9.860312526037951,1.670542707996861,2.5191011244357253,0.05009095,-0.29840767,0.310625,229.55794,-18.007828,-71.82416
528311039000.0,-9.656342672421172,1.8949097244614064,1.597836667948352,0.069027774,-0.19394971,0.31031954,230.78322,-18.075336,-71.68396
528316032000.0,-9.45167597645884,2.120043268112427,0.6734248047567415,0.1469131,-0.12339478,0.32284227,231.79398,-18.144905,-71.54219
528321243000.0,-9.540546366945724,2.3871832451321606,0.0241253236478223,0.26542094,-0.08399397,0.3494149,232.68738,-18.209375,-71.404884
528326069000.0,-9.74922331511617,2.6480297481140065,-0.445398563301665,0.4266894,-0.051923547,0.3915646,233.47678,-18.275585,-71.26812
528331012000.0,-10.003879479591838,2.8765479330778843,-0.8436692284714702,0.57848936,-0.018020526,0.44776422,233.55661,-18.404116,-71.1332
528336058000.0,-10.29773174489796,3.07781645939192,-1.1818002803831738,0.7464773,0.02076942,0.5122105,233.5921,-18.548595,-70.98888
528341061000.0,-10.574900277344955,3.259671161323665,-1.469248628077754,0.89552844,0.06414085,0.5714644,233.34035,-18.754797,-70.81011
528346192000.0,-10.779581226319037,3.346850112619562,-1.495781328293737,1.0238101,0.116675265,0.61666846,233.04886,-18.974707,-70.62233
528351169000.0,-10.978118954450784,3.431412506032089,-1.5215176855291577,1.1157454,0.13408493,0.65179324,232.57571,-19.240147,-70.4044
528356011000.0,-11.050294558796791,3.468987488240641,-1.1589122646128418,1.17897,0.18142697,0.6646214,232.05322,-19.508003,-70.18605
528361064000.0,-11.030299694570695,3.4729864610858607,-0.4750874571060242,1.1908818,0.21838433,0.6737844,231.5443,-19.779459,-69.96055
528366041000.0,-10.977164717505197,3.470353588158004,0.1338371747592515,1.1756102,0.23396139,0.68233645,231.02502,-20.054146,-69.72981
528371671000.0,-10.681235530810811,3.4210320726486487,0.3669935984432433,1.1172725,0.24220806,0.65270954,230.511,-20.31337,-69.51018
528376017000.0,-10.452797121330562,3.3829590164490644,0.5469754487683992,0.9306532,0.25778514,0.6383542,230.33847,-20.568125,-69.27082
528381730000.0,-10.157600452792035,3.38724312148079,0.5709245631917872,0.86437434,0.27916542,0.61422503,230.16661,-20.807156,-69.04741
528386020000.0,-9.937128217607714,3.4032193510654847,0.5389720706579562,0.70952,0.2959642,0.59773165,229.99352,-21.035572,-68.83065
528391045000.0,-9.69102457598282,3.422119385199868,0.4749369891795507,0.5910121,0.32589662,0.61269784,229.90947,-21.273949,-68.59849
528396099000.0,-9.507141289230262,3.442106644532541,0.2710668079106376,0.47586402,0.3576616,0.61208695,229.81517,-21.496155,-68.381096
528401104000.0,-9.325040804426823,3.4619001215725143,0.0691732073465477,0.3885103,0.4092797,0.63591075,229.67168,-21.75302,-68.13007
528406025000.0,-9.255169298455057,3.508063655758427,-0.2559105654775281,0.32711834,0.47403142,0.6719518,229.49725,-22.00645,-67.88256
528411042000.0,-9.221428642478152,3.5642982911672907,-0.6308078728501872,0.26145032,0.52015173,0.7141015,229.3013,-22.261616,-67.63301
528416171000.0,-9.177497111483776,3.6337526623113376,-0.9131127280816624,0.19700404,0.52870387,0.72112644,229.00851,-22.530966,-67.37344
528421083000.0,-9.098609281224936,3.746939826379876,-0.7896358247553773,0.15668693,0.5326745,0.73426,228.69417,-22.807884,-67.10621
528426044000.0,-9.01893449989063,3.861256096930368,-0.6649271689325555,0.10598512,0.15210545,0.6930266,228.48976,-23.0827,-66.83876
528430996000.0,-9.04729863736702,3.912084847659574,-0.7576298531702128,-0.018936822,0.1695151,0.70066243,228.00682,-23.3688,-66.56691
528436077000.0,-9.224164959131205,3.8775744073758864,-1.1501863636453902,-0.01038471,0.35063666,0.70249504,227.69408,-23.637075,-66.30785
528441062000.0,-9.374332871465052,3.85644873148586,-1.475109905807245,0.02321288,0.45204028,0.6747007,227.51106,-23.929537,-66.01967
528446043000.0,-9.419449481462216,3.8925422079258487,-1.5292501675777923,0.014966198,0.48899764,0.62949663,227.25537,-24.210972,-65.74397
528451958000.0,-9.446761527104137,3.975221847146933,-1.5684104398002854,0.018325957,0.50732356,0.5983425,226.80444,-24.468512,-65.497734
528456032000.0,-9.3966696339515,4.136628583794579,-1.5294502140656203,0.04642576,0.4810564,0.57360244,226.37772,-24.710154,-65.26553
528460975000.0,-9.3358929457204,4.332464003345221,-1.4821796210841656,0.062308256,0.44623706,0.5305365,225.94167,-24.937037,-65.046814
528466043000.0,-9.276970617800607,4.50909701347255,-1.4314778668659482,0.08552113,0.40653083,0.4728097,225.5437,-25.14828,-64.84181
528471035000.0,-9.22866431668912,4.613761380464803,-1.3751201792943752,0.118202426,0.37751472,0.4129449,225.17705,-25.342468,-64.652176
528476417000.0,-9.1765840858033,4.726602651128326,-1.314359547381273,0.12308934,0.31245756,0.34422258,224.90779,-25.57139,-64.42586
528481004000.0,-9.257814558218907,4.794200239011032,-1.5517353867291055,0.12156218,0.24007004,0.28069258,224.67412,-25.780079,-64.21882
528485981000.0,-9.352392964441623,4.866079867243432,-1.8241213546630688,0.12675454,0.2864958,0.22876903,224.41464,-25.9683,-64.031555
528491086000.0,-9.42023617420933,4.900431895727765,-1.9968763170015729,0.1518,0.40286562,0.22204952,224.19058,-153.82468,-63.824635
528496044000.0,-9.436829836973615,4.867245219945833,-1.9844313298270135,0.16676621,0.42149702,0.20005837,224.00699,-153.6409,-63.640354
528501140000.0,-9.44914232684786,4.835382746364457,-1.9696555457426537,0.15821409,0.43310347,0.16982053,223.6535,-153.45398,-63.45117
528506077000.0,-9.41594940677966,4.82589916101695,-1.9364628237288133,0.13958271,0.42210788,0.1414153,223.31615,-153.27675,-63.270065
528511058000.0,-9.369974339726028,4.815113685753425,-1.9112683079452053,0.12767084,0.40561453,0.11728613,222.98853,-153.11925,-63.10724
528516070000.0,-9.186560795962508,4.790889247945206,-1.9770203276135545,0.13347405,0.40194935,0.08552113,222.67097,-152.97527,-62.95653
528521260000.0,-8.996633363374189,4.765804484931507,-2.045107514780101,0.1328632,0.3930918,0.051923547,222.38733,-152.8406,-62.81453
528525970000.0,-8.828200618492296,4.75883147513536,-2.09211159516868,0.121256754,0.3643811,0.023823744,222.12752,-152.71608,-62.68201
528531005000.0,-8.65749555966264,4.788955863359017,-2.107173815493544,0.12889257,0.33567044,-0.0076358155,221.88118,-152.60464,-62.56171
528535971000.0,-8.513683775050389,4.821638893535848,-2.125435587964296,0.13408493,0.3005457,-0.03359759,221.63673,-152.48518,-62.432045
528541070000.0,-8.408229686726173,4.860305331413763,-2.150041456262597,0.13958271,0.27000242,-0.04917465,221.41463,-152.37383,-62.309994
528546057000.0,-8.305091907068817,4.8981224574575295,-2.1741068544198097,0.16157386,0.24037547,-0.05955936,221.22124,-152.2505,-62.17548
528551131000.0,-8.211736701871,4.921743180452979,-2.210035602904973,0.1563815,0.23365596,-0.074830994,221.03825,-152.13472,-62.048244
528556063000.0,-8.128015334071886,4.935696685091088,-2.2518962139537173,0.13713925,0.20250183,-0.079107046,220.89407,-152.02061,-61.923256
528561061000.0,-8.06826420557561,4.928635305749432,-2.288270292806525,0.13500121,0.204029,-0.08277224,220.73093,-151.89085,-61.78068
528566071000.0,-8.026564948656237,4.906181877751036,-2.3203467189998666,0.11209377,0.20861048,-0.08582657,220.58977,-151.7636,-61.641323
528571372000.0,-7.98244363908945,4.882424268605429,-2.3542862669541385,0.087659165,0.21777347,-0.10293079,220.43576,-151.6321,-61.496307
528576026000.0,-7.970809393047291,4.886220059755716,-2.3189700216724085,0.07360926,0.23273966,-0.11148291,220.28117,-151.50087,-61.351025
528581057000.0,-7.975839342624491,4.906339490416536,-2.2384924040714065,0.06047566,0.23457226,-0.09987647,220.13446,-151.37039,-61.20653
528586033000.0,-7.97748,4.936094220250522,-2.20354530605428,0.04520403,0.2284636,-0.09193522,219.97023,-151.24437,-61.06503
528591457000.0,-7.97748,4.973813741281655,-2.1894004672052283,0.006414085,0.2312125,-0.09682214,219.80534,-151.1199,-60.92497
528596033000.0,-7.98463087941587,5.008585552378396,-2.166826382390207,-0.019242255,0.23335053,-0.079107046,219.67299,-150.9847,-60.776176
528601059000.0,-8.000135762912057,5.0499324300547626,-2.130647817201761,-0.03604105,0.2406809,-0.06505715,219.53995,-150.85342,-60.63139
528606034000.0,-8.01451825,5.0661306,-2.124782584935065,-0.061086524,0.24190263,-0.054061573,219.42442,-150.71082,-60.476624
528611041000.0,-8.028357041666666,5.0661306,-2.1386212682251085,-0.07666359,0.2434298,-0.03634648,219.30992,-150.5646,-60.31805
528616093000.0,-8.042320208333333,5.0661306,-2.1525843255411257,-0.08307768,0.25686884,-0.0143553335,219.2007,-150.41145,-60.15322
528621022000.0,-8.104758661290322,5.062114606451613,-2.2190387967741936,-0.112704635,0.26847526,0.0018325958,219.09592,-150.25697,-59.98781
528625982000.0,-8.17703639713938,5.057296191357273,-2.296134998032055,-0.124005646,0.29016098,0.021685716,218.98308,-150.09834,-59.817123
528631070000.0,-8.218383691001216,5.033054120405351,-2.3717956624321035,-0.13133603,0.29443705,0.02565634,218.86981,-149.94284,-59.649868
528635964000.0,-8.252580788771787,5.006456430595866,-2.4439893635751924,-0.14630222,0.29840767,0.03970624,218.75066,-149.78148,-59.476368
528641086000.0,-8.244873079600717,4.9895163,-2.5227339932770243,-0.16310102,0.30451632,0.041233405,218.59474,-149.63605,-59.315903
528646103000.0,-8.171087096237523,4.9895163,-2.604718262289907,-0.16187929,0.30482176,0.05589417,218.44682,-149.48582,-59.15063
528651086000.0,-8.099443019657686,4.99043811125233,-2.6803537329266227,-0.13713925,0.30390546,0.06352998,218.26471,-149.35153,-58.997635
528656019000.0,-8.055411125190647,5.006449713040163,-2.6603391784443318,-0.12156218,0.30604348,0.06780604,218.08751,-149.21638,-58.84375
528660997000.0,-8.010977561303168,5.02260737647009,-2.640142046432808,-0.09773844,0.31795537,0.0720821,217.88214,-149.07451,-58.678185
528666127000.0,-7.999726176643138,4.9999884705564215,-2.590323073746448,-0.0720821,0.30695978,0.08368854,217.69568,-148.93236,-58.5126
528671170000.0,-8.004153190072417,4.960144147767898,-2.5283428054817123,-0.05009095,0.3051272,0.1001819,217.50514,-148.7907,-58.34585
528676021000.0,-8.04383650726979,4.902829965912763,-2.4854365904684976,-0.043066,0.29871312,0.112704635,217.34062,-148.64081,-58.17199
528681161000.0,-8.120949843540412,4.82330684102903,-2.456519152273952,-0.038179077,0.2941316,0.11911872,217.18283,-148.49126,-57.99778
528686008000.0,-8.193667419591717,4.748316843692172,-2.4292501205757087,-0.056199603,0.2941316,0.12217305,217.04022,-148.35136,-57.835674
528691065000.0,-8.269535540510109,4.670077847089636,-2.4007996371224363,-0.05222898,0.2932153,0.1282817,216.90616,-148.21213,-57.673645
528696051000.0,-8.338797471565732,4.60693370310192,-2.3808922406203843,-0.06536258,0.29352075,0.1337795,216.77615,-148.07372,-57.513405
528701088000.0,-8.40114429689808,4.562400522156573,-2.371985604431315,-0.076358154,0.29016098,0.13836098,216.65338,-147.93655,-57.35446
528706800000.0,-8.461082686157255,4.5312633686157255,-2.3640375313842745,-0.09590584,0.28619036,0.14202617,216.5263,-147.84262,-57.241657
528711065000.0,-8.491237763307494,4.534278876330749,-2.3610220236692507,-0.112704635,0.28527406,0.1554652,216.40451,-147.74603,-57.126617
528716077000.0,-8.526674397932817,4.537822539793281,-2.357478360206718,-0.11759156,0.29626966,0.15790866,216.27042,-147.66867,-57.030903
528721087000.0,-8.550892591828138,4.556167687847514,-2.3614817390058973,-0.1133155,0.29565877,0.16157386,216.14775,-147.58841,-56.93336
528726167000.0,-8.566262052653748,4.586906983972199,-2.3717281888795285,-0.11026118,0.28619036,0.17501289,216.02869,-147.50598,-56.83391
528731064000.0,-8.533905451656423,4.536194816541748,-2.480057814832859,-0.13194689,0.29168814,0.17592919,215.89783,-147.43103,-56.742275
528736058000.0,-8.476551184530056,4.442993683293359,-2.6413675707465147,-0.15088372,0.3100141,0.17745635,215.76997,-147.3538,-56.648155
528741449000.0,-8.412507485566767,4.347429782985215,-2.8057840403426426,-0.16187929,0.3381139,0.16584991,215.62541,-147.281,-56.557068
528746101000.0,-8.325377195963389,4.340459425322695,-2.8022988433153406,-0.16707164,0.35888332,0.14569137,215.47821,-147.21123,-56.469
528751096000.0,-8.231822639521239,4.332975131142924,-2.7985566766877885,-0.16218472,0.35979962,0.13713925,215.26953,-147.15186,-56.380928
528756017000.0,-8.134563384458204,4.355134517832817,-2.7840992414860684,-0.1563815,0.35094208,0.12797627,215.05864,-147.09932,-56.299217
528761070000.0,-8.027549605077398,4.4193426603095975,-2.75413546550199,-0.13072516,0.33353242,0.12339478,214.85666,-147.0498,-56.220093
528766046000.0,-7.938602810412036,4.479207446465095,-2.7248308297391435,-0.109650314,0.31764993,0.10598512,214.65677,-146.9993,-56.13921
528770990000.0,-7.935094050607677,4.521313003779458,-2.696760421557729,-0.10323623,0.2929099,0.10903945,214.47693,-146.9456,-56.05645
528776937000.0,-7.930873461093819,4.571960606803024,-2.662995308803913,-0.08582657,0.26053402,0.100792766,214.32312,-146.87862,-55.961655
528780978000.0,-7.955931146925076,4.573348138653097,-2.65587375448246,-0.076052725,0.23823744,0.098043874,214.18188,-146.8103,-55.86667
528786069000.0,-8.015758113902121,4.541674982286704,-2.662912225508878,-0.079107046,0.23487769,0.0888809,214.04958,-146.74734,-55.777824
528791230000.0,-8.076407686985707,4.509566327797026,-2.6700474737837445,-0.086437434,0.21685717,0.07727446,213.9495,-146.6778,-55.6867
528796110000.0,-8.138608961471663,4.461052426170018,-2.6811706244606945,-0.0870483,0.20616703,0.064751714,213.84937,-146.6124,-55.59949
528801166000.0,-8.20499853953382,4.403514637797075,-2.694448586288848,-0.084910266,0.18478674,0.05467244,213.76515,-146.55049,-55.51799
528806066000.0,-8.24859723312091,4.355693783060627,-2.721566482431967,-0.08093964,0.18387043,0.04428773,213.66093,-146.50932,-55.456203
528811064000.0,-8.273329413451602,4.314473755106786,-2.7627866395108507,-0.07696902,0.17470746,0.038789943,213.57321,-146.47037,-55.398678
528816093000.0,-8.299423328570269,4.274923779410571,-2.805291323171226,-0.0729984,0.17684549,0.03756821,213.46664,-146.45154,-55.359905
528821073000.0,-8.330400650970203,4.243947023057563,-2.8517564172688155,-0.08246681,0.16493362,0.03848451,213.37357,-146.43343,-55.32409
528825975000.0,-8.36089278639279,4.213455444816108,-2.897493744832345,-0.08735373,0.16187929,0.04184427,213.25502,-146.42699,-55.296032
528831066000.0,-8.38145440088539,4.19006270673881,-2.917011559567142,-0.082161374,0.16493362,0.03634648,213.14105,-146.42284,-55.27084
528836021000.0,-8.397015245696014,4.170611386686343,-2.924792063215281,-0.09010262,0.16035213,0.03970624,213.03638,-146.41444,-55.243286
528840994000.0,-8.41487356544924,4.15247204728846,-2.925353734198612,-0.09162979,0.16218472,0.046120327,212.90982,-146.41753,-55.223015
528846632000.0,-8.442036257068116,4.136174375591106,-2.9036235241774824,-0.087964594,0.15485434,0.044898596,212.79222,-146.42159,-55.205044
528851033000.0,-8.456321,4.11934965296589,-2.8908200731919576,-0.08399397,0.15454891,0.04642576,212.67007,-146.42804,-55.188908
528856098000.0,-8.456321,4.090237023977193,-2.885968019025708,-0.08032878,0.15332718,0.05009095,212.55461,-146.43425,-55.17322
528861035000.0,-8.451272650278023,4.073171699290313,-2.8816093089698565,-0.076052725,0.13744467,0.052839845,212.44864,-146.44604,-55.165207
528866039000.0,-8.433741809189348,4.083690167332455,-2.878103067529997,-0.07147124,0.13805555,0.061391957,212.33885,-146.45518,-55.153534
528871078000.0,-8.416088350307287,4.094282205794557,-2.874572302019315,-0.067500606,0.13652839,0.052839845,212.23091,-146.47298,-55.151836
528875995000.0,-8.397828728543924,4.12274195693586,-2.830608637247948,-0.056505036,0.13041973,0.049785517,212.12888,-146.48718,-55.146584
528881002000.0,-8.378393816293444,4.166471143682237,-2.752868480899787,-0.04795292,0.10629055,0.053145275,212.03818,-146.50182,-55.143375
528886000000.0,-8.363051490854444,4.187424404499785,-2.73161026887076,-0.0421497,0.084910266,0.049480084,211.95003,-146.51343,-55.1376
528891043000.0,-8.350609203778445,4.191571660300558,-2.752346980936024,-0.043676864,0.076052725,0.044593163,211.86952,-146.52435,-55.132175
528895983000.0,-8.341399,4.193475559830525,-2.76536488313326,-0.051923547,0.058948494,0.035124753,211.82022,-146.52788,-55.126667
528901351000.0,-8.341399,4.188289724180369,-2.7549930493796024,-0.04642576,0.058948494,0.030848695,211.76814,-146.53188,-55.12055
528905985000.0,-8.34580212643678,4.186826232183908,-2.7555885114942527,-0.052534413,0.055283304,0.021380283,211.71924,-146.53627,-55.11595
528911036000.0,-8.36296276812828,4.193690417184618,-2.783045574038598,-0.058643065,0.044593163,0.020158553,211.6754,-146.53972,-55.110874
528916434000.0,-8.381302333333334,4.201026166666667,-2.8123889166666665,-0.04337143,0.044898596,0.013439035,211.62936,-146.54953,-55.11127
528921090000.0,-8.400504900446974,4.226662200893946,-2.8274024269605853,-0.054367006,0.043066,0.0033597588,211.58977,-146.55878,-55.11389
528926240000.0,-8.42555595692808,4.276764313856156,-2.832412742889069,-0.055588737,0.04917465,0.0030543262,211.54745,-146.56827,-55.114967
528930998000.0,-8.424133402050021,4.318605972849529,-2.8272871047560475,-0.052534413,0.044593163,-0.004886922,211.50272,-146.58122,-55.11932
528936029000.0,-8.396477547437474,4.3581146489380895,-2.8114834940549405,-0.042455133,0.04153884,-0.008552114,211.4558,-146.5932,-55.121964
528941122000.0,-8.370388136400395,4.396528773897026,-2.795394868137299,-0.03481932,0.0421497,-0.007330383,211.40927,-146.60165,-55.121037
528946039000.0,-8.374618992002876,4.409222401069279,-2.7784700319076285,-0.0143553335,0.045814894,-0.010079277,211.36266,-146.61328,-55.12218
528951075000.0,-8.378952241710847,4.422223236220685,-2.761135585039087,-0.012217305,0.03390302,-0.013133603,211.3366,-146.6101,-55.112354
528956037000.0,-8.376806375277901,4.412885232147621,-2.7523205660738106,-0.005497787,0.034513887,-0.016798794,211.30301,-146.60927,-55.102386
528961045000.0,-8.373252454424188,4.398668361123462,-2.745212130561731,-0.009468411,0.03848451,-0.010079277,211.2751,-146.60594,-55.091217
528966076000.0,-8.36911290212909,4.385668961684759,-2.739983776630481,-0.014660766,0.043676864,-0.009468411,211.24745,-146.60474,-55.082806
528971021000.0,-8.361142143061516,4.3816836653791125,-2.747954369241774,-0.002443461,0.040317107,-0.008246681,211.22354,-146.60228,-55.072926
528976031000.0,-8.353066611630059,4.377645983985525,-2.756029732028949,-0.016798794,0.046120327,-0.0076358155,211.19403,-146.60112,-55.065422
528981001000.0,-8.358758101032448,4.389571048967552,-2.760714342706489,-0.01282817,0.0421497,-0.0030543262,211.17206,-146.60016,-55.05765
528986042000.0,-8.369438626843658,4.407372173156342,-2.7642745303687315,-0.016187929,0.04062254,0.003970624,211.14708,-146.59723,-55.048542
528991177000.0,-8.379446534033377,4.4239657220045006,-2.7679564930620666,-0.0076358155,0.029321533,0.0067195175,211.12682,-146.59552,-55.04006
528996221000.0,-8.374918000000001,4.4149078500000005,-2.7724855,-0.0033597588,0.03390302,0.009162978,211.10104,-146.59161,-55.028786
529001812000.0,-8.36987304638103,4.406101847441764,-2.777274,-0.0036651916,0.032375857,0.015882496,211.09114,-146.58264,-55.014137
529006008000.0,-8.365694064267887,4.418638575603162,-2.777274,-0.0033597588,0.043066,0.02321288,211.07385,-146.57324,-54.997555
529011395000.0,-8.359540314952612,4.434567833711914,-2.7771052191587686,0.010995574,0.04795292,0.029321533,211.05745,-146.56525,-54.981583
529021015000.0,-8.316242403148744,4.456216412861283,-2.76988890052479,0.005192355,0.0580322,0.036957346,211.03508,-146.55388,-54.96221
529026067000.0,-8.313373795644722,4.468961527069261,-2.7594709782236118,-0.0009162979,0.062002823,0.03970624,211.01877,-146.53755,-54.93827
529031856000.0,-8.341320792821856,4.485729316836374,-2.737113964109285,-0.0033597588,0.059253927,0.035124753,211.00127,-146.52142,-54.91448
529036052000.0,-8.346988477012038,4.503483973826903,-2.72939,-0.0076358155,0.06352998,0.03604105,210.98021,-146.49812,-54.883064
529041110000.0,-8.337804100293866,4.531035042231491,-2.72939,-0.01038471,0.06169739,0.03145956,210.96236,-146.47809,-54.855713
529046072000.0,-8.335182906190777,4.554025508264898,-2.720985848810276,-0.010995574,0.051923547,0.03940081,210.94972,-146.45447,-54.826992
529051059000.0,-8.345240390397977,4.569110684459886,-2.695843975994946,-0.022907447,0.053145275,0.03481932,210.93063,-146.43536,-54.802803
529056006000.0,-8.354725498464116,4.587087050404914,-2.6852554005864286,-0.026267206,0.044898596,0.02321288,210.92384,-146.41324,-54.776196
529061059000.0,-8.363734635762821,4.609609423298892,-2.6942643027087407,-0.017104227,0.04153884,0.021685716,210.91504,-146.3902,-54.748226
529066230000.0,-8.364098645661464,4.631628618179107,-2.706690570947222,-0.01985312,0.035430185,0.019547688,210.9131,-146.37038,-54.726418
529071093000.0,-8.34558193092138,4.65014460789186,-2.725206415654508,-0.016187929,0.026267206,0.021380283,210.91447,-146.35124,-54.704967
529076022000.0,-8.328440894987587,4.6647500483124205,-2.742346831483594,-0.014660766,0.022602014,0.017715093,210.91634,-146.33148,-54.68281
529081004000.0,-8.315635052271354,4.667951592565255,-2.755152774488358,-0.025045475,0.024740042,0.011301007,210.91943,-146.31201,-54.661686
529085973000.0,-8.302862625041938,4.67114478272831,-2.767925301744615,-0.017715093,0.02565634,0.010995574,210.92197,-146.2873,-54.633507
529091023000.0,-8.291489978685215,4.677530148306035,-2.7712017247027148,-0.02321288,0.016493361,0.010995574,210.92728,-146.26355,-54.608242
529096210000.0,-8.284059972627329,4.692390548350908,-2.7489109306708546,-0.0125227375,0.01282817,0.009162978,210.92911,-146.24231,-54.5836
529101906000.0,-8.275900860519034,4.708709198564057,-2.724432742352853,-0.002443461,0.016187929,0.020158553,210.9289,-146.21375,-54.551064
529106031000.0,-8.278745646851311,4.713981437889364,-2.715428238684981,-0.0009162979,0.010995574,0.014049901,210.93169,-146.1912,-54.52533
529111060000.0,-8.285975282594011,4.7175964444944825,-2.708198414208512,0.0036651916,0.016187929,0.013133603,210.93011,-146.1655,-54.49468
529116507000.0,-8.29400280263158,4.721528929106604,-2.7006595,0.0033597588,0.009773844,0.016798794,210.94199,-146.1376,-54.464897
529121053000.0,-8.304949092105263,4.725177577966812,-2.7006595,0.0061086523,-0.002443461,0.016798794,210.95322,-146.11206,-54.43705
529126102000.0,-8.317106552631579,4.729229937864566,-2.7006595,0.016493361,0.01038471,0.018936822,210.96494,-146.08348,-54.40599
529131025000.0,-8.324073026283369,4.7309427,-2.7098003950034224,0.017104227,0.013439035,0.017715093,210.98586,-146.05614,-54.37827
529136007000.0,-8.327338435728953,4.7309427,-2.72612880622861,0.015882496,0.002443461,0.027488936,211.00867,-146.02628,-54.34766
529143327000.0,-8.326966493940352,4.729971793719043,-2.7485435,0.0125227375,0.0106901415,0.020463986,211.01575,-146.00363,-54.32227
529146079000.0,-8.299191856359995,4.72441683720097,-2.7485435,0.008857546,0.007941248,0.021380283,211.03508,-145.97658,-54.29441
529151042000.0,-8.249102638950363,4.714398941416376,-2.7485435,0.022296581,0.0070249503,0.02565634,211.04538,-145.95099,-54.26531
529156040000.0,-8.229812399788937,4.708668634728696,-2.761025091416762,0.023823744,0.0027488936,0.026267206,211.05783,-145.92587,-54.23804
529161066000.0,-8.221346743470232,4.704435718169027,-2.7779569344560726,0.016798794,0.0070249503,0.025045475,211.06671,-145.90094,-54.210056
529166037000.0,-8.214606361142506,4.704505867009145,-2.7891442909585944,0.02565634,0.007330383,0.033292156,211.07664,-145.8722,-54.176983
529171368000.0,-8.209360806123499,4.70975125771088,-2.7943897364327546,0.02107485,0.009468411,0.025045475,211.08098,-145.84789,-54.1489
529176043000.0,-8.209856371393743,4.706722389475822,-2.7938941815115808,0.02321288,0.004581489,0.03176499,211.0875,-145.81876,-54.114285
529181002000.0,-8.214680867838277,4.697073648466071,-2.7890697858187727,0.029626964,-0.00030543262,0.03176499,211.09082,-145.79436,-54.08421
529186061000.0,-8.2169,4.685063077893738,-2.784326594440228,0.021991149,-0.0106901415,0.026572637,211.09877,-145.7687,-54.053936
529191086000.0,-8.2169,4.671365662096774,-2.7797608527419357,0.03634648,-0.0027488936,0.029932396,211.10144,-145.74287,-54.020836
529196057000.0,-8.212981139664805,4.659986139664804,-2.7831521472845497,0.035430185,-0.014049901,0.032375857,211.11813,-145.71973,-53.994614
529201056000.0,-8.204211944134078,4.651216944134078,-2.7963056201025736,0.03634648,-0.013133603,0.027794369,211.12468,-145.69907,-53.968266
529205981000.0,-8.20075994538989,4.643746383007366,-2.807008916992634,0.026267206,-0.018936822,0.028099801,211.13815,-145.6793,-53.94501
529211017000.0,-8.213010331978664,4.639663048725764,-2.811092251274236,0.03268129,-0.02321288,0.027794369,211.14949,-145.66241,-53.923397
529216084000.0,-8.225336128016256,4.635554578748624,-2.815200721251376,0.03726278,-0.015271631,0.026572637,211.15231,-145.6453,-53.90074
529221083000.0,-8.238346302325581,4.607478875649795,-2.839320017783858,0.03390302,-0.025045475,0.025961773,211.16519,-145.62839,-53.88022
529225981000.0,-8.251179821705426,4.577533580182399,-2.864987503237574,0.03176499,-0.02443461,0.029932396,211.16983,-145.61122,-53.857662
529231026000.0,-8.272075049205021,4.5681367,-2.875853390460251,0.024740042,-0.025350908,0.02565634,211.1763,-145.59799,-53.840458
529235971000.0,-8.29585284376569,4.5681367,-2.8798164251882845,0.024129177,-0.016798794,0.03268129,211.18,-145.58107,-53.81861
529241427000.0,-8.308610177354819,4.570165568952093,-2.876532371958473,0.021991149,-0.01863139,0.03848451,211.17926,-145.57082,-53.80342
529246093000.0,-8.298945143938575,4.574997984740997,-2.862035074132151,0.027488936,-0.023823744,0.04428773,211.17717,-145.55927,-53.78619
529251075000.0,-8.292258697584005,4.5701818427936685,-2.8463568165787283,0.020463986,-0.024129177,0.034513887,211.17265,-145.55107,-53.77357
529256045000.0,-8.289615115801166,4.554320683337962,-2.8304956019161343,0.030543262,-0.0143553335,0.042760566,211.16911,-145.53781,-53.754337
529260978000.0,-8.286991214607054,4.5385776049486255,-2.814752468730908,0.014660766,-0.018020526,0.04642576,211.1733,-145.52554,-53.739857
529266048000.0,-8.284294442043876,4.522397307475702,-2.7985721149402942,0.025961773,-0.014966198,0.041233405,211.1697,-145.51598,-53.724518
529271062000.0,-8.275764601611636,4.552943274941038,-2.775995863993711,0.025961773,-0.013439035,0.04520403,211.1702,-145.50154,-53.70646
529275973000.0,-8.266521246363995,4.589917805925707,-2.7528867519654088,0.022296581,-0.017104227,0.056505036,211.1719,-145.48726,-53.688316
529281001000.0,-8.270928347061583,4.59072249253673,-2.7454712302281963,0.019547688,-0.022907447,0.044898596,211.17912,-145.4823,-53.681408
529285973000.0,-8.278370416145671,4.5832802291731785,-2.7417500791184746,0.019242255,-0.026572637,0.048258353,211.19043,-145.47023,-53.66772
529290999000.0,-8.29649167231695,4.580224395135406,-2.733944883510532,0.02687807,-0.02565634,0.046731193,211.2102,-145.45665,-53.6538
529296184000.0,-8.346297315747242,4.59018536780341,-2.7140228341624875,0.023518313,-0.021685716,0.05009095,211.23076,-145.44052,-53.63801
529301063000.0,-8.381360627820941,4.596867,-2.702314084628191,0.02443461,-0.025961773,0.04795292,211.25452,-145.42937,-53.62761
529306033000.0,-8.387230363916636,4.596867,-2.708183667499075,0.028099801,-0.019242255,0.061086524,211.27338,-145.41331,-53.611137
529311136000.0,-8.393257177457148,4.596867,-2.7142103237143917,0.02107485,-0.018936822,0.05375614,211.29141,-145.40767,-53.607903
529316169000.0,-8.400056065341401,4.596627789429559,-2.7200522180639584,0.01863139,-0.010079277,0.049480084,211.3041,-145.3983,-53.599194
529321262000.0,-8.42113413033708,4.592412220449438,-2.7242679191011234,0.004886922,-0.0076358155,0.0571159,211.31969,-145.38687,-53.589947
529325980000.0,-8.440660207433018,4.588507045808124,-2.728173216076059,0.003970624,-0.01038471,0.054367006,211.33316,-145.3797,-53.584007
529331012000.0,-8.428027166954069,4.589964089418404,-2.721368520065841,0.013133603,-0.005192355,0.054061573,211.3428,-145.36984,-53.5747
529336033000.0,-8.401643893870514,4.593733066585672,-2.7100614311412445,0.004581489,-0.005192355,0.040317107,211.35336,-145.36374,-53.570736
529341101000.0,-8.379069879491185,4.5943223186788655,-2.7006595,0.0027488936,-0.015577064,0.037873644,211.36392,-145.36115,-53.569077
529346056000.0,-8.375540229859407,4.580202614371792,-2.7006595,0.0030543262,-0.00030543262,0.03756821,211.36086,-145.36148,-53.56849
529351032000.0,-8.371995621066725,4.5660230687346575,-2.7006595,0.004276057,-0.0033597588,0.03573562,211.37709,-145.3571,-53.566635
529356926000.0,-8.37013,4.568719979348883,-2.7031995080984776,0.014966198,-0.0015271631,0.030543262,211.38316,-145.35455,-53.564262
529361065000.0,-8.37013,4.581560331875608,-2.7064096129899577,0.0070249503,-0.005497787,0.024129177,211.39252,-145.35204,-53.563595
529366294000.0,-8.369898462956892,4.596172405794132,-2.711162428831339,0.009773844,0.0036651916,0.026572637,211.3904,-145.35266,-53.56321
529371408000.0,-8.365884630962137,4.584131203188002,-2.727217421521062,0.004276057,-0.01740966,0.03023783,211.4031,-145.35382,-53.567093
529376166000.0,-8.362150213161776,4.572928222742173,-2.742154780773644,0.005192355,-0.0143553335,0.027794369,211.39574,-145.35425,-53.566296
529380996000.0,-8.364664885321453,4.566080714402028,-2.7485435,0.0076358155,-0.00580322,0.021380283,211.39525,-145.35468,-53.56697
529386069000.0,-8.372128067516707,4.562349045372148,-2.7485435,0.0061086523,-0.0125227375,0.022907447,211.40092,-145.35352,-53.56723
529391508000.0,-8.379491628604741,4.557916829848426,-2.748114723630004,0.012217305,-0.003970624,0.028099801,211.39278,-145.3542,-53.565773
529396077000.0,-8.37609071574038,4.547713203381267,-2.741312365176836,0.008552114,-0.007941248,0.024740042,211.39243,-145.35625,-53.567886
529401020000.0,-8.372411417800233,4.536674349008939,-2.73395319296541,0.016187929,0.004276057,0.027794369,211.38211,-145.3583,-53.567
529406011000.0,-8.3752946425238,4.521221642617136,-2.727668392570469,0.0067195175,0.0015271631,0.021991149,211.37875,-145.3626,-53.571053
529411080000.0,-8.388887359529589,4.498566798861303,-2.723137329195445,0.010079277,0.002443461,0.013744468,211.36821,-145.36795,-53.57366
529416011000.0,-8.397931859587398,4.4819455,-2.72166925175116,0.010079277,0.011301007,0.019242255,211.35841,-145.37181,-53.575798
529421182000.0,-8.393971946985447,4.4819455,-2.729588952910603,0.004276057,0.005497787,0.016798794,211.35274,-145.37997,-53.58344
529427613000.0,-8.389710464096805,4.482159227584957,-2.7393941551699155,0.0030543262,0.004581489,0.02107485,211.34053,-145.39154,-53.59316
529431022000.0,-8.394441714440983,4.484524803354829,-2.744125306709659,0.0012217305,0.014049901,0.018325957,211.32497,-145.4052,-53.60491
529436059000.0,-8.40143241786827,4.488020082073763,-2.751115864147525,0.00030543262,0.006414085,0.010079277,211.31575,-145.41835,-53.617016
529441391000.0,-8.408437,4.492213167701654,-2.7574294347030035,-0.003970624,0.0030543262,0.01160644,211.3014,-145.42906,-53.62593
529446055000.0,-8.408437,4.503519157036787,-2.7461234847198783,-0.004886922,0.009468411,0.0125227375,211.28496,-145.44221,-53.636906
529450986000.0,-8.408437,4.515472380323996,-2.734170303037462,-0.004886922,0.014049901,0.022602014,211.26886,-145.45337,-53.6457
529456017000.0,-8.40621945076073,4.5202527,-2.7338249827038075,0.0027488936,0.0106901415,0.013744468,211.25119,-145.46976,-53.65939
529461150000.0,-8.402498404587087,4.5202527,-2.741266880781167,-0.009773844,0.013744468,0.009162978,211.23071,-145.48079,-53.668137
529466470000.0,-8.396608325637912,4.5202527,-2.7502947834143376,-0.002443461,0.016798794,0.008857546,211.21394,-145.49307,-53.67753
529471070000.0,-8.362197355320257,4.5202527,-2.777058583101892,-0.011911872,0.023823744,0.004886922,211.193,-145.50574,-53.688446
529475980000.0,-8.325467384829023,4.5202527,-2.8056260301596945,-0.009773844,0.025961773,0.0018325958,211.16748,-145.51936,-53.698334
529481001000.0,-8.312668,4.5177397083240844,-2.808041972490883,-0.0143553335,0.017715093,0.0021380284,211.14392,-145.53198,-53.70855
529486057000.0,-8.312668,4.513901132519423,-2.7965261649120023,-0.008246681,0.02107485,0.0076358155,211.11478,-145.54459,-53.71688
529491072000.0,-8.314691151965848,4.510676,-2.7838160407078427,-0.007330383,0.016798794,-0.0027488936,211.09,-145.55518,-53.722687
529496833000.0,-8.329887212559388,4.510676,-2.761022465502996,-0.008552114,0.026572637,0.0033597588,211.06073,-145.55975,-53.72103
529501065000.0,-8.341050157956344,4.510676,-2.744278426227364,-0.0125227375,0.024129177,0.011301007,211.03868,-145.56554,-53.723484
529505984000.0,-8.351972759881155,4.518649902115783,-2.72939,-0.022296581,0.03023783,0.01038471,211.00822,-145.57162,-53.725174
529511068000.0,-8.356356433960565,4.553718516611147,-2.72939,-0.021685716,0.03268129,0.012217305,210.98253,-145.5751,-53.72452
529516240000.0,-8.36030016653683,4.586784643633688,-2.728125859084221,-0.01282817,0.027183503,0.015271631,210.96399,-145.58147,-53.728992
529521080000.0,-8.356287989613087,4.578760457361724,-2.708065393404311,-0.030543262,0.03145956,0.0076358155,210.93884,-145.58871,-53.73486
529525981000.0,-8.35222524599671,4.570635139816498,-2.6877520995412447,-0.022907447,0.032375857,0.007941248,210.91818,-145.59186,-53.734734
529531006000.0,-8.350976,4.565513007873219,-2.6920008233003663,-0.01863139,0.037873644,0.0027488936,210.89189,-145.59743,-53.737514
529536029000.0,-8.350976,4.561766900552916,-2.706985330815357,-0.026572637,0.03726278,0.004276057,210.86935,-145.60078,-53.738873
529541068000.0,-8.350455908656672,4.560120236015579,-2.720853166394768,-0.028710667,0.032375857,-0.0015271631,210.85051,-145.60902,-53.74603
529546087000.0,-8.346923650940623,4.570716750984715,-2.7279175711787182,-0.032375857,0.032986723,-0.00030543262,210.83089,-145.6143,-53.750443
529551066000.0,-8.343419544312168,4.581228814748678,-2.7349256746693125,-0.025045475,0.034208454,0.0015271631,210.80542,-145.6236,-53.756832
529556017000.0,-8.341399,4.590307087520824,-2.7389667,-0.018936822,0.037873644,0.00580322,210.77948,-145.63148,-53.76191
529561041000.0,-8.341399,4.597593789686506,-2.7389667,-0.013744468,0.03268129,0.0033597588,210.75676,-145.64105,-53.768948
529566127000.0,-8.341399,4.604970415326367,-2.7389667,-0.022602014,0.029321533,-0.00030543262,210.73741,-145.64572,-53.77094
529571017000.0,-8.330767240137549,4.613531654885853,-2.746054391890343,-0.021380283,0.021685716,-0.0033597588,210.72247,-145.65181,-53.774258
529576030000.0,-8.317009622122457,4.6227031608081,-2.755225945696819,-0.023823744,0.021991149,-0.0030543262,210.7056,-145.65721,-53.777275
529581002000.0,-8.310083742259016,4.630765880561968,-2.7632887345299686,-0.016493361,0.033292156,-0.0030543262,210.68796,-145.66138,-53.778545
529585971000.0,-8.30629578452599,4.638341598264746,-2.770864531338056,-0.028405234,0.028099801,-0.004276057,210.6778,-145.66452,-53.781487
529590993000.0,-8.301424903445342,4.643084946937473,-2.775607929540621,-0.02107485,0.027794369,0.004276057,210.66075,-145.66379,-53.77676
529596157000.0,-8.290906905146747,4.6325672232028925,-2.7650900959804336,-0.028099801,0.02321288,-0.0021380284,210.64595,-145.66608,-53.777378
529601042000.0,-8.286537195045003,4.624297429627911,-2.7594203567968822,-0.018020526,0.02107485,0.0036651916,210.63405,-145.66165,-53.769302
529606038000.0,-8.29541660341468,4.619857818159042,-2.763859921907766,-0.015882496,0.020158553,0.0030543262,210.62196,-145.66003,-53.76519
529611073000.0,-8.301479026449645,4.614946030393615,-2.768234343219344,-0.008552114,0.021380283,-0.002443461,210.60701,-145.65979,-53.76184
529616051000.0,-8.290287388606307,4.607484795664762,-2.7719650190155725,-0.008857546,0.012217305,-0.0106901415,210.59695,-145.6603,-53.76054
529621009000.0,-8.27914071515768,4.600053537772908,-2.7756807061585413,-0.008552114,0.010995574,0.0009162979,210.58379,-145.6581,-53.75549
529626004000.0,-8.263611229655712,4.599554442586071,-2.777274,-0.015577064,0.01863139,-0.006414085,210.56694,-145.66306,-53.757927
529630994000.0,-8.244914347809077,4.6042286630477305,-2.777274,-0.004886922,0.013439035,-0.00030543262,210.56032,-145.6622,-53.754833
529636097000.0,-8.238381965805134,4.5947994141575625,-2.777274,-0.011911872,0.017715093,0.00580322,210.54485,-145.66171,-53.751682
529641041000.0,-8.24258737374545,4.573772813571365,-2.777274,-0.006414085,0.02565634,0.004581489,210.53004,-145.66307,-53.7491
529645993000.0,-8.25212891422367,4.562459334961998,-2.773374637893593,-0.017715093,0.01863139,0.006414085,210.52602,-145.65678,-53.741524
529651139000.0,-8.276451396110946,4.577052773299773,-2.758781097966637,-0.013744468,0.023823744,-0.0018325958,210.51118,-145.65512,-53.735523
529656049000.0,-8.296898405581732,4.5872903,-2.7485435,-0.01160644,0.022296581,0.008552114,210.50288,-145.65324,-53.730824
529661004000.0,-8.309798197625952,4.5872903,-2.7485435,-0.01282817,0.026267206,0.009773844,210.48729,-145.65628,-53.73001
529666065000.0,-8.323245675436143,4.586789972730665,-2.7490438246571505,-0.022296581,0.02687807,0.010995574,210.47551,-145.65761,-53.729256
529670996000.0,-8.34086828463476,4.577978852141058,-2.7578548992443324,-0.01985312,0.027183503,0.0106901415,210.46217,-145.65973,-53.728344
529676005000.0,-8.358769653419161,4.569028354669279,-2.766805349986006,-0.01740966,0.02565634,0.00580322,210.44566,-145.66429,-53.730503
529681031000.0,-8.351834906495073,4.559418743042429,-2.8025687823144985,-0.018020526,0.024740042,0.009162978,210.43013,-145.66664,-53.730465
529686042000.0,-8.342184726121053,4.549768713814599,-2.8411688488437563,-0.016493361,0.0290161,0.010079277,210.41203,-145.6713,-53.732132
529691024000.0,-8.331188791469193,4.538773040229974,-2.854521659770026,-0.014966198,0.023518313,0.003970624,210.39627,-145.68102,-53.73923
529696025000.0,-8.320025421800947,4.527609942545257,-2.8656847574547437,-0.016493361,0.027488936,0.002443461,210.37526,-145.68901,-53.74361
529701031000.0,-8.309535507651109,4.529649980795716,-2.8667771788446825,-0.017104227,0.025350908,0.0070249503,210.35272,-145.69684,-53.746128
529706064000.0,-8.300315721690895,4.557308761055853,-2.8483380882746747,-0.016187929,0.02107485,0.0061086523,210.32878,-145.70648,-53.75036
529711033000.0,-8.29828237865694,4.580574477404265,-2.833781324268612,-0.005497787,0.021685716,0.0061086523,210.29747,-145.71748,-53.753338
529716081000.0,-8.317447008800444,4.5920730553793705,-2.829948398239911,-0.0067195175,0.02107485,0.0070249503,210.26924,-145.72762,-53.756737
529721020000.0,-8.336197822643303,4.603323347895029,-2.826198235471339,-0.006414085,0.01985312,-0.0036651916,210.24615,-145.7344,-53.75791
529726019000.0,-8.338229911560903,4.60010658412655,-2.806145785466813,-0.010995574,0.025045475,-0.0009162979,210.22287,-145.7368,-53.754734
529731019000.0,-8.333863573121809,4.5913749557531,-2.779950945933625,-0.016493361,0.023518313,0.0021380284,210.20212,-145.74197,-53.755096
529736011000.0,-8.325704260572987,4.585251358470428,-2.773813845879143,-0.012217305,0.026572637,0.006414085,210.18164,-145.74637,-53.754482
529741367000.0,-8.313355502046385,4.581135048318754,-2.786162819316267,-0.01985312,0.029626964,0.008246681,210.16225,-145.74948,-53.753883
529746108000.0,-8.30333391319993,4.5779564081270845,-2.796184591872916,-0.027794369,0.02076942,0.00030543262,210.1483,-145.75507,-53.75818
529751958000.0,-8.308251014305775,4.582873406547305,-2.7912675934526945,-0.017715093,0.027794369,0.0067195175,210.1283,-145.7568,-53.756474
529755930000.0,-8.311589599877129,4.586211922397753,-2.787929077602247,-0.024129177,0.03268129,0.0067195175,210.10585,-145.76254,-53.759132
529760899000.0,-8.312668,4.594122830552599,-2.8039320442175555,-0.025045475,0.0290161,0.005192355,210.0852,-145.76787,-53.76064
529765957000.0,-8.312668,4.603498560214845,-2.827371392848156,-0.021991149,0.028405234,0.005497787,210.0616,-145.7725,-53.760998
529770919000.0,-8.30271220967742,4.593169855465379,-2.848009040579412,-0.014660766,0.022907447,0.00030543262,210.03903,-145.77884,-53.76394
529775914000.0,-8.287968903225806,4.573512472734745,-2.867666269365112,-0.017104227,0.02443461,0.0018325958,210.01495,-145.78278,-53.764458
529780894000.0,-8.280799690236606,4.5681367,-2.86362931717886,-0.020158553,0.02321288,0.003970624,209.9843,-145.7885,-53.764687
529785915000.0,-8.276440965189014,4.5681367,-2.850552095140966,-0.017715093,0.026267206,0.0027488936,209.95128,-145.79488,-53.76495
529790953000.0,-8.292875990173531,4.562846706753084,-2.8310867306920344,-0.012217305,0.029321533,-0.004276057,209.91922,-145.8042,-53.766792
529795903000.0,-8.327565316955885,4.552935477921806,-2.806308684486724,-0.017104227,0.02565634,-0.0015271631,209.89072,-145.81052,-53.766644
529800942000.0,-8.335420080558102,4.545993633924025,-2.7964275,-0.025350908,0.02687807,-0.00061086525,209.85988,-145.81998,-53.769417
529805993000.0,-8.325567055402791,4.54106727566962,-2.7964275,-0.021991149,0.028710667,0.0015271631,209.83157,-145.82858,-53.77134
529810936000.0,-8.319334985932665,4.536496346703554,-2.8022473762074465,-0.01740966,0.028405234,0.0018325958,209.80101,-145.84512,-53.78268
529816002000.0,-8.314784945418738,4.53194640120979,-2.811347219684892,-0.0125227375,0.03573562,0.0030543262,209.76715,-145.86075,-53.792156
529821514000.0,-8.312668,4.533018060996201,-2.834712432566484,-0.018020526,0.029321533,-0.0015271631,209.73279,-145.87726,-53.80368
529825960000.0,-8.312668,4.537511354875474,-2.861672289679189,-0.03145956,0.032375857,0.0030543262,209.69308,-145.89037,-53.810726
529830938000.0,-8.3018402881217,4.552941010511932,-2.862214288121698,-0.026572637,0.03756821,0.0018325958,209.6512,-145.90547,-53.81906
529835956000.0,-8.284330311258882,4.574828595864457,-2.844704311258881,-0.018325957,0.027794369,0.004581489,209.61685,-145.91739,-53.826077
529840976000.0,-8.278854756264238,4.585043351480638,-2.825747135535307,-0.024740042,0.019547688,0.00061086525,209.57385,-145.92928,-53.83135
529845935000.0,-8.289157362512203,4.579891886983404,-2.805141116173121,-0.01160644,0.028099801,0.002443461,209.52975,-145.94041,-53.833637
529851138000.0,-8.296078545391845,4.575149008164497,-2.7964275,-0.011911872,0.024740042,0.0015271631,209.50674,-145.94534,-53.834644
