timestamp,acc_x,acc_y,acc_z,gyro_x,gyro_y,gyro_z,ori_azimuth,ori_pitch,ori_roll
3319451922000.0,-1.019126694856391,9.620006604324406,-2.3654714,2.4129176,-9.566455,-4.177402,341.6854,-112.347305,19.31876
3319456922000.0,-1.0210286013678227,9.618342453193655,-2.3654714,2.4129176,0.7641924,0.031154128,338.83087,-113.51021,21.135567
3319461940000.0,-1.0229373547426954,9.616672311118837,-2.3654714,-1.1927143,0.7623598,0.03359759,341.86658,-111.97246,19.020477
3319467060000.0,-1.0248849070104014,9.614968220360948,-2.3654714,-1.1933253,0.754724,0.032070424,342.04004,-112.00263,18.648048
3319471902000.0,-1.0267267132760718,9.613356656405928,-2.3654714,-1.1924089,0.7431176,0.03604105,342.21182,-111.53081,18.290766
3319476865000.0,-1.0286145456793188,9.611704819993546,-2.3654714,-1.1765264,0.7360926,0.034513887,342.38913,-111.17159,17.987293
3319481884000.0,-1.030523679435494,9.6100343450885,-2.3654714,-1.1725558,0.7263188,0.03359759,342.56897,-110.8251,17.694681
3319486910000.0,-1.032435475860785,9.608361540371869,-2.3654714,-1.1478158,0.729984,0.027488936,342.7445,-110.49464,17.410206
3319491904000.0,-1.0343351000844028,9.606699386222475,-2.3654714,-1.1499538,0.75961095,0.030848695,342.91373,-110.174225,17.137993
3319496917000.0,-1.036241951552764,9.605030908298788,-2.3654714,-1.1765264,0.8561276,0.061391957,343.06137,-109.869644,16.883919
3319501784000.0,-1.0380932673509915,9.603411023588114,-2.3654714,-1.6032158,0.8042041,0.0580322,343.2403,-109.507645,16.622618
3319506753000.0,-1.0399833820420523,9.601757190194377,-2.3654714,-1.2470814,0.7675522,0.05222898,343.38666,-109.27489,16.383171
3319511797000.0,-1.041902025330785,9.600078394533677,-2.3654714,-1.2483032,0.75533485,0.058948494,343.53986,-108.93959,16.151918
3319516766000.0,-1.0437921400218455,9.598424561139934,-2.3654714,-1.2458596,0.74372846,0.06505715,343.70154,-108.66501,15.923783
3319521747000.0,-1.0456868192885336,9.596766733783484,-2.3654714,-1.2415836,0.7330383,0.07422013,343.86514,-108.40118,15.703994
3319526769000.0,-1.0475970941886157,9.595095260387756,-2.3654714,-1.2351695,0.7101309,0.083383106,344.03406,-108.147255,15.49052
3319531745000.0,-1.0494898715487924,9.593439097182436,-2.3654714,-1.2415836,0.6921103,0.095294975,344.2032,-107.90223,15.285492
3319536795000.0,-1.051410797125338,9.591758304540376,-2.3654714,-1.2513574,0.6441574,0.09712757,344.38562,-107.66411,15.082654
3319541762000.0,-1.0533001510537945,9.59010513680709,-2.3654714,-1.2055426,0.5757405,0.101098195,344.57767,-107.443,14.886633
3319546744000.0,-1.0551952107017848,9.58844697662041,-2.3654714,-1.106277,0.50946164,0.09682214,344.7803,-107.232704,14.69098
3319551784000.0,-1.057112332465308,9.586769512280616,-2.3654714,-0.97585726,0.42852196,0.09193522,345.00452,-107.03984,14.496325
3319556792000.0,-1.059017282027158,9.585102698508056,-2.3654714,-0.840856,0.36010507,0.08246681,345.24078,-106.864685,14.300167
3319561878000.0,-1.060951901330586,9.583409923977856,-2.3654714,-0.7156286,0.3036,0.08032878,345.49368,-106.71177,14.104532
3319566845000.0,-1.0628412552590425,9.58175675624457,-2.3654714,-0.602924,0.07238753,0.031154128,345.81073,-106.56664,13.884363
3319571796000.0,-1.0647245230866618,9.5801089137949,-2.3654714,-0.17440203,-0.05681047,0.0018325958,346.1109,-106.49772,13.673367
3319576799000.0,-1.0666275707420003,9.578443764173471,-2.3654714,0.060170226,-0.038179077,0.0067195175,346.4292,-106.41613,13.455991
3319581787000.0,-1.0685249126778045,9.576783607005437,-2.3654714,0.025350908,-0.017715093,0.004276057,346.7764,-106.35283,13.223116
3319586855000.0,-1.0704526851177916,9.575096823419308,-2.3654714,-0.0125227375,-0.02076942,0.0018325958,347.11887,-106.33044,12.991852
3319591874000.0,-1.0723618188739668,9.57342634851426,-2.3654714,-0.008552114,-0.024129177,0.008246681,347.44977,-106.31308,12.764159
3319596807000.0,-1.0742382398381451,9.571784497008665,-2.3654714,-0.00030543262,-0.032375857,0.012217305,347.77673,-106.29104,12.535685
3319601835000.0,-1.0761507970260409,9.57011102663158,-2.3654714,0.005192355,-0.026267206,0.008552114,348.09457,-106.27095,12.308501
3319606908000.0,-1.0780804713725394,9.568422578894324,-2.3654714,0.005497787,-0.026572637,0.008857546,348.41122,-106.25496,12.0839
3319611904000.0,-1.0799808563587618,9.566759759084476,-2.3654714,0.0018325958,-0.01985312,0.01160644,348.71838,-106.240616,11.860923
3319616903000.0,-1.081882382488891,9.565095940783952,-2.3654714,-0.0021380284,-0.02321288,0.006414085,349.02255,-106.22624,11.636582
3319621922000.0,-1.0837915162450662,9.563425465878906,-2.3654714,-0.0009162979,-0.022602014,0.0027488936,349.31845,-106.21452,11.415491
3319626846000.0,-1.085664513777524,9.561786609845344,-2.3654714,-0.00580322,-0.021380283,-0.0015271631,349.60953,-106.20102,11.194186
3319631848000.0,-1.08756718105156,9.560121793054142,-2.3654714,-0.007330383,-0.02687807,0.0021380284,349.89743,-106.19061,10.97539
3319636900000.0,-1.0894888673907106,9.558440334751632,-2.3654714,-0.0027488936,-0.021380283,0.0015271631,350.1763,-106.180115,10.7567005
3319642874000.0,-1.0917612652905693,9.556452006980612,-2.3654714,-0.009162978,-0.023518313,-0.0015271631,350.45404,-106.168396,10.539359
3319646900000.0,-1.093292680413574,9.55511203249013,-2.3654714,-0.015577064,-0.0125227375,-0.00030543262,350.72186,-106.1594,10.326048
3319651852000.0,-1.0951763286224958,9.553463857210238,-2.3654714,-0.004276057,-0.015882496,-0.002443461,350.9893,-106.15281,10.111859
3319656871000.0,-1.097085462378671,9.55179338230519,-2.3654714,-0.013744468,-0.021380283,0.004581489,351.2503,-106.143105,9.903109
3319661901000.0,-1.0989987803291712,9.550119246267656,-2.3654714,-0.022296581,-0.02107485,0.004886922,351.5056,-106.13537,9.69406
3319666881000.0,-1.100893079214557,9.548461751741428,-2.3654714,-0.016187929,-0.021380283,0.007330383,351.75885,-106.13126,9.489172
3319671952000.0,-1.099276154542644,9.5493857614258,-2.367341073961393,-0.013439035,-0.016798794,0.004886922,352.006,-106.12449,9.2853775
3319681913000.0,-1.0940433970967371,9.552715665017727,-2.372098116701989,-0.022296581,-0.011911872,0.005497787,352.24933,-106.11801,9.085149
3319686901000.0,-1.0914230784399577,9.554383124019488,-2.374480219823172,-0.022602014,-0.01282817,0.0067195175,352.51074,-106.17609,8.893343
3319691878000.0,-1.08880853835279,9.55604690578608,-2.3768570697097235,-0.022296581,-0.008552114,0.0027488936,352.76563,-106.232254,8.702759
3319696900000.0,-1.086170358662664,9.557725730787451,-2.3792554101015795,-0.009773844,-0.005192355,0.005497787,353.01828,-106.29305,8.51606
3319701918000.0,-1.083534280270579,9.559403218612395,-2.381651840226297,-0.01160644,-0.011911872,0.004886922,353.2688,-106.34964,8.32873
3319706912000.0,-1.080910809666738,9.561072683378796,-2.3840368087481862,-0.007941248,-0.0061086523,0.00030543262,353.51154,-106.41054,8.143944
3319711935000.0,-1.0782721046521022,9.562751842674272,-2.3864356267068265,-0.007941248,0.0027488936,0.009162978,353.75302,-106.471825,7.964229
3319721879000.0,-1.0730482777228685,9.566076063266394,-2.3911845508120857,-0.0061086523,-0.00061086525,0.008246681,353.9922,-106.5322,7.7818565
3319726916000.0,-1.07040221816509,9.56775990267936,-2.3935900547057094,0.0018325958,0.0027488936,0.013744468,354.225,-106.59578,7.606563
3319731913000.0,-1.067777171587719,9.569430370328076,-2.395976455927952,0.005192355,0.00580322,0.010079277,354.45508,-106.65677,7.42993
3319736899000.0,-1.0651579035799594,9.571097160741624,-2.398357603915565,-0.008857546,0.009773844,0.0106901415,354.68167,-106.71582,7.2579846
3319741972000.0,-1.0624929323398145,9.57279303474241,-2.400780300213431,0.010079277,0.011301007,0.01985312,354.90552,-106.78395,7.089121
3319746865000.0,-1.0599225195115018,9.574428735804082,-2.403117034490084,0.0009162979,-0.0018325958,0.016493361,355.12857,-106.838875,6.91784
3319751914000.0,-1.0572701560596012,9.57611658674632,-2.4055282691851216,-0.0070249503,-0.008857546,0.013439035,355.34732,-106.89908,6.7513433
3319756915000.0,-1.054643008184189,9.57778839157146,-2.4079165806745024,-0.002443461,-0.013439035,0.007330383,355.56567,-106.95834,6.583863
3319761910000.0,-1.0520190122558382,9.579458190631966,-2.4103020267631763,-0.0027488936,-0.018020526,0.0125227375,355.78375,-107.014114,6.4197273
3319766985000.0,-1.0493529903666727,9.581154733220966,-2.412725678194612,-0.014660766,-0.018020526,0.012217305,355.99808,-107.065605,6.254034
3319771933000.0,-1.0467536846903005,9.582808820458478,-2.415088678644413,-0.013744468,-0.024740042,0.008246681,356.21283,-107.119446,6.0894675
3319776921000.0,-1.0441333660335206,9.58447627946024,-2.4174707817655947,-0.011911872,-0.019242255,0.004581489,356.42142,-107.16927,5.927467
3319782735000.0,-1.041079129331332,9.586419865393726,-2.420247355050789,-0.0125227375,-0.018325957,0.0033597588,356.63025,-107.21743,5.7657676
3319786904000.0,-1.0388890514483902,9.587813537522502,-2.4222383309754503,-0.002443461,-0.005192355,0.007330383,356.8316,-107.26801,5.6075563
3319791952000.0,-1.0362372133209996,9.589501054170634,-2.4246490881037035,-0.012217305,-0.0009162979,0.012217305,357.03247,-107.3119,5.450276
3319796925000.0,-1.0336247745318723,9.5911634987608,-2.427024027723118,-0.0018325958,0.00030543262,0.011911872,357.22787,-107.362656,5.295103
3319801918000.0,-1.031001829252542,9.592832629233094,-2.4294085186782226,-0.009162978,0.0076358155,0.007330383,357.41797,-107.40485,5.1425424
3319806859000.0,-1.0284062008477408,9.594484376411865,-2.4317681761605323,-0.015882496,0.008552114,0.0009162979,357.60678,-107.44864,4.9905596
3319811909000.0,-1.02575331207133,9.596172561648208,-2.434179888422354,-0.0143553335,0.011911872,0.01160644,357.79156,-107.49255,4.844445
3319816927000.0,-1.023117233679245,9.597850049473154,-2.436576318547072,-0.021380283,0.011301007,0.0061086523,357.97293,-107.52937,4.6935525
3319821953000.0,-1.0204769526910784,9.59953021165095,-2.4389765692060656,-0.012217305,0.018020526,0.007330383,358.1505,-107.57135,4.5499096
3319826917000.0,-1.017869241822543,9.60118964759416,-2.441347210724419,-0.014049901,0.025961773,0.002443461,358.32465,-107.60647,4.404762
3319831931000.0,-1.0152352647284986,9.602865798242684,-2.443741730581999,-0.017715093,0.034513887,-0.0018325958,358.4947,-107.642685,4.26234
3319836906000.0,-1.0126217752903512,9.604528911421063,-2.446117625334982,-0.01160644,0.028099801,0.008552114,358.66534,-107.68075,4.1236362
3319841950000.0,-1.0099720384610014,9.606215090892771,-2.448526472196097,-0.0106901415,0.021991149,0.00061086525,358.8296,-107.713844,3.98116
3319846932000.0,-1.0073548717512828,9.607880544129896,-2.4509057099165723,-0.019242255,0.024740042,0.01160644,358.99356,-107.746895,3.8484795
3319851857000.0,-1.0047676485386443,9.609526942602963,-2.453257726330329,-0.011911872,0.022602014,0.009773844,359.1567,-107.782295,3.710788
3319856894000.0,-1.002121588980866,9.611210782015927,-2.455663230223953,-0.021991149,0.02076942,0.004276057,359.31757,-107.809944,3.5768802
3319861906000.0,-0.999488662535842,9.612886264076238,-2.4580567949479635,-0.019242255,0.01282817,0.008246681,359.47928,-107.84269,3.445862
3319866908000.0,-0.9968609893359198,9.614558403195485,-2.460445584004129,-0.017715093,0.009468411,0.013439035,359.63788,-107.87112,3.315457
3319876913000.0,-0.9979886664885412,9.613513398508552,-2.4600388467922394,-0.016798794,-0.0009162979,0.009773844,359.7981,-107.89902,3.1839173
3319881917000.0,-0.9991886947168356,9.612553382943029,-2.4593188338650385,-0.01863139,0.0033597588,0.019242255,359.9548,-107.9266,3.059803
3319886895000.0,-1.0003824877864698,9.611598355467969,-2.4586025620122,-0.0143553335,0.00580322,0.016798794,0.10488618,-107.99026,2.94084
3319891950000.0,-1.00159474651829,9.610628555571138,-2.457875210823751,-0.017715093,0.0009162979,0.014966198,0.2557399,-108.05144,2.825972
3319896926000.0,-1.002788059960335,9.609673911795344,-2.4571592267458637,-0.006414085,0.008552114,0.016493361,0.4016469,-108.11758,2.7142446
3319901926000.0,-1.0039871289334508,9.608714663628351,-2.4564397893685643,-0.003970624,0.002443461,0.021380283,0.5518263,-108.17984,2.6028397
3319906915000.0,-1.005183559954826,9.607757525807324,-2.4557219347534955,-0.005497787,0.00030543262,0.022296581,0.6976897,-108.24338,2.4932988
3319911898000.0,-1.0063785520934332,9.606801539084096,-2.45500494346328,-0.005192355,-0.0030543262,0.01160644,0.8439887,-108.3071,2.3827102
3319916925000.0,-1.007584096039004,9.605837110977005,-2.454281621124144,0.0009162979,-0.0015271631,0.01863139,0.9902333,-108.37192,2.2788286
3319921888000.0,-1.0087742919017189,9.604884961246444,-2.4535675075834367,-0.0015271631,-0.002443461,0.011911872,1.1348989,-108.4326,2.1692057
3319926924000.0,-1.0099819941714412,9.603918806492649,-2.4528428902570214,0.00030543262,-0.004581489,0.010079277,1.2795662,-108.49568,2.0641937
3319931913000.0,-1.0111784251928162,9.602961668671622,-2.4521250356419526,-0.008552114,0.00030543262,0.014966198,1.4215974,-108.554,1.9610924
3319936899000.0,-1.0123741367728074,9.602005106399496,-2.4514076126893105,-0.0076358155,0.005192355,0.012217305,1.5623662,-108.61427,1.8565663
3319941937000.0,-1.013582318670119,9.601038567946432,-2.4506827075879443,-0.007941248,0.007941248,0.011911872,1.7020743,-108.67086,1.7555639
3319946933000.0,-1.0147804283880564,9.600080087177972,-2.4499638457605477,-0.008246681,0.006414085,0.0070249503,1.8399822,-108.72646,1.6538988
3319951920000.0,-1.0159763797818422,9.599123333056212,-2.449246278920429,-0.007941248,0.010079277,0.0067195175,1.975164,-108.78118,1.5553712
3319961895000.0,-1.0183685223832084,9.59720963296306,-2.4478110013527186,-0.011301007,0.02107485,0.00580322,2.107309,-108.83353,1.457145
3319967968000.0,-1.019824911557955,9.596044530139428,-2.4469371727142515,-0.01863139,0.020158553,0.0033597588,2.2405696,-108.8837,1.3588941
3319971928000.0,-1.0207745741846628,9.59528480559117,-2.4463673783114306,-0.013744468,0.026572637,0.005497787,2.3682816,-108.93539,1.2645495
3319976914000.0,-1.021970285764654,9.594328243319044,-2.4456499553587885,-0.017104227,0.025961773,0.0012217305,2.4964082,-108.98141,1.16828
3319981914000.0,-1.0231693547377698,9.59336899515205,-2.444930517981489,-0.012217305,0.021991149,0.009468411,2.6241643,-109.03035,1.0774372
3319986900000.0,-1.024365066317761,9.592412432879923,-2.4442130950288474,-0.018936822,0.026267206,0.009468411,2.7477837,-109.07375,0.9850919
3319992009000.0,-1.025590274994491,9.591432273102887,-2.4434779739167234,-0.007941248,0.032070424,0.0021380284,2.8712072,-109.12252,0.8938673
3319996873000.0,-1.026756729291538,9.590499116486038,-2.442778105236087,-0.013744468,0.030848695,0.009468411,2.9958205,-109.163704,0.8074314
3320001910000.0,-1.027964671375055,9.589532769882608,-2.4420533440221965,-0.011301007,0.025350908,0.0015271631,3.1169958,-109.20898,0.7161264
3320006911000.0,-1.0291639801619656,9.58857332986598,-2.4413337627574223,-0.01985312,0.034208454,0.01160644,3.2360806,-109.24864,0.63395447
3320011896000.0,-1.030359451928162,9.587616959443489,-2.4406164836922555,-0.009773844,0.022602014,0.009468411,3.3593583,-109.29304,0.54494995
3320016879000.0,-1.0315544440667694,9.586660972720262,-2.439899492402039,-0.016493361,0.022602014,0.006414085,3.477042,-109.32924,0.46134204
3320021866000.0,-1.0327503954605552,9.585704218598504,-2.4391819255619214,-0.0106901415,0.018936822,0.004581489,3.5978012,-109.37082,0.3770191
3320026914000.0,-1.033960975495813,9.584735761649103,-2.4384555815858007,-0.01160644,0.0143553335,0.008246681,3.718081,-109.40753,0.29425254
3320031917000.0,-1.0351607639103129,9.583775937933211,-2.4377357125460755,-0.002443461,0.009773844,0.006414085,3.8376827,-109.44771,0.21013506
3320037750000.0,-1.0365595977743498,9.582656879021595,-2.436896416901719,-0.0027488936,0.005497787,0.009162978,3.9582257,-109.483894,0.12877478
3320041911000.0,-1.037557462973777,9.581858592697024,-2.436297701116331,-0.0076358155,0.0030543262,0.0012217305,4.0772963,-109.520294,0.044703383
3320046878000.0,-1.0387486180916703,9.580905675567932,-2.435583012025722,-0.009162978,0.0033597588,0.00061086525,4.1967025,-109.55651,-0.03589136
3320051842000.0,-1.0399390537681796,9.57995333398774,-2.43486875459754,-0.0143553335,0.009468411,0.00030543262,4.313445,-109.589264,-0.11728061
3320056848000.0,-1.0411395616240633,9.578992934722946,-2.4341484538953884,-0.013133603,0.0012217305,0.0012217305,4.4330163,-109.62243,-0.19891961
3320061892000.0,-1.0423491824041426,9.578025245172082,-2.4334226854691696,-0.013439035,0.00580322,0.008246681,4.547037,-109.65275,-0.27624786
3320066915000.0,-1.043553767094535,9.57706158446352,-2.432699938679935,-0.006414085,0.004581489,0.007941248,4.6632013,-109.684616,-0.35575247
3320071923000.0,-1.0470108008631775,9.576807,-2.427277664621092,-0.0067195175,0.01160644,0.0012217305,4.7749286,-109.71341,-0.433008
3320076859000.0,-1.0512197443732687,9.576807,-2.420262757957064,-0.013439035,0.014660766,-0.00030543262,4.887486,-109.74143,-0.50860965
3320081852000.0,-1.0554772919717057,9.576807,-2.413166844469727,-0.005497787,0.016493361,0.004886922,5.0078187,-109.798195,-0.5867662
3320086926000.0,-1.0598039085377915,9.576807,-2.405955816022952,-0.0033597588,0.014660766,-0.002443461,5.1266685,-109.850784,-0.66772604
3320092058000.0,-1.0641799818955282,9.576807,-2.3986623595805305,-0.0106901415,0.01160644,0.00580322,5.247072,-109.9019,-0.7420486
3320096862000.0,-1.06827636856945,9.576807,-2.391835047665216,0.005192355,0.013439035,0.008246681,5.36507,-109.95955,-0.818609
3320101849000.0,-1.0725287999480608,9.576807,-2.3847476612119114,0.003970624,0.018325957,0.009162978,5.483389,-110.00928,-0.89242786
3320107795000.0,-1.0775989737955085,9.576807,-2.3762973704857537,-0.021685716,0.022907447,0.01282817,5.6014595,-110.05551,-0.9638125
3320111900000.0,-1.081099320859715,9.576807,-2.3704634580352195,0.0067195175,0.017104227,0.009773844,5.720088,-110.11597,-1.0364426
3320116953000.0,-1.085408030656411,9.576807,-2.3632822742075583,-0.00580322,0.022602014,0.0106901415,5.834843,-110.15645,-1.1046379
3320121857000.0,-1.0895896876607636,9.576807,-2.356312845058369,-0.005192355,0.016798794,0.003970624,5.9527636,-110.20795,-1.1765805
3320126844000.0,-1.0938421190393748,9.576807,-2.349225458605065,-0.009162978,0.009773844,0.0012217305,6.0696354,-110.25353,-1.2459998
3320131852000.0,-1.0981124571873764,9.576807,-2.3421082275326475,-0.008857546,0.0143553335,0.009773844,6.185006,-110.29946,-1.3127958
3320136900000.0,-1.1024169034675504,9.576807,-2.33493414956668,-0.020463986,0.020158553,0.0125227375,6.3006687,-110.340065,-1.3816476
3320142035000.0,-1.1067955349352,9.576807,-2.327636429607242,-0.026267206,0.026572637,0.01282817,6.415105,-110.38136,-1.447597
3320146923000.0,-1.1109635486866838,9.576807,-2.320689739215473,-0.013744468,0.04184427,0.015882496,6.5257154,-110.423584,-1.5098963
3320151911000.0,-1.1152168327685992,9.576807,-2.31360093158983,-0.023518313,0.029626964,0.003970624,6.640091,-110.4573,-1.5775424
3320156916000.0,-1.1194846128066878,9.576807,-2.306487964034428,-0.02687807,0.033292156,0.013133603,6.748092,-110.49498,-1.6349499
3320161898000.0,-1.1237327806687771,9.576807,-2.299407683442817,-0.03359759,0.03481932,0.009162978,6.8570113,-110.52864,-1.6997949
3320167018000.0,-1.1280986215868618,9.576807,-2.292131281068461,-0.020463986,0.05131268,0.016187929,6.9624915,-110.56572,-1.7567152
3320171926000.0,-1.132283689404432,9.576807,-2.2851561672299168,-0.021685716,0.04734206,0.011301007,7.071012,-110.59644,-1.819139
3320177476000.0,-1.1370161927433715,9.576807,-2.2772686607499013,-0.025045475,0.04550946,0.011301007,7.175286,-110.62916,-1.8759044
3320181916000.0,-1.140802195414523,9.576807,-2.2709586555658885,-0.024129177,0.057726767,0.011911872,7.2759733,-110.662025,-1.9321883
3320186901000.0,-1.1450529213865257,9.576807,-2.2638741114572616,-0.0290161,0.05589417,0.021380283,7.3813496,-110.69123,-1.987093
3320191990000.0,-1.1493923285021763,9.576807,-2.256641765425406,-0.021380283,0.06261369,0.016798794,7.479349,-110.723854,-2.0429258
3320196929000.0,-1.1536038301221805,9.576807,-2.249622595244361,-0.021991149,0.0729984,0.014660766,7.5775814,-110.751656,-2.0948648
3320201911000.0,-1.15785199798427,9.576807,-2.2425423146527503,-0.029626964,0.07788532,0.02076942,7.6753855,-110.778725,-2.1451693
3320206908000.0,-1.162112956395924,9.576807,-2.2354407164760586,-0.027794369,0.0852157,0.015577064,7.7679453,-110.80794,-2.197248
3320211904000.0,-1.1663730621042738,9.576807,-2.2283405394717057,-0.02565634,0.09132435,0.027488936,7.8614254,-110.83363,-2.242254
3320217019000.0,-1.170734639505837,9.576807,-2.2210712429590425,-0.029626964,0.09896017,0.034513887,7.9510746,-110.8577,-2.2885616
3320221917000.0,-1.174911180290364,9.576807,-2.2141103408438862,-0.038789943,0.10354166,0.033292156,8.039828,-110.880066,-2.3331637
3320226931000.0,-1.1791866346581914,9.576807,-2.206984582737436,-0.04062254,0.10140363,0.03940081,8.129342,-110.90224,-2.3734674
3320231917000.0,-1.1834382133334982,9.576807,-2.19989861745647,-0.023823744,0.089491755,0.041233405,8.219239,-110.92669,-2.415413
3320236900000.0,-1.187687233898892,9.576807,-2.192816915692521,-0.03176499,0.076052725,0.038179077,8.309768,-110.94297,-2.45709
3320242092000.0,-1.1921144694548873,9.576807,-2.1854381889097745,-0.028099801,0.051923547,0.03756821,8.406268,-110.9665,-2.4996202
3320247183000.0,-1.1964555819771467,9.576807,-2.178203000533241,-0.024740042,0.03481932,0.041233405,8.504046,-110.98704,-2.5421548
3320251926000.0,-1.2004999537495054,9.576807,-2.1714623801305897,-0.020463986,0.017715093,0.04550946,8.6076565,-111.008224,-2.586814
3320256881000.0,-1.2047250986223783,9.576807,-2.164420471192125,-0.026572637,0.0033597588,0.042455133,8.714034,-111.02692,-2.633605
3320261896000.0,-1.20900140569351,9.576807,-2.1572932919133363,-0.021685716,-0.02076942,0.038789943,8.827222,-111.04913,-2.6818678
3320266928000.0,-1.2132922087208151,9.576807,-2.1501419527047885,-0.018936822,-0.033292156,0.03848451,8.940369,-111.06839,-2.7300127
3320271959000.0,-1.21302681264099,9.577632688349803,-2.145505049738987,-0.026572637,-0.033292156,0.034513887,9.055005,-111.08574,-2.7809548
3320276919000.0,-1.202744648671375,9.580263012187324,-2.1464615293185467,-0.034513887,-0.042760566,0.03268129,9.174808,-111.103065,-2.8332999
3320281912000.0,-1.1923940751430917,9.582910836163284,-2.147424372572729,-0.032986723,-0.03970624,0.032375857,9.318515,-111.124146,-2.901384
3320286893000.0,-1.1820683778179604,9.585552296452535,-2.148384901763412,-0.03390302,-0.04886922,0.021991149,9.466586,-111.14251,-2.9742389
3320293025000.0,-1.1693566380071383,9.58880414035812,-2.149567388211368,-0.02076942,-0.044898596,0.029321533,9.611865,-111.16434,-3.0401764
3320296932000.0,-1.1612573608641372,9.590876050687394,-2.150320808718896,-0.02107485,-0.049480084,0.02565634,9.759425,-111.18273,-3.1129894
3320301911000.0,-1.1509358095728648,9.593516450362197,-2.1512809522323293,-0.014049901,-0.051923547,0.018325957,9.905451,-111.206436,-3.1835847
3320306909000.0,-1.1405748709599344,9.59616692587428,-2.152244759679636,-0.0018325958,-0.04795292,0.030543262,10.052332,-111.2304,-3.2490935
3320311891000.0,-1.1302471006178738,9.59880891647076,-2.153205481708944,0.004581489,-0.0711658,0.031154128,10.20491,-111.25507,-3.3220274
3320317084000.0,-1.1194819237037186,9.60156280189178,-2.154206892688108,0.016798794,-0.081855945,0.035430185,10.354376,-111.2836,-3.388441
3320321931000.0,-1.1094340106471212,9.604133201012845,-2.155141581503053,0.016493361,-0.08552113,0.035430185,10.507409,-111.30996,-3.4569159
3320326914000.0,-1.0991041672881314,9.606775721916549,-2.1561024963709863,0.029932396,-0.10048734,0.0290161,10.665667,-111.343124,-3.5276818
3320331914000.0,-1.0887390826413423,9.609427258043082,-2.1570666894955424,0.024740042,-0.109650314,0.032375857,10.823892,-111.369804,-3.5950778
3320336895000.0,-1.078413385316211,9.612068718332337,-2.1580272186862257,0.027183503,-0.116980694,0.03756821,10.984655,-111.40188,-3.664478
3320342047000.0,-1.0677332020961596,9.614800861157116,-2.159020723281768,0.019242255,-0.12858713,0.037873644,11.1483135,-111.428925,-3.7351198
3320346922000.0,-1.05762724456554,9.617386108880488,-2.1599608115782107,0.027488936,-0.13164146,0.033292156,11.311085,-111.4605,-3.8050435
3320351915000.0,-1.0472766710372567,9.620033932856446,-2.1609236548323927,0.027794369,-0.12767084,0.03848451,11.475499,-111.48641,-3.8722253
3320356909000.0,-1.0369240244920437,9.622682287139629,-2.1618866909252,0.018020526,-0.122783914,0.039095376,11.638894,-111.51156,-3.941535
3320362725000.0,-1.024867358030899,9.625766553962016,-2.163008240367684,0.017104227,-0.12675454,0.04062254,11.803564,-111.538284,-4.009223
3320366993000.0,-1.0160197217763995,9.628029905199623,-2.163831275618805,0.026572637,-0.12003502,0.03756821,11.962989,-111.56476,-4.075867
3320371938000.0,-1.0057686530607253,9.630652274428767,-2.1647848626189914,0.025961773,-0.098043874,0.042760566,12.119708,-111.58698,-4.138247
3320376874000.0,-0.995536241497415,9.633269870892882,-2.1657367140715533,0.020158553,-0.0842994,0.04184427,12.275201,-111.610245,-4.202745
3320381903000.0,-0.9851110393596746,9.635936785928951,-2.166706499516232,0.013133603,-0.076052725,0.04795292,12.426878,-111.63165,-4.261836
3320386994000.0,-0.974557310172314,9.638636580012989,-2.1676882409556555,0.014049901,-0.06291912,0.034208454,12.570766,-111.65424,-4.324107
3320391959000.0,-0.9642647811180524,9.641269555386636,-2.16864568472834,0.0009162979,-0.0571159,0.036651913,12.716072,-111.66911,-4.379943
3320396861000.0,-0.9541028521303404,9.643869121405093,-2.169590979667655,0.004886922,-0.058337633,0.034513887,12.857232,-111.689545,-4.4395795
3320401842000.0,-0.9437771548052092,9.646510581694344,-2.1705515088583383,0.0030543262,-0.055283304,0.03970624,12.996101,-111.703636,-4.4951186
3320406849000.0,-0.9333975590399146,9.649165829971457,-2.171517051853269,-0.009773844,-0.045814894,0.03756821,13.131977,-111.71586,-4.5521994
3320411910000.0,-0.9229060203604348,9.651849714838736,-2.172493008133945,-0.0106901415,-0.048563786,0.03268129,13.269922,-111.73032,-4.6091685
3320417061000.0,-0.9122279101573126,9.654581327356292,-2.1734863198908627,-0.0076358155,-0.027794369,0.032986723,13.398737,-111.74176,-4.6614766
3320421858000.0,-0.9022836479471832,9.657125211116089,-2.174411366774562,-0.021991149,-0.023823744,0.041233405,13.532475,-111.747536,-4.7145543
3320426853000.0,-0.8919289283850409,9.659774095706496,-2.175374595705994,-0.024740042,-0.018020526,0.051618114,13.659829,-111.7569,-4.764212
3320432883000.0,-0.8794286363010133,9.6629718482751,-2.1765374126142087,-0.028099801,-0.018325957,0.05955936,13.787753,-111.76146,-4.812172
3320436902000.0,-0.8710971812619243,9.665103153013607,-2.1773124310477274,-0.025045475,-0.016187929,0.062308256,13.913384,-111.76649,-4.8575935
3320442086000.0,-0.8603506615001334,9.667852265669598,-2.178312106479267,-0.02443461,-0.006414085,0.06291912,14.037003,-111.769356,-4.900456
3320446924000.0,-0.8503214055959003,9.670417892025634,-2.179245059746588,-0.03145956,-0.016798794,0.0693332,14.16568,-111.77018,-4.942679
3320451914000.0,-0.8399770511184048,9.673064125079916,-2.180207324484895,-0.024129177,-0.014966198,0.07880162,14.288196,-111.77474,-4.981423
3320456885000.0,-0.8296720839625671,9.675700282296916,-2.181165925289329,-0.03481932,-0.016798794,0.07941248,14.413519,-111.77236,-5.022092
3320461906000.0,-0.8192634659602616,9.678362954875182,-2.182134168025009,-0.03390302,-0.015882496,0.08857546,14.538777,-111.773865,-5.057347
3320467004000.0,-0.8086952256543953,9.681066461109795,-2.1831172593348067,-0.040927973,-0.016493361,0.09468412,14.66394,-111.77025,-5.09347
3320471958000.0,-0.7946908541777693,9.68438306556909,-2.1812809344309096,-0.043982297,-0.014966198,0.10323623,14.788735,-111.76712,-5.1261077
3320476917000.0,-0.7780398971869051,9.688189000951656,-2.177474999048344,-0.047647487,-0.022602014,0.110872045,14.915911,-111.761475,-5.1583242
3320481922000.0,-0.7612344848579528,9.692030240433354,-2.1736337595666457,-0.05497787,-0.029932396,0.112399206,15.044971,-111.762794,-5.1464143
3320486904000.0,-0.7445063001980445,9.695853827865486,-2.1698101721345138,-0.05955936,-0.03634648,0.1160644,15.176702,-111.763176,-5.1334553
3320492152000.0,-0.7268849607570171,9.699881565088251,-2.1657824349117463,-0.064751714,-0.043676864,0.1301143,15.311687,-111.76056,-5.1190314
3320496930000.0,-0.710841751944283,9.703548586515538,-2.1621154134844627,-0.054061573,-0.05467244,0.13744467,15.448819,-111.76137,-5.1073303
3320501858000.0,-0.6942948844203914,9.707330730005207,-2.158333269994791,-0.062308256,-0.05955936,0.1423316,15.587198,-111.754776,-5.093572
3320506926000.0,-0.6772779354327529,9.71122032075311,-2.154443679246889,-0.0693332,-0.06872234,0.14844026,15.730254,-111.75091,-5.080005
3320511895000.0,-0.6605934011944784,9.715033930939835,-2.1506300690601647,-0.064751714,-0.079107046,0.1591304,15.875581,-111.74738,-5.065444
3320517105000.0,-0.6430996552936108,9.719032503906798,-2.1466314960932023,-0.06963864,-0.08246681,0.1695151,16.021679,-111.73897,-5.050465
3320521916000.0,-0.6269456415644221,9.722724852187808,-2.1429391478121933,-0.06291912,-0.10445796,0.17104226,16.175303,-111.735016,-5.038956
3320526923000.0,-0.6101335137859876,9.726567626630336,-2.139096373369663,-0.063224554,-0.105374254,0.17898351,16.325418,-111.72675,-5.0221176
3320531920000.0,-0.5933549632549636,9.730402726268707,-2.135261273731292,-0.057421334,-0.10354166,0.183565,16.479946,-111.722244,-5.008728
3320536894000.0,-0.5766536403929838,9.734220173857512,-2.131443826142488,-0.06261369,-0.10873401,0.19242255,16.637274,-111.71386,-4.993889
3320542103000.0,-0.5591632522168573,9.73821797934406,-2.1274460206559413,-0.061086524,-0.1142318,0.19150625,16.79304,-111.709366,-4.9812856
3320546923000.0,-0.542979018964999,9.741917234948811,-2.1237467650511888,-0.044898596,-0.110872045,0.19242255,16.948267,-111.7069,-4.9664783
3320551927000.0,-0.5261769643607878,9.745757706950092,-2.119906293049907,-0.04886922,-0.096516706,0.19272798,17.101173,-111.69941,-4.9525056
3320556910000.0,-0.5094454219761384,9.74958206186264,-2.116081938137359,-0.034513887,-0.09621128,0.18997909,17.256021,-111.701645,-4.941206
3320561899000.0,-0.4926937332430429,9.753411021657683,-2.1122529783423154,-0.034513887,-0.0870483,0.18112154,17.403349,-111.699165,-4.930035
3320567054000.0,-0.4753846622029331,9.757367383201773,-2.1082966167982287,-0.024129177,-0.077579886,0.17806722,17.550125,-111.70327,-4.9189353
3320572264000.0,-0.4578909163020656,9.761365956168731,-2.104298043831266,-0.025961773,-0.0720821,0.17165314,17.69354,-111.70465,-4.9114428
3320576923000.0,-0.4422472767335163,9.764941647426522,-2.1007223525734777,-0.020463986,-0.05375614,0.15821409,17.829258,-111.71144,-4.905188
3320581910000.0,-0.4255023034499028,9.768769072260731,-2.096894927739266,-0.02076942,-0.048563786,0.14660765,17.96586,-111.71621,-4.901746
3320586892000.0,-0.4087741187899946,9.772592659692863,-2.093071340307134,-0.015882496,-0.026572637,0.13530666,18.091055,-111.72456,-4.8988886
3320592082000.0,-0.391347527383948,9.77657588305151,-2.0890881169484903,-0.015271631,-0.009162978,0.11728613,18.213556,-111.73258,-4.901492
3320596937000.0,-0.3750457737661531,9.78030200047082,-2.085361999529181,-0.007330383,0.016798794,0.10873401,18.327124,-111.743805,-4.9019876
3320601927000.0,-0.3582907273083164,9.784131727746278,-2.081532272253721,-0.016493361,0.04520403,0.087964594,18.431705,-111.7521,-4.9089527
3320606909000.0,-0.3415625426484082,9.78795531517841,-2.077708684821589,-0.025045475,0.07544186,0.07971791,18.528797,-111.7621,-4.912394
3320611894000.0,-0.3248242848142768,9.791781205051793,-2.0738827949482097,-0.043066,0.10842858,0.062002823,18.61401,-111.76855,-4.920974
3320618111000.0,-0.3039493100991726,9.796552630797589,-2.069111369202412,-0.04062254,0.14782938,0.05222898,18.68907,-111.778015,-4.9261007
3320621931000.0,-0.2911228015883638,9.799484405986416,-2.066179594013584,-0.059253927,0.17379116,0.03359759,18.755903,-111.77816,-4.936476
3320626908000.0,-0.2744114055521608,9.803304156016468,-2.062359843983532,-0.07147124,0.2049453,0.022602014,18.810444,-111.780685,-4.942946
3320631911000.0,-0.2576127086726905,9.807143860537336,-2.058520139462665,-0.07666359,0.2275473,0.010995574,18.858269,-111.781136,-4.9528093
3320636895000.0,-0.2408778085633001,9.810968982930298,-2.054695017069701,-0.0852157,0.25595254,0.0033597588,18.895489,-111.77767,-4.9607334
3320642184000.0,-0.2231188024078897,9.81502818685012,-2.0506358131498805,-0.09132435,0.2742785,0.0027488936,18.928982,-111.77372,-4.9685574
3320646936000.0,-0.2071628944384228,9.818675253786587,-2.0469887462134118,-0.074830994,0.28191432,0.004276057,18.957312,-111.77407,-4.9759603
3320651911000.0,-0.1904582138517019,9.822493468855807,-2.043170531144191,-0.069027774,0.2761111,0.013439035,18.985268,-111.76933,-4.980956
3320656882000.0,-0.1737669641639453,9.826308614003366,-2.039355385996634,-0.062308256,0.27122417,0.016798794,19.010683,-111.769684,-4.9861903
3320661897000.0,-0.1569279745875824,9.830157528289224,-2.0355064717107765,-0.040011674,0.24770586,0.028099801,19.044594,-111.77477,-4.989423
3320666945000.0,-0.1399781800947649,9.834031769428806,-2.031632230571194,-0.02565634,0.19792034,0.03634648,19.087027,-111.77939,-4.995861
3320671993000.0,-0.1416082204584396,9.834753243983103,-2.031381553365078,-0.0125227375,0.12980886,0.056505036,19.143154,-111.788086,-5.0005383
3320676909000.0,-0.1528640979580411,9.83381523529646,-2.033023039183535,0.021991149,0.046120327,0.069027774,19.216793,-111.80636,-5.0119405
3320681913000.0,-0.1643214639075948,9.83286043556742,-2.034693908800207,0.04062254,-0.00061086525,0.086132,19.30389,-111.80707,-4.952072
3320687805000.0,-0.1778120314884842,9.831736198956008,-2.036661287653411,0.05375614,-0.084910266,0.09621128,19.424053,-111.81549,-4.90489
3320691988000.0,-0.1873896017856431,9.830938052020242,-2.03805801978901,0.08093964,-0.17837265,0.1142318,19.561676,-111.83133,-4.8584414
3320696936000.0,-0.1987187478125,9.8299939375,-2.039710190625,0.10903945,-0.2519819,0.12675454,19.71675,-111.850586,-4.8190427
3320701910000.0,-0.2101074245177518,9.829044861989958,-2.041371043037735,0.10903945,-0.3277292,0.15607607,19.900585,-111.86701,-4.781872
3320706908000.0,-0.2215510526184451,9.828091207104718,-2.0430399092136198,0.12308934,-0.38362336,0.16554448,20.097433,-111.89509,-4.753769
3320712081000.0,-0.2333953679775661,9.827104160941982,-2.044767209079136,0.12675454,-0.41905355,0.16829337,20.310677,-111.91826,-4.7269635
3320716923000.0,-0.2444818120078897,9.826180271995536,-2.0463839857945487,0.11728613,-0.43768495,0.18509217,20.53595,-111.93956,-4.6995196
3320721871000.0,-0.2558109580347465,9.825236157475295,-2.0480361566305385,0.09773844,-0.44868052,0.18448131,20.766142,-111.95929,-4.6803856
3320726850000.0,-0.267211082947382,9.824286127928753,-2.049698678577263,0.07238753,-0.44318274,0.19120082,20.998407,-111.97264,-4.6565742
3320731842000.0,-0.278640973199215,9.823333617887313,-2.0513655413123604,0.053145275,-0.42210788,0.1863139,21.227098,-111.982475,-4.637
3320736905000.0,-0.2902334279958958,9.822367560527574,-2.053056111430108,0.025045475,-0.39950588,0.17654006,21.453045,-111.98229,-4.6176534
3320742120000.0,-0.3021739082970394,9.82137250045824,-2.054797435381136,0.010079277,-0.35521814,0.16737708,21.666079,-111.98043,-4.5963626
3320746924000.0,-0.3131733459512472,9.820455862189194,-2.056401523638229,-0.016493361,-0.32498032,0.15668693,21.87465,-111.96807,-4.5785
3320751910000.0,-0.3245894983542198,9.819504496991552,-2.0580663829325387,-0.025961773,-0.28221974,0.15424347,22.067036,-111.95639,-4.5561953
3320757809000.0,-0.3380960934254463,9.81837892472904,-2.060036099133328,-0.03726278,-0.22204952,0.1414153,22.243616,-111.93819,-4.5357056
3320761894000.0,-0.3474492788578857,9.81759947690867,-2.0614001084027334,-0.047036625,-0.1704314,0.13775012,22.41097,-111.91759,-4.511046
3320767099000.0,-0.359366862744262,9.816606324912335,-2.0631380932857826,-0.046731193,-0.13744467,0.13072516,22.564842,-111.89792,-4.487511
3320771925000.0,-0.3704166725109579,9.81568548888269,-2.064749527492429,-0.05009095,-0.103847094,0.12217305,22.703596,-111.87517,-4.46106
3320776922000.0,-0.3818580109701745,9.81473202480475,-2.066418059761516,-0.05955936,-0.079107046,0.11362094,22.834606,-111.85156,-4.4350963
3320781920000.0,-0.3933016390708678,9.81377836991951,-2.0680869259374,-0.062002823,-0.05222898,0.11209377,22.95541,-111.82943,-4.4069037
3320786900000.0,-0.4047040536249801,9.812828149565668,-2.0697497817909225,-0.06536258,-0.03634648,0.112704635,23.071417,-111.80519,-4.380038
3320792161000.0,-0.4167498574340532,9.811824312360535,-2.071506465454654,-0.070554934,-0.025350908,0.11209377,23.18084,-111.780334,-4.3526597
3320796925000.0,-0.4276577094291919,9.810915306383489,-2.073097197439831,-0.073303826,-0.030543262,0.111177474,23.289978,-111.75565,-4.32628
3320801908000.0,-0.4390669929077343,9.809964513607746,-2.074761055013747,-0.06261369,-0.044593163,0.11148291,23.398233,-111.73372,-4.3005495
3320806880000.0,-0.4504510903300326,9.809015819712304,-2.0764212396128863,-0.06627888,-0.069027774,0.1133155,23.510328,-111.70741,-4.277271
3320811897000.0,-0.4619382216187839,9.808058539488364,-2.078096450017931,-0.06261369,-0.11056661,0.116675265,23.630516,-111.68643,-4.257714
3320817105000.0,-0.4738626744295904,9.807064815070133,-2.079835436621374,-0.05497787,-0.15027285,0.12644911,23.757128,-111.66546,-4.239232
3320821923000.0,-0.4848941670644724,9.806145505498884,-2.081444199573637,-0.03726278,-0.20311269,0.13103059,23.897633,-111.64876,-4.227804
3320827735000.0,-0.4982015633272235,9.805036533471467,-2.083384865883009,-0.01740966,-0.25809056,0.14263703,24.050432,-111.6341,-4.2171082
3320831917000.0,-0.5077768439829056,9.804238577343002,-2.08478126411181,0.0067195175,-0.32467487,0.15607607,24.220385,-111.62538,-4.212225
3320836896000.0,-0.5191769688955411,9.80328854779646,-2.086443786058535,0.024129177,-0.39095375,0.16615535,24.404942,-111.61987,-4.211642
3320842128000.0,-0.5311563731017892,9.802290244003029,-2.0881907864251272,0.04428773,-0.45081854,0.16982053,24.605291,-111.6213,-4.216252
3320846928000.0,-0.5421466521900901,9.80137436896318,-2.0897935390550284,0.07727446,-0.48258355,0.18417588,24.816832,-111.629745,-4.2200933
3320851918000.0,-0.5535719631589695,9.80042224053634,-2.09145973397653,0.0870483,-0.5122105,0.19303341,25.042322,-111.63694,-4.2311544
3320856891000.0,-0.5649583502227447,9.799473355833598,-2.0931202524824672,0.09315695,-0.54153204,0.20005837,25.276123,-111.650986,-4.2429457
3320861894000.0,-0.5764134265308216,9.798518746911858,-2.0947907881923413,0.10567969,-0.5525276,0.2049453,25.512152,-111.66848,-4.2549224
3320867030000.0,-0.5881730251553037,9.797538760619222,-2.096505733506336,0.10781772,-0.5494733,0.20922135,25.751375,-111.68365,-4.267559
3320871922000.0,-0.6266600740634698,9.782974045149665,-2.0832215997797574,0.10415252,-0.5332854,0.2098322,25.988554,-111.699814,-4.280434
3320876929000.0,-0.6938654826949645,9.75417214105516,-2.054419194433877,0.10415252,-0.52534413,0.19914207,26.224794,-111.71721,-4.296508
3320881911000.0,-0.7472952329704339,9.724478972368058,-2.022563871621995,0.099265605,-0.49968776,0.20433442,26.5386,-111.769646,-4.353957
3320886900000.0,-0.7869017721746339,9.693673723956897,-1.98735808350373,0.09162979,-0.46273044,0.19333886,26.843166,-111.82107,-4.416751
3320892079000.0,-0.81402856,9.664470138520654,-1.9616244277041304,0.084910266,-0.41263947,0.19547687,27.22062,-111.90125,-4.490019
3320897429000.0,-0.81402856,9.639861166378482,-1.9567026332756965,0.07788532,-0.36651915,0.17959438,27.585169,-111.97841,-4.5678253
3320901825000.0,-0.803402718257882,9.61512777061439,-1.9441053373282136,0.05589417,-0.30726522,0.17470746,28.02082,-112.086754,-4.6544943
3320906914000.0,-0.7541541675970089,9.570804205638645,-1.8997816180780116,0.050396383,-0.22876903,0.16218472,28.435543,-112.19561,-4.7408657
3320911901000.0,-0.7122356017721518,9.527310849367089,-1.855427494556962,0.031154128,-0.15149458,0.1572978,28.949379,-112.354614,-4.8354654
3320917099000.0,-0.6877305775246132,9.481801299296766,-1.806417409507736,0.012217305,-0.08093964,0.14294247,29.439896,-112.50805,-4.928868
3320921938000.0,-0.6649179933895921,9.439434867440228,-1.7607922072081577,-0.009162978,-0.0125227375,0.13469578,30.055271,-112.73048,-5.02846
3320926899000.0,-0.6246093716157206,9.38943460033271,-1.7026940859222293,-0.034513887,0.051923547,0.12767084,30.647282,-112.93876,-5.1253443
3320931916000.0,-0.5596677024017467,9.329488283634852,-1.6277613987003534,-0.062308256,0.1133155,0.121256754,31.21705,-113.13278,-5.217967
3320936897000.0,-0.4705435377001806,9.278791547461369,-1.5538565831226168,-0.09040806,0.17806722,0.10934488,31.988073,-113.43371,-5.3389883
3320942192000.0,-0.3484262692775436,9.234693821192051,-1.4758372428657436,-0.11728613,0.23732115,0.098043874,32.733147,-113.71357,-5.4563556
3320946898000.0,-0.2398929614027694,9.195501394407652,-1.4064965412134591,-0.16249016,0.28771752,0.105068825,33.81661,-114.17103,-5.621975
3320951912000.0,-0.1128927481408276,9.18691430945028,-1.3300167840024706,-0.18203785,0.32803464,0.099571034,34.85552,-114.60177,-5.7889886
3320956914000.0,0.0251852064793082,9.21157106959028,-1.2511151000617666,-0.22235495,0.37323865,0.10629055,35.85543,-114.98688,-5.94482
3320961897000.0,0.1694329749847752,9.231978282375067,-1.142526114575497,-0.25289822,0.38759398,0.11209377,37.254677,-115.56712,-6.1485586
3320967308000.0,0.3318638872756582,9.250541704997312,-0.9986587169801182,-0.26450464,0.3747658,0.12675454,38.594456,-116.09561,-6.3455
3320971898000.0,0.4914061883009508,9.262363547747002,-0.8397976663290616,-0.2666427,0.3481932,0.15057829,39.91924,-116.5441,-6.495685
3320976922000.0,0.7101960403059115,9.267336144687889,-0.5911728297850352,-0.23609942,0.2510656,0.15851954,41.21855,-116.96394,-6.6552653
3320981814000.0,0.9084090526151792,9.27691406832851,-0.3919520687424883,-0.20189096,0.09407325,0.17623462,42.527653,-117.33609,-6.796414
3320986896000.0,1.088946697306922,9.294968006231915,-0.2583542327843312,-0.12675454,-0.0870483,0.21197024,43.83014,-117.69501,-6.946467
3320991949000.0,1.2684541193115215,9.31291892087692,-0.1255187614941761,-0.06536258,-0.29810223,0.24709499,45.193745,-118.01301,-7.0983186
3320996900000.0,1.4740780432891705,9.30235015250576,-0.0385416818990015,-0.019242255,-0.48808134,0.29993483,46.566303,-118.313156,-7.258668
3321001894000.0,1.694476985282258,9.279391704637096,0.0303329904704301,0.0125227375,-0.6600399,0.36285394,47.957703,-118.59314,-7.433976
3321006906000.0,1.867250228199116,9.170708790633793,0.0144787759004421,0.009468411,-0.8005389,0.4156938,49.392757,-118.82561,-7.5936003
3321012967000.0,2.038359778614498,8.972377326276296,-0.0710759993072491,-0.015271631,-0.9272934,0.48380527,50.844616,-119.026276,-7.7565084
3321016951000.0,2.15083304191344,8.842010628701594,-0.1273126309567198,-0.048563786,-1.0360274,0.52412236,52.268475,-119.163246,-7.8886933
3321021937000.0,2.176174988232998,8.658309022148503,-0.1885497533505707,-0.112399206,-1.1539245,0.5558874,53.70733,-119.25637,-8.026474
3321026920000.0,2.134269363333008,8.462749244804371,-0.2444239636413309,-0.14935656,-1.2644911,0.56169057,55.148266,-119.32359,-8.175877
3321031905000.0,2.0754690373103397,8.311363689204876,-0.2772628970052234,-0.18753563,-1.3603969,0.5546656,56.457226,-119.32041,-8.271605
3321037174000.0,2.0001615238869084,8.185851094022054,-0.2939978893093442,-0.23426682,-1.4486669,0.5439755,57.77759,-119.28883,-8.381546
3321042022000.0,1.868224793960572,8.0924015,-0.3400969602601599,-0.2733622,-1.5167783,0.52503866,59.060066,-119.23966,-8.497804
3321046917000.0,1.46674479983841,8.0924015,-0.5181116538531146,-0.2864958,-1.5470163,0.5207626,60.34393,-119.17047,-8.618721
3321051822000.0,1.0644446218671728,8.0924015,-0.6964900138272603,-0.32406402,-1.5534303,0.50518554,61.61143,-119.08522,-8.761303
3321056903000.0,0.7744519960326087,8.111047800089228,-0.793860400311486,-0.35063666,-1.5409076,0.49480084,62.871254,-118.986,-8.902332
3321061919000.0,0.5484493008152174,8.138323927603828,-0.848412801817002,-0.36377025,-1.5158621,0.46639562,64.114944,-118.87033,-9.047566
3321067091000.0,0.3412748958001631,8.175549292088093,-0.9067533457797716,-0.38698313,-1.4844025,0.4392121,65.359825,-118.796555,-9.262677
3321071928000.0,0.2203665412349102,8.236003506851551,-0.9672075368711256,-0.40011674,-1.4587462,0.3912592,66.5815,-118.71321,-9.481445
3321076853000.0,0.0972584895016313,8.297557570880914,-1.028761576797716,-0.4025602,-1.4095715,0.37018433,67.82082,-118.6608,-9.746365
3321082941000.0,0.0485428580712476,8.394045177802408,-1.0956574170915137,-0.4034765,-1.303281,0.30757064,69.01261,-118.599625,-10.014048
3321086904000.0,0.033520341077264,8.460144328372389,-1.1377204644236858,-0.40561453,-1.2721269,0.29352075,70.20113,-118.520935,-10.268783
3321092090000.0,0.0288633466772111,8.560039161717237,-1.213549637153002,-0.410196,-1.1823297,0.2507602,71.335106,-118.46117,-10.543397
3321096922000.0,0.0624718196688185,8.687004328921885,-1.33678064941898,-0.41263947,-1.069625,0.21197024,72.4397,-118.38965,-10.803249
3321101879000.0,0.0969497171479987,8.817253984102647,-1.4631995500403487,-0.41263947,-0.9443977,0.17562376,73.47027,-118.303375,-11.045937
3321106928000.0,0.1229062949455095,8.831407841778697,-1.5554467706467263,-0.42394048,-0.79259765,0.13316862,74.4475,-118.20863,-11.272931
3321111898000.0,0.1456236901248906,8.808690778697,-1.6349576774958237,-0.4474588,-0.6246097,0.09590584,75.37308,-118.10524,-11.481026
3321117060000.0,0.1777537209122598,8.768588685455759,-1.702070528903063,-0.46853364,-0.44012842,0.059864793,76.186035,-117.98361,-11.643173
3321121934000.0,0.2296828416865682,8.68896387213528,-1.726304101728102,-0.49174652,-0.24556783,0.024740042,76.940605,-117.854294,-11.785945
3321126882000.0,0.2824003816109174,8.608130146999926,-1.7509056032337018,-0.5384777,-0.07360926,-0.007330383,77.593925,-117.71303,-11.894414
3321131913000.0,0.3722759667960003,8.507693352619434,-1.743975684232117,-0.57940567,0.0852157,-0.0421497,78.190025,-117.5692,-11.985999
3321136906000.0,0.4907866076010597,8.393269120246133,-1.7112831195624305,-0.62888575,0.21746802,-0.063224554,78.74123,-117.411446,-12.060671
3321142030000.0,0.6370856945578232,8.283253323129252,-1.638285453401361,-0.6618725,0.3145956,-0.079107046,79.22634,-117.251274,-12.109652
3321146929000.0,0.8550498046324873,8.20151675543388,-1.44367464954372,-0.68661255,0.38637227,-0.09040806,79.67836,-117.08217,-12.147489
3321152408000.0,1.0988190144914551,8.110103272191804,-1.2260235790525966,-0.72509706,0.4083634,-0.08582657,80.090195,-116.88706,-12.155618
3321156920000.0,1.1796322498849203,8.177553370812378,-1.124530712957122,-0.73731434,0.39370266,-0.0842994,80.489685,-116.69481,-12.16182
3321161896000.0,1.2527526844258805,8.270985183275084,-1.0229745868638649,-0.745561,0.35002577,-0.067500606,80.892265,-116.49197,-12.162215
3321166974000.0,1.316484935760546,8.38718900315071,-0.9062495717661474,-0.74067414,0.32070425,-0.047036625,81.331024,-116.24835,-12.136701
3321171872000.0,1.3657485019254332,8.522664185191669,-0.7789851626991073,-0.73426,0.24984388,-0.036651913,81.79252,-116.00288,-12.117913
3321176893000.0,1.4146777763984892,8.661811519204731,-0.6566019472030215,-0.7275405,0.1591304,-0.004886922,82.30322,-115.72452,-12.084599
3321181845000.0,1.455231632195539,8.800370476519632,-0.5754942356089219,-0.7110472,0.058337633,0.010995574,82.833694,-115.45164,-12.060262
3321186892000.0,1.4965634799757714,8.941587572151358,-0.4928305400484572,-0.69058317,-0.0720821,0.0421497,83.462135,-115.15459,-12.042914
3321192080000.0,1.5405580209882308,9.088035642069867,-0.4244718704277975,-0.6462954,-0.21410827,0.071776666,84.11975,-114.86533,-12.031359
3321196865000.0,1.5833611555389502,9.22500570838782,-0.3859490716794321,-0.6053675,-0.3594942,0.094989546,84.813286,-114.57627,-12.024614
3321201827000.0,1.644556319917602,9.36910105142776,-0.3599799165307572,-0.5726862,-0.49205196,0.13072516,85.58796,-114.26167,-12.015979
3321206909000.0,1.7724697689728657,9.524671330728795,-0.3876368695127148,-0.51923543,-0.59956425,0.16493362,86.39294,-113.95767,-12.010143
3321211889000.0,1.8978158878818012,9.677119184117062,-0.4147387242648103,-0.49693888,-0.7128797,0.19303341,87.244675,-113.62436,-11.996881
3321216943000.0,2.005550631637104,9.758717002520113,-0.4482831035048948,-0.46639562,-0.80481493,0.22479841,88.11832,-113.299065,-11.977946
3321222480000.0,2.09292639150916,9.733018281186393,-0.4945408233730735,-0.4370741,-0.87995136,0.25992316,89.01574,-112.97239,-11.9556055
3321226893000.0,2.152760254873192,9.675915101551038,-0.5342798127625236,-0.42210788,-0.9166033,0.2910773,89.91333,-112.607376,-11.888138
3321231912000.0,2.203133299517921,9.544945080276673,-0.5846529100062879,-0.40042216,-0.947452,0.3136793,90.82655,-112.24648,-11.816751
3321236893000.0,2.231396,9.414023818581082,-0.61291564,-0.4034765,-0.96761054,0.3295618,91.72112,-111.875854,-11.725747
3321242296000.0,2.231396,9.270680403243244,-0.61291564,-0.4111123,-0.9914343,0.34147367,92.62136,-111.506226,-11.629969
3321246961000.0,2.231396,9.14691637722973,-0.61291564,-0.42088616,-1.0106765,0.3454443,93.4919,-111.14073,-11.524297
3321251900000.0,2.196918357178994,8.998365166750986,-0.5991245732712739,-0.43218717,-1.035722,0.34422258,94.36635,-110.77188,-11.4166155
3321256917000.0,2.123994944854801,8.828210537994536,-0.5699551880360214,-0.45448375,-1.047023,0.3475823,95.23799,-110.396675,-11.304156
3321261887000.0,1.963687797858252,8.770762227172403,-0.4973034716913267,-0.46883908,-1.0500773,0.34330627,96.08715,-110.03152,-11.19518
3321268376000.0,1.63856635371536,8.841882367366958,-0.3449028378484428,-0.50426924,-1.058324,0.34116822,96.93686,-109.65507,-11.082774
3321271920000.0,1.4690370864582454,8.884382051403051,-0.2636958956689981,-0.5323691,-1.0619892,0.34055737,97.76566,-109.290436,-10.984272
3321276913000.0,1.364272485320637,9.005264234937222,-0.1831077118838796,-0.5369505,-1.0858129,0.33169982,98.597435,-108.92452,-10.886939
3321281815000.0,1.2614172730681723,9.123943278334878,-0.1039882893093452,-0.56321776,-1.0934488,0.3387248,99.47276,-108.572525,-10.848901
3321286895000.0,1.1871550733185576,9.228543640951326,-0.0158375272643423,-0.59589905,-1.1191051,0.35124752,100.35323,-108.21768,-10.808311
3321292386000.0,1.1243976381212173,9.331645345580087,0.0827812980032392,-0.6224717,-1.146594,0.36010507,101.23026,-107.85712,-10.760799
3321296877000.0,1.1096732902839903,9.417847860501404,0.1405906755019245,-0.64873886,-1.1661417,0.37201694,102.13623,-107.48953,-10.7353945
3321301907000.0,1.1647949845521688,9.518069027670862,0.1606349194008114,-0.68875057,-1.1774428,0.4083634,103.04199,-107.10708,-10.693689
3321306843000.0,1.232478932778965,9.592727069497352,0.1883026356740685,-0.72601336,-1.1673635,0.4541783,103.97833,-106.71332,-10.658269
3321311893000.0,1.3223476780172814,9.633167889900584,0.2287435733773111,-0.7644979,-1.16492,0.51159966,104.913185,-106.3026,-10.601108
3321317042000.0,1.423012806121714,9.669136532229023,0.2757616743428159,-0.7959574,-1.1377366,0.57451874,105.82933,-105.86212,-10.51092
3321321861000.0,1.539344975855239,9.689910118473172,0.3339277635478934,-0.8396343,-1.1166617,0.6404922,106.74026,-105.40221,-10.395915
3321326994000.0,1.6681963310120016,9.713924330122982,0.3918884980648985,-0.8677341,-1.0842859,0.7104363,107.64075,-104.90853,-10.238782
3321331897000.0,1.876916510683064,9.769583078604237,0.3779738218417543,-0.90102625,-1.0589349,0.8014552,108.53188,-104.392204,-10.050036
3321336919000.0,2.09070250748259,9.826592712475922,0.3637214245354867,-0.91813046,-1.0103711,0.88453287,109.41683,-103.83932,-9.817508
3321341847000.0,2.267312334439412,9.881350818328864,0.35434186,-0.94989544,-0.95203346,0.9850202,110.286446,-103.261055,-9.548339
3321346884000.0,2.3787791098992512,9.934854801645256,0.35434186,-0.9728029,-0.9184359,1.07665,111.141846,-102.672745,-9.253773
3321351747000.0,2.4799717475921863,9.982553897263136,0.3522290201713152,-0.9819659,-0.8677341,1.1640037,111.96628,-102.01818,-8.870683
3321356787000.0,2.545517861036248,10.00776390039695,0.3371030077614123,-1.0027353,-0.8188649,1.2458596,112.774734,-101.34782,-8.462335
3321361782000.0,2.611674243721222,10.067815389807452,0.3034092015696944,-1.0097603,-0.7861836,1.3347405,113.57086,-100.64635,-8.005204
3321366838000.0,2.6826123681247385,10.24516083308916,0.2071360304688154,-1.0118983,-0.74220127,1.3771957,114.340576,-99.94473,-7.5386524
3321371771000.0,2.760031927363682,10.506122026613308,0.0961570789904952,-1.0079277,-0.7076874,1.45783,115.07943,-99.2124,-7.024788
3321376772000.0,2.8558669984992497,10.95654676088044,-0.0523873863431715,-0.99082345,-0.65240407,1.5613716,115.79166,-98.47923,-6.4950976
3321381748000.0,2.9727379421392257,11.503619719593273,-0.2183639289372311,-0.9550878,-0.55741453,1.6688838,116.46355,-97.73743,-5.9294496
3321386847000.0,3.1398404677356275,12.281840386390302,-0.4284356946304263,-0.9224065,-0.46211955,1.8167132,117.11363,-96.97959,-5.328956
3321391805000.0,3.270321430129125,13.029994301291248,-0.5875240404591104,-0.88300574,-0.34788775,1.9837849,117.7132,-96.20863,-4.6765738
3321396774000.0,3.3203893212721187,13.758253412721189,-0.6330402230416069,-0.8784242,-0.20647246,2.1841488,118.272285,-95.41705,-3.9818528
3321401780000.0,3.3353169529352225,14.489050124493929,-0.6370224566396762,-0.89736104,-0.083383106,2.3808472,118.793335,-94.607185,-3.216134
3321407177000.0,3.1836070098076923,15.263294021153849,-0.4434614114615385,-0.9459248,-0.03481932,2.5320365,119.289185,-93.80163,-2.4227357
3321411822000.0,3.031411569676927,15.835962721699314,-0.3009592502620198,-1.01312,-0.058337633,2.6169467,119.76233,-93.01756,-1.6003487
3321416790000.0,2.793382359196133,16.122403961078607,-0.2323746011243958,-1.0598512,-0.13836098,2.6196957,120.2297,-92.32563,-0.78003854
3321421764000.0,2.5550656738234547,16.40919114398372,-0.1637071202849147,-1.0699304,-0.24770586,2.5216517,120.72949,-91.80134,-0.013457182
3321426759000.0,2.319421885864662,16.26994251218045,-0.340306437687218,-1.0433578,-0.3463606,2.3451116,121.237885,-91.58967,0.7099071
3321431751000.0,2.0845784380451127,16.05427009593985,-0.560771739437594,-0.9810496,-0.38545597,2.1148155,121.74976,-91.73489,1.3709035
3321436852000.0,1.8352159841644,15.627159332426714,-0.8541871441845472,-0.88300574,-0.39584067,1.9449949,122.2729,-92.06387,1.9307851
3321441789000.0,1.5923112573889393,15.179452955575703,-1.1494831339317015,-0.7461719,-0.3830125,1.8521434,122.790955,-92.47367,2.4353282
3321446791000.0,1.3546203737486424,14.642931809852898,-1.4228190858228849,-0.6087272,-0.3662137,1.8255708,123.2578,-92.88053,2.872834
3321451742000.0,1.1205658446440911,14.099925055977886,-1.6896412284727025,-0.46486846,-0.35033122,1.8228219,123.71519,-93.283104,3.2829432
3321456792000.0,0.933756617135394,13.643345392773185,-1.8182149150370048,-0.33261612,-0.3387248,1.8417587,124.09368,-86.33681,3.6626568
3321461809000.0,0.7580520163256421,13.208267308663476,-1.9186175565520245,-0.19914207,-0.3210097,1.847562,124.462776,-85.96779,4.030537
3321466823000.0,0.6285661189896531,12.812036031649422,-1.9145628193548387,-0.13897185,-0.31581733,1.8564194,124.77796,-85.62496,4.3735666
3321471943000.0,0.5340609585108541,12.438989653073646,-1.82503163655914,-0.025045475,-0.27885997,1.8555032,125.077545,-85.29159,4.708027
3321477557000.0,0.5881552576448195,12.22809714785472,-1.6105402847103611,0.07269296,-0.13988814,1.8060231,125.31768,-95.00294,5.002899
3321481809000.0,0.6929000336300031,12.14849081798539,-1.4010507327399937,0.17806722,-0.06047566,1.7815884,125.56283,-95.29896,5.2973766
3321486855000.0,0.9335718530910806,12.199564293723457,-1.0807320757715904,0.19150625,0.10995574,1.7296649,125.740814,-95.558304,5.5538306
3321491868000.0,1.237165189381784,12.330970661255307,-0.722763752845682,0.19761491,0.2855795,1.6762142,125.89236,-95.805824,5.7960005
3321496866000.0,1.526078395343883,12.462028289105296,-0.2975280191722459,0.17531833,0.4437936,1.6157386,126.0117,-96.05124,6.037471
3321501905000.0,1.8051085988232909,12.594200574152971,0.1919985528017853,0.14049901,0.5439755,1.5577064,126.09562,-96.27552,6.257895
3321506891000.0,1.979340854918108,12.621287749473876,0.5926351257351998,0.087659165,0.5662721,1.4892895,126.19185,-96.516655,6.500129
3321511905000.0,2.076000993741422,12.568563903925336,0.9309455290365084,0.048563786,0.5510005,1.4013249,126.268776,-96.72877,6.713803
3321517062000.0,2.1209548502922893,12.4681767831493,1.2295128648046767,0.007941248,0.49480084,1.3148874,126.39796,-96.93884,6.929996
3321521862000.0,2.0868312463208687,12.310355348612786,1.438519527141134,-0.035124753,0.44318274,1.219287,126.528015,-97.1177,7.113595
3321526820000.0,2.014367594717632,12.10965593521241,1.6139768939470749,-0.03023783,0.37934732,1.0922271,126.71445,-97.25993,7.2594304
3321531845000.0,1.7996832200344723,11.763233566257732,1.638372879194971,-0.029932396,0.3145956,0.94959,126.91242,-82.62759,7.3719873
3321536938000.0,1.576420911308562,11.352210392990097,1.6209342720516962,-0.015882496,0.24801129,0.80664754,127.15304,-82.54956,7.4458976
3321542164000.0,1.3303446967689825,10.751081272810282,1.4768038936995154,0.009162978,0.19822577,0.65240407,127.40132,-82.509476,7.478015
3321547503000.0,1.078947660904685,10.136954144482685,1.3295570337641358,0.054367006,0.16401732,0.516792,127.620155,-82.50479,7.4720435
3321551895000.0,0.9355506306289696,9.739265191763982,1.2027064553370213,0.096516706,0.15790866,0.3820962,127.83976,-82.5373,7.426378
3321556913000.0,0.8567857442409342,9.429128426551936,1.050099524585126,0.1554652,0.16462818,0.25778514,128.05984,-82.599754,7.3499384
3321561938000.0,0.793102888612901,9.186037492776231,0.9224167644509258,0.20158553,0.16218472,0.15790866,128.23366,-82.70456,7.234007
3321567091000.0,0.7462406614691718,9.018672470731872,0.8219976813199484,0.22113322,0.20738874,0.05589417,128.38618,-82.839935,7.0870466
3321571932000.0,0.7022158134965746,8.861440941192429,0.7276586979244387,0.27916542,0.24587326,0.008246681,128.49484,-82.97944,6.9416413
3321576904000.0,0.6631839190445986,8.659754890782953,0.6512057905054509,0.29932398,0.267559,-0.07880162,128.59131,-83.15225,6.7612486
3321582380000.0,0.6268015378592666,8.394682842418236,0.5888359957383548,0.3359759,0.2996294,-0.1685988,128.66957,-83.33674,6.5718355
3321586924000.0,0.5843811023648081,8.117916972261138,0.5716164977080415,0.36926803,0.32345316,-0.23915374,128.71835,-83.53288,6.375167
3321592099000.0,0.5242074135864387,7.747617616699356,0.5855027428747548,0.4007276,0.36193767,-0.29749137,128.7501,-83.74692,6.16181
3321596916000.0,0.4805777258849558,7.486605037168141,0.5921941568141593,0.4120286,0.41141775,-0.35277468,128.74866,-83.96505,5.946656
3321601881000.0,0.4581954712954246,7.370217434833365,0.587717710570514,0.43096542,0.47250426,-0.39675698,128.7299,-84.19285,5.7234163
3321606823000.0,0.4327593003012287,7.244362823781213,0.5929307661831154,0.41141775,0.5216789,-0.44043383,128.68639,-84.417274,5.5028386
3321611938000.0,0.3939282598137138,7.074477008977407,0.6366156943341261,0.4184427,0.5729916,-0.4746423,128.62294,-84.648445,5.277429
3321617008000.0,0.3631110129180823,6.917340284945262,0.6768376766553417,0.41233405,0.6056729,-0.50946164,128.54276,-84.87457,5.05677
3321621938000.0,0.3595463753944884,6.803271846968667,0.7053547768440921,0.41355577,0.6301075,-0.54733527,128.44954,-85.10691,4.830418
3321626822000.0,0.3560149981804454,6.690267739244998,0.7336057945564364,0.4156938,0.6377433,-0.5833763,128.3473,-85.33257,4.6107407
3321631902000.0,0.3612299839837046,6.565549898959868,0.781431558278582,0.41874814,0.6221663,-0.61727935,128.24474,-85.56344,4.385956
3321636895000.0,0.3736639691791626,6.437065168882725,0.8436015535009102,0.42302418,0.59498274,-0.64812803,128.14326,-85.79857,4.15706
3321641900000.0,0.3866867619593971,6.311833620193786,0.9060046904967702,0.4279111,0.5513059,-0.6750061,128.05283,-86.021545,3.9409223
3321646882000.0,0.4013627593202091,6.19809468278991,0.9683776677868348,0.42302418,0.50426924,-0.7049385,127.97072,-86.24864,3.7203066
3321651895000.0,0.4161300766164257,6.083648016148877,1.031138754730852,0.4175264,0.45112398,-0.7351763,127.9005,-86.46521,3.5089126
3321656963000.0,0.45732397546708,5.935131654026271,1.1125004210328793,0.40866885,0.37568212,-0.7519751,127.849556,-86.68075,3.298232
3321662140000.0,0.5139534792689892,5.76524326933181,1.205534578697887,0.39828414,0.34330627,-0.76083267,127.80055,-86.89672,3.0866735
3321667132000.0,0.5554548,5.63326752354282,1.2811871471996092,0.39400807,0.27305678,-0.7959574,127.79085,-87.10592,2.8807344
3321671860000.0,0.5554548,5.603779183067405,1.31067537220775,0.39553526,0.19394971,-0.8035932,127.791695,-87.30435,2.6853292
3321676822000.0,0.5554548,5.5728313942689685,1.3416230398241615,0.38912117,0.110872045,-0.8179486,127.81759,-87.48306,2.5076847
3321681908000.0,0.5609200632230127,5.585985767027529,1.331201321651717,0.40225476,0.04886922,-0.8399397,127.858765,-87.66177,2.330536
3321687086000.0,0.5685892049489638,5.616662494092175,1.3043592455304671,0.38759398,-0.019242255,-0.85062987,127.923744,-87.8355,2.1575656
3321692123000.0,0.57384604817148,5.650649989691566,1.2520355638861165,0.40194935,-0.086437434,-0.86437434,128.00423,-88.00953,1.9845767
3321697811000.0,0.5693894631759797,5.7085856877035095,1.069315513921296,0.41263947,-0.1441642,-0.8707884,128.09944,-88.17892,1.8157835
3321701824000.0,0.5662452515748998,5.749460504180643,0.9404027923128528,0.43004912,-0.18112154,-0.88697636,128.19957,-88.34683,1.6492587
3321706907000.0,0.5596384980638993,5.781417249494064,0.8286223426834516,0.45051312,-0.2275473,-0.9074403,128.31616,-88.51264,1.4849006
3321711994000.0,0.5518754223567843,5.804706395554139,0.7393469072026134,0.4801401,-0.26328292,-0.9288206,128.43733,-88.67815,1.3208569
3321717123000.0,0.5449427839061737,5.821763403437042,0.6516721634753218,0.50579643,-0.30573806,-0.95417154,128.54962,-91.15642,1.1561083
3321721932000.0,0.5411917795732204,5.818012477439322,0.5766520180648315,0.5381723,-0.34147367,-0.9831876,128.66588,-90.9956,0.98917663
3321726821000.0,0.537378375500896,5.814199153005375,0.5003838768895585,0.57787853,-0.37965274,-1.0177015,128.77953,-90.835434,0.8057599
3321731923000.0,0.5376071432257119,5.813122,0.4396620232282772,0.6249151,-0.38637227,-1.0461067,128.88951,-90.70641,0.6210556
3321737177000.0,0.5394511168102026,5.813122,0.3843427733334555,0.66431594,-0.3915646,-1.0873401,129.0049,-90.627235,0.4281544
3321751700000.0,0.5445481911093194,5.813122,0.2314304272690292,0.6817256,-0.33078352,-1.162782,129.09291,-90.63725,0.21306314
3321752264000.0,0.5447461357422948,5.813122,0.2254920837325466,0.71959925,-0.31520647,-1.1765264,129.18994,-90.75602,0.009311256
3321756920000.0,0.5679914899813815,5.892220251908397,0.1677216022457643,0.7244862,-0.2947425,-1.1976013,129.263,-90.92743,-0.21198733
3321762337000.0,0.6517013259206851,6.191643893129771,0.0775725478469558,0.7104363,-0.23884831,-1.2363913,129.3165,-91.138176,-0.4362245
3321767625000.0,0.7334177025954198,6.483937083969465,-0.010429704259542,0.691194,-0.22082779,-1.2452488,129.35898,-91.388145,-0.6661975
3321772345000.0,0.8472583506224066,6.812023975282202,-0.0610581783670191,0.6750061,-0.18845193,-1.2571607,129.37689,-91.646545,-0.9016835
3321776970000.0,1.173332557053942,7.48591059800116,0.0357759734533529,0.6478226,-0.17531833,-1.2632693,129.39134,-91.899635,-1.1319911
3321782251000.0,1.545656423900415,8.255379842234417,0.1463448719967875,0.6035349,-0.16646078,-1.2629639,129.40474,-92.156456,-1.3583785
3321787649000.0,1.926229086887967,9.041896596707268,0.2593634128673537,0.56382865,-0.1777618,-1.251052,129.41681,-92.40402,-1.5773085
3321791903000.0,2.226146854273859,9.661726584392984,0.348429895428189,0.5342017,-0.20463985,-1.235475,129.42783,-92.63972,-1.7893173
3321796919000.0,2.4711834125699204,10.175709720822072,0.396144903920558,0.49571714,-0.21533,-1.2202033,129.4349,-92.859116,-1.9922775
3321801846000.0,2.634288850700773,10.52564501093583,0.4020760073835711,0.47586402,-0.23335053,-1.1933253,129.4495,-93.066795,-2.1822832
3321806828000.0,2.799215031493935,10.879486621519703,0.4080733196329583,0.47036624,-0.23884831,-1.1866057,129.56573,-93.09234,-2.2374141
3321811791000.0,2.9752802451984635,11.20896383171758,0.398734641715749,0.47342056,-0.23884831,-1.1722504,129.68286,-93.10976,-2.282223
3321816873000.0,3.175583924071703,11.507193662703497,0.3631251132650448,0.48472157,-0.22724187,-1.1704178,129.79517,-93.130035,-2.328075
3321821730000.0,3.355128672771266,11.742957018496613,0.3432521604430584,0.5030475,-0.22876903,-1.1737776,129.94946,-93.11652,-2.343454
3321826744000.0,3.4842234551564686,11.753284812452952,0.3897262950424777,0.52656585,-0.23518312,-1.1765264,130.09772,-93.10845,-2.3591752
3321831732000.0,3.5825844423354773,11.681307700346364,0.409453270848095,0.5207626,-0.23762658,-1.1640037,130.26756,-93.078514,-2.3552735
3321836994000.0,3.6174930866897577,11.416999080653143,0.3695576460564077,0.5222898,-0.24007004,-1.135904,130.43454,-93.0547,-2.3494802
3321841740000.0,3.64616840223254,11.173155396226417,0.322423256817149,0.535118,-0.2406809,-1.099252,130.62584,-93.014984,-2.3339472
3321846727000.0,3.669758000968093,10.904233773584906,0.246936486672923,0.5516113,-0.23365596,-1.0598512,130.81108,-92.97257,-2.3111293
3321851762000.0,3.7224009061517824,10.595831898715984,0.1574676221904944,0.5671884,-0.21960606,-1.0430524,131.00313,-92.94452,-2.2959762
3321856744000.0,3.850412240877731,10.193510574645458,0.034028126985435,0.57635134,-0.2003638,-1.0149527,131.18793,-92.908554,-2.267041
3321861801000.0,3.960632009012132,9.816315558058925,-0.0706448588330444,0.6038403,-0.18173242,-1.0076222,131.36514,-92.89566,-2.2509708
3321866762000.0,3.988078863316002,9.573868536106296,-0.0889427760321586,0.6395759,-0.1414153,-1.0259482,131.52722,-92.88576,-2.233949
3321871759000.0,4.014261382308845,9.327585602698653,-0.111135952313843,0.6569856,-0.09743301,-1.070236,131.68982,-92.89587,-2.2238293
3321876742000.0,4.028570586026986,9.065249703148424,-0.1636030674772614,0.67103547,-0.02565634,-1.1276573,131.82997,-92.91768,-2.2211459
3321881753000.0,4.042344739058972,8.809304550438002,-0.2246748456199765,0.6597345,0.056505036,-1.1924089,131.9648,-92.95669,-2.2373633
3321886788000.0,4.0510540658900025,8.617699451097263,-0.3553148390273639,0.63621616,0.18509217,-1.2614367,132.06314,-93.00692,-2.268126
3321891738000.0,4.05961636337036,8.42932899593606,-0.4837493906393931,0.60994893,0.35063666,-1.314582,132.13393,-93.07802,-2.3225179
3321896747000.0,4.019622242331288,8.314265887078221,-0.6576747117906442,0.57757306,0.54702985,-1.3530666,132.15738,-93.152,-2.3877156
3321901788000.0,3.973344779907976,8.207827191957438,-0.8381569360477377,0.54305923,0.7761043,-1.3720033,132.12314,-93.225044,-2.4573796
3321906976000.0,3.8893915814852495,8.203250886063072,-0.95820676948118,0.52656585,1.0341948,-1.3799446,132.02115,-93.3301,-2.5425508
3321911836000.0,3.803303915527606,8.220468536113936,-1.0572075718487006,0.49754974,1.2974777,-1.3759739,131.85292,-93.42503,-2.6238446
3321916824000.0,3.703308177892082,8.290071533938477,-0.9931849106646496,0.47342056,1.5705346,-1.348485,131.59456,-93.55501,-2.7183082
3321921812000.0,3.597315265658094,8.386429229954613,-0.8438311459001513,0.43493605,1.8044959,-1.310306,131.27458,-93.67111,-2.8026667
3321926816000.0,3.4830056075524043,8.616930048397041,-0.612534813554254,0.38026363,1.9935588,-1.2672399,130.88239,-93.80628,-2.8988469
3321931809000.0,3.365084563892314,8.911732016235101,-0.342299016245376,0.31856623,2.1426098,-1.2024882,130.43929,-93.918205,-2.9727654
3321936847000.0,3.2924341091414453,9.30258075540457,-0.0542784367387276,0.258396,2.2434027,-1.1172725,129.98647,-94.00207,-3.0405996
3321941972000.0,3.2361334539751168,9.735662474719843,0.2445478546227829,0.19883664,2.2840252,-1.0042624,129.51506,-94.05479,-3.0797193
3321946811000.0,3.210269650991108,10.24193257762134,0.5374446230418674,0.12614368,2.277611,-0.88025683,129.0841,-94.055176,-3.1098843
3321951841000.0,3.214731562902927,10.879993389032975,0.8542439190403854,0.062308256,2.2299635,-0.8060367,128.66096,-94.036545,-3.1232774
3321956817000.0,3.2498885549532885,11.549703666265842,1.1501327988807697,0.04153884,2.1157317,-0.65179324,128.34395,-93.942474,-3.0987036
3321961986000.0,3.359782231264453,12.337274519100916,1.4157090956433265,-0.010995574,1.9544634,-0.4538729,128.06163,-93.81391,-3.0447087
3321967126000.0,3.4521958065671643,13.134418570149254,1.6144208723880595,-0.05681047,1.7608191,-0.24220806,127.90159,-93.61111,-2.9488864
3321971877000.0,3.4736409173919878,13.924313933385704,1.5500855025923015,-0.11148291,1.5280794,0.014966198,127.804115,-93.35548,-2.7912514
3321977007000.0,3.496796762168106,14.777221366221523,1.480617927965436,-0.15363261,1.2913691,0.26542094,127.81063,-93.00194,-2.5578742
3321981852000.0,3.3694772984858514,15.01684295631309,1.16537042068509,-0.18570304,1.0638218,0.51159966,127.880585,-92.601074,-2.2647614
3321986930000.0,3.1401236681532354,14.904178245076949,0.6744731104749295,-0.19211712,0.8897252,0.7067711,128.00096,-92.168465,-1.9274092
3321992005000.0,2.875847538615815,14.760571725300016,0.2005493194312017,-0.14935656,0.80970186,0.8567385,128.14882,-91.71389,-1.5507958
3321996921000.0,2.492740619957258,14.509036661351306,-0.198036655219464,-0.09315695,0.81000733,0.97433007,128.31822,-91.240135,-1.1435589
3322001825000.0,2.1105688687160944,14.258115596745029,-0.5956496779385172,-0.04550946,0.8323039,1.0451905,128.40097,-90.84936,-0.77681434
3322006868000.0,1.6401118908843009,14.012939909622126,-0.8930478793455395,0.016493361,0.8781188,1.074512,128.47678,-90.46294,-0.40080726
3322012047000.0,1.130024373042462,13.765625006232955,-1.1596845483209972,0.08002335,0.9095783,1.0684034,128.55048,-90.13993,-0.027225139
3322017191000.0,0.4853204407922659,13.432545230370197,-1.3806890863239802,0.15393804,0.9627236,1.0170907,128.50253,-90.30465,0.2628983
3322021902000.0,-0.4969341674369253,12.879362081584532,-1.458702068851686,0.22388211,0.99204516,0.9306532,128.45613,-90.56419,0.53263605
3322026824000.0,-1.5231827731902854,12.30140252770573,-1.5402091586418298,0.27947086,1.0002918,0.8023715,128.32849,-90.73501,0.67133063
3322031868000.0,-2.2545744065008764,11.760221989818907,-1.5680316708420263,0.3323107,0.96486163,0.61422503,128.20952,-90.875786,0.76422685
3322037055000.0,-2.81835524985396,11.23375036351498,-1.563886226328966,0.36346483,0.8885035,0.35277468,128.10365,-90.974846,0.79648536
3322042044000.0,-3.2742011022714457,10.762608597019732,-1.5999531021103504,0.37507126,0.82436264,0.042455133,127.95098,-90.93669,0.55218154
3322046929000.0,-3.504063705050342,10.389552774224727,-1.7356097685219494,0.3820962,0.7666359,-0.26939157,127.81585,-90.985695,0.23972152
3322051850000.0,-3.735620279927507,10.013747717116392,-1.872266156528393,0.40775254,0.75686204,-0.40469822,127.626045,-91.19725,-0.18372217
3322056894000.0,-3.831462410642472,9.774395105198629,-1.9538423820500248,0.41691554,0.7498371,-0.6478226,127.4452,-91.578125,-0.7142735
3322061970000.0,-3.883118033791074,9.579693536782736,-2.017418431486022,0.4428773,0.75228053,-0.84116143,127.25896,-92.06775,-1.2551408
3322067022000.0,-3.891814377692541,9.597886501867366,-2.069053269889977,0.45631635,0.73914695,-0.98471475,127.014435,-92.677284,-1.87987
3322071933000.0,-3.820604530695468,10.010902742000605,-2.0975372681740185,0.44684792,0.7293731,-1.0760391,126.76132,-93.33249,-2.5278654
3322076828000.0,-3.770069206892321,10.730857038552,-2.11487810344616,0.38240165,0.6939429,-1.1261301,126.48341,-94.01772,-3.1945481
3322081845000.0,-3.760242679517333,12.101658530831372,-2.1099648397586663,0.24281894,0.6386596,-1.1459832,126.20808,-94.699554,-3.861481
3322087051000.0,-3.7871661203606095,13.66816427337032,-2.1537296418585297,0.08093964,0.539394,-1.1615603,125.943794,-95.356,-4.510365
3322092976000.0,-3.881605936241332,15.69862027371706,-2.287519346782247,-0.13408493,0.4166101,-1.1603385,125.69879,-95.97571,-5.1427584
3322096940000.0,-3.944788962427185,17.0570553092233,-2.3770286109708736,-0.36132678,0.27763826,-1.1410962,125.48536,-96.52947,-5.734395
3322101912000.0,-3.820322800566135,17.899052,-2.5539910074626864,-0.5739079,0.16920967,-1.0968086,125.29941,-97.04025,-6.299198
3322106910000.0,-3.495147158589809,17.899052,-2.795409326865672,-0.7538077,0.1441642,-0.9578367,125.13179,-97.48955,-6.812501
3322112027000.0,-3.0998685013029315,16.963742577012564,-2.971920720288506,-0.9056077,0.24220806,-0.799928,124.960396,-97.854355,-7.2529836
3322117135000.0,-2.658260437719869,15.3247852759423,-3.0948425416379712,-1.0467176,0.4166101,-0.6759224,124.7802,-98.165565,-7.642904
3322121919000.0,-2.23858321129376,13.691964575342466,-3.208437308077118,-1.1328496,0.6200282,-0.59498274,124.548874,-98.40791,-7.952474
3322126957000.0,-1.7881711350076104,11.836462273972604,-3.3259360950279047,-1.1859949,0.83199847,-0.5174029,124.27236,-98.6054,-8.213384
3322131890000.0,-1.3833743089118198,10.277832822326454,-3.4762838559849905,-1.2266175,1.0812315,-0.4529566,123.913345,-98.769394,-8.427273
3322137037000.0,-1.008830353893058,8.992360881332083,-3.67973984108818,-1.2327261,1.3536774,-0.4016439,123.494026,-98.91521,-8.614423
3322141889000.0,-0.6652351916599557,8.062185846436481,-3.866411200961345,-1.2269229,1.6569719,-0.3640757,122.97815,-99.037125,-8.7659645
3322146924000.0,-0.3303120753170928,7.739397693376284,-4.048434585826454,-1.1841623,1.8057177,-0.30115658,122.43725,-99.1423,-8.892799
3322151842000.0,-0.0031716808435676,7.424110277934367,-4.226228231658949,-1.1447614,2.1022928,-0.26419923,121.7457,-99.23767,-8.996062
3322156918000.0,0.3344787141030803,7.0986936612643445,-4.409733832766257,-1.0296134,2.339003,-0.19822577,121.036575,-99.3172,-9.072093
3322163136000.0,0.6694372124825857,7.1117568403455,-4.450621358233491,-0.84665924,2.4193318,-0.07727446,120.294365,-99.38177,-9.122401
3322167160000.0,0.8278160894956813,7.425830096405684,-4.340561426441906,-0.4373795,2.3515258,-0.044898596,119.53516,-99.47876,-9.178283
3322171931000.0,1.0155958166898855,7.798206712872666,-4.210070389022012,-0.26328292,2.0638082,0.032070424,118.80232,-99.481476,-9.13097
3322176909000.0,1.2991621608736643,8.328754772784412,-4.018836670238843,0.12156218,1.6181821,0.116980694,118.14098,-99.52915,-9.073714
3322181884000.0,1.683473406159648,9.022511904043578,-3.7642929789021577,0.5564982,1.0763446,0.21105394,117.59686,-99.588936,-8.997327
3322186935000.0,2.000326052049064,9.512875409907767,-3.5597474864029666,1.0042624,0.48991394,0.29840767,117.23416,-99.618095,-8.8510475
3322191974000.0,2.2572835732718453,9.829483393268042,-3.3991491374536467,1.4184291,-0.10476339,0.35338554,117.03356,-99.703125,-8.698915
3322196929000.0,2.4315093393700784,9.956489358570565,-3.282851379345851,1.779145,-0.61391956,0.36682457,117.02523,-99.77049,-8.477628
3322201923000.0,2.513585925984252,9.864756747425805,-3.215258753906723,2.0512855,-1.0146471,0.33322698,117.15538,-99.921616,-8.27081
3322206876000.0,2.533921084979138,9.556506880128651,-3.194890689925244,2.2088888,-1.3081679,0.26450464,117.42906,-100.097466,-8.042083
3322212054000.0,2.482194377329624,8.974580968967315,-3.229375116681154,2.2479842,-1.4877623,0.18295415,117.77809,-100.35003,-7.8429546
3322216990000.0,2.422015272490857,8.47891632572125,-3.2568310007151564,2.166739,-1.5366315,0.09682214,118.171684,-100.64354,-7.6663995
3322221934000.0,2.3142756485981306,8.240349943925233,-3.260678842990654,1.9950858,-1.455081,0.021380283,118.56897,-100.967316,-7.5185905
3322226826000.0,2.2076692084518488,8.004292755465258,-3.264486214433157,1.7302758,-1.3051136,-0.059253927,118.92889,-101.32125,-7.4205337
3322232426000.0,2.009707016716855,7.901171980141613,-3.16146931903638,1.4428637,-1.1117748,-0.1020145,119.24389,-101.65119,-7.3316283
3322237111000.0,1.8198232460649464,7.868307584031903,-3.0409662155530235,1.1502593,-0.93584555,-0.0888809,119.513336,-101.93172,-7.2463913
3322242165000.0,1.5960053237995655,7.863099258827314,-2.903316836202043,0.8753699,-0.79137594,-0.04886922,119.71738,-102.1813,-7.1847634
3322246931000.0,1.342697886318668,7.9255080604037635,-2.756471864352932,0.6597345,-0.71837753,-0.025045475,119.88698,-102.37837,-7.1200185
3322251822000.0,1.0827468421056865,7.989553685353494,-2.605775524169549,0.58184916,-0.6038403,0.0021380284,120.00242,-102.53721,-7.07335
3322256910000.0,0.4967713607350096,8.174091549323018,-2.310344274661509,0.43799037,-0.5360342,0.0030543262,120.10745,-102.628914,-7.026385
3322262114000.0,-0.2101464078014185,8.403036932624113,-1.9609020496453904,0.36193767,-0.49480084,-0.026267206,120.185005,-102.7177,-6.9765234
3322266962000.0,-0.7440376870594346,8.59670062870075,-1.7074649597091345,0.3200934,-0.48716503,-0.08552113,120.2444,-102.77717,-6.981492
3322271934000.0,-0.9948893460043036,8.74862461356385,-1.619136901951473,0.31123585,-0.4896085,-0.18387043,120.28988,-102.83579,-7.0039706
3322276860000.0,-1.243420173028122,8.899143026563776,-1.5316260386139349,0.33567044,-0.49357912,-0.3036,120.28299,-102.8829,-7.2076035
3322281910000.0,-1.441433781602323,9.102944519388451,-1.4388399216689445,0.3652974,-0.4792238,-0.43218717,120.26789,-102.94905,-7.432204
3322287087000.0,-1.602349957909122,9.348553550392896,-1.3414432979501196,0.42332962,-0.45540005,-0.54825157,120.24727,-103.04746,-7.6777415
3322291975000.0,-1.6288920054456564,9.65851403670553,-1.0055848851974427,0.4999932,-0.42638394,-0.6246097,120.21846,-103.17954,-7.9855695
3322296930000.0,-1.3005217142835652,10.193900389093644,0.0259261437984206,0.6081163,-0.54153204,-0.6081163,120.22462,-103.33758,-8.292674
3322302129000.0,-0.9559814229108688,10.755650872658894,1.108232065039489,0.95417154,-0.93370754,-0.49510628,120.32345,-103.55403,-8.61161
3322306906000.0,-0.5881298562752761,10.844046979609177,1.4749486467969413,1.5311338,-1.3854424,-0.34574974,120.47535,-103.83139,-8.910939
3322312252000.0,-0.1400963988360238,10.639604493627866,1.440150002124044,2.0253236,-1.7379116,-0.21777347,120.71297,-104.140686,-9.187045
3322317216000.0,0.2407024942905135,10.465384582786754,1.4196103990561508,2.31915,-1.9642372,-0.12217305,121.26576,-104.223785,-9.333433
3322321897000.0,0.5203909150991841,10.33629763949768,1.4267818543033113,2.4291058,-2.0604484,-0.0580322,121.87704,-104.3466,-9.455674
3322326827000.0,0.8149570152031675,10.200344076067829,1.4343347862342024,2.4080307,-2.110234,0.0067195175,122.558044,-104.448074,-9.505075
3322331865000.0,1.0225941175953033,10.10258609337301,1.8842994916277944,2.2516494,-2.3218987,0.062308256,123.30314,-104.5238,-9.548282
3322337092000.0,1.1997334818851535,10.01804229001126,2.53246846857005,1.9278907,-2.6456573,0.0888809,124.08397,-104.54312,-9.585819
3322342169000.0,1.3181839462835123,10.028188193209184,2.7404434579868355,1.4776831,-2.8307495,0.11301007,124.90557,-104.46199,-9.565912
3322346895000.0,1.3072849359768823,10.24616877869642,1.981145208861776,0.9944886,-2.830444,0.11728613,125.75393,-104.29511,-9.543949
3322351826000.0,1.2959131586129395,10.4736047217852,1.1889108317065342,0.77671516,-2.6746736,0.12797627,126.70813,-103.95897,-9.461648
3322356910000.0,1.1988815857084658,10.55798470789538,0.5568281529846004,0.41080686,-2.3176227,0.1282817,127.5914,-103.49122,-9.356003
3322362109000.0,1.0690620939705044,10.590439379613787,-0.0233025479540455,0.14080444,-1.7941113,0.11759156,128.37032,-103.00267,-9.222223
3322366975000.0,0.9335230171228016,10.564090280779242,-0.521931071002445,-0.04917465,-1.1777482,0.10293079,128.93076,-102.60276,-9.083974
3322371932000.0,0.7650357248205695,10.414323512027762,-0.9337889305134476,-0.22449298,-0.5338962,0.106595986,129.32738,-102.157646,-8.914065
3322376885000.0,0.596684391600284,10.264677596024924,-1.345314445574572,-0.38545597,0.06780604,0.105068825,129.51456,-101.82001,-8.756331
3322381963000.0,0.4258653654209412,9.983919099332356,-1.6118518016039731,-0.50243664,0.6209445,0.092240654,129.52968,-101.46647,-8.57879
3322387124000.0,0.2528223972805732,9.657955012050154,-1.833185795440482,-0.58368176,1.102001,0.0580322,129.39386,-101.104225,-8.39184
3322391922000.0,0.1111164383475976,9.24332985833404,-1.9302755570883825,-0.65270954,1.5066991,-0.00061086525,129.07852,-100.85341,-8.246247
3322396931000.0,0.0054282871044826,8.564486459757648,-1.7920679472671808,-0.71837753,1.8225164,-0.0693332,128.65504,-100.606415,-8.105527
3322402275000.0,-0.1039571814948249,7.850272283050723,-1.6451621934595904,-0.77518797,2.0726657,-0.13194689,128.1129,-100.44719,-8.019654
3322406910000.0,-0.0355318349896498,7.716679899434779,-1.5441533869191808,-0.84849185,2.273335,-0.16829337,127.50161,-100.29054,-7.942762
3322412131000.0,0.0415444830477868,7.566197518666961,-1.4303741034353663,-0.93218035,2.4107797,-0.1994475,126.85524,-100.1684,-7.915322
3322417862000.0,0.1516844903571748,7.429431239599821,-1.2885274254218306,-0.9981538,2.5130997,-0.22510384,126.17095,-100.05332,-7.8968472
3322421934000.0,0.2623218509628192,7.368289585008212,-1.1662440098327609,-1.0885619,2.5445592,-0.25350907,125.47752,-99.937965,-7.891599
3322426939000.0,0.3983090783280573,7.293138803762878,-1.0159423165559205,-1.1612549,2.5057693,-0.24862215,124.81746,-99.80359,-7.8775992
3322431907000.0,0.6832521335108102,7.327087626529199,-0.8023871047572516,-1.2257011,2.4055874,-0.26358834,124.17584,-99.67921,-7.883451
3322437107000.0,1.1123920738047242,7.457362169885358,-0.5226798049188275,-1.2800682,2.2269092,-0.2611449,123.57965,-99.55269,-7.891179
3322442415000.0,1.5402477493131868,7.592427786435439,-0.2451984770089285,-1.3219124,1.9935588,-0.25289822,123.07889,-99.38931,-7.8789163
3322446932000.0,1.703655343166209,7.748407730657624,-0.1672085095513392,-1.3530666,1.8484782,-0.2452624,122.61397,-99.23298,-7.8722506
3322451925000.0,1.884282776442308,7.920824790985577,-0.0809999845312499,-1.350623,1.541213,-0.23243423,122.35824,-98.966576,-7.78246
3322456906000.0,2.0137361601323147,8.074847896022682,-0.0455737418751673,-1.3277156,1.210735,-0.21288654,122.15998,-98.71065,-7.6949015
3322462115000.0,2.115888272678585,8.2241473867449,-0.0416448155740726,-1.294118,0.8729264,-0.19853121,122.05966,-98.46992,-7.6133943
3322466943000.0,2.205298689135255,8.360520941241685,-0.0455482270365853,-1.2299771,0.5384777,-0.18295415,122.08937,-98.201,-7.4991813
3322471956000.0,2.238052227187447,8.479252431178576,-0.1356205178142589,-1.1691961,0.24831672,-0.16768251,122.20781,-97.947,-7.385895
3322476822000.0,2.2698453084086645,8.594502267610437,-0.2230515505140713,-1.0906999,0.0018325958,-0.16126843,122.421745,-97.68919,-7.2517624
3322481911000.0,2.238775324098919,8.567946039016608,-0.4970883028631518,-1.0195341,-0.1881465,-0.14538592,122.704124,-97.443054,-7.112508
3322488167000.0,2.16925618762782,8.463667425048953,-0.9228933449459714,-0.96852684,-0.30848694,-0.14110987,123.036934,-97.215515,-6.975152
3322492120000.0,2.1248099924577373,8.397888617685306,-1.189520825054183,-0.8933904,-0.38698313,-0.13530666,123.395065,-97.000656,-6.829715
3322496931000.0,2.032941538829649,8.325991382054617,-1.3373091979107066,-0.8680395,-0.419359,-0.13316862,123.77289,-96.79564,-6.683207
3322501823000.0,1.9395263496488944,8.252883654616385,-1.487585797373212,-0.8341365,-0.41447207,-0.12339478,124.06735,-96.635414,-6.5553865
3322506878000.0,1.847616096833216,8.1960077565095,-1.6249638079521462,-0.8200866,-0.3857614,-0.13103059,124.36353,-96.48416,-6.431031
3322512020000.0,1.7566482004574244,8.148357862948627,-1.7549178616291343,-0.80481493,-0.34300083,-0.13347405,124.65363,-96.334274,-6.3015633
3322516908000.0,1.655888829585913,8.126552230263158,-1.8580784160797212,-0.8072584,-0.3042109,-0.13347405,124.89601,-96.216446,-6.1967626
3322521872000.0,1.5317054078753871,8.140350190789475,-1.9316686114744583,-0.8200866,-0.2565634,-0.13713925,125.12319,-96.10308,-6.092975
3322526822000.0,1.4129395917911216,8.154383677618705,-2.0050069474302195,-0.8353582,-0.19181168,-0.14630222,125.30064,-96.017586,-6.0128784
3322531848000.0,1.3038730623030177,8.169256682665567,-2.0793705232052737,-0.8503244,-0.13988814,-0.160963,125.46806,-95.93622,-5.934914
3322537113000.0,1.1855038512245315,8.177206742882623,-2.137141025341291,-0.86315256,-0.09437868,-0.16523905,125.595474,-95.88502,-5.884953
3322542157000.0,1.0662066802181518,8.173892865678809,-2.1636514893325103,-0.8753699,-0.07544186,-0.16523905,125.71583,-84.16218,-5.8373837
3322546926000.0,0.9534136174644988,8.170759661795978,-2.188716596940385,-0.8753699,-0.03390302,-0.16432275,125.793686,-84.18519,-5.812835
3322551906000.0,0.8638908801401122,8.153410476781424,-2.178142781265012,-0.86590147,-0.005497787,-0.16829337,125.870224,-84.20635,-5.7890654
3322557498000.0,0.7995752353522818,8.11589281305044,-2.1191868043234585,-0.8359691,-0.004581489,-0.17134771,125.943184,-84.22789,-5.7642484
3322562127000.0,0.7802271887257158,8.079449021084615,-2.07479177403554,-0.7556403,-0.008246681,-0.16646078,125.98384,-84.21725,-5.772696
3322567129000.0,0.7890483062231839,8.035343364515239,-2.0306860253567813,-0.7318166,-0.027488936,-0.16371189,126.029015,-84.20531,-5.78175
3322571827000.0,0.8093400567593679,8.00138833336343,-1.9931146393318289,-0.66950834,-0.0571159,-0.16982053,126.06521,-84.18142,-5.8037148
3322576886000.0,0.8618356621507901,7.983889903295711,-1.9624922268352143,-0.6093381,-0.07819075,-0.16065755,126.10447,-84.16401,-5.8195906
3322581920000.0,0.914247831642224,7.971400352135374,-1.9316535321837227,-0.5494733,-0.093767814,-0.14966199,126.146194,-84.147194,-5.8348985
3322587128000.0,0.9705140984206284,8.015609599516518,-1.8954823564867045,-0.50976706,-0.119729586,-0.13713925,126.19667,-84.13508,-5.846329
3322591964000.0,1.0227613461434326,8.056661043513296,-1.8618948361966157,-0.48075095,-0.12858713,-0.121256754,126.24094,-84.136986,-5.843322
3322596922000.0,1.0949845916674068,8.195918316070001,-1.8125448778271296,-0.45937067,-0.13927728,-0.10720685,126.29282,-84.14306,-5.8368373
3322601900000.0,1.1796844855823043,8.399198220662699,-1.7532549388202896,-0.44959682,-0.14996742,-0.09682214,126.34684,-84.15325,-5.8266144
3322606867000.0,1.2983673481431282,8.651532626457035,-1.7069275607481702,-0.45081854,-0.16584991,-0.06872234,126.40698,-84.18503,-5.7933736
3322612138000.0,1.4945010342911358,9.02099367199783,-1.684121329249119,-0.45998153,-0.16432275,-0.015271631,126.46467,-84.22672,-5.7501855
3322616904000.0,1.7028320945323516,9.432810921196928,-1.6589151005796647,-0.4783075,-0.14905111,0.04734206,126.53469,-84.29854,-5.674062
3322621929000.0,2.1250337675309416,10.37522554206486,-1.6023701918376938,-0.4886922,-0.13744467,0.15271631,126.60472,-84.39605,-5.5716896
3322627161000.0,2.5646276288500705,11.356462018956604,-1.5434959704370983,-0.49877146,-0.122783914,0.2874121,126.689705,-84.55474,-5.403922
3322631906000.0,2.879762891882101,11.9290728355014,-1.4473072945990448,-0.52320606,-0.11453723,0.44776422,126.77242,-84.744675,-5.2023015
3322637135000.0,3.168368131582414,12.33724308216697,-1.3112506174625391,-0.5174029,-0.10995574,0.62888575,126.851234,-84.97318,-4.9607525
3322641990000.0,3.4288327198133697,12.675435931944332,-1.1493570691384445,-0.50243664,-0.11575896,0.72692966,126.99047,-85.316734,-4.5889378
3322646896000.0,3.6556068176655137,12.819059269407129,-0.8129754722403668,-0.4972443,-0.1777618,0.926988,127.14129,-85.71943,-4.148024
3322651826000.0,3.883490287378328,12.963385207786985,-0.474948306992197,-0.44104472,-0.31031954,1.1096367,127.36116,-86.18042,-3.624271
3322656912000.0,4.086132951385513,12.97099309066602,0.0328972881623724,-0.34391713,-0.5390886,1.2742649,127.6212,-86.6562,-3.0644097
3322662162000.0,4.277599285853184,12.901739626883812,0.6439599656052504,-0.20647246,-0.8891144,1.4202617,127.94875,-87.137794,-2.473262
3322666981000.0,4.410069855408212,12.91658337002716,1.5877639037226392,-0.011301007,-1.3399329,1.5393804,128.4388,-87.60028,-1.7980607
3322671903000.0,4.387476546413165,13.21782644144432,3.948758127368589,0.1777618,-1.8197676,1.6349808,129.02763,-87.97698,-1.105644
3322676829000.0,4.364864876338073,13.519314326409969,6.311671078542898,0.35124752,-2.4080307,1.7562376,129.85933,-88.08719,-0.33706662
3322681911000.0,4.069178390948928,13.935579060712294,7.160887671627759,0.44806966,-3.440393,1.863139,130.93823,-87.92642,0.44176048
3322687162000.0,3.632450616532547,14.416380468329216,7.273074652792606,0.27183503,-4.5387287,1.9917262,132.18503,-87.48849,1.247506
3322691914000.0,3.1941292405847768,14.81982465390116,7.261386588447482,-0.12705997,-5.301089,2.129171,133.849,-86.4529,2.1040173
3322696929000.0,2.5415998419275385,15.106021929842685,6.750047729040204,-0.5983425,-5.736025,2.2272146,135.66951,-85.364784,2.984248
3322701824000.0,1.9046843072461463,15.385371015731764,6.25094429597966,-1.0186177,-5.9159245,2.2537873,137.52628,-84.27822,3.802397
3322707018000.0,1.2683557498785492,15.686842700635406,5.367684104150245,-1.328021,-5.807496,2.2446244,139.36163,-83.13848,4.643838
3322712185000.0,0.6554354877197781,15.98932228014156,4.309003705734738,-1.4902058,-5.365535,2.2177463,141.09349,-81.97397,5.489271
3322716980000.0,0.0245079463622409,16.197220130468153,3.04551633933231,-1.4844025,-4.454735,2.2030854,142.53012,-80.98306,6.1882257
3322721951000.0,-0.8852365338173445,16.11318772171911,0.5793416264006139,-1.323745,-3.177721,2.1771238,143.69316,-80.02164,6.855972
3322726912000.0,-1.793150910435917,16.029324358250193,-1.88187196258634,-1.1291844,-1.7672331,2.1560488,144.42627,-79.30755,7.3565335
3322731905000.0,-2.498121441674466,15.753231650727471,-3.194097706806773,-0.97341377,-1.1032226,2.140472,144.98956,-78.63759,7.8314266
3322737053000.0,-3.0644184366885048,15.321168022036929,-3.651330119058964,-0.8979719,0.05222898,2.125811,145.00038,-78.01288,8.219185
3322742790000.0,-3.662463250096798,14.846342182576322,-3.9626444679076696,-0.88025683,1.0143417,2.1013765,144.72493,-77.83504,8.376471
3322746924000.0,-4.048640382978406,14.513227663886822,-3.918425751005212,-0.8943067,1.7455474,1.9895881,144.19742,-77.68936,8.460206
3322751914000.0,-4.51478065706627,14.111137328071482,-3.8650509572598657,-0.9456194,2.2815816,1.8106046,143.42433,-77.65884,8.396196
3322756904000.0,-5.057137085362479,13.841355586054236,-3.53715152418373,-0.9868528,2.6080892,1.5500705,142.52718,-77.67084,8.250072
3322762164000.0,-5.698311400387382,13.67757732097399,-2.941277503707803,-0.9767735,2.7714956,1.2205088,141.5527,-77.73649,8.013579
3322766909000.0,-6.276709142743497,13.529834380326507,-2.403744760902048,-0.93401295,2.7937922,0.86009824,140.52954,-77.90068,7.62651
3322771928000.0,-6.303568880442242,13.578203091498285,-1.8384584858940145,-0.86498517,2.6804767,0.5338962,139.53052,-78.12574,7.1571608
3322777048000.0,-6.00447167571483,13.741771768585588,-1.2636309815097215,-0.7593055,2.435825,0.29657507,138.59137,-78.41114,6.6222916
3322781851000.0,-5.561102672552123,13.93314717470584,-0.8819360418461433,-0.6270532,2.0787745,0.20769419,137.67558,-78.72769,5.991243
3322787154000.0,-4.928595074176013,14.177763512075964,-0.5988802231583292,-0.47067168,1.6355917,0.28008172,136.87405,-79.06844,5.3681154
3322791999000.0,-4.3507147584807,14.401253264019816,-0.3402708621282598,-0.2724459,1.1618657,0.54244834,136.21346,-79.34516,4.860502
3322796926000.0,-3.3804188405923346,14.614315648083624,0.0134067984059233,-0.027794369,0.61636305,0.93462384,135.70256,-79.6347,4.4483085
3322801914000.0,-2.192201638501742,14.82236912543554,0.4202672263850173,0.22327125,0.064446285,1.3286319,135.32684,-79.93524,4.1452293
3322806849000.0,-0.6893734299646088,14.765156140621311,1.0780870857947304,0.44409904,-0.5375614,1.627345,135.19179,-80.165306,4.059077
3322813003000.0,1.4937724688950058,14.445332542823436,2.139531648408965,0.571159,-1.1539245,1.8420641,135.2079,-80.3915,4.0884404
3322817236000.0,2.8442845121078477,14.21012330140634,2.790676012806857,0.61422503,-1.7718146,1.9941696,135.4574,-80.489,4.368288
3322821934000.0,3.031485249363402,13.817001526420905,2.8281162619039693,0.59803706,-2.3051,2.0839667,135.8489,-80.56245,4.7041883
3322826881000.0,3.228607864774902,13.403043795290008,2.867540892019639,0.5329799,-2.6621506,2.0888536,136.49648,-80.31904,5.3629756
3322831856000.0,3.1916697796294766,12.836922731205028,2.623775077983624,0.41905355,-2.756224,2.0726657,137.20618,-80.0166,6.032262
3322837198000.0,2.997035195906046,12.130314110412703,2.175269002274419,0.36071593,-2.5833492,1.9184223,137.93364,-79.70855,6.648819
3322842000000.0,2.796785174424899,11.483459535381677,1.7497046091459048,0.18020524,-2.3854287,1.8338175,138.68112,-79.28218,7.316478
3322846921000.0,2.507935792422192,10.781968106344026,1.2395290706837538,0.10873401,-1.8295414,1.6404786,139.27502,-78.90542,7.873427
3322851821000.0,2.2203190535859267,10.083470239592454,0.7315306682321101,-0.045814894,-1.1578951,1.4114041,139.76073,-78.53029,8.37492
3322856866000.0,1.7519128335795997,9.255389496695264,0.381886961080394,-0.20952678,-0.5021312,1.1780536,140.09271,-78.17893,8.788769
3322862216000.0,1.1698714668017158,8.323309504639338,0.096971631560216,-0.35308012,0.048258353,0.947452,140.26817,-77.85263,9.107993
3322866973000.0,0.7158976341789137,7.6563160303194895,-0.1024137037747603,-0.45173484,0.43951756,0.7367035,140.28717,-77.60823,9.339178
3322871921000.0,0.5058397159297124,7.62982217773163,-0.0872743927492012,-0.50732356,0.6606508,0.56016344,140.20767,-77.39217,9.49448
3322876873000.0,0.2956119852971245,7.603306907316294,-0.0721228429920127,-0.5036584,0.7333437,0.4196644,140.0411,-77.274826,9.524287
3322882547000.0,0.0547331194632587,7.572925719041533,-0.0547622021757188,-0.45265114,0.68966687,0.29932398,139.85637,-77.194115,9.503025
3322887210000.0,-0.1432256664696486,7.547957886661342,-0.040494900778754,-0.3576616,0.54702985,0.1994475,139.68951,-77.15195,9.4474535
3322891974000.0,-0.3403347430180675,7.511468600031422,-0.0487800257030636,-0.23457226,0.3830125,0.1020145,139.55124,-77.15197,9.369035
3322896930000.0,-0.5230268327651217,7.425715239591516,-0.1569039058601728,-0.100792766,0.26236662,0.0036651916,139.44852,-77.195885,9.266433
3322901883000.0,-0.7056083340801257,7.340013787965436,-0.26496233572663,0.006414085,0.20891592,-0.07147124,139.3448,-77.32431,9.086928
3322906908000.0,-0.954023607954267,7.255811111343405,-0.2551653976545529,0.084910266,0.22143865,-0.1441642,139.25983,-77.49298,8.884615
3322912075000.0,-1.24902441118824,7.170947746345447,-0.1703021423683136,0.14202617,0.28863382,-0.21105394,139.17535,-77.691826,8.66494
3322917088000.0,-1.490261962345773,7.085926537958873,-0.0698472378857578,0.1600467,0.40530908,-0.27030787,139.04695,-77.939766,8.411072
3322921910000.0,-1.560603741203351,6.994482357654227,0.0919388020715917,0.12614368,0.50640726,-0.32925636,138.90396,-78.20031,8.138887
3322926821000.0,-1.6322438233206398,6.9013503855521705,0.2567109385773038,0.08582657,0.5580254,-0.37659842,138.70544,-78.487816,7.8270826
3322931855000.0,-1.6926833550222158,6.804355770325588,0.4385841282802826,0.058948494,0.63713247,-0.38881573,138.47102,-78.77351,7.506294
3322937114000.0,-1.7440419392381092,6.701638563588025,0.6403499822565373,0.014049901,0.6753115,-0.44257188,138.23737,-79.06115,7.1634765
3322943367000.0,-1.80704621250328,6.567221684072422,0.880230664379428,-0.040927973,0.68019843,-0.46731192,137.98413,-79.31417,6.8314285
3322946893000.0,-1.8557796080818685,6.407730554447651,1.0153551309105222,-0.092240654,0.6612616,-0.47952923,137.73013,-79.56167,6.4902463
3322951854000.0,-1.9243463623261607,6.183330244161637,1.2054721128903174,-0.09590584,0.6203337,-0.50243664,137.48216,-79.77934,6.147229
3322956849000.0,-1.9933830358698503,5.957392016006298,1.396892053424298,-0.093767814,0.5757405,-0.50885075,137.2428,-79.97994,5.809082
3322962004000.0,-2.0274821978826645,5.739055444146449,1.4591801041552712,-0.08246681,0.5180137,-0.51923543,137.02199,-80.17978,5.4685564
3322967005000.0,-2.048608610233789,5.532016426625496,1.4760811899161888,-0.0571159,0.44440445,-0.52473325,136.8203,-80.3769,5.133299
3322971885000.0,-2.030719062911277,5.3263034481002345,1.463184222562901,-0.008552114,0.35613444,-0.54458636,136.64745,-80.54048,4.790974
3322976904000.0,-1.971964707161047,5.110870708098197,1.4191184046246306,0.040011674,0.2574797,-0.54336464,136.49966,-80.69901,4.4587107
3322981839000.0,-1.8978676637509,4.931629849532038,1.3519896097192223,0.11026118,0.18509217,-0.5662721,136.37473,-80.865875,4.1207485
3322987015000.0,-1.804188678149748,4.77549836213103,1.2583107172786177,0.183565,0.112704635,-0.5833763,136.27869,-81.03552,3.7907755
3322991879000.0,-1.7094228385473804,4.658717319216947,1.1622026942027617,0.25289822,0.048563786,-0.61269784,136.20653,-81.21222,3.467012
3322996896000.0,-1.5958261728201248,4.6087345908170985,1.0440621419188576,0.3304781,-0.015271631,-0.63438356,136.15562,-81.40196,3.1454782
3323001779000.0,-1.4809400496481542,4.572325318815633,0.9254852952744396,0.38545597,-0.06811147,-0.67103547,136.12244,-81.60107,2.8345575
3323006773000.0,-1.3411417322507306,4.598213886099383,0.78568695084443,0.44257188,-0.122478485,-0.70005155,136.10785,-81.813614,2.524469
3323011835000.0,-1.195366448256716,4.680906381971095,0.6259167049277374,0.48747048,-0.19058995,-0.73426,136.11359,-82.045135,2.2333546
3323016776000.0,-1.044681279194905,4.877956261884544,0.4327306047113579,0.5363397,-0.2669481,-0.7724391,136.13672,-82.28696,1.9378769
3323021749000.0,-0.8930202094227158,5.076282319931412,0.2382933498285294,0.55863625,-0.30451632,-0.8136725,136.1643,-82.545006,1.6665792
3323026743000.0,-0.8714894,5.104438,0.21068975,0.57848936,-0.3848451,-0.84207773,136.22337,-82.80839,1.3954635
3323032028000.0,-0.864372970367014,5.148915699139103,0.1911195649796103,0.61117065,-0.46486846,-0.9230174,136.29285,-83.07596,1.1021361
3323036873000.0,-0.7802776006796556,5.674511924331672,-0.0401427433710919,0.6224717,-0.54153204,-0.95447695,136.34549,-83.38303,0.89387405
3323041778000.0,-0.6951408022655188,6.206617081105573,-0.2742689812369732,0.627664,-0.6020077,-1.031446,136.41096,-83.69011,0.65526664
3323046745000.0,-0.5990414730999902,6.617480344607217,-0.4624465006960967,0.6261369,-0.6597345,-1.1227703,136.49211,-83.987175,0.4086246
3323051785000.0,-0.4993846775046702,7.006616311572117,-0.6427778493540458,0.59803706,-0.6908886,-1.2247849,136.57849,-84.26478,0.1412416
3323056811000.0,-0.3496530318097046,7.395626168922265,-0.7965369570886285,0.57360244,-0.6826419,-1.3384057,136.6057,-84.60444,-0.08459534
3323062003000.0,-0.1814211391475491,7.797741384634428,-0.94835595573527,0.5375614,-0.61758476,-1.4553864,136.62,-84.91118,-0.34055865
3323067701000.0,0.0519474267514095,8.288098295233214,-1.142639205750897,0.47586402,-0.5296202,-1.5604553,136.61469,-85.20563,-0.6220069
3323071835000.0,0.2589301491255766,8.681771211686314,-1.3049786523526397,0.4373795,-0.410196,-1.6655241,136.57639,-85.4598,-0.93618745
3323076822000.0,0.5511531846875,9.115316583564082,-1.4455429153481012,0.3830125,-0.26083946,-1.74738,136.50575,-85.68005,-1.2564029
3323081857000.0,0.9040232925,9.49679799920886,-1.512302075949367,0.32986724,-0.087964594,-1.8035797,136.38899,-85.83958,-1.5976685
3323087092000.0,1.245862062759844,9.815080967931893,-1.4940491328201488,0.28955013,0.09437868,-1.831374,136.22957,-85.962814,-1.9311473
3323092069000.0,1.540061978290174,10.021359344803122,-1.3689296479957431,0.24220806,0.27550024,-1.8264871,136.017,-86.01862,-2.2694008
3323096843000.0,1.822262178559773,10.219224116991844,-1.2489134895565803,0.22693644,0.43127087,-1.7956384,135.81364,-86.02088,-2.594528
3323101916000.0,2.233232291266376,10.450646289400556,-1.005294820881302,0.21624629,0.537256,-1.7253889,135.5693,-85.98268,-2.9029384
3323106915000.0,2.7131171902838425,10.692963834458116,-0.6869553157304485,0.23518312,0.593761,-1.6163495,135.29195,-85.92768,-3.1873174
3323112126000.0,3.179194744503125,10.925657658744829,-0.3008690324478479,0.27091873,0.59620446,-1.4706581,135.06293,-85.88239,-3.383574
3323116973000.0,3.591860628008098,11.12994755224012,0.091367844642197,0.31703907,0.5467244,-1.289842,134.83089,-85.86072,-3.5357366
3323121829000.0,4.034793968144797,11.227480796078432,0.5716905822443439,0.37018433,0.50885075,-1.1209377,134.66367,-85.89178,-3.5693312
3323126914000.0,4.568538423800905,11.075681913725491,1.2817176149140272,0.3924809,0.40958515,-1.0369438,134.52776,-85.94315,-3.5764203
3323131819000.0,4.946933880372016,10.910825305802332,1.771915938714603,0.4266894,0.30879238,-0.8750645,134.47849,-86.0905,-3.4249744
3323138120000.0,5.047450574125485,10.646969618822876,1.851491603581344,0.47067168,0.13622294,-0.6933321,134.4772,-86.26139,-3.249722
3323141958000.0,5.10867626379789,10.48625256968351,1.8999619101610217,0.54275376,0.08582657,-0.64812803,134.55682,-86.456894,-2.9638531
3323146922000.0,5.176157782035137,10.183164736264851,1.960517368721438,0.56107974,0.011301007,-0.569021,134.68947,-86.6749,-2.628885
3323151916000.0,5.229584351731492,9.760608535594598,2.018800954625774,0.5885687,-0.08277224,-0.52473325,134.84035,-86.879135,-2.304246
3323156873000.0,5.249744693863072,9.380052843206812,2.0870677919829728,0.62980205,-0.1563815,-0.51007247,135.03255,-87.05135,-1.9721229
3323162022000.0,5.232252432156793,9.030205325913444,2.170156560216389,0.64721173,-0.23335053,-0.5158757,135.2502,-87.19198,-1.6441002
3323167006000.0,5.202262612931682,8.71144575243994,2.236738912537538,0.63499445,-0.31429017,-0.5403103,135.51073,-87.2853,-1.3254
3323172034000.0,5.129961803697448,8.453874939376876,2.259332826951952,0.59559363,-0.37568212,-0.57879484,135.78583,-87.332886,-1.0211793
3323176907000.0,5.051512288486604,8.228196792903692,2.271110941057205,0.5540548,-0.40408736,-0.6123924,136.092,-87.315475,-0.7372931
3323181877000.0,4.884109043736423,8.2478911955105,2.177562040260681,0.49938235,-0.38362336,-0.59864795,136.39934,-87.24906,-0.45685735
3323187145000.0,4.702416989904989,8.27545275534442,2.0691249401425176,0.46822822,-0.33964106,-0.535118,136.72183,-87.13775,-0.19983806
3323191911000.0,4.521723892280285,8.326047071733967,1.9354120365795724,0.44868052,-0.267559,-0.4636467,137.02779,-86.990906,0.05953364
3323196911000.0,4.33215916543943,8.379125456532067,1.7951341268408552,0.4474588,-0.14721853,-0.39614612,137.30392,-86.84404,0.2927893
3323201854000.0,3.991213181029497,8.600997560439561,1.4554309089647195,0.48197266,0.007941248,-0.3155119,137.54652,-86.68441,0.5455337
3323207601000.0,3.4872031091671487,8.977678675824176,0.9195885841334104,0.5360342,0.1908954,-0.26145032,137.7452,-86.51385,0.8037363
3323212146000.0,3.233634943991416,9.189348819563662,0.6908916361105151,0.57604593,0.3857614,-0.18661933,137.884,-86.37971,1.0271105
3323216938000.0,3.044880017811159,9.365793738733904,0.5554805006813305,0.6239988,0.56413406,-0.118202426,137.97498,-86.24917,1.2570707
3323221869000.0,2.8542368373161766,9.539161525445046,0.4325583120888158,0.6609562,0.6417139,-0.0421497,137.9791,-86.240295,1.4112923
3323226884000.0,2.6683711654411764,9.697147125773991,0.3442721240131579,0.6747007,0.79626286,-0.0030543262,137.91147,-86.22694,1.5665523
3323231816000.0,2.48635776920308,9.847114791220877,0.2909650537706229,0.66553766,0.91965765,0.07360926,137.81197,-86.25005,1.7054306
3323236892000.0,2.301651158504149,9.98321412128787,0.3492934656974302,0.61269784,0.9947941,0.16187929,137.68399,-86.25049,1.8534555
3323241928000.0,2.137415622237897,10.078090414686663,0.4106109280902881,0.5299256,1.0412198,0.26389378,137.51921,-86.26073,1.9829077
3323246876000.0,2.031863077212652,10.053461733664983,0.4809792767448767,0.42088616,1.0354166,0.37110063,137.35011,-86.2307,2.1346698
3323251819000.0,1.926417194015444,10.02885794015444,0.5512765175289576,0.28496864,0.97494096,0.44532076,137.1878,-86.17502,2.2667744
3323256848000.0,1.8683398940511105,10.019518483242564,0.5449712768328446,0.17562376,0.90133166,0.49174652,137.03383,-86.085464,2.4168005
3323262216000.0,1.851110480594889,10.023825701675744,0.4674388443167155,0.079107046,0.8258898,0.5363397,136.90056,-85.95555,2.5831165
3323266923000.0,1.8205230376055257,10.071533556216425,0.3112572338449731,0.009162978,0.78954333,0.5748242,136.78917,-85.80957,2.7308283
3323271877000.0,1.7149312080122794,10.330051563814274,-0.2713183687889486,-0.04153884,0.8017606,0.61086524,136.68784,-85.642784,2.8862305
3323277263000.0,1.600131532156562,10.611112926132003,-0.9046958810590944,-0.08277224,0.87689704,0.6389651,136.57576,-85.47786,3.0430226
3323281850000.0,1.4684714625669388,10.9289854637872,-1.24542625778246,-0.089491755,1.0238101,0.6383542,136.44255,-85.31224,3.1956406
3323286988000.0,1.2956837386094286,11.34367632604688,-1.4786896986568343,-0.067500606,1.1997393,0.60903263,136.28297,-85.14894,3.3412051
3323291884000.0,1.116897887966489,11.777736844630615,-1.6455477183549123,0.013744468,1.3735305,0.5510005,135.99614,-85.12278,3.442476
3323296886000.0,0.8979952650334264,12.320939144876023,-1.6739240046712365,0.13897185,1.5204436,0.48441613,135.67279,-85.11708,3.5266674
3323301869000.0,0.6799241394685622,12.862078101717865,-1.7021925042142676,0.30726522,1.6264287,0.41905355,135.29166,-85.21531,3.5435956
3323306854000.0,0.3842579896952381,13.26903924,-1.8014611975238093,0.50762904,1.7122552,0.3744604,134.88162,-85.348274,3.54436
3323311941000.0,0.0749423168015873,13.671149633333334,-1.9097216818253968,0.7266242,1.829236,0.35063666,134.43965,-85.51739,3.5300887
3323316910000.0,-0.2877876935191509,13.958661644762344,-1.9763647763174896,0.93523467,1.9364429,0.3539964,133.97209,-85.76709,3.4543068
3323321882000.0,-0.7404352328491001,14.090500637655746,-1.985154042510383,1.108415,1.9767599,0.3417791,133.49812,-86.03678,3.369972
3323326854000.0,-1.2279836727244389,14.147417895261844,-1.969824960504988,1.1765264,2.0360138,0.2929099,132.97653,-86.38603,3.2048023
3323331838000.0,-1.8380094776288445,13.944076495428096,-1.8706337798732335,1.2498302,2.060143,0.15515977,132.46199,-86.74629,3.0183325
3323337118000.0,-2.5743601412936026,13.629476261686202,-1.7020485211410818,1.2709051,2.0372355,-0.070554934,131.94208,-87.17903,2.7209013
3323342110000.0,-3.44192885215365,13.143367836322552,-1.421860977008897,1.2049317,1.9416351,-0.42241332,131.4427,-87.622314,2.360134
3323347014000.0,-4.294203883815845,12.665828629995762,-1.1466126363790423,1.0604621,1.7983873,-0.82833326,130.92435,-91.87432,1.8680462
3323351901000.0,-4.721485410815308,12.404568645174708,-1.069401451372712,0.86315256,1.6197093,-1.219287,130.44649,-91.41136,1.2972609
3323356915000.0,-4.701511169883528,12.36961351497504,-1.2042276819467554,0.6374379,1.4480561,-1.5143349,130.00789,-91.11996,0.65765065
3323362113000.0,-4.587868203015248,12.39550072074696,-1.3079945925989378,0.40011674,1.3023647,-1.7098118,129.50073,-91.20553,-0.14584003
3323367183000.0,-4.4090230192736,12.466207112729142,-1.3828600436011649,0.15241088,1.1566733,-1.8011361,129.04759,-91.7278,-0.982593
3323371871000.0,-4.241564917895168,12.584055977067978,-1.4385877377559375,-0.08155051,0.99265605,-1.8188512,128.63103,-92.429695,-1.8249505
3323376912000.0,-4.053756187448813,12.905307223177724,-1.4484723914823914,-0.34147367,0.77824235,-1.781283,128.27434,-93.1601,-2.6570265
3323381865000.0,-3.886078246878088,13.289152684305094,-1.5096371737130536,-0.6020077,0.51007247,-1.6823229,127.986435,-93.85231,-3.4277992
3323386979000.0,-3.7628797769832,13.887545357380288,-1.7252345190009883,-0.8362745,0.25381452,-1.5577064,127.75934,-94.510284,-4.1610694
3323392998000.0,-3.61514547177257,14.601015700652331,-2.0188706714182167,-1.0797043,0.02687807,-1.3839152,127.61824,-95.07918,-4.806586
3323396871000.0,-3.513583665200934,15.081940492872674,-2.3026463826528145,-1.2977833,-0.14049901,-1.1991285,127.5353,-95.59521,-5.3944635
3323401849000.0,-3.3830454072320206,15.700077238463397,-2.6673857295482,-1.4669929,-0.21960606,-0.9816604,127.49104,-96.01811,-5.874527
3323406848000.0,-2.938699464304384,15.853597686132476,-3.386171957284743,-1.599856,-0.1966986,-0.73792523,127.4668,-96.36872,-6.276183
3323412077000.0,-2.198256624837577,15.60304420207602,-4.448221257337017,-1.6548339,-0.06261369,-0.52198434,127.434586,-96.66084,-6.6076927
3323417324000.0,-1.4552649287805242,15.351628227540886,-5.513926493017697,-1.6334536,0.17501289,-0.36254853,127.33755,-96.88422,-6.8553157
3323421873000.0,-0.8600161304629927,14.664880746384346,-6.149035046261461,-1.5241088,0.34788775,-0.28710666,127.22461,-97.06907,-7.0554504
3323426877000.0,-0.2077032860474525,13.885729234521222,-6.833057391511485,-1.4288138,0.81336707,-0.106595986,126.96452,-97.176605,-7.1713915
3323431840000.0,0.2273475259380052,13.158413354155222,-6.747882052059954,-1.181108,1.3136657,0.11148291,126.58948,-97.19244,-7.1849384
3323436977000.0,0.6056896487979282,12.421032337911011,-6.400425176018206,-0.8396343,1.7076738,0.35827246,126.1195,-97.15138,-7.137288
3323441834000.0,0.8886939595694716,11.67367801565558,-5.988653014872798,-0.49418998,1.8918496,0.55833083,125.53688,-97.04559,-7.010451
3323446935000.0,0.8786308408486971,10.682462928468432,-5.213794670202905,-0.18417588,1.9199494,0.6585127,124.89671,-96.92122,-6.84152
3323451850000.0,0.8705787636830897,9.86156038659226,-4.529130710991996,0.09621128,1.8209893,0.6722572,124.28725,-96.742134,-6.592994
3323456845000.0,0.8670663093178648,9.408453663448125,-4.009287024818269,0.33292156,1.6163495,0.63346726,123.709564,-96.59598,-6.3338423
3323462790000.0,0.8628858205888832,8.869170486452749,-3.3905741691019893,0.5149594,1.3384057,0.56169057,123.21903,-96.47691,-6.078614
3323466902000.0,0.953865826915114,8.648967353623188,-2.913883159668737,0.6554584,1.0082331,0.48441613,122.80781,-96.4254,-5.8421183
3323471879000.0,1.1216265345238097,8.476272666666667,-2.306984276190476,0.7476991,0.605062,0.40286562,122.500824,-96.44955,-5.6354876
3323476881000.0,1.394360858671203,8.515991982043284,-1.8424486618278049,0.852157,0.16432275,0.34330627,122.33261,-96.49374,-5.446741
3323481843000.0,1.7311918388243075,8.691143876004158,-1.4741800985162083,0.95294976,-0.28680122,0.30604348,122.282486,-96.596016,-5.286443
3323487030000.0,2.1089760499955905,9.02266974406914,-1.3893049625187408,1.056186,-0.70188415,0.28099802,122.38616,-96.67495,-5.117773
3323491900000.0,2.4873861308669194,9.471003516006702,-1.5867363688155922,1.1319333,-1.0283916,0.27763826,122.59013,-96.79091,-4.9657702
3323496947000.0,2.77742921368884,9.827897598039216,-1.8047419097214583,1.1838568,-1.2541064,0.2507602,122.91758,-96.859314,-4.7801714
3323501847000.0,2.738732413249038,9.83649661764706,-2.0584210695162177,1.1850786,-1.3933836,0.21013765,123.30705,-96.95064,-4.6101866
3323507054000.0,2.688001688654367,9.826442591966066,-2.3202902704706903,1.1652255,-1.4450017,0.14477506,123.738075,-97.04247,-4.4003077
3323512218000.0,2.518662471584811,9.578752428527624,-2.4845746422599277,1.1203269,-1.4337007,0.06872234,124.182396,-97.152756,-4.212423
3323516913000.0,2.364702823222773,9.353557750498288,-2.633938531793325,1.0635164,-1.4165965,0.025045475,124.60495,-97.31113,-4.0531335
3323521919000.0,2.20054478281801,9.11344602350897,-2.79319638717228,1.0418307,-1.3640621,-0.0571159,125.00399,-97.4934,-3.9290626
3323526911000.0,2.0459207201794856,8.89988367717879,-2.926820681931366,0.981355,-1.2757921,-0.1563815,125.379425,-97.665985,-3.8238876
3323531892000.0,1.9494493619161977,8.851648123965115,-2.8996880986475384,0.93767816,-1.162782,-0.22418754,125.724815,-97.84662,-3.7332525
3323537029000.0,1.8499566160020224,8.80190188086962,-2.8717057496555647,0.8933904,-1.0412198,-0.27091873,125.99013,-98.103485,-3.717156
3323542312000.0,1.7458221618358782,8.754939162559156,-2.8395331319314225,0.852157,-0.92179567,-0.28160888,126.217125,-98.351814,-3.7066936
3323546948000.0,1.6229236605411197,8.786654924859361,-2.752314858049826,0.81092364,-0.7883216,-0.2678644,126.39956,-98.58876,-3.6977813
3323551783000.0,1.4947497490311634,8.819732084203945,-2.66135274540584,0.7724391,-0.65576386,-0.25992316,126.53678,-98.82074,-3.712903
3323556776000.0,1.2727626221727912,8.895784021265236,-2.4806955717768484,0.71593404,-0.5112942,-0.22602014,126.6302,-99.02902,-3.710826
3323561898000.0,1.0065292745084082,8.991802266482782,-2.258107005320758,0.67256266,-0.376293,-0.21746802,126.68452,-99.229515,-3.708597
3323566830000.0,0.7838727286146265,9.07304847250532,-2.0575881024750813,0.65118235,-0.2556471,-0.19608775,126.70349,-99.40595,-3.7085676
3323571775000.0,0.5982410062493,9.141997689102922,-1.871956324728413,0.6243043,-0.13744467,-0.1853976,126.68273,-99.567024,-3.7035558
3323576755000.0,0.4169809019820002,9.168228937809689,-1.6713469354333097,0.61911196,-0.03940081,-0.16676621,126.62783,-99.693855,-3.7285588
3323581772000.0,0.2372121526858125,9.173087650419658,-1.4624264533218727,0.61208695,0.04153884,-0.16310102,126.54365,-99.81145,-3.7501354
3323586810000.0,0.1057769117894736,9.154707270676692,-1.1464805330827068,0.61422503,0.10751228,-0.16371189,126.43546,-99.90352,-3.7920678
3323591791000.0,-0.0027656011128808,9.126391754155124,-0.7878183750692521,0.6395759,0.13744467,-0.1685988,126.31566,-99.99895,-3.8317535
3323596750000.0,-0.0684715414940374,9.105054346394096,-0.3415854832595116,0.68600166,0.09040806,-0.16249016,126.20142,-100.06979,-3.9020386
3323602132000.0,-0.1172528938398637,9.085541922203294,0.1901312391254969,0.77579886,-0.059253927,-0.13988814,126.110855,-100.157715,-3.9709406
3323606806000.0,-0.1103937951110916,9.036186175324676,0.529793381930502,0.9211848,-0.32375857,-0.10629055,126.07474,-100.20845,-4.059452
3323611980000.0,-0.0669132747792207,8.957921025974025,0.8167647971428572,1.1136073,-0.6221663,-0.08460484,126.094574,-100.2949,-4.149936
3323616930000.0,-0.0013258882397859,8.909071577520072,1.0187723255664587,1.2837334,-0.7675522,-0.08674286,126.2034,-100.338326,-4.232391
3323621841000.0,0.1161484679383586,8.91746277234612,1.060727467323818,1.3524556,-1.0424415,-0.089186326,126.43331,-100.40052,-4.3235526
3323626968000.0,0.2381343926284349,8.927723608422939,1.0986582727150538,1.4651603,-1.2479976,-0.09101892,126.72219,-100.47236,-4.391062
3323631862000.0,0.3466272099641577,8.955721586021506,1.063660581451613,1.466382,-1.3976597,-0.07666359,127.06903,-100.52625,-4.459473
3323637108000.0,0.4629233521266427,8.985733312724014,1.0261456880376345,1.4052955,-1.5146403,-0.05100725,127.48547,-100.5777,-4.501996
3323641952000.0,0.5553441840089177,9.01173792136198,1.0360924682813135,1.2999213,-1.5888605,-0.015271631,127.92565,-100.608345,-4.5377693
3323646852000.0,0.626675283522497,9.035514937981354,1.1121789711187675,1.1389582,-1.666135,0.01985312,128.39313,-100.59939,-4.5668583
3323651842000.0,0.6627104185866721,9.025167360982485,1.252702985745923,0.9483683,-1.774869,0.052534413,128.90514,-100.54929,-4.5674767
3323656856000.0,0.6433755432313268,8.962329332796457,1.4895549274612443,0.76052725,-1.8967366,0.07422013,129.43575,-100.450745,-4.560148
3323662122000.0,0.6453900157151371,8.863420385876044,1.6724597113230035,0.5458081,-2.0332649,0.083383106,130.02275,-100.28371,-4.529996
3323667059000.0,0.6735668447963846,8.731928627979737,1.7663824585816448,0.33169982,-2.1465805,0.10873401,130.6306,-100.06134,-4.4866676
3323671801000.0,0.7193893255068364,8.585419989627534,1.7879776322017915,0.13255776,-2.2052236,0.13958271,131.29012,-99.76054,-4.4304786
3323676866000.0,0.7971461261197549,8.3978886631306,1.7056468571900048,-0.03268129,-2.2094996,0.17837265,131.95786,-99.40976,-4.357456
3323681812000.0,0.8775001884275017,8.201873094622192,1.596881949421375,-0.1695151,-2.1444426,0.2415972,132.65979,-99.01858,-4.2527423
3323687119000.0,0.9763509725760964,7.954746392297967,1.3991804843430906,-0.2846632,-2.002111,0.30451632,133.3317,-98.58775,-4.1244736
3323692023000.0,1.0528585936903887,7.713052677508763,1.0963886322523846,-0.38912117,-1.779145,0.364992,133.96098,-98.13672,-3.9633102
3323697067000.0,1.0882990773294203,7.425590730170375,0.4348324689068231,-0.46883908,-1.4984524,0.42058071,134.52617,-97.65844,-3.7706375
3323701791000.0,1.121491155979457,7.156365861172251,-0.1847534382391782,-0.5357288,-1.1468995,0.4456262,135.00726,-97.19555,-3.5552087
3323706856000.0,1.1001939313027254,7.251117993429591,-0.6344968496771577,-0.58276546,-0.956615,0.46670106,135.45044,-96.71531,-3.316994
3323712119000.0,1.0593091559701493,7.475984279104478,-1.0310790380597017,-0.61727935,-0.33200526,0.462425,135.66594,-96.22796,-3.0538812
3323716924000.0,1.0122185099937668,7.772828479181383,-1.3509833913671307,-0.6423248,-0.119729586,0.46273044,135.8956,-95.876785,-2.825149
3323722184000.0,0.9389548737585706,8.301373453625597,-1.6074062056201952,-0.643852,0.28405234,0.45020768,135.89403,-95.53135,-2.58212
3323726819000.0,0.8671038637852164,8.697596430450574,-1.7691230027486011,-0.6762278,0.6209445,0.4352415,135.83228,-95.26388,-2.3667665
3323731912000.0,0.7761331147442819,9.018387937076666,-1.840942001992736,-0.69913524,0.8949176,0.39522982,135.67584,-95.00987,-2.1581635
3323737240000.0,0.7000194794063574,9.247721873482565,-1.9020656169461796,-0.7272351,1.0928379,0.33505958,135.4382,-94.79819,-1.976895
3323742102000.0,0.6575444592309312,9.306533616237456,-1.9380060354290929,-0.75869465,1.2504412,0.23854288,135.13815,-94.59575,-1.8178692
3323746928000.0,0.6153839394105677,9.364909895656444,-1.9736803381025891,-0.79351395,1.3561208,0.15393804,134.80081,-94.41611,-1.691812
3323751960000.0,0.5912432293026126,9.357065576527464,-2.0146450962764866,-0.80970186,1.4453071,0.074830994,134.42859,-94.24965,-1.5941564
3323756916000.0,0.586361248146472,9.2838353494137,-2.058582926681753,-0.8402451,1.4837917,0.023518313,134.04703,-94.082756,-1.5165335
3323762116000.0,0.5688824733327398,9.169580194728876,-2.0577633253138634,-0.883922,1.4746287,-0.027488936,133.65791,-93.941124,-1.4745613
3323767041000.0,0.5436848384827709,9.03519272700561,-2.024166502234886,-0.9245446,1.4391985,-0.051923547,133.27264,-93.80122,-1.4431103
3323771867000.0,0.5583457935379813,8.86493072840791,-1.980471665733611,-0.9923506,1.3487904,-0.07086037,132.91046,-93.66466,-1.4312664
3323776906000.0,0.6637992694068678,8.598786583766909,-1.9101693310093653,-1.0363328,1.2327261,-0.06291912,132.57289,-93.53014,-1.4223092
3323781835000.0,0.7503310814091824,8.425170387567025,-1.873475653192024,-1.1007792,1.067487,-0.05467244,132.29277,-93.385414,-1.4309232
3323788138000.0,0.8261889220844504,8.384713111930294,-1.893704449430295,-1.1459832,0.90224797,-0.04062254,132.05183,-93.24046,-1.438898
3323792348000.0,0.8747783561772758,8.36347649794661,-1.9119970655715264,-1.1954633,0.729984,-0.040011674,131.87746,-93.06861,-1.4333487
3323796919000.0,0.9084864698237508,8.393439074435317,-1.9756678730321695,-1.2125676,0.5537493,-0.053145275,131.75568,-92.90161,-1.4309299
3323801830000.0,0.9447018594798084,8.425630326488706,-2.0440746407939767,-1.2092078,0.39003745,-0.069027774,131.68028,-92.72762,-1.4203534
3323806858000.0,0.9522865145294728,8.53695928335057,-2.127926141606342,-1.1850786,0.29565877,-0.10262536,131.63773,-92.56743,-1.4199023
3323812113000.0,0.9436125718588418,8.69742698500517,-2.223339352481903,-1.1658363,0.046120327,-0.14172074,131.68808,-92.419075,-1.4285984
3323816889000.0,0.954096476889507,8.886482486955687,-2.3368869144446576,-1.072374,-0.032986723,-0.15118915,131.70702,-92.30466,-1.4309505
3323821960000.0,1.0006761605217724,9.170618506042585,-2.509231848455784,-1.0228939,-0.17531833,-0.16676621,131.81544,-92.19971,-1.4478244
3323826857000.0,1.059841186530646,9.457244894749936,-2.67685383164137,-0.9138544,-0.2959642,-0.18234327,131.93092,-92.15136,-1.4751132
3323831844000.0,1.162830946860745,9.78601960139338,-2.8511441666417845,-0.79045963,-0.36468655,-0.19364429,132.07146,-92.1217,-1.5044382
3323837958000.0,1.307278341103874,10.198475215889612,-3.074836159916009,-0.65179324,-0.42943826,-0.19303341,132.23047,-92.133934,-1.534348
3323841914000.0,1.6449650507370586,10.591361144926294,-3.35407710592218,-0.42271876,-0.4297437,-0.19058995,132.3891,-92.18943,-1.5650642
3323846878000.0,2.068695290023997,11.0843555209976,-3.704469435541653,-0.34147367,-0.42363504,-0.16920967,132.54987,-92.2425,-1.5769054
3323851848000.0,2.4553140865687504,11.357157691564405,-3.9133503458498407,-0.19730948,-0.3894266,-0.14721853,132.70114,-92.35322,-1.58649
3323857626000.0,2.861676432631172,11.421319788192095,-3.993553385370568,-0.058337633,-0.33322698,-0.10934488,132.84314,-92.47344,-1.5842048
3323862127000.0,3.1472264480099263,11.382013179822469,-3.973331836479909,0.08552113,-0.24709499,-0.044898596,132.95892,-92.60136,-1.4978412
3323866935000.0,3.424104698577837,11.258956006204066,-3.876644273551589,0.19853121,-0.14935656,0.019242255,133.05534,-92.761215,-1.4014521
