timestamp,acc_x,acc_y,acc_z,gyro_x,gyro_y,gyro_z,ori_azimuth,ori_pitch,ori_roll
7425398144000.0,0.3338335317002058,10.024446337408309,-3.150189807353771,-3.334408,5.6865444,-6.2641177,21.602802,-71.43465,-9.1861515
7425403178000.0,0.3791689290483345,10.010845921760389,-3.041384872653752,-3.334408,4.802317,-8.594874,22.23823,-71.342285,-9.434197
7425408151000.0,0.4239549701711481,9.997410310513445,-2.9338983926650366,-4.966029,0.74006325,0.029932396,21.383184,-70.67178,-8.696851
7425413108000.0,0.4685969178578136,9.984017926650363,-2.8267577368628927,-1.1676689,0.7492262,0.034208454,20.515438,-69.85111,-11.180712
7425418187000.0,0.5143375779951092,9.970295933985328,-2.716980171638142,-1.1731668,0.7672467,0.033292156,20.082438,-68.986626,-10.984713
7425423130000.0,0.558853443925145,9.956941374083126,-2.610142111999248,-1.1801916,0.77121735,0.029626964,19.657276,-69.02899,-10.789196
7425428732000.0,0.609304158256535,9.941806386308064,-2.4890604186759453,-1.2003502,0.7663304,0.03634648,19.235676,-69.06629,-10.595025
7425433175000.0,0.6493171043069393,9.929802682151584,-2.393029364867407,-1.2116512,0.75441855,0.034208454,18.822712,-69.100685,-10.407044
7425438171000.0,0.694310279744216,9.91630493154034,-2.285045762610495,-1.1972959,0.71776664,0.027794369,18.42422,-69.13543,-10.218769
7425443096000.0,0.7386640405585851,9.902999002444986,-2.178596755181493,-1.1523973,0.6994407,0.02565634,18.030006,-69.174095,-10.033402
7425448090000.0,0.7836392043163434,9.88950665525672,-2.070656380947903,-1.1215485,0.7877107,0.05955936,17.619785,-69.21577,-9.849129
7425453078000.0,0.828560333035546,9.876030518337409,-1.962845690784277,-1.2663237,0.7519751,0.044898596,17.259293,-69.21609,-9.668685
7425458123000.0,0.8739947946210266,9.86240038386308,-1.85380300195599,-1.2522738,0.73884153,0.051618114,16.868969,-69.27045,-9.485451
7425463142000.0,0.9191951043727664,9.84884049388753,-1.745322277430882,-1.251052,0.74006325,0.047036625,16.492537,-69.28063,-9.310133
7425468094000.0,0.9637920228606356,9.835461618581906,-1.6382896916870415,-1.2409728,0.7330383,0.049480084,16.126173,-69.29755,-9.131768
7425473086000.0,1.008749174938875,9.821974674816625,-1.5303925454767726,-1.2253957,0.73548174,0.047647487,15.762963,-69.31426,-8.959281
7425478081000.0,1.0537333445363926,9.808479625916869,-1.4224305572315217,-1.2211196,0.729984,0.04886922,15.408494,-69.330605,-8.786365
7425483137000.0,1.099266870359225,9.794819772616137,-1.313150114274967,-1.2030991,0.72356987,0.04886922,15.05889,-69.35339,-8.616689
7425488125000.0,1.1441879990784276,9.78134363569682,-1.205339424111341,-1.1661417,0.6728681,0.03726278,14.728773,-69.380295,-8.44747
7425493228000.0,1.1914331183648934,9.76862222122032,-1.0946316248271717,-1.0436633,0.61636305,0.032375857,14.384126,-69.50366,-8.260668
7425498161000.0,1.257698367828875,9.77335554864242,-0.9810340401963732,-0.88697636,0.54092115,0.021685716,14.066112,-69.642525,-8.074209
7425503437000.0,1.326889067482585,9.779362615131578,-0.858024796609907,-0.72051555,0.4465425,0.015271631,13.792615,-69.81714,-7.8683276
7425508172000.0,1.375148365228328,9.79252404605263,-0.7351829911145511,-0.5552765,0.34697145,0.022296581,13.545874,-70.030334,-7.656347
7425513495000.0,1.4276187596045198,9.807549277907656,-0.5981679608084941,-0.40622538,0.13591751,0.015577064,13.38085,-70.28753,-7.414162
7425518104000.0,1.4405174497175142,9.824747501461134,-0.4992775782622248,-0.08979719,-0.15882497,-0.009468411,13.270801,-70.626755,-7.161776
7425523093000.0,1.4544796031073446,9.8433636735827,-0.3922339422189752,0.31031954,-0.22785273,0.017715093,13.184648,-71.04094,-6.8805547
7425528085000.0,1.4480528963737795,9.85638979419456,-0.3030443201943863,0.31520647,-0.2724459,0.032375857,13.17721,-71.42109,-6.591212
7425533530000.0,1.438961948675035,9.870026500523013,-0.2075893076551603,0.2510656,-0.34208453,0.048258353,13.194188,-71.881294,-6.291871
7425538127000.0,1.436521,9.892255329931972,-0.147919319047619,0.23335053,-0.38789943,0.06627888,13.245516,-72.360954,-5.9775023
7425543162000.0,1.436521,9.922075587095444,-0.0932489984271284,0.22296582,-0.42241332,0.074830994,13.3115,-72.81352,-5.6642256
7425548090000.0,1.4157886657104608,9.929075723274048,-0.1305185634190093,0.19792034,-0.41783184,0.083383106,13.414795,-73.26673,-5.3388066
7425556210000.0,1.3662166532160387,9.924118418499392,-0.259405892182954,0.1572978,-0.40500367,0.09040806,13.521689,-73.69919,-5.018718
7425558137000.0,1.3544524576400845,9.922941974373684,-0.2899928235287817,0.09896017,-0.3735441,0.09590584,13.653488,-74.13382,-4.6917787
7425563184000.0,1.3195994890169425,9.93214868646572,-0.362630060751576,0.07513642,-0.33200526,0.09254608,13.774369,-74.55105,-4.3773966
7425568169000.0,1.281978992316785,9.950958812056738,-0.4284658882387707,0.025961773,-0.28130344,0.09560041,13.878764,-74.931694,-4.072424
7425573152000.0,1.2320524666176282,9.95827466566458,-0.522254507659588,-0.019547688,-0.23060162,0.09101892,13.982432,-75.32679,-3.7833695
7425578105000.0,1.1713720071510811,9.955240580913395,-0.6405814273800691,-0.049785517,-0.20922135,0.09315695,14.076029,-75.69953,-3.5017402
7425583147000.0,1.1096011861072024,9.952151976973264,-0.7610345526033004,-0.058337633,-0.14477506,0.08979719,14.168922,-76.085815,-3.2302036
7425588197000.0,1.0646778286151024,9.928509444206666,-0.862899285804545,-0.063224554,-0.08093964,0.08246681,14.252436,-76.45082,-2.9687233
7425593373000.0,1.0444721234484868,9.87294379455824,-0.9386705351268724,-0.048563786,-0.004581489,0.06627888,14.311913,-76.80508,-2.7231526
7425598132000.0,1.044391103984324,9.82644783213586,-0.9801996288047028,-0.026572637,0.07544186,0.03848451,14.351573,-77.16859,-2.5071838
7425603199000.0,1.068162689573808,9.782866998693663,-0.9881234768778576,0.02076942,0.14446963,0.03023783,14.371243,-77.532585,-2.2994363
7425608481000.0,1.094603875988582,9.739409576190075,-0.9939537035328688,0.07941248,0.20189096,0.016493361,14.389473,-77.91819,-2.1047225
7425613148000.0,1.147137620015112,9.735657090336664,-0.9564296129712032,0.14752395,0.27030787,0.007330383,14.383972,-78.30863,-1.9196248
7425618140000.0,1.2033297027621526,9.7316432893124,-0.9162924241810092,0.19639318,0.31398472,-0.0036651916,14.391195,-78.73026,-1.7307129
7425623086000.0,1.2672809221998915,9.73658058607096,-0.8762226898036639,0.24220806,0.34208453,0.00030543262,14.38106,-79.15785,-1.5464901
7425628182000.0,1.33895627840303,9.74789759001314,-0.8347263954974105,0.27397305,0.36651915,-0.004886922,14.358758,-79.58178,-1.3729845
7425633373000.0,1.4136425121306888,9.75993640144844,-0.7871503150629577,0.28160888,0.37812558,0.002443461,14.355636,-80.0356,-1.1778795
7425638164000.0,1.5080431522590734,9.778816513702576,-0.6625414874421858,0.29871312,0.38759398,0.016493361,14.342883,-80.48551,-0.98700315
7425643170000.0,1.606680097465229,9.798543886264504,-0.5323407378972924,0.29229903,0.3811799,0.036957346,14.3579,-80.95756,-0.7691527
7425649080000.0,1.6723484699568545,9.803856859359623,-0.4118063220581334,0.28588495,0.36346483,0.04428773,14.368498,-81.41514,-0.5559849
7425653117000.0,1.6986866940201348,9.800930332298842,-0.3415710843728711,0.267559,0.33292156,0.05497787,14.379052,-81.84884,-0.34025258
7425658635000.0,1.733242535068887,9.796754080128474,-0.246923924563435,0.25442538,0.28802297,0.07727446,14.417419,-82.28807,-0.097916365
7425663182000.0,1.7295618901867975,9.78939302096188,-0.1990755103499281,0.24465153,0.24404067,0.081855945,14.458844,-82.7006,0.13682932
7425668179000.0,1.7255169853097794,9.781303464626829,-0.1464917131594962,0.2275473,0.19608775,0.093462385,14.491763,-83.06233,0.37192813
7425673152000.0,1.6726897770691054,9.786442520430604,-0.1202372041995601,0.20952678,0.1459968,0.10781772,14.534709,-83.40132,0.6048326
7425678109000.0,1.5847680665354786,9.801096052783889,-0.1129103940321024,0.19333886,0.1337795,0.121256754,14.577364,-83.71565,0.835162
7425683610000.0,1.4871974936798242,9.81735771941197,-0.1047795118995254,0.18142697,0.09560041,0.1423316,14.630513,-83.992836,1.0616834
7425688162000.0,1.4064592192499132,9.830814019446697,-0.0980513214855114,0.13713925,0.087659165,0.15149458,14.676462,-84.236534,1.2825015
7425693118000.0,1.3185552455955551,9.845464595670794,-0.090725989391519,0.118202426,0.0870483,0.15943582,14.72675,-84.46277,1.503181
7425698092000.0,1.204879578068356,9.852887885652448,-0.1042981517143114,0.09560041,0.10170906,0.16554448,14.772968,-84.65485,1.7202256
7425703147000.0,1.047715962976824,9.848522141671928,-0.1523203645243033,0.06536258,0.14019357,0.18081611,14.810399,-84.81754,1.9361887
7425708160000.0,0.8967687433132668,9.843019481902004,-0.1973487699413244,0.043066,0.17134771,0.18142697,14.872993,-84.96948,2.113181
7425713147000.0,0.7693905825824888,9.832101512687649,-0.2301031602095557,0.0106901415,0.19517145,0.17134771,14.924661,-85.09319,2.2859504
7425718116000.0,0.6424721785978816,9.821222950621047,-0.2627393272925398,-0.005192355,0.22602014,0.16371189,14.983782,-85.22244,2.4311757
7425723099000.0,0.5285286464721577,9.818453308374217,-0.3066688230553404,-0.022602014,0.26083946,0.15454891,15.033146,-85.329666,2.56849
7425728149000.0,0.4244687437266546,9.822615787933556,-0.3607799620518117,-0.025961773,0.29810223,0.1423316,15.071333,-85.42372,2.6984124
7425733109000.0,0.3438340451099439,9.827665931451971,-0.4180528047965814,-0.03481932,0.3268129,0.122478485,15.127631,-85.52717,2.7999878
7425738257000.0,0.3394450691996795,9.836443608296982,-0.4926654502661799,-0.0421497,0.34330627,0.105068825,15.174626,-85.61878,2.895366
7425743609000.0,0.3372739433207959,9.844957,-0.5660744518781848,-0.036957346,0.35094208,0.09407325,15.22988,-85.72393,2.9687216
7425748111000.0,0.3634294763297743,9.844957,-0.5791522211138073,-0.036957346,0.34269542,0.08307768,15.282793,-85.817154,3.0349395
7425755087000.0,0.403958352000728,9.844957,-0.5994166631812666,-0.039095376,0.3213151,0.076052725,15.327463,-85.905045,3.0959194
7425758186000.0,0.4219627937587964,9.844957,-0.6084188859403057,-0.039095376,0.27947086,0.07391469,15.378692,-85.98283,3.153934
7425763216000.0,0.4694831198542482,9.83902998738002,-0.6395880508887308,-0.02076942,0.25381452,0.07391469,15.429728,-86.05317,3.2090404
7425768159000.0,0.5241752710718095,9.830616080607893,-0.6774518438304301,-0.02687807,0.20341812,0.073303826,15.498065,-86.1094,3.2624466
7425773128000.0,0.576888172346539,9.84009282786243,-0.7044652384240313,-0.014966198,0.17928895,0.076052725,15.559087,-86.151955,3.3236277
7425778107000.0,0.6267092558728777,9.873306681236397,-0.7169204984675664,-0.01160644,0.122478485,0.07727446,15.642072,-86.18307,3.3830545
7425783151000.0,0.6719133684707363,9.90446714726243,-0.730911040685966,-0.0036651916,0.077579886,0.09773844,15.713875,-86.194626,3.4551315
7425788955000.0,0.6850309928886092,9.921957221837634,-0.7571463214820642,-0.00061086525,0.009468411,0.10567969,15.80689,-86.19977,3.5224307
7425793151000.0,0.6945143753933292,9.934601665827564,-0.776113109597231,0.0030543262,-0.0067195175,0.11362094,15.892888,-86.185104,3.6024566
7425798088000.0,0.6900793656445201,9.936211374219194,-0.8010963621919364,0.005192355,-0.04153884,0.119729586,16.001402,-86.160736,3.6819348
7425803148000.0,0.674354985665612,9.928349430518374,-0.8286140394694573,0.031154128,-0.07788532,0.124005646,16.112629,-86.12936,3.7603488
7425808163000.0,0.6566091766659221,9.91645024547688,-0.8444203713573077,0.04062254,-0.09712757,0.12461651,16.221512,-86.08908,3.8377469
7425813158000.0,0.6245545609634428,9.8772723529149,-0.7838727969771424,0.0580322,-0.121256754,0.12736541,16.339863,-86.04258,3.9141927
7425818365000.0,0.5911394690789964,9.836431654902835,-0.7207554356563175,0.07544186,-0.1328632,0.12858713,16.452858,-85.99404,3.9839675
7425823089000.0,0.5549813029195941,9.81444268253968,-0.5396504553265679,0.09132435,-0.13591751,0.11789699,16.568213,-85.943504,4.048474
7425828144000.0,0.5087918356284153,9.810243555555555,-0.1869309004735884,0.112399206,-0.13683382,0.108123146,16.684116,-85.88807,4.110969
7425833149000.0,0.4751705486056018,9.807634524299772,0.0154867313686601,0.13530666,-0.13439035,0.10476339,16.808102,-94.16443,4.1638427
7425838308000.0,0.5200517865677518,9.815114879031036,-0.740013857716881,0.13561209,-0.12705997,0.10415252,16.928448,-94.21831,4.212402
7425843154000.0,0.562210049635125,9.822141395609387,-1.4496777179046176,0.15485434,-0.12156218,0.092240654,17.051264,-94.24738,4.234491
7425848144000.0,0.5920352833373254,9.839934048170326,-1.5762417319467732,0.1591304,-0.1020145,0.092240654,17.166325,-94.27995,4.25823
7425853106000.0,0.6078436904151697,9.868389120825016,-1.0861806602421824,0.16829337,-0.08093964,0.083383106,17.277725,-94.30785,4.2745743
7425858605000.0,0.6253629226846308,9.89992367232202,-0.5430839586493681,0.16676621,-0.06963864,0.07574729,17.345705,-94.379265,4.317894
7425863184000.0,0.6810989390835633,9.91666458967284,-0.7087478709065826,0.17684549,-0.043066,0.06505715,17.402845,-94.45438,4.3566537
7425868309000.0,0.7826661416111549,9.926337850413876,-1.482593104696492,0.17837265,-0.017104227,0.053450707,17.456467,-94.53197,4.3918853
7425873084000.0,0.8515465641708543,9.935740025125629,-1.6608781491457287,0.18753563,-0.009468411,0.05009095,17.544506,-94.59102,4.418518
7425878146000.0,0.8933077552907394,9.946180173007896,-1.191064626403446,0.18967366,0.010995574,0.04734206,17.619392,-94.647095,4.4410086
7425883118000.0,0.934326451902369,9.956434699928211,-0.7296041690595838,0.17928895,0.030543262,0.04062254,17.648605,-94.75155,4.489943
7425888170000.0,0.94810385,9.919377630627164,-0.3502922466179299,0.15974127,0.051923547,0.032375857,17.67113,-94.85704,4.5367875
7425893150000.0,0.94810385,9.859739304347826,-0.0199863791304347,0.1518,0.0580322,0.027183503,17.692165,-94.96396,4.581682
7425898138000.0,0.9903936887172552,9.837394632118452,-0.0159754305267653,0.13041973,0.0571159,0.022296581,17.744743,-95.0491,4.6283245
7425903106000.0,1.061516206912016,9.840781133257403,-0.2361165426110478,0.10354166,0.048563786,0.018020526,17.795609,-95.12968,4.6720843
7425909496000.0,1.157227953138649,9.84322486880192,-0.5212113548017471,0.09560041,0.034513887,0.00030543262,17.839663,-95.17298,4.6970863
7425913130000.0,1.267502689903229,9.819381820416202,-0.7089764843076133,0.058337633,0.035124753,-0.004886922,17.881325,-95.21047,4.7235765
7425918169000.0,1.4204125409094803,9.78632042228312,-0.9693365524364136,0.04642576,0.0067195175,-0.016798794,17.930544,-95.28671,4.7685914
7425923144000.0,1.543833292353746,9.77749633048238,-1.1182322643859048,0.028405234,-0.021380283,-0.025961773,17.977955,-95.35505,4.8114614
7425928279000.0,1.6363659747861783,9.798526465617517,-1.135056372494013,0.0036651916,-0.051923547,-0.035124753,18.03255,-95.41602,4.849177
7425933152000.0,1.7195278611222278,9.819306701350676,-1.1399777441845924,-0.003970624,-0.08368854,-0.035430185,18.074474,-95.52563,4.9227934
7425938174000.0,1.7676466519676506,9.847376139069535,-1.0557698706728365,-0.01160644,-0.124311075,-0.016798794,18.126097,-95.63187,4.99672
7425943064000.0,1.8145006717275305,9.874707789894948,-0.9737753462856428,-0.02321288,-0.1591304,0.008857546,18.173956,-95.75319,5.0859957
7425948142000.0,1.7844937167720925,9.885392266988164,-0.962995974040208,-0.03573562,-0.20158553,0.019547688,18.233688,-95.8709,5.173094
7425954903000.0,1.6993352654036449,9.88944708855765,-0.9913821174390932,-0.04917465,-0.24251351,0.024129177,18.301132,-95.98829,5.262535
7425958098000.0,1.6590925125383604,9.891363248136782,-1.0047963650591845,-0.062308256,-0.27885997,0.028710667,18.377941,-96.106384,5.358012
7425963342000.0,1.576012299100772,9.89023897869221,-1.0333571979767373,-0.0693332,-0.28863382,0.021991149,18.45618,-96.21787,5.448141
7425968155000.0,1.4859073974000585,9.885734112305736,-1.064893944150132,-0.080634214,-0.29932398,0.02107485,18.542652,-96.32571,5.5374618
7425974133000.0,1.3903226916410905,9.85727824426792,-1.096616152518505,-0.081855945,-0.29138273,0.01863139,18.634148,-96.41714,5.6056724
7425978159000.0,1.3346357486910996,9.825954089005236,-1.1140182994764398,-0.08124508,-0.2846632,0.013744468,18.726313,-96.50297,5.6700087
7425983202000.0,1.268501515221519,9.786316329746835,-1.128718609198312,-0.092240654,-0.25289822,0.0036651916,18.815813,-96.57088,5.716564
7425988315000.0,1.211684273544304,9.744994875949368,-1.1235534005063292,-0.0983493,-0.22266038,-0.006414085,18.901503,-96.635605,5.7597475
7425993068000.0,1.1635723158232152,9.704486813890238,-1.102916978601263,-0.11178834,-0.20952678,-0.01282817,18.98388,-96.68328,5.7871203
7425998161000.0,1.120932948081593,9.657109793589122,-1.0508022067994172,-0.11148291,-0.1881465,-0.012217305,19.053556,-96.729485,5.812971
7426003057000.0,1.0784416275618058,9.607745476442137,-0.998195938525618,-0.12461651,-0.18387043,-0.01160644,19.130177,-96.762886,5.8289995
7426008231000.0,1.0296191165800788,9.545607886868506,-0.9360582099158008,-0.14508049,-0.18051068,-0.01038471,19.199545,-96.79412,5.8447695
7426013088000.0,0.984592398410042,9.490616,-0.8753827557510033,-0.14385876,-0.18753563,0.00061086525,19.278845,-96.82091,5.857748
7426018092000.0,0.951855769790795,9.490616,-0.7730807592690633,-0.14538592,-0.20219639,0.004581489,19.357878,-96.84169,5.8681107
7426023068000.0,0.919302319748954,9.490616,-0.6713511960208352,-0.1337795,-0.23335053,0.015882496,19.45039,-96.85837,5.873022
7426028139000.0,0.8663264305278251,9.512350910475847,-0.551600519569854,-0.12034045,-0.2657264,0.024740042,19.545866,-96.87426,5.877221
7426033139000.0,0.806251486536428,9.54238810018819,-0.4271595571180213,-0.09896017,-0.32650748,0.03390302,19.6569,-96.894554,5.8826847
7426038178000.0,0.7384412837216977,9.630020350811256,-0.3112879226931891,-0.074830994,-0.40500367,0.04153884,19.785824,-96.90225,5.8788314
7426044253000.0,0.6477780705949217,9.8060138080484,-0.183292834967458,-0.03940081,-0.46944994,0.059864793,19.926533,-96.91832,5.8787427
7426048057000.0,0.5395656269318261,9.959263017565217,-0.1096252953460869,0.0061086523,-0.52687126,0.070554934,20.09193,-96.91431,5.8609743
7426053147000.0,0.2852389467431304,10.255977485826088,-0.0248497342504347,0.04734206,-0.5699373,0.081855945,20.269764,-96.91825,5.846595
7426058384000.0,0.0307146294552784,10.547148992945326,0.0548508847434282,0.09132435,-0.5897904,0.0842994,20.467972,-96.90459,5.812966
7426063303000.0,-0.0958887174006047,10.598581605820106,0.0113309867533383,0.106901415,-0.5849035,0.09193522,20.669088,-96.89548,5.782727
7426068086000.0,-0.2189917481002771,10.648592215167549,-0.0309856776269421,0.0983493,-0.57604593,0.08674286,20.901701,-96.82779,5.690322
7426073142000.0,-0.3124026139285714,10.654588641156463,-0.0874779396088435,0.089491755,-0.5317582,0.07880162,21.120007,-96.76356,5.6003714
7426078147000.0,-0.3828035451785714,10.632356706632654,-0.1504682471683673,0.03176499,-0.48380527,0.07727446,21.332014,-96.69033,5.5114274
7426083256000.0,-0.4469864816684842,10.607457985236138,-0.2179777958350809,-0.025961773,-0.40591997,0.07971791,21.533817,-96.5954,5.3988757
7426088173000.0,-0.3995852611559433,10.552156687106786,-0.3285806395730224,-0.108123146,-0.33200526,0.067500606,21.720226,-96.48406,5.2839046
7426093062000.0,-0.3524539682769902,10.49717030383357,-0.4385536521894136,-0.19547687,-0.2678644,0.057726767,21.894175,-96.36077,5.160794
7426098143000.0,-0.139290964500084,10.336722127709628,-0.6509122841707276,-0.27916542,-0.23273966,0.04550946,22.053247,-96.22276,5.036421
7426103108000.0,0.1563412460947739,10.1249854435389,-0.9105892304192572,-0.3594942,-0.19792034,0.026572637,22.192438,-96.06923,4.910742
7426108121000.0,0.4175309140859658,9.948002867426204,-1.1431100224063524,-0.4202753,-0.19333886,0.014049901,22.318861,-95.92581,4.800353
7426114153000.0,0.6119832267115484,9.853269854479544,-1.3275904071465563,-0.46181414,-0.19853121,0.005192355,22.436987,-95.7716,4.688079
7426118528000.0,0.7506957811385362,9.785836184405763,-1.4575909177842774,-0.47067168,-0.2049453,0.01282817,22.509083,-95.69651,4.6467466
7426123152000.0,0.8423073874732486,9.744768744257383,-1.5049762302682266,-0.46914452,-0.19608775,0.03634648,22.577782,-95.61972,4.608025
7426128102000.0,0.9403777705521472,9.700805978527608,-1.5557022892638035,-0.45142943,-0.22266038,0.046731193,22.638008,-95.5879,4.6067834
7426133154000.0,1.0308670871051686,9.658898799084708,-1.5972771066762383,-0.40286562,-0.24953845,0.0571159,22.695665,-95.56767,4.611787
7426138143000.0,1.0694536265613783,9.633174379755925,-1.5844149417803302,-0.33933565,-0.3023783,0.07147124,22.76798,-95.55656,4.619354
7426143700000.0,1.1104992624218368,9.607075765918111,-1.5663903376814747,-0.27091873,-0.3640757,0.070249505,22.831898,-95.577805,4.6483965
7426148096000.0,1.101342693926377,9.641412897776084,-1.4725354627970204,-0.1853976,-0.46486846,0.06872234,22.92156,-95.614265,4.6786256
7426154806000.0,1.087366221086401,9.693824670925997,-1.3292765432167908,-0.087659165,-0.5546656,0.06658431,23.021553,-95.66747,4.7141294
7426158159000.0,1.0803821505301507,9.720014935511935,-1.257689783551737,0.0015271631,-0.65148777,0.058337633,23.150719,-95.72927,4.7440367
7426163161000.0,1.056697019068491,9.755153532770768,-1.158065572538096,0.094989546,-0.7150178,0.07941248,23.29446,-95.81177,4.778984
7426168169000.0,0.9938287099090612,9.778729207684744,-1.0794801809601835,0.1459968,-0.7415904,0.09315695,23.4526,-95.89588,4.8066316
7426173079000.0,0.932190651208422,9.80184353752253,-1.00243260255612,0.15668693,-0.77274454,0.09010262,23.632597,-95.96603,4.8209367
7426178173000.0,0.8256457735449206,9.79623587565078,-0.8822692421051929,0.18845193,-0.78801614,0.09682214,23.812605,-96.05089,4.839775
7426183120000.0,0.7118056519089575,9.78358704845815,-0.7557802239353891,0.2098322,-0.7883216,0.09773844,23.99356,-96.131,4.853876
7426189509000.0,0.5738085381711492,9.76714322396088,-0.5949402841154035,0.19883664,-0.7770206,0.08368854,24.181873,-96.186844,4.849086
7426193153000.0,0.5669825510415648,9.756904385819071,-0.5232673622337408,0.18509217,-0.77121735,0.07544186,24.368286,-96.24473,4.8445287
7426198116000.0,0.5576857963422983,9.74295944792176,-0.4256513602308068,0.18020524,-0.74189585,0.05497787,24.562136,-96.253815,4.8010964
7426203023000.0,0.620401912440434,9.739613,-0.4130503999959444,0.16493362,-0.70066243,0.03726278,24.747427,-96.255615,4.7558208
7426208027000.0,0.7078602952854102,9.739613,-0.4276267988279428,0.14905111,-0.64568454,0.01985312,24.916891,-96.25056,4.7053022
7426212998000.0,0.8761124195015304,9.763657258854394,-0.4349637322693485,0.13652839,-0.5748242,-0.00030543262,25.077213,-96.23168,4.648721
7426217979000.0,1.069048252896808,9.79494368867512,-0.440178209838216,0.12064589,-0.5161811,-0.01740966,25.222595,-96.20531,4.589003
7426222979000.0,1.2237554507887487,9.804524531090893,-0.485241391770303,0.09682214,-0.462425,-0.028405234,25.341652,-96.18529,4.545916
7426227964000.0,1.3751730886737334,9.81249404031383,-0.5330574901343794,0.09010262,-0.40439278,-0.032375857,25.44084,-96.16288,4.5014615
7426233056000.0,1.5256942531976745,9.802013370801031,-0.5696684410723515,0.064751714,-0.34483343,-0.03604105,25.516811,-96.15933,4.489502
7426237990000.0,1.6681419886627906,9.776576284668389,-0.595105548453919,0.056505036,-0.2996294,-0.03634648,25.579052,-96.157005,4.4780016
7426242980000.0,1.789308300398992,9.723989607097858,-0.630633344701806,0.04734206,-0.25259277,-0.03268129,25.607317,-96.180214,4.5015764
7426247977000.0,1.8998518672406552,9.658668680386391,-0.6708309986938261,0.03634648,-0.21868975,-0.036957346,25.62555,-96.19898,4.5226884
7426253050000.0,1.953208375325527,9.636777308571428,-0.704689703409836,0.03634648,-0.17806722,-0.02443461,25.620693,-96.24512,4.578251
7426258092000.0,1.9893947739016395,9.62773052,-0.7363528021639344,0.016493361,-0.13927728,-0.019547688,25.606096,-96.28205,4.6298122
7426263039000.0,1.9830420055852644,9.615435831649831,-0.7778419229055259,0.013744468,-0.1328632,-0.017715093,25.581488,-96.34425,4.706549
7426268029000.0,1.954647334165181,9.601238693602694,-0.8251664246880571,0.019242255,-0.10842858,-0.008552114,25.5409,-96.40615,4.7862186
7426273026000.0,1.9080820156862743,9.6070408668876,-0.8759988031298905,0.017104227,-0.0729984,-0.0018325958,25.498669,-96.479095,4.8734975
7426283096000.0,1.7897365387442572,9.634268,-0.9737574046860644,0.04734206,0.010995574,0.0106901415,25.435795,-96.56132,4.964677
7426288049000.0,1.7267818607963246,9.634268,-1.0076560501990812,0.07452556,0.053450707,0.01160644,25.378752,-96.64248,5.0516343
7426293068000.0,1.6783915813967252,9.631881779640956,-1.0175597884198069,0.09682214,0.09621128,0.021991149,25.308716,-96.7308,5.1410303
7426298096000.0,1.6451438446044584,9.627132010850266,-1.003310779621227,0.11301007,0.15271631,0.022907447,25.222763,-96.81977,5.2275786
7426303065000.0,1.6119087638723362,9.622384046661953,-0.9636912036561964,0.13805555,0.19853121,0.031154128,25.140476,-96.914474,5.314936
7426308109000.0,1.577756894929805,9.617505106352894,-0.8953874148267852,0.14049901,0.22418754,0.042760566,25.048534,-97.00756,5.40294
7426313081000.0,1.5398381129951833,9.62452788970805,-0.8124893964219011,0.16371189,0.25045475,0.063224554,24.953917,-97.10949,5.490498
7426318085000.0,1.497441448766342,9.643370731347686,-0.7135639121399784,0.17379116,0.26725355,0.06841691,24.855352,-97.2072,5.5761714
7426323058000.0,1.4528431982608696,9.667411539130434,-0.6148310182608696,0.19211712,0.2724459,0.08155051,24.770775,-97.310844,5.66907
7426328098000.0,1.4047510069565217,9.69801584347826,-0.5142745269565218,0.20433442,0.27091873,0.093767814,24.683973,-97.41453,5.7619705
7426333051000.0,1.3500456436875568,9.728963063578565,-0.4089467450408719,0.19853121,0.26145032,0.11026118,24.613365,-97.50887,5.8518996
7426338125000.0,1.2715832924311232,9.763290524674538,-0.2814454204087193,0.19181168,0.24862215,0.12339478,24.544806,-97.60561,5.9427676
7426343021000.0,1.1792339840139665,9.793667025558658,-0.1642114672081005,0.19608775,0.23915374,0.13500121,24.492083,-97.68995,6.0246763
7426348053000.0,1.0378931369413409,9.81722360265363,-0.0598884754259776,0.1872302,0.23273966,0.15271631,24.442883,-97.77362,6.110309
7426356409000.0,0.8112375840128351,9.856278358625897,0.1039493920064175,0.1600467,0.21410827,0.17959438,24.41322,-97.836044,6.182579
7426358476000.0,0.7962921245167988,9.865619263495658,0.0964766622583994,0.13041973,0.21777347,0.18325958,24.379013,-97.89414,6.252247
7426363119000.0,0.7627208770856927,9.886601276708191,0.0796910385428463,0.11728613,0.22693644,0.2003638,24.375696,-97.91622,6.294685
7426369169000.0,0.7252595907425841,9.899987047382044,0.0694685528668126,0.10415252,0.22632557,0.20952678,24.374062,-97.93194,6.3347087
7426373101000.0,0.7065178141150706,9.896238613776628,0.0732169097579136,0.06780604,0.23732115,0.22082779,24.366957,-97.94562,6.3795605
7426378079000.0,0.6933877379830975,9.887697509543251,0.080472095474124,0.045814894,0.25992316,0.23182335,24.361269,-97.9573,6.42067
7426383131000.0,0.7071704728420852,9.869320625676574,0.0942548428060013,0.033292156,0.26389378,0.2519819,24.358305,-97.96925,6.4662523
7426388119000.0,0.7133844938953755,9.85615936931139,0.1126588933998345,0.021685716,0.26053402,0.258396,24.352037,-97.97319,6.5034924
7426393149000.0,0.6868121095982348,9.865017015721246,0.15251749296773,0.0125227375,0.25411993,0.2764165,24.346395,-97.98316,6.5486927
7426398371000.0,0.6584733183941308,9.875723564092112,0.1932809160525779,0.016493361,0.22724187,0.27916542,24.34506,-97.99218,6.5916533
7426403142000.0,0.6212277927511718,9.908313081821888,0.221215057854086,0.03268129,0.21655174,0.28496864,24.341494,-98.00688,6.639538
7426408329000.0,0.5803888729898085,9.941415262372605,0.253138460988993,0.056505036,0.1863139,0.2874121,24.353966,-98.014275,6.678385
7426413092000.0,0.5394791533754587,9.948853542193234,0.2977672428454953,0.07544186,0.17134771,0.29749137,24.365337,-98.02676,6.7199583
7426418116000.0,0.4963276876306564,9.956699420383204,0.3448415657611088,0.08307768,0.14721853,0.3115413,24.390654,-98.03256,6.750927
7426423105000.0,0.3986835765730735,9.919800591054033,0.328850071789194,0.076052725,0.13591751,0.3136793,24.416233,-98.038445,6.780293
7426428167000.0,0.2612797204650132,9.851098624889282,0.2687358850221435,0.05681047,0.124311075,0.31703907,24.44874,-98.04701,6.8123593
7426433077000.0,0.1662851383119159,9.786833583528036,0.2054538291092289,0.04886922,0.12522738,0.3203988,24.487133,-98.04323,6.8339524
7426439079000.0,0.1439019671242211,9.714088548870716,0.1159211291664719,0.027794369,0.12308934,0.31337386,24.529074,-98.03286,6.8522153
7426443070000.0,0.1431357046486594,9.665325463171534,0.0326067702619356,0.0036651916,0.11026118,0.31337386,24.582613,-98.00567,6.8493905
7426448116000.0,0.1768516352217681,9.60270989913286,-0.1311563360376756,-0.02443461,0.101098195,0.3136793,24.635078,-97.97353,6.8441916
7426453055000.0,0.2046625199036554,9.553216029753472,-0.2711818379115897,-0.024129177,0.09773844,0.31031954,24.685465,-97.94511,6.835432
7426458182000.0,0.2185758961773873,9.53582432757155,-0.3581404141980731,-0.020158553,0.10354166,0.29932398,24.735205,-97.91169,6.824125
7426463193000.0,0.2321744779030887,9.518826118163789,-0.4431315251345991,0.0070249503,0.10995574,0.301462,24.774515,-97.90315,6.8230915
7426468087000.0,0.2594587919841103,9.516448672172276,-0.5129087907443027,0.018020526,0.11301007,0.29352075,24.812239,-97.88764,6.8158073
7426473079000.0,0.3044375469412502,9.531441893163286,-0.5678828332782773,0.038179077,0.10598512,0.29871312,24.850859,-97.88103,6.812577
7426478081000.0,0.3343526848322147,9.558167744966443,-0.6046885812080537,0.064446285,0.093462385,0.30176744,24.879803,-97.88522,6.8115497
7426483146000.0,0.3510474077112373,9.595730764670453,-0.6255569564790914,0.08093964,0.08002335,0.30268374,24.910624,-97.89132,6.811043
7426488078000.0,0.3703829246960237,9.636003440437069,-0.6319496080184029,0.10781772,0.06505715,0.29840767,24.939875,-97.912506,6.8190713
7426493114000.0,0.4020811106835359,9.691475154206374,-0.5844023538613211,0.13683382,0.051923547,0.3023783,24.972002,-97.93793,6.8290625
7426498088000.0,0.4333890489484062,9.746263935836346,-0.537440470982583,0.18203785,0.042455133,0.30085114,25.001501,-97.96859,6.838758
7426503080000.0,0.4465299788789674,9.749770821008198,-0.3827994227494115,0.21135938,0.031154128,0.30085114,25.034662,-98.00165,6.8492756
7426508944000.0,0.4556473493083854,9.736094977189708,-0.1639827085680655,0.22602014,0.0143553335,0.29626966,25.071201,-98.03672,6.8573413
7426513234000.0,0.4613778100125235,9.73680029179712,-0.0332159897119599,0.22632557,0.007941248,0.30268374,25.105387,-98.074844,6.8681993
7426518100000.0,0.4662411642329367,9.756253627426425,0.0640512673575454,0.204029,0.008246681,0.30085114,25.141285,-98.10754,6.8748965
7426523076000.0,0.4652693757196781,9.769674408304253,0.1284926342803219,0.1881465,0.009468411,0.30268374,25.183168,-98.12508,6.881756
7426528082000.0,0.4550261962794673,9.773088870379604,0.1387358137205327,0.16310102,0.0070249503,0.30268374,25.225178,-98.13614,6.8869834
7426533127000.0,0.4447032158008689,9.77652993333808,0.1490587941991311,0.11911872,-0.0036651916,0.29871312,25.272493,-98.133766,6.891028
7426538129000.0,0.4237616642776957,9.755557926144755,0.1224812764803545,0.07941248,-0.007330383,0.29718593,25.317831,-98.12833,6.895282
7426543120000.0,0.3955206940718858,9.717903030526834,0.0707061621427868,0.040927973,-0.014049901,0.2932153,25.366295,-98.114555,6.8968287
7426548085000.0,0.3722166773001464,9.667187571888723,-0.0467146307513909,0.010079277,-0.014966198,0.29229903,25.414883,-98.09245,6.894002
7426556202000.0,0.3403487696058565,9.567031635549048,-0.3244207231756369,-0.031154128,-0.01038471,0.26358834,25.46254,-98.055466,6.881611
7426558552000.0,0.3311225058284041,9.538034906412884,-0.404821033289839,-0.06780604,0.0036651916,0.2556471,25.51158,-98.02231,6.8725142
7426563137000.0,0.3154603989414141,9.484299556363636,-0.5472114061090909,-0.06627888,0.0061086523,0.25992316,25.561821,-97.98523,6.85834
7426568277000.0,0.3114826412040404,9.440544138181815,-0.6227888446545454,-0.056505036,0.025045475,0.25809056,25.602638,-97.94133,6.840631
7426573058000.0,0.3077827074020202,9.399844789090908,-0.6930876255272727,-0.04795292,0.05222898,0.2452624,25.63705,-97.91944,6.8281207
7426578870000.0,0.30645782,9.350452085395052,-0.7391516669770328,-0.021380283,0.06414085,0.22907446,25.669832,-97.90044,6.8140926
7426583156000.0,0.30645782,9.314053581005586,-0.760990579577902,0.015577064,0.07147124,0.21502456,25.695585,-97.88177,6.7975173
7426588108000.0,0.3123904315238954,9.26181654012624,-0.7678112361587015,0.044898596,0.10048734,0.19486602,25.708246,-97.86864,6.7793746
7426593096000.0,0.3267484452459673,9.1948126226831,-0.7486671812143072,0.07666359,0.122478485,0.1731803,25.720203,-97.85749,6.757058
7426598080000.0,0.3449530138037267,9.111485480496894,-0.7064923208198758,0.09743301,0.16035213,0.15057829,25.723246,-97.851006,6.7360053
7426603103000.0,0.3688557715113871,9.003922979296066,-0.6308002658385093,0.10170906,0.21013765,0.12461651,25.715815,-97.840805,6.709016
7426608391000.0,0.3917383585735512,8.891388679049035,-0.5345082029123329,0.100792766,0.24404067,0.096516706,25.702866,-97.831215,6.679739
7426613150000.0,0.3766893194469209,8.80109457000165,-0.1883802322866106,0.08002335,0.27947086,0.07849618,25.675056,-97.81599,6.6479464
7426618091000.0,0.3610647549744097,8.707347313686643,0.1709848239986791,0.05497787,0.29993483,0.069027774,25.6419,-97.79701,6.6161776
7426623084000.0,0.328408726858717,8.66484897477371,0.4120552156332152,0.01740966,0.29840767,0.04917465,25.605066,-97.76702,6.577824
7426628091000.0,0.2831184591090122,8.661074906650924,0.5630227721715859,-0.025961773,0.2706133,0.03390302,25.57075,-97.73223,6.539253
7426633224000.0,0.2366078997650109,8.655089947208491,0.7131364774669801,-0.06780604,0.26175576,0.01740966,25.544237,-97.64919,6.482409
7426638170000.0,0.1905498267774086,8.616708450166113,0.7860617667109635,-0.124005646,0.25350907,-0.013439035,25.52611,-97.55193,6.417495
7426643163000.0,0.1440540810380034,8.57796222802042,0.859680037878616,-0.18600847,0.2660318,-0.021380283,25.517183,-97.42548,6.341947
7426648150000.0,0.0290550061329044,8.39680892279931,0.8581054963784717,-0.27305678,0.29779682,-0.04062254,25.50557,-97.27951,6.2556863
7426653112000.0,-0.1349874486466342,8.113462605837125,0.8021819111030912,-0.36743546,0.3182608,-0.056505036,25.494963,-97.12571,6.169274
7426658332000.0,-0.3010427321982211,7.819724423125794,0.7428291878017789,-0.464563,0.4016439,-0.07819075,25.467535,-96.94197,6.0690703
7426663174000.0,-0.3634297614978697,7.60830176298677,0.6804421585021302,-0.57757306,0.4370741,-0.0852157,25.449974,-96.74844,5.969226
7426668150000.0,-0.4275433215546752,7.391028083339561,0.6163285984453248,-0.6291912,0.50762904,-0.12461651,25.417479,-96.524216,5.830669
7426673092000.0,-0.4885635089082969,7.141266104148471,0.5686699475982533,-0.7360926,0.56291234,-0.1337795,25.382729,-96.29222,5.7005434
7426678149000.0,-0.545840529981805,6.819633497152474,0.5510462657933043,-0.8338311,0.61575216,-0.16340645,25.331116,-96.04941,5.5560884
7426683136000.0,-0.5910164704709897,6.505508391604096,0.5264171499249147,-0.93401295,0.64873886,-0.19547687,25.280577,-95.80274,5.4059987
7426688172000.0,-0.5727272004338263,6.205564575358362,0.460575779318923,-1.0262536,0.6640105,-0.22571471,25.224281,-95.552284,5.2503242
7426693972000.0,-0.551663307221843,5.860116971262799,0.3847457655153584,-1.119716,0.68569624,-0.25381452,25.165434,-95.2976,5.0848584
7426698095000.0,-0.5149168317269076,5.422453712851405,0.3594956353012048,-1.1933253,0.7153232,-0.28680122,25.10505,-95.04523,4.911485
7426703148000.0,-0.4530801584921504,4.737833553577948,0.3506618235213581,-1.2550226,0.72509706,-0.31581733,25.049564,-94.801765,4.73332
7426708123000.0,-0.41180268,4.280833,0.34476504,-1.3014483,0.7357872,-0.34116822,24.986877,-94.58881,4.5649266
7426713144000.0,-0.41180268,4.280833,0.34476504,-1.3524556,0.7507534,-0.37598756,24.925903,-94.38906,4.387478
7426718268000.0,-0.4026451616970166,3.9305577253002713,0.5050216365982177,-1.3814718,0.79443026,-0.41722095,24.839348,-85.77127,4.2224946
7426723101000.0,-0.3847123067706315,3.244625633475397,0.8188466493045331,-1.3991868,0.88056225,-0.43951756,24.742695,-85.904564,4.05418
7426728141000.0,-0.2980627974461584,2.792951236698233,1.1301763089817436,-1.4037683,0.9868528,-0.47433686,24.628448,-86.01922,3.870441
7426733207000.0,-0.1086022776158351,2.736113169823294,1.419103598174363,-1.3759739,1.0867293,-0.505491,24.498434,-86.1046,3.6830058
7426738082000.0,0.1136491900615129,2.8943942626730355,1.6393545458763892,-1.3637567,1.1215485,-0.5513059,24.330837,-86.13719,3.472102
7426743161000.0,0.4218612212973289,3.468142868863326,1.7578976532852408,-1.3481796,1.0903945,-0.59498274,24.161396,-86.12736,3.2537138
7426748061000.0,0.7054500949160252,4.054333523722884,1.808672774107768,-1.3261884,0.9798279,-0.6282749,23.980331,-86.03046,3.0409112
7426753059000.0,0.9608522974580126,4.732614761861441,1.7039997370538835,-1.3267993,0.89552844,-0.6389651,23.807606,-85.881775,2.8229926
7426758340000.0,1.226089920482442,5.445898508688227,1.5819700795282314,-1.3228287,0.61575216,-0.6200282,23.695274,-85.65839,2.6521482
7426764143000.0,1.4277681715764756,6.163635462461309,1.2260673636353934,-1.3139712,0.43982297,-0.573297,23.582354,-85.399765,2.4880276
7426768123000.0,1.551944051736286,6.6167202572118775,0.9823904546451936,-1.310306,0.37018433,-0.54550266,23.48865,-85.12503,2.3811514
7426773159000.0,1.6247605058882737,6.956530731414192,0.6765611444489179,-1.3051136,0.27275133,-0.49846604,23.455181,-84.834496,2.298882
7426778110000.0,1.692528704195173,7.258401661905119,0.3998081044299676,-1.3319917,0.22876903,-0.44898596,23.398846,-84.57026,2.2664375
7426783202000.0,1.7401902606195023,7.383054786632583,0.2531571748670777,-1.3435981,0.2660318,-0.4147775,23.3483,-84.30985,2.243995
7426788304000.0,1.7879454179009096,7.507952713254642,0.1062182426931057,-1.3927728,0.3820962,-0.39370266,23.272865,-84.082855,2.2575638
7426793153000.0,1.8000203252357008,7.4982030486696,0.008318759854494,-1.4492778,0.57451874,-0.3866777,23.16559,-83.85395,2.272859
7426798151000.0,1.7799637690446262,7.362821752503666,-0.0518507940568824,-1.5528195,0.8454375,-0.4016439,23.004465,-83.60517,2.2814386
7426803081000.0,1.6186164882534777,7.109358806622875,-0.0744881666822256,-1.7037032,1.1685852,-0.45265114,22.764292,-83.36967,2.2933035
7426808224000.0,1.3445629496136011,6.75537291301391,-0.0706818681527047,-1.8973475,1.570229,-0.5564982,22.430222,-83.10707,2.2745593
7426813435000.0,1.0558894419957692,6.398512689855606,-0.0513649094178239,-2.0900755,2.0378466,-0.72692966,21.992592,-82.823814,2.209652
7426818151000.0,0.6238946728391428,6.103593272988136,0.2061704375701278,-2.2745566,2.5540276,-0.93828905,21.440186,-82.507866,2.0899103
7426823096000.0,0.1709230584456911,5.794353129559459,0.4762112117124988,-2.4788911,3.0207286,-1.2021828,20.828869,-82.1511,1.8378701
7426828102000.0,-0.4862862392838876,7.278258974254049,2.2047801723785163,-2.6710083,3.3286047,-1.4608842,20.140638,-81.75744,1.5212258
7426833963000.0,-1.308459878907231,9.49247264166473,4.614749513694489,-2.7837129,3.3545666,-1.7250835,19.4307,-81.33858,1.130987
7426838176000.0,-1.8522368220366676,11.088836701034673,6.034686937701943,-2.7739391,3.0793717,-1.9807305,18.794325,-80.811424,0.5726295
7426843151000.0,-2.3624986588037755,12.987183456344164,6.838997960119804,-2.660929,2.5738807,-2.2088888,18.250528,-80.26947,-0.029287847
7426848344000.0,-2.8859861717010062,14.906447910301868,7.621309309209391,-2.4877486,1.9474384,-2.4135287,18.036568,-79.27644,-0.94466466
7426853110000.0,-3.266527224753234,15.986835025970292,7.713163991030187,-2.346028,1.63437,-2.4932466,17.896912,-78.27554,-1.8567626
7426858577000.0,-3.68527044962406,17.20092094736842,7.8110741026657555,-2.3228152,0.8756753,-2.6911669,18.16157,-77.17293,-2.8589902
7426863176000.0,-3.643875991729324,17.663786092105262,7.728285265464798,-2.5164595,0.68936145,-2.7473664,18.353022,-76.0512,-3.8224154
7426868120000.0,-3.59937627443609,18.16137367105263,7.639285915362269,-2.6584857,0.3313944,-2.8200593,18.823128,-74.961525,-4.781373
7426873150000.0,-3.3073902,18.4948086875,7.33184396875,-3.019507,0.026572637,-2.85946,19.330036,-73.776184,-5.698132
7426878106000.0,-2.8643770903225807,18.714543561155917,6.892374776545699,-3.3649511,-0.21380283,-2.8814514,19.920765,-72.57611,-6.5732555
7426883739000.0,-2.29185439492126,18.962780983661418,6.388629320570867,-3.5949419,-0.4615087,-2.874121,20.542904,-71.37928,-7.3722296
7426888135000.0,-0.7586980794094489,19.13267123996063,5.928682460531497,-3.7271943,-0.70341134,-2.8701503,21.230627,-70.14901,-8.126529
7426893143000.0,0.98790038011811,19.326213187992128,5.404702962106299,-3.7675114,-0.86590147,-2.8060095,21.842615,-69.03775,-8.739033
7426898154000.0,1.7041376924839975,19.270649496180056,4.7037901088168494,-3.6593883,-1.0005972,-2.6465738,22.504566,-67.97279,-9.283749
7426903514000.0,2.350685875566109,19.18232330717875,3.933585150457705,-3.3844988,-1.0784826,-2.450486,23.185116,-66.98127,-9.772055
7426908451000.0,2.939001580526316,19.090422461462985,3.2592717196253345,-3.0552425,-0.83260936,-2.2904391,23.629986,-66.21058,-10.061031
7426913127000.0,3.3864135657894736,18.842747547279217,3.155408207404104,-2.6569583,-0.58184916,-2.1438315,24.078493,-65.56568,-10.29216
7426918065000.0,3.858894400526316,18.58119521061552,3.045725139964318,-2.2806654,-0.3371976,-2.0134118,24.36223,-65.203545,-10.420502
7426923148000.0,3.932194316444445,18.13876963111111,3.34903064,-2.0033326,-0.09468412,-1.9144517,24.567345,-64.93229,-10.550012
7426928095000.0,3.8643862439472696,17.64983759088512,3.7844303640677968,-1.7321084,0.05100725,-1.8069394,24.718456,-64.77056,-10.662806
7426933150000.0,3.630446689690408,17.040215992725425,4.22662713009643,-1.4767667,0.17959438,-1.6924021,24.751667,-64.70083,-10.741918
7426938185000.0,1.9132843608458805,15.441338156487904,4.642661573507021,-1.2366967,0.38148534,-1.6362026,24.721273,-64.69726,-10.834677
7426943065000.0,0.2489840302080863,13.891680988496024,5.045888601082727,-1.0366384,0.69058317,-1.6358972,24.63882,-64.61527,-10.975299
7426948139000.0,-0.7781116230840424,13.144158233766234,5.198625104717122,-0.8677341,0.8604037,-1.6691893,24.538712,-64.589554,-11.1143675
7426953093000.0,-1.5181990822988507,12.736933,5.248200342528736,-0.72356987,1.1340714,-1.6673567,24.32643,-64.611275,-11.285598
7426958148000.0,-2.262539509374014,12.327799739926355,5.297956161514993,-0.66981375,1.2641857,-1.642922,24.25266,-64.37222,-11.688568
7426963180000.0,-2.820241072256707,12.028668648500789,5.333446293698054,-0.56413406,1.280679,-1.5531249,24.134777,-64.1933,-12.08057
7426968330000.0,-3.344193119216134,11.757652711567731,5.35602981858828,-0.45906523,1.1887437,-1.4107933,24.05708,-63.943928,-12.555498
7426973228000.0,-3.6476263625570775,11.646096474885844,5.320331776255708,-0.35888332,1.0299188,-1.2556335,23.991404,-63.733677,-12.985998
7426978339000.0,-3.942732296176256,11.534656786962854,5.285762770029133,-0.2742785,0.84513205,-1.0894781,23.965086,-63.50768,-13.416665
7426983108000.0,-4.012587100713765,11.478107839766931,5.279109962927895,-0.20341812,0.69913524,-0.90041536,23.959951,-63.328564,-13.777304
7426988172000.0,-4.086762972002913,11.418060897305171,5.272045627603787,-0.13530666,0.53786683,-0.72082096,23.988916,-63.16072,-14.109616
7426993061000.0,-4.0689860857801925,11.353094680028706,5.191946149169572,-0.05222898,0.43676865,-0.54367006,24.026352,-63.041584,-14.37625
7426998164000.0,-3.8284919080582327,11.26791894484314,4.92640023846627,0.031154128,0.43096542,-0.41233405,24.070383,-62.959095,-14.595224
7427003054000.0,-3.3763330636432496,10.995830992425676,4.614443207574324,0.12705997,0.4783075,-0.3286455,24.08915,-62.886456,-14.796204
7427008196000.0,-2.457846405074797,10.329112417723916,4.171518182276084,0.21655174,0.5467244,-0.27672195,24.095419,-62.846886,-14.969185
7427013159000.0,-1.6887265680354269,9.747032483360172,3.822499649865808,0.3182608,0.6246097,-0.23762658,24.020184,-62.852753,-15.117617
7427019139000.0,-1.1917572717391305,9.270556804347828,3.6892913782608696,0.42913285,0.6658431,-0.21135938,23.936754,-62.88555,-15.255451
7427023441000.0,-0.8423650702879265,8.930651206387612,3.5939348849504,0.52656585,0.68203104,-0.16707164,23.755903,-62.987064,-15.3154335
7427028084000.0,-0.569814978837003,8.60072222517945,3.497107907847407,0.6087272,0.6786713,-0.1133155,23.570173,-63.11373,-15.363981
7427033079000.0,-0.2766020331558997,8.245780320993628,3.3929401821033958,0.66523224,0.65087694,-0.071776666,23.348072,-63.260963,-15.374751
7427038109000.0,-0.0335636377960632,7.888306588899645,3.2618963433688286,0.72204274,0.6123924,-0.04642576,23.129927,-63.430515,-15.369652
7427043176000.0,0.1621675660422717,7.528161266053566,3.1053113279767666,0.7797695,0.6072,-0.016187929,22.908798,-63.617764,-15.348837
7427048237000.0,0.3506073297334994,7.174124010626816,2.953125450734745,0.84329945,0.59895337,0.006414085,22.668186,-63.81996,-15.298785
7427053155000.0,0.4366324222764632,6.90822822698215,2.863190113349938,0.890947,0.5919284,0.024740042,22.428635,-64.03307,-15.2374525
7427058082000.0,0.5228149417882939,6.641845850809465,2.773090193200498,0.91354895,0.5491679,0.061086524,22.17262,-64.255646,-15.152581
7427063132000.0,0.5346752169003115,6.365816806230529,2.7122501130841123,0.9941832,0.50946164,0.09254608,21.919027,-64.50159,-15.059533
7427068128000.0,0.5020700670366044,6.091001982087227,2.6703292373831777,1.0564915,0.46670106,0.129198,21.67587,-64.75242,-14.9470005
7427073139000.0,0.4177998781707317,5.954011659878049,2.6527755,1.1355985,0.376293,0.18417588,21.438076,-65.01667,-14.81599
7427078153000.0,0.2964997750696864,5.916366740052265,2.6527755,1.1872166,0.26053402,0.24587326,21.216444,-65.29273,-14.663281
7427083128000.0,0.1973254576165347,5.899091025740252,2.643420516124304,1.2635747,0.1160644,0.30970868,21.022905,-65.57877,-14.503909
7427089222000.0,0.140293246282615,5.939013663598162,2.6034980569236783,1.3494014,-0.040011674,0.4016439,20.856092,-65.88986,-14.30602
7427093067000.0,0.1082385423015384,5.9567738,2.582396398584616,1.4376713,-0.22021692,0.4297437,20.732906,-66.19492,-14.12238
7427098150000.0,0.0782822910482051,5.9567738,2.5674181269846152,1.461495,-0.41722095,0.51007247,20.64258,-66.523865,-13.883536
7427103056000.0,0.0429005023874206,5.945125517746936,2.5278866247748413,1.4816537,-0.6246097,0.5852089,20.588793,-66.855385,-13.63569
7427108138000.0,-0.0109928958260741,5.902010754156208,2.420099828347852,1.473407,-0.8335256,0.677755,20.577831,-67.19572,-13.345207
7427113076000.0,-0.0633592083759043,5.860117660372066,2.315367203248192,1.4611896,-1.047023,0.7696902,20.604824,-67.54674,-13.032593
7427118179000.0,-0.1757934790506396,5.683554794164288,2.123352848387779,1.4413365,-1.2281445,0.8399397,20.668955,-67.897964,-12.689479
7427123159000.0,-0.3270541742615498,5.416327646685696,1.876293779564436,1.4217888,-1.3704761,0.89858276,20.767338,-68.25123,-12.314831
7427128152000.0,-0.4415196974934383,5.138371516010499,1.612692803608924,1.4013249,-1.4538593,0.92485,20.8788,-68.59415,-11.948027
7427133131000.0,-0.5392947201492782,4.856779335761155,1.3428337397719816,1.3631458,-1.4504995,0.9462303,20.992798,-68.927765,-11.569313
7427138070000.0,-0.6094312152140237,4.571578055238484,1.068789980839788,1.3283265,-1.3594806,0.96883225,21.12621,-69.27757,-11.213703
7427143166000.0,-0.5945096784834897,4.258225680024459,0.765385192906645,1.3106114,-1.2290609,1.0027353,21.238161,-69.61739,-10.860903
7427148063000.0,-0.5538103216537313,3.9365699428059697,0.5574144705671642,1.3347405,-1.1606439,1.0228939,21.383839,-70.00053,-10.523351
7427154267000.0,-0.4163588311940299,3.462140617910448,0.5662823014925373,1.3497068,-0.91415983,1.0793989,21.43395,-70.3784,-10.200062
7427158120000.0,-0.3309944545432836,3.167495842149254,0.5717896761791045,1.4138476,-0.8381071,1.0986412,21.543055,-70.81812,-9.863948
7427163104000.0,-0.2143053973605773,2.940991562470709,0.6989767285406318,1.4462235,-0.7076874,1.1224649,21.562115,-71.25449,-9.542203
7427168439000.0,-0.0850063893654513,2.8069037456650108,0.919263924013497,1.5158621,-0.61361414,1.1652255,21.566265,-71.712585,-9.218995
7427173148000.0,0.014416151143617,2.703435732712766,1.115163086968085,1.5592335,-0.5516113,1.2104294,21.515741,-72.13574,-8.9103155
7427178146000.0,0.1047582385235071,2.608987211178792,1.324592450883665,1.5909985,-0.51068336,1.2757921,21.439009,-72.57329,-8.594512
7427183143000.0,0.1962962060355029,2.536380452662722,1.5303623325443787,1.6123788,-0.5137377,1.353372,21.243725,-72.89323,-8.328747
7427188159000.0,0.2953509859171597,2.592367943786982,1.7155517573964498,1.5833627,-0.5653558,1.4349225,21.047693,-73.21271,-8.043982
7427193593000.0,0.4018239735327056,2.6549406093348105,1.915011352396776,1.5766432,-0.6600399,1.5289958,20.96555,-73.6591,-7.6477637
7427198102000.0,0.3194514162131561,3.098689608910221,1.843267504990462,1.5537357,-0.74281216,1.6166549,20.886637,-74.09327,-7.232264
7427203099000.0,0.228163842709987,3.590464670094148,1.7637589652944434,1.5360206,-0.84299403,1.6997325,20.85477,-74.5586,-6.7455134
7427208091000.0,0.1369676115857486,4.08174766097471,1.6843299818718849,1.5473217,-0.96974856,1.7718146,20.844822,-75.02078,-6.235301
7427213160000.0,-0.063275622583677,4.810082889766951,1.5065620736741152,1.5754215,-1.1151345,1.8390098,20.858948,-75.47619,-5.7012653
7427218091000.0,-0.3123672038419488,5.634349455087753,1.284644137690611,1.6701056,-1.2608259,1.8939877,20.900442,-75.94121,-5.1487207
7427223087000.0,-0.6352790272346571,6.332610589747293,1.059969319133574,1.7357736,-1.3481796,1.8863518,20.859573,-76.317055,-4.6973243
7427228630000.0,-1.0530538966714802,6.991851786353791,0.8108374832129964,1.7870862,-1.4520267,1.7956384,20.86234,-76.69661,-4.251392
7427233174000.0,-1.3955343236462094,7.53227971299639,0.6066060088447653,1.8225164,-1.5653422,1.6310102,20.967854,-77.157425,-3.8361194
7427238183000.0,-2.0989106026303253,8.205130096635852,0.4084805189059373,1.853976,-1.6242907,1.4511104,21.091078,-77.60521,-3.4590337
7427243113000.0,-2.8638322159916134,8.884560022300581,0.2194999043629086,1.8796324,-1.6484199,1.260215,21.243773,-78.031395,-3.1371992
7427248138000.0,-4.23852078358813,9.64063571627698,0.740501650971223,1.9052887,-1.6319265,1.169807,21.535929,-78.54575,-2.8983684
7427253082000.0,-5.83522934006295,10.41060406519784,1.5459524921223018,1.9336939,-1.4413365,1.0125091,21.798018,-79.036026,-2.7501936
7427258242000.0,-7.416704045768713,11.157663739042482,2.39626991604855,1.8594738,-1.1212431,0.8145888,22.142649,-79.50294,-2.8112023
7427263185000.0,-7.640147769411666,11.014021758934591,3.3578759030681056,1.6646078,-0.8032878,0.5626069,22.438688,-79.911064,-2.9432874
7427268059000.0,-7.860472412145988,10.872384896493594,4.306058703135536,1.426065,-0.5870415,0.26816985,22.878443,-79.949326,-3.6543384
7427273142000.0,-7.656432679072424,10.621923805803062,4.934803411606123,1.1850786,-0.4831944,-0.0018325958,23.251635,-79.855194,-4.3994207
7427278108000.0,-7.236298943606732,10.324932347879065,5.365802895758129,1.0311406,-0.4578435,-0.160963,23.57735,-79.65003,-5.1621013
7427283241000.0,-6.803478951844279,10.00336292844365,5.795519066411108,0.9807441,-0.46914452,-0.24312437,23.857296,-79.12825,-6.0519543
7427288164000.0,-6.409887513229406,9.477236017889089,5.972233588159128,0.9746355,-0.52748215,-0.32284227,24.148548,-78.542076,-6.931865
7427293063000.0,-6.018214862858847,8.953674016100178,6.148086613152739,0.98440933,-0.58459806,-0.39187005,24.37743,-77.9086,-7.7112303
7427298114000.0,-5.350044319404983,8.374710058757902,6.30389669490517,0.956615,-0.6386596,-0.46089783,24.636839,-77.26643,-8.468792
7427303142000.0,-4.562132074912607,7.780194402380067,6.447153371439197,0.88025683,-0.70249504,-0.5161811,24.92737,-76.62214,-9.200775
7427308427000.0,-3.7477702288163073,7.185029898077368,6.577999497938383,0.7699956,-0.7828238,-0.54702985,25.285788,-76.060814,-9.811302
7427313122000.0,-3.22005868167709,7.077404518183924,6.414825644799629,0.6426302,-0.84238315,-0.55741453,25.663496,-75.4823,-10.409551
7427318117000.0,-2.658627546861246,6.962902117211026,6.241225347370859,0.49632803,-0.8848383,-0.5381723,26.046875,-75.04898,-10.797071
7427323149000.0,-2.0616050990597654,6.887872764485199,5.901030290132191,0.3585779,-0.91690874,-0.5006041,26.447294,-74.596176,-11.173774
7427328106000.0,-1.429643758704152,6.870195489666729,5.335358511152485,0.19486602,-0.9505063,-0.4569272,26.862225,-74.11848,-11.534842
7427333162000.0,-0.7876963324958712,6.929270479954584,4.625133185074319,0.1020145,-0.9502009,-0.4089743,27.224403,-73.778015,-11.735259
7427338197000.0,-0.1555905050340627,7.198039746624691,3.55503275438687,0.087659165,-0.8549059,-0.3811799,27.569609,-73.426956,-11.930623
7427343139000.0,0.4700818894421507,7.599246040038406,2.566841744723956,0.18203785,-0.77549344,-0.36957347,27.841385,-73.245804,-11.974432
7427348160000.0,1.1164496725943351,8.287165946327413,1.6896282582717237,0.25686884,-0.57360244,-0.37293324,28.05064,-73.059845,-12.028386
7427353264000.0,1.7565105982820977,8.96607933340868,0.9015186509267632,0.46670106,-0.3036,-0.4071417,28.11521,-73.10567,-11.962917
7427358241000.0,2.3347103482820977,9.57300970840868,0.4131015134267631,0.68386364,-0.013439035,-0.47219884,28.117785,-73.1594,-11.923377
7427363242000.0,2.9156982827305606,10.18286681216094,-0.0776708604204339,0.86254174,0.22907446,-0.5714644,27.932512,-73.43983,-11.759732
7427368236000.0,3.7792093603855927,11.50349315759436,0.2997543714833821,0.9505063,0.37232238,-0.679893,27.695879,-73.72399,-11.631231
7427373164000.0,4.809063963196009,13.253114196777132,1.2164381905040529,0.95539325,0.4636467,-0.79045963,27.41011,-74.00043,-11.541728
7427378080000.0,5.836410803174907,14.99847479511774,2.1308898249004846,0.829555,0.5458081,-0.92271197,26.998484,-74.4684,-11.297477
7427383209000.0,6.908270433413265,16.81945821840679,3.084962736377152,0.5739079,0.72295904,-1.0390818,26.5436,-74.88084,-11.093589
7427388283000.0,7.575460012880872,18.019975427188424,3.6345997295220633,0.20830505,0.9663888,-1.1777482,26.068993,-75.21505,-10.93946
7427393139000.0,7.741329254743707,18.4464968155508,3.6867300004687658,-0.118507855,1.2733486,-1.31672,25.536394,-75.47537,-10.831639
7427398132000.0,7.07657432372093,18.7759542055814,3.754477951534884,-0.27672195,1.5781704,-1.409877,24.782278,-75.94552,-10.330477
7427403106000.0,5.428180544372093,18.97535654455814,3.8386701427534886,-0.23579398,1.6902641,-1.3976597,24.028097,-76.340515,-9.896793
7427408099000.0,3.688087146710847,19.14614754945912,3.725333054244226,-0.16126843,1.5775595,-1.2513574,23.270844,-76.71782,-9.468495
7427414368000.0,1.254075468102524,19.274868857421303,3.005661262937336,-0.17715092,1.3075571,-1.0903945,22.55334,-77.05589,-9.071612
7427418280000.0,0.1297057208486588,18.79944599659101,2.549997599264376,-0.42455134,0.9294315,-0.91507614,22.041975,-77.17363,-8.898723
7427423100000.0,-0.4044888428007535,17.014656252265183,1.974392654436171,-0.9147707,0.37201694,-0.68477994,21.663445,-77.26468,-8.661746
7427428336000.0,-0.9490511566679118,15.101056287784834,1.3301408475681733,-1.5195273,-0.20189096,-0.45478916,21.520803,-77.16349,-8.616727
7427433115000.0,-0.962728433302204,13.695716805379156,0.4855695107956668,-2.1044307,-0.67103547,-0.26847526,21.505247,-76.99123,-8.506247
7427438245000.0,-0.9774102556779978,12.187160298841988,-0.4210324891296226,-2.5265386,-0.9746355,-0.105068825,21.645424,-76.70054,-8.444954
7427443072000.0,-0.9571972529188916,10.812755565843828,-1.2332669189219143,-2.7217102,-1.0522153,-0.04642576,21.84847,-76.34459,-8.354275
7427448155000.0,-0.868913076513854,9.45416082695214,-2.00820568347607,-2.734233,-1.0983357,0.04062254,22.114578,-75.96576,-8.202951
7427453079000.0,-0.8060928702367531,8.400047403607667,-2.4931439719278465,-2.620612,-1.1148291,0.09101892,22.351828,-75.57688,-8.077073
7427458127000.0,-0.7833834813904548,7.800519862457722,-2.502227716084179,-2.3976462,-1.2012665,0.10293079,22.616472,-75.21901,-7.933559
7427463090000.0,-0.8167892498678593,7.409267388757878,-2.47609413379752,-2.0885482,-1.396438,0.1328632,22.882086,-74.92535,-7.770303
7427468130000.0,-1.0424740768652163,7.693826362533035,-2.32890845947347,-1.6939293,-1.6969837,0.16982053,23.19893,-74.71212,-7.590992
7427473144000.0,-1.2287635128905692,8.311293694150379,-2.272432528013982,-1.284955,-2.0717494,0.226631,23.592768,-74.56439,-7.391048
7427478182000.0,-1.311368060286774,9.846361799814524,-2.4617346412541017,-0.8680395,-2.3780985,0.30573806,24.04608,-74.52811,-7.1619635
7427483117000.0,-1.392283789028392,11.350046020031389,-2.647166544556998,-0.46639562,-2.6175575,0.3408628,24.595999,-74.57653,-6.939062
7427488158000.0,-1.386161475263466,12.723886525761124,-2.829556703161592,-0.13072516,-2.8081474,0.376293,25.210762,-74.72523,-6.683632
7427493179000.0,-1.2782420669398906,13.90630850819672,-3.0031663032786886,0.15943582,-2.8695395,0.46211955,25.84902,-74.97486,-6.4059477
7427498192000.0,-1.1921737053693104,14.778123357045516,-3.136228092595621,0.42730024,-2.812118,0.600786,26.45982,-75.403725,-6.090344
7427503050000.0,-1.1372256075224856,15.217708139820116,-3.2123099689833743,0.6927212,-2.643214,0.71685034,27.054613,-75.90386,-5.7758684
7427508032000.0,-1.1070327322794604,15.54683778554057,-3.300729024010612,0.9257663,-2.368019,0.763887,27.573114,-76.516685,-5.432934
7427513063000.0,-1.186925913254477,15.365746812624364,-3.4338843441742206,1.0986412,-1.9877555,0.7263188,28.017998,-77.16786,-5.116542
7427517971000.0,-1.3147804570775792,14.938364383326563,-3.489433195928107,1.2024882,-1.4089607,0.6395759,28.323397,-77.86501,-4.829245
7427522980000.0,-1.5291072153533711,14.0810568415922,-3.4212384177091795,1.2742649,-0.58459806,0.528093,28.460827,-78.56965,-4.6078124
7427527962000.0,-1.6021607497341996,13.165343075014766,-2.8004382704666275,1.3151928,0.42852196,0.35705075,28.39882,-79.25632,-4.480151
7427533068000.0,-1.462558799054932,12.130363711163614,-1.3177697727702302,1.3213016,0.8927795,0.13744467,28.27082,-79.91179,-4.414654
7427538087000.0,-1.1493002700872093,11.358148726744188,0.134325836627907,1.2342533,1.4816537,-0.069027774,27.853033,-80.474075,-4.4758754
7427543011000.0,-0.5735560449011629,10.974319109689922,1.550839445155039,1.1759156,1.593442,-0.16523905,27.446579,-81.00766,-4.560552
7427547972000.0,0.0622386366123275,10.685669309346968,2.612762866007524,1.0363328,1.3203852,-0.29840767,26.980785,-81.2616,-4.7505608
7427554221000.0,1.020505046854442,10.59907903752291,2.918715400897077,0.90224797,0.6377433,-0.37965274,26.610613,-81.47814,-4.92909
7427558064000.0,1.6275960764996398,10.584240896388518,2.8599286820146106,0.7272351,0.42821655,-0.38056904,26.179466,-81.51676,-5.070929
7427563031000.0,2.459632203570326,10.66744466241383,2.12577909800391,0.6954701,0.1740966,-0.3286455,25.966452,-81.552635,-5.186037
7427568010000.0,3.199586732944694,10.700565942600898,1.3430089776621823,0.6795876,0.08155051,-0.2012801,25.770111,-81.63379,-5.156045
7427573002000.0,3.718870043916293,10.614812486098655,0.4473642708400598,0.72021013,0.04153884,-0.01160644,25.628809,-81.74142,-5.0847306
7427578010000.0,4.178426216574312,10.439828994755592,-0.3163179688175341,0.79809546,0.118507855,0.16646078,25.393341,-81.99236,-4.863298
7427583106000.0,4.492321209568573,10.039009382643972,-0.7557708026904809,0.90285885,0.24740042,0.3277292,25.147493,-82.28532,-4.595283
7427588051000.0,4.6955111188836325,9.622282451844844,-1.0267134610917692,0.98807454,0.36987892,0.46181414,24.839546,-82.74765,-4.1962285
7427593038000.0,4.636771760614948,9.129776334153265,-0.8956797152630085,1.0824533,0.44257188,0.56230146,24.504168,-83.245964,-3.7672753
7427598031000.0,4.522252824735323,8.649192884311837,-0.6777872246294514,1.205848,0.38820487,0.6374379,24.17128,-83.86173,-3.25294
7427603135000.0,4.103122428585178,8.225785694321463,0.0150610899807507,1.3179418,0.15607607,0.72051555,23.867088,-84.49591,-2.7086663
7427608166000.0,3.689986648210692,7.808434288984163,0.6979999361413948,1.4034629,-0.13469578,0.8127562,23.60925,-85.11816,-2.1494224
7427613116000.0,2.9311574442264634,7.485198233329779,1.2521182118242884,1.4520267,-0.35613444,0.8933904,23.394917,-85.73642,-1.5704266
7427618555000.0,2.0442311296041407,7.179090537573085,1.814178420138024,1.4618006,-0.44073927,0.9468411,23.220642,-86.32653,-0.9753118
7427623156000.0,1.216441758164478,7.233994936930892,2.0253491054826034,1.4165965,-0.3933972,0.9691377,23.085093,-86.70852,-0.4532518
7427628057000.0,0.3346778569634812,7.292479279737371,2.2502887987827087,1.344209,-0.2501493,0.9639453,23.026009,-86.9734,-0.040073574
7427633198000.0,-0.5233240202898806,7.468195013598033,2.3848048105762474,1.2449434,-0.043066,0.95905846,22.928284,-87.15687,0.3724537
7427638095000.0,-1.3348868602749473,7.6453381383520735,2.504273457607168,1.0946705,0.09315695,0.9379836,22.804714,-87.23852,0.772809
7427643132000.0,-2.053373746386149,7.816446376243205,2.5127750936782767,0.9978484,0.42180246,0.91232723,22.644215,-87.27398,1.0184989
7427648147000.0,-2.706055197312261,7.980825394866116,2.459593679142339,0.81214535,0.77549344,0.8790351,22.436182,-87.22378,1.2501312
7427653082000.0,-3.056403948342857,8.109591877538461,2.337021171578022,0.6423248,1.1139128,0.8445212,22.190449,-87.17102,1.3143888
7427658171000.0,-3.266345263542857,8.225273459692307,2.174209543947253,0.5039638,1.3811663,0.7996226,21.870684,-87.08763,1.3619798
7427663116000.0,-3.281170025676555,8.30043583585976,1.9518427456802756,0.40866885,1.5723672,0.75716746,21.539421,-87.03453,1.2967591
7427668116000.0,-3.000625572965684,8.318248074304845,1.6267674643634336,0.34208453,1.6920967,0.71837753,21.163145,-86.958206,1.2202903
7427673068000.0,-2.739685771672586,8.32627226670049,1.4012553615254524,0.29932398,1.7330247,0.6768387,20.797583,-86.917946,1.1009114
7427678115000.0,-2.5312432206494164,8.301749975139524,1.4993459787924912,0.29016098,1.7263051,0.6151413,20.422316,-86.8705,0.96883005
7427683138000.0,-2.3237918765262977,8.27734429443599,1.596970145729748,0.269697,1.6420058,0.5564982,20.043367,-86.84996,0.8819514
7427688217000.0,-2.1886606951499035,8.14890624892271,1.6794717872467224,0.26206118,1.5057828,0.5002986,19.6906,-86.83332,0.78413093
7427693104000.0,-2.0685129465939305,8.011594408269918,1.7567096864123957,0.2452624,1.3414601,0.46914452,19.378517,-86.80869,0.68344915
7427698145000.0,-2.01698019285942,7.848177735734778,1.863763532052917,0.25137106,1.1866057,0.45020768,19.094215,-86.78481,0.6095597
7427704437000.0,-1.9929695036659227,7.632081532993306,2.0126298551960478,0.27122417,1.0543534,0.44043383,18.85809,-86.76122,0.5359147
7427708205000.0,-1.97421798605556,7.471498903976344,2.068498538152673,0.24953845,0.98471475,0.44348818,18.645817,-86.72941,0.48064685
7427713132000.0,-1.933829353085363,7.148389916893627,2.020766562679947,0.16462818,0.9584476,0.43463063,18.464655,-86.68628,0.42334244
7427718141000.0,-1.8927685325966848,6.819903430939226,1.9722401845303867,0.046120327,0.98837996,0.4373795,18.291666,-86.62169,0.36783212
7427723145000.0,-1.8696204611767664,6.6074621361076185,1.847119725119437,-0.089186326,1.0274754,0.42455134,18.128868,-86.52993,0.30745992
7427728092000.0,-1.8577078562987173,6.468481621473472,1.6763723056072417,-0.21991149,1.1029172,0.4129449,17.952007,-86.40769,0.2486982
7427733056000.0,-1.847320613163836,6.327903966182389,1.53584745803475,-0.3277292,1.1523973,0.39614612,17.774122,-86.26766,0.19540952
7427738388000.0,-1.8423079992834004,6.172512726524001,1.5057716700696966,-0.36132678,1.2889256,0.33475417,17.556349,-86.11635,0.12425916
7427743209000.0,-1.829148577123015,6.040395986467855,1.4692497564060665,-0.39736784,1.320996,0.3155119,17.355858,-85.9647,0.06942718
7427748181000.0,-1.7829502602359188,5.935841932952051,1.3963050602308125,-0.37995818,1.3426818,0.26450464,17.127369,-85.823494,-0.01218591
7427753094000.0,-1.73730015346474,5.832528565107491,1.3242259588010008,-0.3454443,1.2980887,0.20769419,16.912497,-85.689674,-0.10026123
7427758148000.0,-1.690339917433488,5.726250168794363,1.2500782326405555,-0.2874121,1.2018774,0.1518,16.713608,-85.57045,-0.19894072
7427763122000.0,-1.6818185722585226,5.618795521434659,1.1618721224360795,-0.21960606,1.1074986,0.09712757,16.534248,-85.46553,-0.30929294
7427768159000.0,-1.7743211454545456,5.502310818181818,1.031683309090909,-0.14660765,1.0607675,0.03940081,16.375648,-85.37871,-0.4321382
7427774032000.0,-1.882176538025568,5.366492938053977,0.8798868229332386,-0.0693332,1.0409144,-0.03481932,16.22796,-85.33001,-0.55504084
7427778142000.0,-1.9847043272352132,5.231525057083906,0.7204999353232462,0.008857546,1.105666,-0.118202426,16.075586,-85.298416,-0.69451064
7427783193000.0,-2.13678905388092,5.027161239772057,0.4733622371546473,0.05467244,1.2296717,-0.21594086,15.918477,-85.272385,-0.85639316
7427788101000.0,-2.287406011797568,4.865351513079198,0.3056741772592836,0.08368854,1.4153748,-0.3378085,15.730216,-85.26179,-1.0721351
7427793133000.0,-2.445771096713769,4.750536709727243,0.2344098952481104,0.07513642,1.632232,-0.45814893,15.505112,-85.237175,-1.312908
7427798469000.0,-2.6139216970468877,4.6460568417494175,0.1861916188342975,0.032986723,1.7608191,-0.52320606,15.230203,-85.174484,-1.6124219
7427803088000.0,-2.7628876976167858,4.825579914394266,0.5719754285329419,-0.0852157,1.7443258,-0.5412266,14.941518,-85.06742,-1.9279686
7427808272000.0,-2.9300753457991537,5.027062401640618,1.004948641236508,-0.2510656,1.6523905,-0.5299256,14.643447,-84.89647,-2.292824
7427813163000.0,-2.926391378661521,5.345261447006777,1.292166681278238,-0.43890667,1.518611,-0.48747048,14.365972,-84.678406,-2.6467705
7427818129000.0,-2.850290653943901,5.725764836878765,1.5294215849115211,-0.6401868,1.3939945,-0.45448375,14.116355,-84.40881,-2.9927516
7427823156000.0,-2.7420939976186696,6.042087813256073,1.7699106139069694,-0.8145888,1.2596041,-0.4184427,13.977562,-84.05402,-3.3407688
7427828101000.0,-2.610525124781711,6.297707455381807,2.006734781274805,-0.99082345,1.1801916,-0.37110063,13.863856,-83.66261,-3.668086
7427833324000.0,-2.4687550085651537,6.561009902013177,2.243882302415813,-1.1316279,0.82833326,-0.34574974,13.911668,-83.27763,-3.930951
7427838188000.0,-2.298251423206442,6.714463271266472,2.2865082655197657,-1.2370021,0.6939429,-0.33169982,13.92448,-82.876625,-4.1815743
7427843125000.0,-2.125188881899707,6.870219703010615,2.329773968612738,-1.2815952,0.40408736,-0.30787608,14.060061,-82.46012,-4.3916793
7427848144000.0,-2.0796017583180024,6.962633003153745,2.1241131658869907,-1.3640621,0.17928895,-0.2855795,14.217946,-82.024025,-4.592359
7427853057000.0,-2.0589924657555847,7.040947901708279,1.876802429855453,-1.4162911,0.04642576,-0.28191432,14.433479,-81.59584,-4.783142
7427858158000.0,-2.150872497748815,7.103953767328199,1.5459138741409952,-1.427592,0.027488936,-0.2938262,14.642147,-81.17018,-4.9448566
7427863115000.0,-2.3289871789889416,7.150826245063191,1.1662485419826225,-1.4071281,0.093462385,-0.32162055,14.864713,-80.7478,-5.107526
7427868206000.0,-2.584463524462365,7.240928498521505,0.8343149348521506,-1.3387111,0.26633725,-0.35369098,15.026282,-80.37342,-5.272777
7427873091000.0,-2.889189440612076,7.361851390529363,0.563447356745244,-1.2748758,0.5027421,-0.3930918,15.152134,-80.00728,-5.4518566
7427878087000.0,-3.2316909335386987,7.60295203142087,0.5208684066499807,-1.2315043,0.79717916,-0.43371433,15.197592,-79.66586,-5.674106
7427883126000.0,-3.5986860379091263,7.928137600096265,0.6416515922323835,-1.258077,1.0454959,-0.49388456,15.193259,-79.32287,-5.916714
7427888110000.0,-4.071028503850071,8.355357202587085,0.9009826202587086,-1.3573426,1.219287,-0.6032294,15.1062565,-78.90657,-6.255087
7427893207000.0,-4.657699122143002,8.89230990323895,1.2987253903238951,-1.484708,1.325883,-0.7825184,14.976383,-78.466576,-6.6304393
7427898083000.0,-5.2731004863761175,10.102571787509682,2.0273101045412942,-1.5968018,1.4068227,-1.026559,14.842282,-77.92394,-7.120065
7427903083000.0,-5.947381096106456,11.89952982454411,3.0522165679645146,-1.709201,1.5265522,-1.321607,14.6810875,-77.32575,-7.669627
7427908187000.0,-6.635686742519186,13.733864588748856,4.098441085826938,-1.8194622,1.6224581,-1.677436,14.589308,-76.56732,-8.384172
7427913573000.0,-6.740901621167323,15.251281204857444,5.224825137880388,-1.8811595,1.5476271,-2.0561724,14.5327,-75.755104,-9.165058
7427918101000.0,-6.653482923884035,16.40853663885956,6.17810393031583,-1.9043725,1.2623531,-2.4055874,14.531828,-74.88485,-10.008434
7427923150000.0,-6.257955410355674,17.22628676215824,7.035222266876361,-1.9358319,0.84665924,-2.658791,14.737075,-73.85505,-10.9619665
7427928127000.0,-5.696707923130898,17.76062485192354,7.761769013864022,-2.0280726,0.63255095,-2.7522533,14.980622,-72.80787,-11.922579
7427933130000.0,-5.102441951134986,18.25916993432681,8.388650595390747,-2.2162192,0.1414153,-2.7531698,15.411752,-71.695885,-12.819919
7427938100000.0,-4.347789090278981,18.543711692254373,8.446383892912841,-2.3487768,-0.43493605,-2.7232373,15.934989,-70.60592,-13.676298
7427943458000.0,-3.534221680124762,18.850467172933637,8.508624337203258,-2.6352727,-0.89766645,-2.6859746,16.482876,-69.468025,-14.406697
7427948149000.0,-2.66155311504302,18.77805197798131,8.107393332038116,-2.896723,-1.1869112,-2.651766,17.144907,-68.3506,-15.0725
7427953060000.0,-1.730404752428531,18.664920875289116,7.637467561291516,-3.0616567,-1.4306464,-2.5909848,17.920979,-67.24227,-15.662281
7427958150000.0,-0.5288255099095759,18.224115388897125,6.603149273762229,-3.1157181,-1.7293595,-2.5195136,18.70102,-66.215675,-16.086737
7427963116000.0,0.7542508270456569,17.642501900459532,5.337697635932404,-3.03936,-2.0372355,-2.4251351,19.544935,-65.22371,-16.44668
7427969050000.0,2.197174976013349,17.01118693116874,3.881245424334283,-2.903137,-2.143526,-2.3554964,20.301067,-64.373405,-16.670221
7427973165000.0,2.821881414378085,16.838570362997984,3.103102443384551,-2.728735,-1.9905044,-2.2879958,21.060024,-63.58039,-16.856638
7427978115000.0,3.5733508845859694,16.630927103594523,2.167061676506988,-2.5051584,-1.6129897,-2.2308798,21.617863,-63.111523,-16.877417
7427983349000.0,4.356361674754902,16.435061809436277,1.264032928780637,-2.277611,-1.2113458,-2.1679606,22.111906,-62.699955,-16.90346
7427988112000.0,5.007196439705883,16.383154532037818,0.9046763070010504,-2.0696115,-0.93492925,-2.0399845,22.516897,-62.36002,-16.928644
7427993075000.0,5.685359979166667,16.32906765029762,0.5302301776934524,-1.8393153,-0.7669413,-1.8261817,22.659094,-62.2397,-16.860376
7427998157000.0,5.560102474478574,15.656208158589306,1.004883422020478,-1.5427402,-0.67164636,-1.5137241,22.722221,-62.219997,-16.759851
7428003095000.0,5.258821930223739,14.867140476678044,1.654071091467577,-1.2235631,-0.5684101,-1.1325442,22.707682,-62.304485,-16.609392
7428008144000.0,4.815347648078187,14.044783271271353,2.2557879346337057,-0.9086621,-0.45448375,-0.8011498,22.557026,-62.517185,-16.343985
7428013127000.0,3.800252516754271,13.166863058147175,2.585007942936925,-0.64599,-0.34880406,-0.5815437,22.361036,-62.830032,-16.025122
7428018121000.0,2.782916557325887,12.287004831307492,2.914954706225361,-0.45540005,-0.1591304,-0.4746423,22.191555,-63.117363,-15.746984
7428023145000.0,1.9293259693123084,11.842499341217696,3.0318416636005256,-0.33261612,0.1282817,-0.41141775,21.943611,-63.473076,-15.448127
7428028086000.0,1.1451667105343846,11.548871632939116,3.0767494668199737,-0.25289822,0.29229903,-0.3894266,21.668968,-63.86632,-15.141884
7428033375000.0,0.2909403540687532,11.264526147768086,3.1415857116469983,-0.23151793,0.6246097,-0.3023783,21.364182,-64.1073,-14.998569
7428038204000.0,-0.7096017117547461,11.45039763656576,3.450053262442278,-0.1255328,0.88147855,-0.26389378,21.03811,-64.379776,-14.86786
7428043081000.0,-1.7200891118419706,11.638116677954509,3.7615869640841457,-0.090713486,0.9673051,-0.18387043,20.714424,-64.542564,-14.836751
7428048147000.0,-2.022893157523669,11.715914336802523,3.836389226159941,-0.04153884,0.9642508,-0.07880162,20.344248,-64.74254,-14.7989645
7428053108000.0,-1.9559005370375344,11.735055142617338,3.788537311555765,0.015271631,0.9239337,0.03634648,19.95805,-64.96601,-14.735194
7428058122000.0,-1.8881922122809371,11.754400435976637,3.740174179157994,0.06169739,0.86345804,0.16462818,19.639185,-65.09334,-14.755418
7428063200000.0,-1.59561911130924,11.47875129217126,3.663886037474969,0.11484267,0.8249735,0.29016098,19.322224,-65.25203,-14.73871
7428068155000.0,-1.2155239293220177,11.085080865452468,3.5779120862019647,0.15607607,0.8029824,0.37110063,19.016294,-65.42999,-14.691438
7428073113000.0,-0.7789495222471909,10.685671415730338,3.5434184,0.22113322,0.7510588,0.42180246,18.702576,-65.63771,-14.602598
7428078086000.0,-0.3032894769055347,10.281360514190595,3.5434184,0.2929099,0.6936375,0.4718934,18.39499,-65.86632,-14.487318
7428083153000.0,0.1717983336052466,9.874967779804152,3.5528351886982303,0.37323865,0.61453044,0.5222898,18.080835,-66.11369,-14.325457
7428088221000.0,0.6078351668026233,9.491255389902076,3.600799294349115,0.46700647,0.5128214,0.5671884,17.789318,-66.383995,-14.142731
7428093471000.0,1.051912393388006,9.079997208269264,3.64265865419443,0.5412266,0.3726278,0.61178154,17.503525,-66.68065,-13.889944
7428098791000.0,1.2869392770374166,8.274812526909278,3.464212238339313,0.60903263,0.22449298,0.6588182,17.245476,-67.00045,-13.613986
7428103081000.0,1.4764628354689902,7.625518864684777,3.3203146586365966,0.6597345,0.07452556,0.68752885,17.001505,-67.329254,-13.28119
7428108203000.0,1.3982707431226766,7.093138454498141,3.1304836727137544,0.72784597,-0.0888809,0.7104363,16.79693,-67.6788,-12.923608
7428113158000.0,1.1468929094795537,6.718276725083642,2.9364377678810407,0.8032878,-0.22785273,0.7058548,16.624535,-68.035355,-12.5565195
7428118109000.0,0.8453022448739144,6.40857910692686,2.742738675023543,0.8781188,-0.35643986,0.6930266,16.480482,-68.38492,-12.173134
7428123154000.0,0.4813094487349586,6.165917193564926,2.545575778037041,0.960891,-0.4156938,0.6731735,16.351662,-68.74536,-11.788903
7428128082000.0,0.1345032291847528,6.001641286521977,2.4346293402152104,1.0433578,-0.5109888,0.67103547,16.278812,-69.07843,-11.4400625
7428133389000.0,-0.2316380252544226,5.885773932035382,2.383647731342331,1.0815369,-0.56779927,0.6930266,16.206459,-69.41428,-11.090892
7428138094000.0,-0.5362275587240584,5.775911370023059,2.3625784850115297,1.149343,-0.6169739,0.6942484,16.177593,-69.7343,-10.796311
7428143124000.0,-0.8278103953881629,5.646318987432744,2.381091668716372,1.1582005,-0.64843345,0.7254025,16.150671,-70.049904,-10.487712
7428148058000.0,-1.0651682521016448,5.500805860934644,2.4090666218257764,1.1578951,-0.6948592,0.7696902,16.166374,-70.33587,-10.229939
7428154386000.0,-1.2075627903663737,5.252933954225045,2.477626820450788,1.1432343,-0.7733554,0.8680395,16.188892,-70.62558,-9.947865
7428158430000.0,-1.292686271417798,5.093291779720965,2.517603751402715,1.071763,-0.79504114,0.9071349,16.23318,-70.84988,-9.723556
7428163181000.0,-1.2892548742081449,4.883980741990951,2.4970157980995475,1.0421361,-0.82924956,0.9807441,16.287537,-71.09297,-9.460725
7428169053000.0,-1.2850138377073907,4.625282696621418,2.471570110497737,0.9935723,-0.8775079,1.0601566,16.363728,-71.28595,-9.213514
7428173148000.0,-1.260957736301681,4.402377354588824,2.422774721785552,0.9505063,-0.9282097,1.1334605,16.439852,-71.47577,-8.950678
7428178108000.0,-1.1962131729213994,4.0606697489550205,2.31127015840527,0.90041536,-0.990518,1.210735,16.520622,-71.65651,-8.666352
7428183199000.0,-1.1297586220808724,3.709937204543389,2.19682061562926,0.89644474,-1.0699304,1.2822062,16.615953,-71.83853,-8.373045
7428188162000.0,-1.0538433541439325,3.600945167300094,2.028033465550329,0.89552844,-1.1820242,1.3582588,16.72504,-72.01252,-8.056615
7428193179000.0,-0.972484628523048,3.5873853914957667,1.8336764902351836,0.90316427,-1.2705997,1.4483615,16.836363,-72.19109,-7.7197356
7428198147000.0,-0.9309053910134996,3.606496198172378,1.6782443457943923,0.93676186,-1.303281,1.559539,16.961874,-72.398735,-7.3477883
7428203086000.0,-0.9178074878352372,3.649064394614053,1.550539653894081,1.0128145,-1.2990049,1.6603317,17.087759,-72.61911,-6.9583955
7428208193000.0,-0.9042640597057804,3.693080547525095,1.4184910890965732,1.1059716,-1.2623531,1.7614299,17.171988,-72.87142,-6.5398426
7428213208000.0,-0.8940577772750737,3.841789627452065,1.289710148211652,1.2431108,-1.1960741,1.8817704,17.2305,-73.156715,-6.100337
7428218136000.0,-0.885356704590708,4.033212672289823,1.1635449440818584,1.3833044,-1.0858129,1.997224,17.252893,-73.46457,-5.6501517
7428223146000.0,-0.9509949702830188,4.580198012264151,1.151836908490566,1.5393804,-1.0403035,2.1022928,17.25668,-73.83429,-5.174241
7428228088000.0,-1.0849438008018868,5.447144554748428,1.2485777240566036,1.7137824,-0.93554014,2.132836,17.206718,-74.234566,-4.7096553
7428233577000.0,-1.2439496950676143,6.397410698552358,1.3677234572468793,1.7892243,-0.70829827,2.2094996,17.099699,-74.674675,-4.214311
7428238681000.0,-1.5617376277999306,7.07112113364251,1.6727998372746185,1.9724839,-0.5708536,2.1960607,16.991821,-75.16704,-3.745695
7428243062000.0,-1.834509754230236,7.649398056865465,1.9346610482662967,2.0158553,-0.49235737,2.1777346,16.87836,-75.67153,-3.2758422
7428248146000.0,-2.288779534158316,8.0979445824198,2.305333611850158,2.0054705,-0.3735441,2.0830505,16.72327,-76.1838,-2.8527484
7428253121000.0,-2.804670472015603,8.421577884928375,2.702665806180644,1.8808541,-0.35124752,1.8738291,16.583363,-76.647064,-2.474047
7428258164000.0,-3.327612783495864,8.7496347180039,3.105428872715045,1.672549,-0.35277468,1.6093245,16.451845,-77.01339,-2.2214792
7428263242000.0,-3.8615737901780007,8.93278426919215,3.578166007174806,1.4376713,-0.42363504,1.3515394,16.347986,-77.31343,-2.0269709
7428268157000.0,-4.381470600858056,9.048794420721132,4.063689537663167,1.1884383,-0.5360342,1.0995574,16.273762,-77.52863,-1.90504
7428273140000.0,-4.843897239042958,8.973336009425413,4.50221534584013,0.95814216,-0.74036866,0.84604836,16.362896,-77.608574,-1.9960742
7428278146000.0,-5.2436270195758565,8.703953413268081,4.888910471451876,0.79809546,-0.97158116,0.636827,16.503017,-77.62452,-2.1320753
7428283165000.0,-5.432551761205041,8.432174410083,5.093407007992623,0.6976081,-1.2018774,0.46028697,16.796366,-77.52822,-2.423003
7428288200000.0,-5.116327861317758,8.155477968849267,4.861179950917101,0.6444628,-1.4065173,0.3313944,17.154198,-77.38639,-2.7358592
7428293112000.0,-4.788511781670886,7.8855394026160335,4.610383938075949,0.63194007,-1.5824465,0.23396139,17.64532,-77.1643,-3.1517298
7428298153000.0,-4.413705391594936,7.60850858886076,4.304835272708861,0.64934975,-1.6691893,0.14660765,18.172527,-76.9189,-3.580995
7428303506000.0,-4.013310311160635,7.313845062319486,3.9842657536459263,0.70249504,-1.6887369,0.08155051,18.720736,-76.71706,-3.9438453
7428308127000.0,-3.6188155658762704,7.049533707380995,3.787018339811018,0.7800749,-1.6496416,0.028099801,19.277515,-76.51191,-4.3190746
7428313120000.0,-3.1925631825815657,6.763944744990194,3.573892103654841,0.82924956,-1.5632042,-0.0290161,19.801773,-76.37384,-4.6172132
7428318095000.0,-2.7587555641531782,6.5218244978286615,3.548601965811291,0.8472701,-1.5143349,-0.08460484,20.325161,-76.23366,-4.9274545
7428323154000.0,-2.314049391926569,6.292298736350177,3.596419901440979,0.852157,-1.430341,-0.13988814,20.814905,-76.08704,-5.2581806
7428328133000.0,-1.894998497125904,6.218720012720192,3.7128319549045057,0.8335256,-1.3582588,-0.16982053,21.268211,-75.99794,-5.4884243
7428333217000.0,-1.4751923584275914,6.209691929797886,3.861795417392917,0.7779369,-1.3109168,-0.20555615,21.70605,-75.88486,-5.7391443
7428338195000.0,-1.0648802510504205,6.251368686306341,3.911291562414057,0.7293731,-1.2522738,-0.2406809,22.098244,-75.80695,-5.9074583
7428343160000.0,-0.6562289375,6.333098835227273,3.884048163636364,0.6994407,-1.151481,-0.26847526,22.464924,-75.70995,-6.0907993
7428348146000.0,-0.2635765771239127,6.53171268216883,3.71086385576786,0.6939429,-0.9841039,-0.29871312,22.795599,-75.666855,-6.18607
7428353056000.0,0.1018455835348637,6.866962378233281,3.3655567111792384,0.67103547,-0.7098254,-0.34666604,23.068813,-75.60098,-6.309587
7428358146000.0,0.4806640759489519,7.214502287188079,3.007590648866391,0.6618725,-0.3481932,-0.40653083,23.241272,-75.5951,-6.3637567
7428363096000.0,0.804204511560989,7.649104426056017,2.6996469895812427,0.65179324,0.01160644,-0.47067168,23.339706,-75.57278,-6.4513907
7428368198000.0,1.1117859243262478,8.152825104826201,2.4054386072438643,0.6203337,0.35124752,-0.537256,23.346558,-75.531425,-6.578132
7428373088000.0,1.5502219826510386,8.71271176506076,2.261464310230113,0.5815437,0.6533204,-0.6243043,23.193449,-75.59413,-6.6110744
7428378088000.0,2.1775057454709987,9.38126386365595,2.286225449590623,0.50946164,0.86070913,-0.7312057,22.979431,-75.628136,-6.6815243
7428383148000.0,2.8538260606223065,10.05795864007148,2.3466054597813515,0.41813725,0.9645562,-0.8399397,22.675642,-75.73533,-6.6904883
7428388135000.0,3.792650015725849,10.725678255860402,2.637791635015242,0.2959642,0.883922,-0.9477574,22.376667,-75.80244,-6.726646
7428393146000.0,4.614836842228827,11.287745121248143,2.773229850312036,0.22693644,0.5919284,-1.0732902,22.044342,-75.968124,-6.610886
7428398126000.0,5.025856936731056,11.48144418216939,2.381107215542348,0.23671028,0.26511553,-1.1976013,21.758097,-76.10652,-6.521286
7428403128000.0,5.336948478761226,11.683447793907972,1.9403615410147208,0.24129178,0.08735373,-1.2880094,21.442938,-76.32142,-6.2616215
7428408219000.0,5.255696901194334,11.918174898250165,1.3084040357929825,0.19822577,0.08582657,-1.3393221,21.183445,-76.50552,-6.0327044
7428413202000.0,5.152793267213115,12.20383462295082,0.6920420226229509,0.13713925,0.20861048,-1.35551,20.89946,-76.77113,-5.7404323
7428418124000.0,4.698241214346941,13.330114054859102,0.1162761557934212,0.106595986,0.2837469,-1.3460416,20.639545,-77.016815,-5.470774
7428423902000.0,4.276185553065237,14.66319184772118,-0.3424414499883825,0.10995574,0.43799037,-1.3084733,20.32184,-77.32016,-5.2198153
7428428104000.0,4.168298771224308,15.652153388739949,-0.2884980928641644,0.13103059,0.44684792,-1.2082914,20.029839,-77.61518,-4.9597797
7428433605000.0,4.039666480351696,16.925119300017947,-0.2357685010586757,0.18753563,0.26083946,-0.9624182,19.760496,-77.97519,-4.713899
7428438177000.0,4.232154571577247,17.467228223039655,-0.6168164593396734,0.2828306,0.20677789,-0.8729264,19.467684,-78.32778,-4.506567
7428443131000.0,4.440725438578863,18.05463146115198,-1.0297017579669836,0.29260445,0.16829337,-0.7333437,19.233873,-78.70471,-4.233786
7428448160000.0,4.462875397700238,18.413051548374305,-1.0045128328310864,0.2846632,0.30298916,-0.58459806,18.975544,-79.08808,-3.9612043
7428453121000.0,4.410127889770024,18.67302250483743,-0.8048253832831087,0.2678644,0.5009095,-0.4709771,18.717724,-79.45894,-3.6809278
7428458334000.0,3.631078539989281,18.438457772414058,-0.2328818474848787,0.29077184,0.86132,-0.4908302,18.344532,-79.88507,-3.3978264
7428463167000.0,0.5622050212388023,16.57445337386111,1.4716540878952604,0.11484267,1.3350459,-0.5543602,17.89765,-80.234184,-3.130747
7428468329000.0,-2.7155779507847795,14.583559373172038,3.292224023428527,-0.3652974,1.4721853,-0.52931476,17.474916,-80.47177,-2.8708968
7428473160000.0,-3.710784678571428,13.12005419940476,3.584861005952381,-0.89919364,1.1847731,-0.30909783,17.049408,-80.63642,-2.5900574
7428478102000.0,-3.346208874159664,11.889610621586131,2.94271031355042,-1.2840388,0.7770206,0.029932396,16.629686,-80.70304,-2.282677
7428483157000.0,-2.8754117761049445,10.730330672149345,2.3530862015438947,-1.5082263,0.41691554,0.3707952,16.606665,-80.24655,-2.482186
7428488175000.0,-2.177114592734611,9.813815505045408,1.9263490508072647,-1.5714508,0.025961773,0.63194007,16.69633,-79.76421,-2.5819116
7428494150000.0,-1.372296101723144,9.139920895138044,1.281517308160912,-1.575116,-0.3662137,0.7901542,16.833958,-79.330376,-2.5509944
7428498151000.0,-0.8568564239689962,9.056468867016848,0.7292605314368075,-1.5451837,-0.6478226,0.8378017,17.039505,-78.91061,-2.4659877
7428503126000.0,-0.2159385542297096,8.952701348920634,0.0425628398091091,-1.4501941,-0.86529064,0.79901177,17.272373,-78.57129,-2.2707303
7428508108000.0,0.3220679411454408,8.960297055764883,-0.6390551778146194,-1.3264939,-1.001819,0.7370089,17.553616,-78.255646,-2.0650816
7428513120000.0,0.4064669995930671,9.45865343925312,-1.2981717697529933,-1.2302825,-1.1117748,0.6743952,17.883308,-77.96247,-1.86756
7428518145000.0,0.4910849702034665,9.958302447040108,-1.9589979617901696,-1.070236,-1.1395692,0.65484756,18.114561,-77.8355,-1.5452136
7428523150000.0,0.5166813915406427,10.62658047826087,-2.6981567589792057,-0.9682214,-1.1404854,0.62888575,18.368805,-77.71493,-1.244958
7428528056000.0,0.5277834423251418,11.32230815942029,-3.4419930718336484,-0.72784597,-1.0103711,0.64873886,18.5884,-77.67838,-0.9515285
7428533118000.0,0.5007667968555386,12.02995168157223,-4.195430328739152,-0.44623706,-0.77640975,0.6914995,18.733173,-77.7419,-0.64720917
7428538126000.0,0.3636664186217458,12.700763950689128,-4.90051787136294,-0.18570304,-0.528093,0.7425067,18.837109,-77.86467,-0.35073754
7428543095000.0,0.2274135769712587,13.236940587710604,-5.51254843012884,0.03268129,-0.2678644,0.7675522,18.846888,-78.14798,-0.051544033
7428548160000.0,0.0879993731600594,13.472502744301288,-5.925983949454905,0.26297748,0.03848451,0.784351,18.77875,-78.501526,0.23500867
7428553070000.0,-0.1207085633707135,13.564950029802274,-6.221591326678766,0.5204572,0.3555236,0.7867944,18.634426,-78.98887,0.49485165
7428558194000.0,-0.5378800795930844,13.293085341675424,-6.245027814519056,0.81153446,0.6261369,0.79290307,18.425734,-79.53961,0.7404096
7428563786000.0,-0.98116842074423,12.903034291662742,-5.901101277154969,1.2119566,0.86498517,0.8173377,18.146214,-80.22204,0.9600102
7428568167000.0,-1.3052749658313707,12.416874535939709,-4.9169239691003295,1.6924021,0.947452,0.8900307,17.842503,-80.99113,1.1866689
7428573187000.0,-1.6804008325057898,11.84818334553034,-3.775858618582677,2.1826215,0.7690793,0.94134337,17.572647,-81.85772,1.3570926
7428578106000.0,-2.0906075204353867,11.158687183881426,-2.505963381417323,2.617252,0.52320606,0.91690874,17.308535,-82.82016,1.5245106
7428583899000.0,-2.573620542889497,10.37176279012928,-1.0168866412663962,2.9364293,0.3885103,0.80756384,17.093872,-83.74065,1.6171389
7428588111000.0,-2.9238188306690573,10.116726726715108,-0.0157763587713504,3.140458,0.42730024,0.6423248,16.907854,-84.72103,1.6898742
7428593138000.0,-3.34177865798811,9.812342517127489,1.1790435344154009,3.1548135,0.5552765,0.4792238,16.754322,-85.565125,1.6543001
7428598153000.0,-3.3634101153673406,9.826479676932948,2.2201877008341357,2.9422324,0.7144069,0.3313944,16.587343,-86.381516,1.5778681
7428603048000.0,-3.283198805881724,9.92173090140092,3.1977623350443807,2.538145,0.7965683,0.21655174,16.411074,-87.1271,1.4677725
7428608166000.0,-2.1450336168336053,10.079320061573103,3.284083899138132,2.0430388,0.8081747,0.1459968,16.208609,-87.63101,1.2548
7428613100000.0,-0.9416293311747808,10.237083552682662,3.273077159981365,1.5406022,0.7846564,0.10751228,16.004211,-88.0286,1.027773
7428618115000.0,0.1812653437303087,10.294965216131065,3.0840273846250787,1.1016954,0.7528914,0.1001819,15.808298,-88.20507,0.80171365
7428623092000.0,1.1023043013862632,10.154806634373031,2.5534289023944545,0.9098838,0.77549344,0.095294975,15.616667,-88.29976,0.5735764
7428628084000.0,1.9119496697375875,9.942576637672268,2.0949920169718705,0.61483586,0.7800749,0.13439035,15.378729,-88.1878,0.5957996
7428633441000.0,2.6189754698697376,9.61327713488767,1.707580593316972,0.3915646,0.78984874,0.20066923,15.13889,-88.047035,0.6254544
7428638113000.0,3.1010144059974167,9.324542899673986,1.4451646654487298,0.27977628,0.77304995,0.28893927,14.860199,-87.868904,0.8116948
7428643100000.0,3.3360370191179185,9.013138079165897,1.3217778127329765,0.24037547,0.6872234,0.41722095,14.600503,-87.640144,1.0259023
7428648173000.0,3.575112558793135,8.69636313341945,1.1962631739066247,0.26725355,0.5671884,0.56505036,14.3189535,-87.37471,1.3812879
7428653239000.0,3.7677944283582088,8.368021406716418,1.097509231716418,0.35979962,0.4251622,0.72051555,14.0662775,-87.07766,1.7703503
7428658205000.0,3.4990741092963757,7.926914074307036,1.2648255778784647,0.5112942,0.23487769,0.82711154,13.858935,-86.7668,2.1823144
7428663120000.0,3.159715568236233,7.545113448683161,1.4247008797685554,0.6554584,0.020463986,0.9263771,13.672777,-86.403015,2.6945496
7428668108000.0,2.506845682841181,7.387852915243416,1.5628996796488428,0.7312057,-0.13591751,0.9981538,13.518245,-86.01049,3.2219203
7428673109000.0,1.829616654933175,7.23826266943867,1.641013024948025,0.77121735,-0.16523905,1.0338894,13.405279,-85.62013,3.726186
7428678102000.0,1.0532591234254034,7.124649255440056,1.4516575656271655,0.76144356,-0.051618114,1.0454959,13.287893,-85.207,4.2350917
7428683165000.0,0.2334108645006135,7.054080633128835,1.2427734828662578,0.7174612,0.15332718,1.035722,13.196485,-84.866356,4.6396117
7428688115000.0,-0.7205095997938649,7.193678731288344,0.9596994990625768,0.63346726,0.41355577,0.99265605,13.051117,-84.52319,5.0286236
7428693075000.0,-1.6763571761374232,7.33355884580777,0.6760536486249489,0.5714644,0.65240407,0.93554014,12.904039,-84.30719,5.278967
7428698088000.0,-2.100850040073193,7.511928019213174,0.5154740506752058,0.505491,0.8436049,0.88361657,12.695557,-84.09305,5.5121126
7428703097000.0,-2.307126434400732,7.7050380301921315,0.405752579346752,0.45234573,0.9957104,0.82527894,12.431198,-83.89255,5.721991
7428708155000.0,-2.428404112368396,7.849697029498245,0.3395665268652186,0.41233405,1.108415,0.7831292,12.221769,-83.88762,5.73092
7428713282000.0,-2.4749754889500144,7.952153873186,0.3116236522868253,0.40530908,1.1539245,0.7516697,11.9931755,-83.892456,5.7264595
7428718109000.0,-2.497616221732523,8.035164174012158,0.3412774443389058,0.4089743,1.2244794,0.7244862,11.755912,-83.95367,5.6707754
7428723088000.0,-2.4930870721124623,8.10310141831307,0.4454479423518236,0.40225476,1.2461652,0.68019843,11.524451,-84.02378,5.6037083
7428728094000.0,-2.4899697,8.172288983191615,0.5664869436128139,0.38973203,1.2287555,0.63499445,11.294665,-84.11158,5.5209947
7428733271000.0,-2.4899697,8.245819377101048,0.7282539432983982,0.355829,1.1438452,0.59712076,11.08326,-84.20291,5.4318943
7428738110000.0,-2.5046445941852045,8.261229425866528,0.8654668967201241,0.33383787,1.0064005,0.56230146,10.898987,-84.30362,5.3323007
7428743099000.0,-2.554079467304708,8.152473355406105,0.974223380134506,0.31490102,0.84513205,0.53023106,10.751494,-84.406425,5.2281904
7428748918000.0,-2.6393190729211087,7.992808707974413,1.0395854917867804,0.31123585,0.6994407,0.48930305,10.645649,-84.51969,5.111202
7428754691000.0,-2.757201517270789,7.794766004520255,1.0301548470021322,0.3100141,0.53969944,0.42943826,10.594788,-84.64106,4.985227
7428758297000.0,-2.826514155700824,7.6625169751252225,1.0211018950250446,0.3115413,0.52503866,0.39461896,10.554718,-84.77169,4.8494525
7428763120000.0,-2.850041993632736,7.348813356524323,0.9583611713048644,0.3023783,0.53969944,0.30848694,10.556047,-84.92713,4.6862054
7428768251000.0,-2.8750723350029714,7.015076415400288,0.8916137830800577,0.27672195,0.59589905,0.1966986,10.560711,-85.11292,4.4888496
7428773154000.0,-2.87966410324538,6.607151439192792,0.8389861836351935,0.23243423,0.72112644,0.067500606,10.545526,-85.3178,4.2647905
7428778120000.0,-2.875291630872483,6.1524234892617455,0.7908899463087249,0.15241088,0.86590147,-0.067500606,10.51341,-85.53931,4.0108886
7428783311000.0,-2.76745772636903,5.714664340764517,0.758778160694485,0.060170226,1.0051788,-0.20280726,10.452321,-85.78696,3.7220879
7428788235000.0,-2.570228225853516,5.333965431631164,0.7450179730084622,-0.038179077,1.1172725,-0.31948254,10.364385,-86.03988,3.4052923
7428793105000.0,-2.328733523900107,5.015177609872207,0.7474524246932006,-0.15241088,1.1640037,-0.43249258,10.25468,-86.29584,3.0578642
7428798089000.0,-2.021423710925763,4.763742370227295,0.7707334904311774,-0.24831672,1.1911873,-0.5137377,10.126515,-86.53485,2.6923113
7428803080000.0,-1.7177579378493788,4.5751093316673135,0.8061879531298525,-0.31031954,1.1780536,-0.5684101,9.990369,-86.72193,2.3512664
7428808127000.0,-1.4175458810559007,4.49067469681677,0.8624777211257764,-0.34238997,1.1688906,-0.6056729,9.854514,-86.87497,1.9988499
7428813101000.0,-1.1333331426756217,4.497634543020512,0.9679389586204392,-0.34605515,1.112691,-0.61453044,9.716834,-86.957115,1.7030853
7428818944000.0,-0.8286101924577964,4.731255480359412,1.216795998393538,-0.32589662,0.9462303,-0.6301075,9.622092,-87.012,1.4027667
7428823104000.0,-0.6361721829025846,4.913906664350263,1.373961977625158,-0.28252518,0.8542951,-0.64812803,9.499868,-87.02072,1.1558872
7428828082000.0,-0.588783206361829,5.254245722673053,1.412734776613049,-0.27672195,0.6600399,-0.6719518,9.461187,-87.00451,0.91154075
7428833136000.0,-0.5406707339960239,5.599780797153443,1.452099526730526,-0.28130344,0.4364632,-0.68325275,9.433075,-86.94831,0.7116065
7428838129000.0,-0.5602181603011108,6.005861116864041,1.276297397741669,-0.32070425,0.23518312,-0.6753115,9.458717,-86.8706,0.5166937
7428843079000.0,-0.5863295307224823,6.414939332231708,1.0804621195813826,-0.38026363,0.059864793,-0.66920286,9.544508,-86.77437,0.32402462
7428848094000.0,-0.6412771132305999,6.784795948816731,0.7586338191249312,-0.44837508,-0.062002823,-0.66706485,9.661163,-86.651115,0.13819407
7428853055000.0,-0.7066465747660979,7.133433386442854,0.3925647371445607,-0.50518554,-0.087659165,-0.66889745,9.80212,-86.50636,-0.04389464
7428858101000.0,-0.813038291416348,7.488950596486437,0.1233730829719643,-0.55741453,-0.026572637,-0.6560693,9.954928,-86.368935,-0.21481718
7428863139000.0,-0.953574874358274,7.844683565537957,-0.0566893614718733,-0.60231316,0.0693332,-0.6267477,10.105128,-86.213936,-0.38046482
7428868087000.0,-1.1133880116060606,8.175866866868686,-0.17238252,-0.65148777,0.17073683,-0.54702985,10.222715,-86.07971,-0.5353209
7428873118000.0,-1.317791900787879,8.477605919595959,-0.17238252,-0.72356987,0.2706133,-0.4538729,10.312848,-85.92689,-0.67734855
7428878070000.0,-1.4963439085201795,8.665335186098654,-0.1154370232735426,-0.82863873,0.38515055,-0.36346483,10.363052,-85.76394,-0.8294346
7428883197000.0,-1.6399399429031,8.66054880322675,0.0473052073376876,-0.9486737,0.49571714,-0.3036,10.38545,-85.581505,-0.9625206
7428888104000.0,-1.7641605663968694,8.629349658943342,0.210734044154585,-1.0598512,0.61636305,-0.28924468,10.384481,-85.362015,-1.1228324
7428893091000.0,-1.8618630954549495,8.54014321604554,0.3933952569118563,-1.1505647,0.75655663,-0.31612277,10.347551,-85.12099,-1.276896
7428898179000.0,-1.9618000611751152,8.45927787672811,0.5812945184907834,-1.2104294,0.9053023,-0.38820487,10.29127,-84.830925,-1.4724611
7428903077000.0,-2.0608744314132106,8.495304698156682,0.7794432119431643,-1.2183707,1.1026118,-0.47800204,10.185163,-84.5341,-1.6801028
7428908499000.0,-2.1823693598951075,8.563913845202,1.018350531434893,-1.1887437,1.3277156,-0.56230146,10.042071,-84.19614,-1.9382252
7428913120000.0,-2.45435839804966,9.031734902974678,1.5006776969925428,-1.1453724,1.4407257,-0.602924,9.88103,-83.86387,-2.2039328
7428918124000.0,-2.748890565746128,9.538330136277963,2.0229813404572647,-1.14018,1.6566665,-0.6817256,9.643348,-83.486885,-2.535138
7428923088000.0,-3.0743072772051336,9.981038281931149,2.506957930943165,-1.1462886,1.842675,-0.75502944,9.390122,-83.12229,-2.868954
7428928083000.0,-3.4299844483194133,10.375693903493582,2.964953286463638,-1.1829406,1.9956968,-0.84238315,9.095612,-82.748146,-3.223889
7428933148000.0,-3.860682836695701,10.746703269598202,3.402459996487777,-1.2541064,2.110234,-0.95630956,8.813323,-82.26162,-3.6767786
7428938134000.0,-4.334738659792076,11.091064859651588,3.813904744506884,-1.3738359,2.1975877,-1.1374311,8.510323,-81.74355,-4.1629972
7428943092000.0,-4.775805741990904,11.466808093582618,4.33538316499242,-1.5399913,2.2186625,-1.3854424,8.24694,-81.09807,-4.75738
7428948091000.0,-5.182218632137444,11.887735008084892,5.003061426781203,-1.7269161,2.1859813,-1.6798794,7.9941607,-80.39908,-5.3985376
7428954670000.0,-5.538550709768096,12.562296800070277,5.853125102951511,-1.8961257,2.0912971,-2.1206186,7.8290157,-79.51189,-6.2245154
7428958390000.0,-5.66998787772312,12.99103235523542,6.322543419887562,-2.2437081,2.012801,-2.2608123,7.6817765,-78.56518,-7.0225573
7428963136000.0,-5.807531271894861,13.591117678229022,6.910152685058709,-2.3860397,1.7650951,-2.504853,7.6882753,-77.44942,-8.013131
7428968160000.0,-5.828263187008511,14.446314182807283,7.485466657869224,-2.688418,1.3967434,-2.730873,7.772928,-76.234375,-8.995992
7428973081000.0,-5.789251391285622,15.156823653147656,7.850247630177303,-3.0063734,0.93218035,-2.9071076,7.973738,-74.889,-10.03363
7428978148000.0,-5.625536843155553,15.623584155911276,7.811931493388845,-3.30753,0.464563,-3.0079005,8.301002,-73.49951,-11.055822
7428983128000.0,-5.464633261215993,16.082330416768357,7.774273241719905,-3.5671475,0.04795292,-3.018896,8.737274,-72.042694,-12.042701
7428988111000.0,-5.19285682761349,16.476119097220845,7.571242880367916,-3.7598755,-0.37690386,-2.9865203,9.321352,-70.57579,-12.975613
7428993089000.0,-4.829802046484027,16.815599890020767,7.231762776837108,-3.8453968,-0.77854776,-2.9455922,10.025046,-69.1249,-13.843072
7428998084000.0,-4.469791966871484,17.132029262483773,6.775858672436175,-3.8310413,-1.0430524,-2.9465084,10.744483,-67.74388,-14.612939
7429003078000.0,-4.113834860095197,17.425900338900906,6.212949946343574,-3.6884043,-1.1487321,-2.9538388,11.53343,-66.42136,-15.321833
7429008164000.0,-3.786163799857816,17.68428156402737,5.613547788856305,-3.3698382,-1.461495,-2.9898798,12.390321,-65.249626,-15.912273
7429013119000.0,-3.587968247160757,17.793921231671554,4.93883953372434,-3.1737504,-1.831374,-3.0292807,13.295787,-64.11408,-16.463682
7429018487000.0,-3.322668437434779,17.925479211140004,4.153718812076168,-2.7794368,-2.0100522,-3.1175508,14.167712,-63.230156,-16.939367
7429023095000.0,-1.8715375488448955,18.347492150994047,2.1695193232010737,-2.2678373,-1.9159788,-3.1349604,15.060702,-62.44135,-17.38483
7429028133000.0,-0.28499297056455,18.80888563862092,0.0001623299387638,-2.1456642,-1.6380352,-3.121827,15.860259,-61.73152,-17.814106
7429033125000.0,0.8628072590503859,19.07100742859737,-1.086864548119837,-1.9553796,-1.2162327,-3.071125,16.586939,-61.158848,-18.25896
7429038293000.0,1.7344940489477985,19.19681808388561,-1.4193635995515206,-1.7712038,-0.70554936,-2.9367347,17.197899,-60.634926,-18.712526
7429043110000.0,2.339277924858602,19.11488580012772,-1.4470806383141763,-1.4782939,-0.23335053,-2.744312,17.341433,-60.432777,-19.014149
7429048088000.0,2.6263095774220035,18.706082649425287,-1.016533227586207,-1.1389582,0.08093964,-2.431549,17.368282,-60.323803,-19.287388
7429053147000.0,2.784361185205931,18.172793553706757,-0.4369201426194398,-0.8011498,0.22724187,-2.0793853,17.209633,-60.363308,-19.46265
7429058164000.0,2.3648417941680395,17.13586850502471,0.7503988207825371,-0.49327368,0.12767084,-1.7974709,17.019754,-60.50612,-19.581942
7429063103000.0,1.9518447297199344,16.115064674958813,1.9192583703624384,-0.30848694,-0.11026118,-1.5424347,16.827085,-60.706738,-19.608862
7429068110000.0,1.5048890262373495,14.910063517948275,2.521333620404809,-0.29352075,-0.36682457,-1.3225232,16.652054,-60.975613,-19.558077
7429073987000.0,0.96937149434478,13.430087903987545,3.0032994209670445,-0.344528,-0.49968776,-1.1560625,16.498732,-61.298462,-19.44396
7429078083000.0,0.6385230279867562,12.534913349040307,3.172373342869482,-0.4098906,-0.54611355,-1.0626001,16.549574,-61.490982,-19.345337
7429083161000.0,0.274490400043954,11.573493464779272,3.2003757838099807,-0.44409904,-0.5830709,-0.9990701,16.615604,-61.699818,-19.201345
7429088112000.0,-0.016613823916209,10.832078834655276,3.128904576774456,-0.41050145,-0.6053675,-0.904386,16.759903,-61.766495,-19.124907
7429093123000.0,-0.1971717881598536,10.43192342708969,2.8800274579011598,-0.34055737,-0.6096435,-0.7819075,16.892036,-61.852524,-19.022778
7429098094000.0,-0.3289040788666206,10.029391507774706,2.458431550172772,-0.22174409,-0.58459806,-0.61727935,17.0351,-61.882977,-18.96236
7429103076000.0,-0.3866064842709053,9.61723128472702,1.761880984105045,-0.12736541,-0.5510005,-0.453262,17.156843,-61.948772,-18.869738
7429108390000.0,-0.4411757878266191,9.20633356746558,1.0652788736970933,-0.07666359,-0.41386122,-0.27275133,17.205263,-62.02609,-18.782566
7429113122000.0,-0.4457976704946456,9.021458839877614,0.7371259909229986,0.06505715,-0.36163223,-0.19425514,17.256767,-62.154133,-18.67391
7429118188000.0,-0.4341910862465803,8.835324298832756,0.4030983247969177,0.1255328,-0.2678644,-0.024740042,17.195518,-62.328598,-18.537468
7429123095000.0,-0.3142006618256429,8.732475529819443,0.1931150923521794,0.26633725,-0.16371189,0.15454891,17.107037,-62.565643,-18.383179
7429128084000.0,-0.1922050988674083,8.627908073408717,-0.0203771323608426,0.4251622,-0.015882496,0.33261612,16.953592,-62.85172,-18.20381
7429133132000.0,-0.1225172694270663,8.41957047945599,0.0338724170947227,0.6017023,0.13408493,0.5222898,16.752047,-63.206512,-17.983232
7429138082000.0,-0.0589531735454458,8.206176695335696,0.1110573897170769,0.7620544,0.27672195,0.7104363,16.49566,-63.62263,-17.728422
7429144002000.0,0.016867982620874,7.944874565758354,0.3336973231907454,0.9062186,0.40530908,0.8680395,16.17663,-64.11525,-17.431358
7429148062000.0,0.0688437001694601,7.764958744678663,0.5016188856174807,1.022283,0.50243664,0.9795224,15.8176775,-64.659,-17.105253
7429154877000.0,0.3356168214423762,7.349556230019802,0.720976162059406,1.1294898,0.54183745,1.0952814,15.434854,-65.23623,-16.743904
7429158172000.0,0.4730866669196039,7.1433513456633655,0.8240785389900991,1.2565498,0.54825157,1.1230757,15.038449,-65.84042,-16.380533
7429163125000.0,0.6758897675210902,6.781137308463892,0.943308822193381,1.3008375,0.5412266,1.1869112,14.63664,-66.43641,-15.98175
7429168124000.0,0.8800452293640493,6.40833184368221,1.058701053861129,1.3949108,0.505491,1.2519683,14.245195,-67.067276,-15.571881
7429173098000.0,0.9051467672702224,6.027820545679984,1.201910910352293,1.4776831,0.45234573,1.3136657,13.865642,-67.68308,-15.130157
7429178122000.0,0.8577999179098603,5.639576188112576,1.3581554811060814,1.5570955,0.37812558,1.3573426,13.503045,-68.31854,-14.670392
7429183105000.0,0.7115958595568136,5.400817008799029,1.496981454346947,1.6291776,0.31306845,1.3903292,13.151399,-68.94402,-14.183436
7429188122000.0,0.5173102157412051,5.2298456013424985,1.6290957200566114,1.6756034,0.22815818,1.3979651,12.827495,-69.57505,-13.684252
7429193100000.0,0.2956285890959311,5.081409946021459,1.7789287240199725,1.7125608,0.10293079,1.4034629,12.53421,-70.127144,-13.204309
7429198088000.0,-0.0393083564984595,5.015437618346967,2.0022200705407416,1.7644843,-0.03848451,1.4181237,12.268116,-70.68596,-12.713611
7429203054000.0,-0.3555081221701796,5.008217675936768,2.2159318381537862,1.8008307,-0.10903945,1.4294246,12.025757,-71.14579,-12.2755995
7429208119000.0,-0.639504174668228,5.131282793471897,2.41472898593872,1.815797,-0.26419923,1.4587462,11.842416,-71.60995,-11.815015
7429213819000.0,-0.9181544538015176,5.260753486832317,2.611705979511977,1.8127426,-0.5323691,1.5265522,11.733493,-72.02783,-11.383014
7429218148000.0,-1.0754493547686357,5.347111272132123,2.725821923419134,1.7730364,-0.6282749,1.5552629,11.616515,-72.430466,-10.959406
7429223087000.0,-1.2549087023954768,5.445637745127214,2.8560179610623417,1.7550159,-0.8219192,1.6206255,11.61629,-72.80913,-10.527015
7429228097000.0,-1.4235804215247088,5.588314748834874,2.9505510785456006,1.68385,-1.033584,1.6951511,11.638946,-73.16411,-10.0829115
7429233116000.0,-1.5828991394335077,5.762117234029732,3.018140816271595,1.5931365,-1.2568552,1.7754798,11.706596,-73.51209,-9.612565
7429238113000.0,-1.8354740977619928,5.857192599104797,3.0149701455385816,1.5115861,-1.4694363,1.8603901,11.841669,-73.82623,-9.149252
7429243104000.0,-2.151738863238299,5.89905114529532,2.9638097001946093,1.4159856,-1.6664404,1.949271,12.018219,-74.117386,-8.658185
7429248090000.0,-2.368822124817267,5.966858670461777,2.893887179318944,1.352761,-1.87444,2.014939,12.256322,-74.39166,-8.167083
7429253078000.0,-2.5002704440192622,6.0572291861725,2.807624246650615,1.3020593,-2.1209242,2.0604484,12.542303,-74.64241,-7.652762
7429258132000.0,-2.6305953226007723,6.150747246627711,2.675221240992374,1.2599095,-2.3967297,2.1233675,12.909387,-74.87007,-7.164069
7429263167000.0,-2.7499853104189365,6.251035001951075,2.37913416894127,1.2516629,-2.649017,2.1697934,13.322262,-75.08332,-6.6658506
7429268134000.0,-2.859579006387266,6.339811366492041,2.0946317977735243,1.2831224,-2.8432722,2.2128594,13.794438,-75.30136,-6.1734257
7429273090000.0,-2.936085346584727,6.387627829115455,1.8412042962220432,1.3329079,-2.9996538,2.230269,14.308986,-75.50973,-5.6766186
7429278093000.0,-3.0207703214794304,6.436684282140032,1.615372007120253,1.4407257,-3.1031954,2.2119431,14.865904,-75.76612,-5.2015395
7429283551000.0,-3.144829387658228,6.493544584018987,1.4964821721518986,1.5769486,-3.1774156,2.1423044,15.445421,-76.02484,-4.7455626
7429288136000.0,-3.1957096952801187,6.589300586812097,1.4418018813683688,1.7101172,-3.1813862,2.0146337,16.065956,-76.34769,-4.323921
7429293108000.0,-3.03045875523054,6.891473948438275,1.5692811512146752,1.8500054,-3.036611,1.8689423,16.658667,-76.68574,-3.9511347
7429298099000.0,-2.8298589433710477,7.222026514360313,1.73519960829707,1.9294178,-2.9248228,1.7168368,17.32046,-77.07352,-3.6276743
7429303083000.0,-2.4559884318924667,7.688210528285465,2.090607438564936,1.9092593,-2.6456573,1.6511687,17.889202,-77.45216,-3.3582432
7429308125000.0,-2.0966504458984643,8.136847636879235,2.444800278683082,1.8487836,-2.2901337,1.5131133,18.36729,-77.79249,-3.161482
7429313083000.0,-1.906171445054641,8.379872624567714,2.746939248665099,1.6536123,-1.926669,1.3878858,18.759798,-78.072754,-3.0090375
7429318089000.0,-1.7138483554571864,8.625250415686818,3.052003323640891,1.3909402,-1.6200147,1.2596041,19.04125,-78.29739,-2.8352687
7429323152000.0,-1.5610195,8.838004008955467,3.354484042595457,1.1206323,-1.3267993,1.0928379,19.228666,-78.44594,-2.7340298
7429328145000.0,-1.5610195,8.919755796710902,3.630882913083123,0.8894198,-1.0366384,0.8775079,19.337387,-78.5155,-2.7032828
7429333147000.0,-1.5610195,9.001654943987626,3.907779999039323,0.6753115,-0.7644979,0.6230826,19.376297,-78.49982,-2.6737862
7429338154000.0,-1.7065285430283224,8.978360515250545,4.053743450544663,0.5164866,-0.5290093,0.36774087,19.355917,-78.422775,-2.7191672
7429343187000.0,-1.8990487884440812,8.921479300018156,4.158754601488744,0.38331795,-0.3555236,0.11026118,19.293009,-78.28004,-2.8455923
7429348106000.0,-2.026971044299497,8.800577501970377,4.255921909580106,0.29352075,-0.21380283,-0.11484267,19.216707,-78.08828,-3.0240946
7429353322000.0,-2.1118206001630657,8.617302685283327,4.354347276722381,0.23365596,-0.12736541,-0.31123585,19.125734,-77.857025,-3.2668717
7429358112000.0,-2.189740341839924,8.448996248946868,4.44473406901753,0.19914207,-0.05681047,-0.43554693,19.065956,-77.60148,-3.5744362
7429363127000.0,-2.303664020848156,8.095977158584535,4.525596055925857,0.17195857,-0.009162978,-0.5342017,19.00568,-77.320694,-3.9237068
7429368121000.0,-2.437983125454035,7.630337384010485,4.5972328867815015,0.17989981,0.03176499,-0.6044512,18.94089,-77.03441,-4.2930617
7429373106000.0,-2.511345824248736,7.221473660220172,4.608504009015174,0.1966986,0.058948494,-0.6582073,18.93468,-76.74279,-4.679977
7429378084000.0,-2.51607391215908,6.876323094654369,4.551766954091045,0.24709499,0.1151481,-0.67164636,18.917358,-76.459206,-5.0700974
7429383102000.0,-2.4900840332796514,6.537442697697992,4.4691526067734,0.29260445,0.19547687,-0.6609562,18.947037,-76.16947,-5.4804974
7429388126000.0,-2.4262726177434635,6.209269125587344,4.355203708251232,0.30787608,0.29901853,-0.6435465,18.961237,-75.88149,-5.8898354
7429393066000.0,-2.298518302554606,5.93767649297246,4.227960420265907,0.3023783,0.40622538,-0.6047566,18.98379,-75.61341,-6.2805696
7429398199000.0,-2.0324221689078823,5.760278940550807,4.064567914681861,0.2660318,0.44715336,-0.5723807,19.001764,-75.33995,-6.6636486
7429402966000.0,-1.7469231856012828,5.597387806584714,3.824268236055585,0.2302962,0.47158796,-0.56230146,19.016752,-75.08722,-7.0221996
7429408055000.0,-1.2936827563335116,5.4306789120256544,3.2251573744521647,0.23151793,0.41996986,-0.54611355,19.045868,-74.83818,-7.361935
7429412974000.0,-0.8235185039306592,5.308450503688772,2.494848004724854,0.25411993,0.3454443,-0.5537493,19.076586,-74.639084,-7.634553
7429417980000.0,-0.282352674047571,5.2601322102600285,1.45600283931667,0.2687807,0.30634892,-0.5873469,19.117758,-74.43594,-7.90508
7429422980000.0,0.46279628463813,5.608801333286398,0.4340424968412654,0.23609942,0.3463606,-0.63346726,19.131931,-74.33136,-8.076268
7429427975000.0,1.580903965643481,6.682004864545199,-0.5583342494414719,0.16187929,0.40439278,-0.69058317,19.157722,-74.2127,-8.256059
7429433041000.0,2.4516625,7.517793,-1.3311762,0.12980886,0.43890667,-0.7440339,19.119425,-74.26282,-8.309137
7429438004000.0,2.4516625,7.517793,-1.3311762,0.17592919,0.43127087,-0.82802784,19.082235,-74.299774,-8.384796
7429442979000.0,2.6202412008711944,8.165721680655738,-1.089302386437471,0.31581733,0.3640757,-0.91813046,18.828487,-74.6191,-8.228833
7429447978000.0,3.135984729423887,10.147971053114755,-0.3493224635494144,0.51893,0.2565634,-0.9947941,18.596563,-74.95307,-8.088466
7429453028000.0,3.710128717139812,12.131416554791205,0.4173542834231179,0.72265357,0.10476339,-1.0088439,18.408436,-75.321,-7.9405117
7429458107000.0,4.501875873442495,14.049517808545684,1.2656546751651971,0.88056225,-0.024129177,-0.98868537,18.249075,-75.71758,-7.7975903
7429463047000.0,5.16549730803619,15.79459342650346,2.005926663991485,1.0186177,0.042455133,-0.9098838,18.067963,-76.25611,-7.429303
7429468382000.0,5.192688488451304,16.898556259925492,2.2560857509526344,1.0812315,0.38637227,-0.7470882,17.842077,-76.80685,-7.0600357
7429473031000.0,5.056269383333333,17.71588822368421,2.441157080994152,0.98746365,0.88789266,-0.505491,17.482647,-77.4197,-6.510422
7429478002000.0,4.466990473333333,18.18916666842105,2.547876892748538,0.75136423,1.1606439,-0.310625,17.09948,-77.98816,-5.973815
7429483029000.0,3.914067833342896,18.617671102792123,2.5797023237712757,0.5045747,0.99082345,-0.21533,16.711136,-78.525085,-5.427395
7429488035000.0,3.528995619707401,18.851465854561106,2.3184032925989677,0.38087448,0.5839872,-0.16829337,16.324862,-79.01188,-4.882043
7429493030000.0,3.105360161853979,19.071987296144385,2.0803905141919605,0.3200934,0.3857614,-0.111177474,15.986582,-79.38128,-4.438427
7429498001000.0,2.382868996708368,19.194029627973748,2.016928399692371,0.2687807,0.10323623,-0.10293079,15.800131,-79.68942,-4.0041065
7429503157000.0,1.4651925393620135,19.091144658765,2.1045095988293823,0.07452556,0.07788532,-0.15485434,15.623818,-79.923935,-3.6588666
7429508113000.0,-0.1321750422592917,18.01697287415862,2.8406876949370794,-0.1142318,0.27305678,-0.39461896,15.481219,-80.10445,-3.386811
7429513106000.0,-1.6030035812272685,16.827945950573532,3.4424855185489136,-0.31978795,0.41263947,-0.61208695,15.408578,-80.18122,-3.2378516
7429518056000.0,-2.1423520821132147,14.940226082066586,3.1109187956168984,-0.7067711,0.4428773,-0.5885687,15.317252,-80.14955,-3.1043363
7429523389000.0,-2.6827618616575597,12.926988360655738,2.73123885,-1.2220359,0.4166101,-0.44806966,15.337407,-79.84011,-3.2468898
7429528048000.0,-2.283790105497599,11.608165022354694,1.918518654545455,-1.6914859,0.30024028,-0.25686884,15.372613,-79.45474,-3.3608732
7429535488000.0,-1.6335886286769916,9.528434189492865,0.6237876047980565,-1.9422461,0.1554652,0.01038471,15.452171,-78.98283,-3.5077782
7429538079000.0,-1.264362439555623,9.091390950258123,0.2068383062405102,-2.0274618,0.14905111,0.058643065,15.527677,-78.44294,-3.6598976
7429543235000.0,-0.5296151485059217,8.22169008515032,-0.6228763148952322,-1.9694295,0.19975294,0.11911872,15.553151,-77.998,-3.6764386
7429548057000.0,-0.0312377360644802,8.001903930183436,-0.9231211269594218,-1.7852536,0.16737708,0.18570304,15.600747,-77.58198,-3.673423
7429554649000.0,0.4819811460255699,8.230001420789328,-0.9099616820678156,-1.5683966,-0.07788532,0.3585779,15.683962,-77.217026,-3.614476
7429558132000.0,0.7531494358192052,8.350520771484158,-0.9030086561944136,-1.1795808,-0.48808134,0.42760566,15.726436,-77.017746,-3.4813328
7429563124000.0,0.9359734330527496,9.342330293677517,-1.421865603621399,-1.040609,-0.9673051,0.5564982,15.842412,-76.831635,-3.265143
7429568160000.0,1.0397204025252524,10.663976023569024,-2.152604954074074,-0.7510588,-1.3799446,0.6450737,16.05182,-76.79808,-3.0226452
7429573092000.0,0.9663700813030888,11.552291277992278,-2.840105550096525,-0.4569272,-1.5632042,0.70952,16.283947,-76.844315,-2.6660135
7429578080000.0,0.7651663599306774,12.155902306423306,-3.514976303799579,-0.16798794,-1.498147,0.7809912,16.552404,-76.96896,-2.2806363
7429583141000.0,0.5264202908332688,12.622352834895066,-3.976009363215365,0.11789699,-1.2409728,0.82436264,16.768942,-77.26161,-1.8615611
7429588182000.0,0.2086383659385889,12.749465536145744,-3.918060895740727,0.42241332,-0.82253003,0.84116143,16.923456,-77.63061,-1.4551497
7429593296000.0,-0.1137454396379618,12.878418988674204,-3.859273261805932,0.7473936,-0.5849035,0.82741696,17.050497,-78.14788,-1.0795487
7429598142000.0,-0.4192346695605206,13.00061461459382,-3.803566403368698,1.0836749,-0.12522738,0.81031275,17.006546,-78.742,-0.7479448
7429603111000.0,-0.732477753234725,13.125911780337644,-3.746445606923256,1.2324207,0.12339478,0.74372846,16.967422,-79.35903,-0.44348094
7429608753000.0,-1.139166260546204,13.113396659309515,-3.513483974029543,1.4327844,0.21899518,0.6640105,16.85124,-80.07012,-0.1713159
7429613133000.0,-1.5858646080212986,12.706324672878736,-2.9010749620061835,1.488984,0.23732115,0.64965516,16.694944,-80.76578,0.086781844
7429618070000.0,-2.08936911520955,12.247485769452078,-2.210786539093095,1.4666874,0.2556471,0.6469063,16.559725,-81.46137,0.20312344
7429623157000.0,-2.184800988815649,12.152967,-2.0685902,1.4410311,0.33353242,0.6374379,16.408508,-82.15766,0.30877298
7429628052000.0,-2.1748332159047417,12.152967,-2.0685902,1.4437801,0.47647488,0.6301075,16.238241,-82.84093,0.41013506
7429633196000.0,-2.4174695201473235,11.401187603636078,-1.429753947521354,1.5131133,0.6435465,0.6038403,16.07255,-83.42572,0.40481335
7429638124000.0,-2.6726549612883,10.613441725413368,-0.7603546168356712,1.5693128,0.8145888,0.56321776,15.868362,-83.99648,0.39048326
7429643096000.0,-2.815052933867532,10.046904737600162,-0.0739538457125469,1.5946637,0.91996306,0.5137377,15.638439,-84.56646,0.36722508
7429648091000.0,-2.761680555837306,9.867379604219495,0.6344423537803022,1.6120734,0.9251554,0.46028697,15.392595,-85.13908,0.33270037
7429653077000.0,-2.6146793401534527,9.731013439700964,1.2165898635844974,1.5757269,0.8136725,0.41722095,15.165016,-85.56796,0.23130327
7429658239000.0,-2.31318421483376,9.658071119811137,1.6202042875270508,1.5134187,0.623388,0.3680463,14.964754,-85.982666,0.119040884
7429663109000.0,-1.9687010147937989,9.552960198196372,1.7957468279967574,1.426065,0.42821655,0.32436943,14.784452,-86.22548,0.0046923403
7429668105000.0,-1.5129812234876887,9.383276922889856,1.6260639070523863,1.2986995,0.26175576,0.30268374,14.658776,-86.428215,-0.10862313
7429673074000.0,-1.0357059567744245,9.212309428644502,1.3120028708849103,1.1817188,0.20097467,0.27366763,14.551512,-86.54399,-0.18853575
7429678234000.0,-0.5006784079457799,9.031158676726344,0.7474856651560102,1.0793989,0.22999077,0.24220806,14.471984,-86.62314,-0.27098235
7429683173000.0,0.0208278070332986,8.853129970343392,0.214137807585848,1.0106765,0.34972036,0.23487769,14.369845,-86.704704,-0.27917567
7429688132000.0,0.6929222711150884,8.60109460062435,-0.2108631578439125,1.0030408,0.51159966,0.3118467,14.249707,-86.77504,-0.27241328
7429693110000.0,1.310240853492581,8.370004387079263,-0.4936371037459284,1.0531317,0.57696223,0.3643811,14.092894,-86.94005,-0.17523475
7429698107000.0,1.526741530184582,8.292063937296417,0.2338050777035829,1.0836749,0.6047566,0.47861293,13.900498,-87.09179,-0.040216584
7429703103000.0,1.7431988807455665,8.214139084961998,0.9611016833713352,1.1328496,0.39706242,0.56413406,13.726872,-87.33608,0.20599896
7429708154000.0,1.5619999799030966,8.263174075205393,1.755434525173794,1.1453724,-0.0033597588,0.6429357,13.599942,-87.54021,0.4836804
7429713316000.0,1.325879607132079,8.313823267578716,2.5269186569761595,1.1016954,-0.36926803,0.72387534,13.521539,-87.68683,0.7859015
7429718125000.0,0.9089257862036012,8.170205851926365,2.503754573282366,1.0115929,-0.57696223,0.7861836,13.496833,-87.61886,1.1445794
7429724012000.0,0.381058426252115,7.964682986764429,2.4169113166666665,0.8875872,-0.5714644,0.8396343,13.532845,-87.45961,1.4704953
7429728088000.0,-0.0409224397038917,7.72617208035345,2.1673921833333334,0.72601336,-0.40103304,0.84329945,13.573909,-87.24545,1.7928954
7429733087000.0,-0.5584598167681896,7.4336509760481295,1.8613700666666664,0.58032197,-0.14721853,0.829555,13.617377,-87.0441,2.0491633
7429738126000.0,-1.0377236177128817,7.186382977204423,1.6126814345524998,0.44532076,0.09315695,0.8017606,13.611146,-86.81273,2.2942727
7429743155000.0,-1.5111025939854454,6.945141832945846,1.371440242765334,0.3200934,0.29657507,0.7538077,13.539937,-86.56486,2.5215287
7429748098000.0,-1.8189323485591304,7.015317427927337,0.999737066441964,0.23609942,0.4718934,0.6771441,13.44081,-86.39139,2.6405563
7429754699000.0,-2.174055409352885,7.2182447949223025,0.4555226033741884,0.15790866,0.61391956,0.5705481,13.295318,-86.21693,2.7319944
7429758188000.0,-2.3476523674192764,7.329358799773407,0.1919809862709395,0.124311075,0.7189884,0.5510005,13.148042,-86.11698,2.7406354
7429763121000.0,-2.370591116824472,7.547277078805536,0.1996272440568099,0.124005646,0.7641924,0.5112942,12.983985,-86.03458,2.712106
7429768161000.0,-2.394027422723962,7.769922147997087,0.2074393541806263,0.13683382,0.72204274,0.47219884,12.86183,-86.06678,2.6203802
7429773095000.0,-2.4140797604454973,7.9784466499715645,0.2390180339990521,0.15027285,0.67256266,0.42455134,12.732289,-86.1055,2.5157378
7429778084000.0,-2.432194843090047,8.18224167256872,0.2888346744189573,0.18295415,0.62796944,0.3652974,12.616874,-86.15727,2.3987713
7429783150000.0,-2.4509133785004424,8.406066883597363,0.3601729249335826,0.20922135,0.57940567,0.31398472,12.524674,-86.22041,2.26702
7429788169000.0,-2.4698314478402046,8.647272230640558,0.4547630839693004,0.25381452,0.5589417,0.26419923,12.440564,-86.300125,2.1217642
7429793925000.0,-2.499986229939646,8.826716650836055,0.5831447864074404,0.28008172,0.50946164,0.23793201,12.389983,-86.38518,1.9706178
7429798092000.0,-2.527625021123973,8.889891207381023,0.6897517773958642,0.2846632,0.46273044,0.22113322,12.347513,-86.47522,1.812027
7429803074000.0,-2.5565923925613494,8.896681173696319,0.7771387366334356,0.3042109,0.42638394,0.19608775,12.323181,-86.565865,1.6441944
7429808197000.0,-2.5801076107937115,8.797917571414878,0.8053569101169478,0.28619036,0.3998113,0.16035213,12.3122015,-86.643394,1.4734654
7429813159000.0,-2.598565115395698,8.633284970001029,0.8203549446043017,0.25900686,0.36682457,0.12156218,12.325896,-86.706345,1.2969648
7429818158000.0,-2.6084188610373573,8.327818392096326,0.8105011989626427,0.22357668,0.34972036,0.074830994,12.34571,-86.75669,1.1127115
7429823056000.0,-2.5947171280210486,8.005319341467768,0.7978680371527908,0.17470746,0.35705075,0.01740966,12.377625,-86.790985,0.91698647
7429828240000.0,-2.5387356761135127,7.622779939701184,0.7792075564311219,0.11209377,0.3640757,-0.03726278,12.417409,-86.80193,0.7133775
7429833135000.0,-2.483502643342834,7.251319429662052,0.7587396371335505,0.041233405,0.41355577,-0.08093964,12.448007,-86.79486,0.49731228
7429838160000.0,-2.4198214587438924,6.839840317538681,0.7293482975570033,-0.01863139,0.48258355,-0.13255776,12.474636,-86.759964,0.26743063
7429843141000.0,-2.3274645918431376,6.468963855058823,0.7236385389490196,-0.10170906,0.52656585,-0.18325958,12.493901,-86.68907,0.03857947
