timestamp,acc_x,acc_y,acc_z,gyro_x,gyro_y,gyro_z,ori_azimuth,ori_pitch,ori_roll
4392915424000.0,2.0389587447559565,9.7430833703754,0.095768064,-0.9101892,0.57360244,0.027794369,341.5745,-79.16393,9.356799
4392920389000.0,2.0228197141402484,9.736627623311383,0.095768064,-0.9101892,0.7431176,0.03573562,341.61978,-78.772705,9.650629
4392925366000.0,2.0066416768040187,9.730156273233318,0.095768064,-1.171945,0.75319684,0.03604105,341.39297,-78.66932,9.688241
4392930373000.0,1.9903661226664855,9.72364591562012,0.095768064,-1.185384,0.76083267,0.03359759,341.1158,-78.61579,9.70605
4392935410000.0,1.982399,9.717797693101224,0.0984293197678916,-1.1945469,0.75808376,0.03390302,340.8448,-78.51953,9.727282
4392940366000.0,1.982399,9.712697369439072,0.1035295454390715,-1.1914927,0.7440339,0.035430185,340.58063,-78.419815,9.750668
4392945362000.0,1.982399,9.704742097599684,0.1084149273715532,-1.1777482,0.732122,0.03359759,340.4018,-78.2933,9.832717
4392950432000.0,1.982399,9.69511050565364,0.1132308742074985,-1.1545353,0.73761976,0.027183503,340.22418,-78.17015,9.911169
4392955367000.0,1.982399,9.694628729340629,0.1033217857654285,-1.1468995,0.75136423,0.03268129,340.128,-78.01588,10.048519
4392960383000.0,1.982399,9.69923888540167,0.0848796084340147,-1.1670581,0.7837401,0.03848451,340.0245,-77.86554,10.177241
4392965392000.0,1.9947537074105224,9.69883426492851,0.0667306811052238,-1.2208142,0.80939645,0.06047566,339.99713,-77.68055,10.36213
4392970433000.0,2.017310780955051,9.69432322708158,0.0486850095505092,-1.2651019,0.7684685,0.06414085,339.97784,-77.50198,10.536065
4392975380000.0,2.033242900357161,9.690742345942954,0.0294275198501433,-1.2577715,0.75808376,0.06291912,340.02026,-77.30137,10.7590475
4392980387000.0,2.040479336435434,9.688330150208763,0.0077181967547663,-1.2522738,0.7464773,0.06780604,340.07092,-77.09832,10.975205
4392985356000.0,2.047660852487549,9.685936261532271,-0.0138263661493535,-1.2534955,0.7415904,0.079107046,340.20636,-76.869736,11.242168
4392990383000.0,2.0549261938427485,9.683514430504554,-0.0356224051348659,-1.2571607,0.72326446,0.0888809,340.34387,-76.64857,11.497974
4392995351000.0,2.0630252140354317,9.686163688362534,-0.0458781239350102,-1.2696834,0.7141015,0.09162979,340.54266,-76.409325,11.7800255
4393000440000.0,2.072565457786043,9.695703633258296,-0.0411079995692473,-1.282817,0.6814202,0.10598512,340.74792,-76.17258,12.056496
4393005356000.0,2.076331057830367,9.692125289151834,-0.038307227,-1.2495248,0.6123924,0.100792766,341.0364,-75.92915,12.358589
4393010364000.0,2.071562178999702,9.668280894998508,-0.038307227,-1.1499538,0.54336464,0.10415252,341.32813,-75.695786,12.654483
4393015404000.0,2.0613067840879817,9.651600298127414,-0.038307227,-1.022283,0.46120325,0.099571034,341.69727,-75.45966,12.965428
4393020386000.0,2.042397988843753,9.646873494203904,-0.038307227,-0.8885035,0.3857614,0.094989546,342.079,-75.24363,13.265831
4393025369000.0,2.026857899146323,9.648982579751388,-0.0314570204644301,-0.76144356,0.31856623,0.08460484,342.5657,-75.02217,13.596589
4393030393000.0,2.017250022714792,9.663394193749689,-0.0122412540575607,-0.6453791,0.15393804,0.055588737,343.09567,-74.82647,13.910836
4393035358000.0,2.0077549776346664,9.67763656307723,0.0067488494874444,-0.30604348,-0.03940081,0.008857546,343.78748,-74.63796,14.270659
4393040383000.0,1.9981451888073487,9.692051045629274,0.0259684406885826,0.041233405,-0.028710667,0.008552114,344.45264,-74.45746,14.61419
4393045363000.0,1.9935989237027731,9.701305,0.0334378525019808,0.02565634,-0.015271631,0.007330383,345.27283,-74.24721,14.982005
4393050437000.0,1.9982943226012173,9.701305,0.0193516460008696,-0.016187929,-0.021991149,0.008246681,346.07462,-74.06099,15.32852
4393055388000.0,2.0015526,9.701305,0.0059163916373841,-0.0061086523,-0.021991149,0.017715093,346.8784,-73.86272,15.661935
4393060366000.0,2.0015526,9.701305,-0.0068259493941553,0.00030543262,-0.021685716,0.019547688,347.66705,-73.660255,15.97508
4393065544000.0,1.9981389003938728,9.70168430787746,-0.019532914193873,-0.004581489,-0.021991149,0.013133603,348.47733,-73.4412,16.286964
4393070377000.0,1.952563181619256,9.70674838238512,-0.024596886119256,-0.0067195175,-0.03634648,0.00580322,349.27634,-73.22202,16.582815
4393075388000.0,1.9183817753846155,9.70584804102564,-0.0247032499820512,-0.002443461,-0.027488936,0.013439035,350.05576,-73.00072,16.864227
4393080365000.0,1.9324834717159765,9.682345213806704,-0.0059009749545364,-0.0125227375,-0.048563786,0.0076358155,350.83643,-72.78556,17.126657
4393085393000.0,1.9459186621657616,9.666651705255608,0.0077499434989242,-0.0030543262,-0.038179077,0.0070249503,351.62332,-72.56488,17.383734
4393090379000.0,1.9557024803811085,9.686219239524638,-0.0020338818677389,-0.006414085,-0.04062254,0.004276057,352.40924,-72.347855,17.626482
4393095467000.0,1.964396689060688,9.704758939311944,-0.009576807,-0.01282817,-0.046120327,0.005497787,353.17712,-72.13084,17.85945
4393100402000.0,1.9689639008890607,9.718460860939311,-0.009576807,-0.011301007,-0.046731193,0.005497787,353.9351,-71.91766,18.080832
4393105384000.0,1.97960437630662,9.726644911846693,-0.0122896792931184,-0.006414085,-0.053145275,0.0030543262,354.68332,-108.29077,18.290401
4393110362000.0,2.0211316501742163,9.705881274912892,-0.0289005996807491,-0.011301007,-0.058643065,0.0027488936,355.42255,-108.49601,18.490381
4393115386000.0,2.063042663414634,9.684925768292684,-0.0456650159176829,-0.009773844,-0.06505715,0.004276057,356.15073,-108.69529,18.678457
4393120388000.0,2.0685902,9.682152,-0.047884032,-0.008246681,-0.0580322,0.005192355,356.8679,-108.88972,18.856474
4393125400000.0,2.0696927973216077,9.682152,-0.0489866188446931,-0.0076358155,-0.062308256,-0.007330383,357.5817,-109.07578,19.021269
4393130376000.0,2.0792180130721567,9.682152,-0.0585117440863482,-0.010995574,-0.06658431,0.0061086523,358.2698,-109.26712,19.187613
4393135402000.0,2.0850200057284933,9.679972825062158,-0.0681272437265042,-0.0018325958,-0.063224554,0.00580322,358.94946,-109.44665,19.337872
4393140364000.0,2.061389831645948,9.66106886345102,-0.0775792788155146,-0.0033597588,-0.062002823,0.0018325958,359.62296,-109.62291,19.481865
4393145398000.0,2.0389288860445287,9.64617228488868,-0.0871221749275225,0.0015271631,-0.0580322,-0.003970624,0.28006715,-109.79224,19.615627
4393150409000.0,2.029835689493131,9.668905276267171,-0.096215380973946,-0.007330383,-0.04550946,-0.004581489,0.9262081,-109.9555,19.741436
4393155667000.0,2.0209137552415504,9.691729,-0.1043071029253389,-0.0015271631,-0.03756821,-0.0012217305,1.5794626,-110.11732,19.861229
4393160361000.0,2.0252056684743174,9.691729,-0.0828475188352109,-0.0012217305,-0.027794369,-0.0036651916,2.2195413,-110.27039,19.971
4393165402000.0,2.0298148577811723,9.691729,-0.0598015530494557,-0.004886922,-0.017715093,-0.0015271631,2.860339,-110.42132,20.076391
4393170370000.0,2.0441412661182072,9.714826110197013,-0.0620802668629573,0.007941248,-0.007330383,-0.01282817,3.488624,-110.562004,20.169256
4393175542000.0,2.059750662435847,9.739613,-0.0653788169482826,0.00580322,-0.0036651916,-0.009162978,4.1072764,-110.69983,20.259157
4393180369000.0,2.068875702891828,9.739613,-0.0448475678697197,0.004581489,-0.004886922,0.00061086525,4.6938024,-110.820305,20.333563
4393185596000.0,2.0787569099486776,9.739613,-0.0226149515586261,0.002443461,-0.0106901415,0.0067195175,5.272339,-110.93543,20.40197
4393190386000.0,2.087812004994078,9.739613,-0.0022410789490722,0.0076358155,-0.008857546,0.0018325958,5.8412304,-111.044556,20.463625
4393195645000.0,2.096741992275886,9.739420061405824,0.0197324180575349,0.004886922,-0.01038471,0.002443461,6.4035497,-111.14956,20.521042
4393200409000.0,2.0847007695786046,9.735406264625672,0.0317735644771707,-0.00030543262,-0.015882496,0.00061086525,6.9589953,-111.246826,20.57021
4393205382000.0,2.0721312900501454,9.731216379783584,0.044342964381631,-0.004581489,-0.016493361,0.00030543262,7.485708,-111.33152,20.61022
4393210361000.0,2.0550611148553943,9.723271316158328,0.0275903905093278,-0.0009162979,-0.0143553335,-0.0076358155,8.006645,-111.40841,20.642136
4393215416000.0,2.035947217313197,9.713714167801797,-0.0010804752635475,-0.009773844,-0.0067195175,0.0018325958,8.520328,-111.48345,20.673895
4393220363000.0,2.030283,9.710882,-0.0161743113680215,-0.009162978,-0.0106901415,0.003970624,9.037954,-111.55063,20.696732
4393225350000.0,2.030283,9.710882,-0.0257138168140417,-0.0015271631,-0.009468411,-0.0012217305,9.545458,-111.613045,20.715662
4393230361000.0,2.040052303257748,9.70111283275572,-0.0254739835405485,-0.0015271631,-0.011911872,-0.002443461,10.061348,-111.67496,20.73307
4393235400000.0,2.05438763206258,9.686777703535004,-0.0206955376118427,-0.007941248,-0.012217305,0.00580322,10.569378,-111.73278,20.74695
4393240376000.0,2.0649097940452124,9.69394472652086,-0.0545320047461863,-0.0036651916,-0.012217305,-0.0015271631,11.085937,-111.78836,20.756708
4393245376000.0,2.073710382172395,9.711545810880352,-0.1073355730240764,-0.004886922,-0.009468411,0.004886922,11.595008,-111.8434,20.7679
4393250412000.0,2.078167,9.720459,-0.2581515743300636,0.0033597588,-0.014660766,0.0106901415,12.095701,-111.89445,20.773561
4393255383000.0,2.078167,9.720459,-0.5044707275627897,-0.003970624,-0.015882496,0.015577064,12.58746,-111.94026,20.776505
4393260380000.0,2.057162279788173,9.717458263018536,-0.3086977731862312,-0.0125227375,-0.018325957,0.005497787,13.070839,-111.98084,20.771961
4393265396000.0,2.024185855192704,9.712747246837305,0.1388397424124743,-0.004886922,-0.014049901,0.009773844,13.546303,-112.02249,20.768911
4393270597000.0,2.01719209804076,9.698756667224574,0.1584043601545731,-0.01038471,-0.023823744,0.0125227375,14.085001,-112.09376,20.778648
4393275461000.0,2.026364403879098,9.68041215132421,-0.080075759250763,-0.012217305,-0.01160644,0.012217305,14.604755,-112.15986,20.784357
4393280467000.0,2.030283,9.661695960620756,-0.2445141756256061,-0.002443461,-0.010079277,0.0061086523,15.036004,-112.15404,20.75119
4393285529000.0,2.030283,9.64288800387973,-0.3526605651600387,-0.009773844,-0.005192355,0.01160644,15.458378,-112.145836,20.719015
4393290447000.0,2.025951809052137,9.623440022630342,-0.2484684928087736,0.002443461,-0.0021380284,0.010995574,15.915669,-112.167,20.697145
4393295454000.0,2.017604513795805,9.602571784489513,0.0478606979789363,0.002443461,-0.006414085,0.011911872,16.366913,-112.18362,20.67369
4393300524000.0,2.018293124251025,9.586384,0.2120598815704825,0.004276057,-0.0125227375,0.0036651916,16.840553,-112.21498,20.65494
4393305748000.0,2.049847336297698,9.586384,-0.0771872653736991,0.0076358155,-0.0012217305,0.007941248,17.30206,-112.24503,20.636747
4393310476000.0,2.070109510748804,9.59094186878844,-0.3295204920394415,0.004581489,-0.003970624,0.013133603,17.698801,-112.22184,20.592093
4393315514000.0,2.074819841550327,9.605072664453774,-0.5791681868300302,0.0106901415,-0.01282817,0.011301007,18.089502,-112.19626,20.544662
4393320492000.0,2.079192085828038,9.617164171656077,-0.7360664008804838,0.012217305,-0.024740042,0.010995574,18.518574,-112.20624,20.515797
4393325573000.0,2.0829177375392387,9.624615475078478,-0.6615548838373784,0.016187929,-0.027794369,0.021380283,18.941143,-112.215485,20.48659
4393330750000.0,2.0867137814103054,9.63220756282061,-0.5856355522624608,0.013133603,-0.016187929,0.017715093,19.399143,-112.25034,20.46443
4393335588000.0,2.081547713211459,9.65905275895213,-0.4473032962137203,0.009162978,-0.03359759,0.008246681,19.856888,-112.28158,20.438597
4393340608000.0,2.072487020033924,9.695294964003017,-0.2751518004353562,0.0125227375,-0.035124753,0.015271631,20.297224,-112.311775,20.414335
4393345563000.0,2.053811394296753,9.715808371446968,-0.164165900022077,0.015577064,-0.046120327,0.01160644,20.722166,-112.32019,20.374556
4393351432000.0,2.0227896451292438,9.7261491704535,-0.0866114731156287,0.020158553,-0.03390302,0.019547688,21.133465,-112.32993,20.338385
4393355620000.0,2.004864971749175,9.726120732343237,-0.0449319749947194,0.017104227,-0.04520403,0.009162978,21.52422,-112.30343,20.280169
4393360688000.0,1.988846746534653,9.716109341584158,-0.0128955028217821,0.0125227375,-0.0580322,0.016493361,21.907194,-112.280914,20.227757
4393365611000.0,1.973286817029703,9.706384385643563,0.0182243773099009,0.018020526,-0.06963864,0.004886922,22.279419,-112.23551,20.15624
4393370635000.0,1.957407660858086,9.696459913036303,0.0499827112082508,0.01282817,-0.07452556,0.010079277,22.64952,-112.19204,20.089706
4393375529000.0,1.9419393904950493,9.686792244059406,0.0809192729316831,0.009773844,-0.08002335,0.003970624,23.01728,-112.14135,20.013971
4393380609000.0,1.9291746751812149,9.682152,0.1545116805018887,0.005192355,-0.082161374,-0.007941248,23.380465,-112.087395,19.936735
4393390574000.0,1.9202595482369536,9.68949912006347,0.3211522749400564,0.006414085,-0.08735373,-0.011301007,23.741417,-112.03223,19.858656
4393395505000.0,1.928585218335684,9.701987451339916,0.3461293026234132,0.0030543262,-0.08124508,-0.017104227,24.086506,-111.95683,19.767694
4393400563000.0,1.9419371640264689,9.71385092761179,0.3654030928052937,0.0012217305,-0.09132435,-0.0018325958,24.422415,-111.87048,19.672205
4393405578000.0,1.9660135887307,9.723481698616403,0.3702183777461399,-0.005192355,-0.089491755,-0.015882496,24.747782,-111.77293,19.567255
4393410523000.0,1.98953559875152,9.734793707661128,0.3651694231552493,-0.0015271631,-0.093462385,-0.014660766,25.071642,-111.6797,19.46865
4393415603000.0,2.013200038475881,9.750569918443452,0.3375608936700446,-0.0070249503,-0.090713486,-0.012217305,25.389193,-111.58033,19.366583
4393421611000.0,2.041085394701392,9.767607656488549,0.3042517569600359,-0.0061086523,-0.090713486,-0.013439035,25.704435,-111.483215,19.267538
4393425507000.0,2.0578394892860348,9.757555381679389,0.2740944881751235,0.0021380284,-0.090713486,-0.009773844,26.01612,-111.38739,19.170465
4393430518000.0,2.079388454369106,9.744626236641222,0.2353064815321059,0.0012217305,-0.09193522,-0.009773844,26.32497,-111.294685,19.076193
4393435589000.0,2.1200022999902104,9.730815098091044,0.2026711044552129,-0.006414085,-0.087964594,-0.01740966,26.628801,-111.20024,18.980806
4393440839000.0,2.174144267684777,9.71604879853157,0.1731391066578561,0.00030543262,-0.095294975,-0.015271631,26.933613,-111.10916,18.887383
4393445562000.0,2.2471611046394635,9.672258963666852,0.1344821385131358,0.00061086525,-0.0870483,-0.020158553,27.225704,-111.01928,18.796185
4393450604000.0,2.3416283811440284,9.60478240469536,0.0849992910229178,0.0061086523,-0.08124508,-0.019242255,27.51788,-110.932144,18.706633
4393455680000.0,2.440862294991823,9.57611766251022,0.053016982527596,0.0036651916,-0.07788532,-0.016187929,27.797073,-110.851974,18.624825
4393460547000.0,2.540904862888389,9.595173280764511,0.0434891171891864,0.0033597588,-0.07391469,-0.009468411,28.071589,-110.77322,18.544508
4393465666000.0,2.6456797218740933,9.639876787641429,0.0680683985207426,0.013744468,-0.09040806,0.0070249503,28.339575,-110.7213,18.485737
4393470660000.0,2.747428475611643,9.709250937917028,0.1281927070056087,0.026572637,-0.14782938,0.02321288,28.615986,-110.670204,18.426523
4393475483000.0,2.818055743300111,9.783621643779991,0.1783004186895533,0.024740042,-0.21563543,0.032986723,28.87681,-110.628586,18.379347
4393480521000.0,2.849223695736434,9.87267280361757,0.2183734638630491,0.029321533,-0.25259277,0.062002823,29.144598,-110.59723,18.340218
4393485605000.0,2.84062165299404,9.928427724813169,0.2288739897006906,0.002443461,-0.2751948,0.0711658,29.417849,-110.562675,18.305285
4393490662000.0,2.707761284429098,9.878032813451895,0.146408907550279,-0.035124753,-0.269697,0.08399397,29.692537,-110.53404,18.278017
4393495685000.0,2.566525020880603,9.82239739182864,0.0557278219078143,-0.079107046,-0.2593123,0.07941248,29.964844,-110.49098,18.244576
4393500623000.0,2.3751879609996034,9.73610794748116,-0.083085353423562,-0.1133155,-0.22235495,0.06963864,30.225393,-110.44498,18.213638
4393505550000.0,2.1842771278619595,9.650010723443078,-0.2215893053996033,-0.12675454,-0.172264,0.05589417,30.497162,-110.387726,18.16734
4393510497000.0,2.054464250463986,9.580158520547943,-0.3051924761820592,-0.13713925,-0.12889257,0.03634648,30.756098,-110.321465,18.117159
4393515585000.0,1.9640300530269557,9.519869205479452,-0.3525627499496244,-0.14355333,-0.12370021,0.01038471,31.007757,-110.248085,18.061108
4393520607000.0,1.9333698941297843,9.513796500773754,-0.3589351114340245,-0.15607607,-0.13683382,-0.0027488936,31.301434,-110.16986,17.982262
4393525570000.0,2.0118259484370165,9.606962962859797,-0.290286017833488,-0.14569137,-0.16615535,-0.008552114,31.592522,-110.08791,17.897457
4393530531000.0,2.0855597918236475,9.714194615631262,-0.2319314479559118,-0.13988814,-0.1994475,-0.008552114,31.892714,-109.99582,17.797209
4393535596000.0,2.15360507248497,9.845424807014028,-0.1881880931212424,-0.13469578,-0.2406809,-0.0018325958,32.198513,-109.90431,17.695786
4393545500000.0,2.107013109982487,10.00764743321965,-0.1505091983574523,-0.14569137,-0.27488935,0.004276057,32.495907,-109.80763,17.598082
4393550559000.0,2.044519029830277,10.050531325276555,-0.1342733891517654,-0.15851954,-0.2510656,0.008246681,32.783775,-109.71189,17.502745
4393555752000.0,1.9804600814971964,10.0279222198818,-0.092823478143355,-0.16401732,-0.22388211,-0.007941248,33.07035,-109.608604,17.405432
4393560603000.0,1.920619920056069,10.006802102363997,-0.0541033706328989,-0.15943582,-0.18112154,-0.01863139,33.34748,-109.4924,17.300228
4393565699000.0,1.913417811011819,9.929345735658693,0.0649533333439031,-0.16432275,-0.14385876,-0.03481932,33.613113,-109.36892,17.190556
4393570638000.0,1.9406878585855676,9.820265830114346,0.2285734512580955,-0.16982053,-0.12583824,-0.04184427,33.868004,-109.24597,17.082342
4393575504000.0,1.9904647003200933,9.728042622435618,0.3940675595787865,-0.16371189,-0.13225232,-0.04520403,34.126873,-109.10866,16.961224
4393580535000.0,2.06407153161647,9.64742584329987,0.569321873622872,-0.16554448,-0.13958271,-0.038179077,34.37752,-108.97139,16.843048
4393585553000.0,2.1374881643823658,9.56701737625491,0.7441233341422959,-0.18875736,-0.16768251,-0.024740042,34.621185,-108.826385,16.730389
4393590768000.0,2.188471182244621,9.488184331168831,0.8788803937148673,-0.22449298,-0.18875736,-0.011301007,34.863003,-108.68246,16.620686
4393595485000.0,2.227874544369064,9.418133818181818,0.988334236824966,-0.25320363,-0.19058995,-0.01282817,35.10501,-108.53711,16.511003
4393600625000.0,2.062483726088521,9.413312437927312,0.8462292325152933,-0.25778514,-0.19883664,-0.0061086523,35.329433,-108.39039,16.417532
4393605604000.0,1.813688345627924,9.439049962126663,0.5974338610129543,-0.26419923,-0.172264,-0.01863139,35.542248,-108.23612,16.320093
4393610560000.0,1.640573276301653,9.454674311570248,0.4053947303233471,-0.2602286,-0.13194689,-0.030543262,35.74317,-108.08374,16.23043
4393615612000.0,1.5456085150619836,9.459672033884296,0.2704448660630165,-0.2406809,-0.08368854,-0.037873644,35.933167,-107.93238,16.14032
4393620569000.0,1.5158388896473696,9.447148888365076,0.1984094783047331,-0.20586158,-0.022602014,-0.057421334,36.15148,-107.76934,16.012197
4393626737000.0,1.5436862523477275,9.413732588157648,0.1705621563134075,-0.1685988,0.01740966,-0.0842994,36.3594,-107.60671,15.882147
4393630557000.0,1.6021491048844596,9.400015657321212,0.1716242257978315,-0.113926366,0.022907447,-0.086132,36.573162,-107.45388,15.745152
4393635595000.0,1.7236804406636732,9.389447499178624,0.1927601117205125,-0.102319926,0.017715093,-0.10293079,36.774376,-107.2912,15.59942
4393640520000.0,1.8077350485031087,9.39788010904545,0.2263310264286172,-0.08155051,-0.010079277,-0.10629055,36.979652,-107.15049,15.467904
4393645556000.0,1.8695708266427336,9.41952273793192,0.2696160582127059,-0.05681047,-0.04795292,-0.10048734,37.186646,-107.01114,15.3355875
4393650588000.0,1.931357489787807,9.441148176485672,0.3128667095108661,-0.03848451,-0.077579886,-0.1001819,37.37955,-106.885185,15.218221
4393655574000.0,1.972116085053312,9.47596403663974,0.3484942768426494,-0.032375857,-0.10293079,-0.09315695,37.580544,-106.76502,15.104638
4393660550000.0,1.9905926563489496,9.5252346361874,0.37620915307916,-0.02687807,-0.119729586,-0.09040806,37.785122,-106.646904,14.990592
4393665605000.0,2.00936256549273,9.575287465912762,0.4043640363941841,-0.025961773,-0.12003502,-0.094989546,37.971985,-106.53135,14.885172
4393670627000.0,2.0080465456989245,9.616388170026882,0.410528360188172,-0.0143553335,-0.12370021,-0.089491755,38.16343,-106.42197,14.78386
4393676453000.0,1.9705502844086025,9.648527934427804,0.378388685280338,-0.0015271631,-0.1133155,-0.090713486,38.34857,-106.310814,14.681049
4393680472000.0,1.94590481598916,9.65782218002323,0.3483911068408827,0.002443461,-0.10873401,-0.09407325,38.53439,-106.19766,14.579262
4393685605000.0,1.917357893834688,9.638791031068523,0.2912973171806039,0.0030543262,-0.0983493,-0.092240654,38.713966,-106.08767,14.48043
4393690531000.0,1.8952308837965488,9.617853245776567,0.2450897031462307,0.01740966,-0.08674286,-0.093462385,38.896687,-105.97655,14.375664
4393695581000.0,1.8908382552770209,9.5871046626703,0.2275191798946412,0.014660766,-0.07574729,-0.106595986,39.074356,-105.86183,14.269788
4393700992000.0,1.887526851739875,9.552725328579578,0.2160654365830006,0.03390302,-0.06688975,-0.11636983,39.250698,-105.75601,14.164335
4393705582000.0,1.8946913438758048,9.513321126803032,0.2590521986317333,0.061086524,-0.07269296,-0.118507855,39.426018,-105.65052,14.058755
4393710572000.0,1.902480192624888,9.470483007660338,0.3057850837348219,0.06169739,-0.077579886,-0.12675454,39.596878,-105.544655,13.952693
4393715602000.0,1.9034014196053304,9.445159384161968,0.3589756395361353,0.10445796,-0.09010262,-0.13713925,39.769485,-105.44734,13.846518
4393720639000.0,1.8992805546386469,9.432796660174269,0.416667185386981,0.1142318,-0.087964594,-0.1459968,39.936966,-105.345276,13.740378
4393725629000.0,1.897337625862893,9.408889046371543,0.4743756258160436,0.13225232,-0.08735373,-0.1563815,40.10672,-105.24674,13.635308
4393730554000.0,1.901847257041782,9.350264170666412,0.5330002707868822,0.15302174,-0.08277224,-0.16920967,40.272404,-105.147865,13.528796
4393735594000.0,1.9131142258564968,9.301369555914674,0.5910567671105366,0.17715092,-0.071776666,-0.18967366,40.433952,-105.04071,13.415898
4393740580000.0,1.962500056289593,9.316802950226243,0.6373560024796381,0.19883664,-0.08246681,-0.20189096,40.59868,-104.93584,13.302825
4393746389000.0,2.02003761926309,9.334783814156433,0.6912974902973498,0.20677789,-0.08582657,-0.21410827,40.752686,-104.824196,13.185972
4393750625000.0,2.058015782142239,9.352201498961758,0.7323265845267347,0.21197024,-0.08674286,-0.21410827,40.90768,-104.7162,13.07068
4393755565000.0,2.0416429176328084,9.438159123118186,0.8060045432047067,0.21899518,-0.10415252,-0.19853121,41.06717,-104.61158,12.957581
4393760472000.0,2.0253794265097764,9.523542536424989,0.8791903211870565,0.22357668,-0.18600847,-0.16829337,41.236534,-104.5134,12.855548
4393765623000.0,2.010769030399408,9.58120089866864,0.8240348377218935,0.23976462,-0.21135938,-0.15515977,41.39325,-104.418304,12.755991
4393770608000.0,1.9975274397928997,9.625339534023668,0.7225159026627219,0.25259277,-0.25686884,-0.15027285,41.57888,-104.32969,12.660566
4393775592000.0,2.0092854729478944,9.680937156316917,0.8134851660242683,0.27366763,-0.38148534,-0.14477506,41.796642,-104.22984,12.554357
4393780585000.0,2.0391497428265524,9.744932020342612,1.0438668547109209,0.2687807,-0.5027421,-0.14508049,42.024826,-104.128784,12.447917
4393785530000.0,2.0354375050497397,9.740345148555187,1.024702038010043,0.22113322,-0.5320636,-0.12461651,42.261852,-104.04025,12.349958
4393790577000.0,1.9621693142775936,9.593808575746092,0.4889279884636665,0.1518,-0.50732356,-0.11789699,42.51462,-103.94469,12.247051
4393795551000.0,1.8559476972649296,9.497932853374332,0.0360691782061822,0.12889257,-0.48502702,-0.07727446,42.776604,-103.83415,12.15073
4393800592000.0,1.6254634525975078,9.576063050493609,-0.1514434229650429,0.106595986,-0.4569272,-0.024740042,43.02793,-103.71991,12.062016
4393805712000.0,1.391367175530021,9.65541766450882,-0.3418946266938016,0.070249505,-0.419359,0.0070249503,43.265953,-103.66529,11.993005
4393810564000.0,1.2121938560379162,9.741139763023735,-0.4630646247283734,0.029321533,-0.37384954,0.042760566,43.491467,-103.6205,11.941583
4393815613000.0,1.038870727102119,9.83357861175721,-0.5709101386171739,0.016187929,-0.36041048,0.05681047,43.712112,-103.576294,11.89328
4393820582000.0,0.8990979657802874,9.93213656057495,-0.697583879322382,0.032375857,-0.3717115,0.05681047,43.960476,-103.517654,11.809758
4393825505000.0,0.8555333076796714,10.053149359342916,-0.8863639464887063,0.0421497,-0.3594942,0.03970624,44.19221,-103.4551,11.727741
4393830507000.0,0.7972258371059431,10.134735835917311,-1.0003679730490955,0.055283304,-0.35155296,0.0290161,44.430763,-103.369286,11.609303
4393835607000.0,0.70071538749354,10.10875230878553,-0.9112814110335916,0.07360926,-0.4147775,0.01282817,44.680145,-103.28101,11.485353
4393840758000.0,0.6032398333850129,10.08250894638243,-0.8213039833979328,0.077579886,-0.44043383,-0.0070249503,44.904976,-103.19883,11.359495
4393845512000.0,0.5900773384525293,10.059331650386245,-0.8000312774333416,0.09193522,-0.4428773,-0.04337143,45.13509,-103.11418,11.225998
4393850619000.0,0.6144524907749813,10.034956638051334,-0.808156319723399,0.11178834,-0.42363504,-0.071776666,45.360775,-103.029564,11.092031
4393855758000.0,0.7165829974166488,10.041202670395068,-0.7921544139786334,0.10781772,-0.398895,-0.0842994,45.59193,-102.9111,10.93664
4393860568000.0,0.9973227911142182,10.120470242632823,-0.7194923681479889,0.093767814,-0.40622538,-0.076358154,45.822037,-102.79446,10.782308
4393865625000.0,1.2924789525962574,10.20380831182333,-0.6430990280719868,0.10903945,-0.3979787,-0.056505036,46.037693,-102.69107,10.636446
4393870598000.0,1.439031513532255,10.251893776738813,-0.5114757470519017,0.106595986,-0.38240165,-0.035124753,46.249474,-102.587135,10.496792
4393875576000.0,1.4240052547383903,10.261910968795966,-0.3161342362891364,0.09773844,-0.3652974,-0.01038471,46.45515,-102.49192,10.367303
4393880588000.0,1.3329259899595551,10.18734246602629,-0.1699171460972699,0.09132435,-0.30970868,0.020463986,46.626137,-102.44533,10.295699
4393886052000.0,1.168905936329626,10.033904616885744,-0.0535158546772497,0.07513642,-0.2669481,0.022602014,46.792156,-102.39483,10.224494
4393890536000.0,1.0768476020632995,9.903898551489124,-0.019153614,0.069027774,-0.24312437,0.0290161,46.953045,-102.32844,10.156857
4393895565000.0,1.0004075063392774,9.755515115208665,-0.019153614,0.06688975,-0.17440203,0.03940081,47.086433,-102.2621,10.095159
4393900558000.0,0.9727453680003604,9.629264158150852,-0.0229197835562764,0.09193522,-0.11484267,0.029321533,47.23504,-102.17202,10.0102215
4393905685000.0,1.0081425049562944,9.527497574209246,-0.0317690738014778,0.13164146,-0.03940081,0.027488936,47.357845,-102.08943,9.93491
4393910625000.0,1.0583834912663757,9.448294187772923,-0.0302777645720524,0.19517145,0.03604105,0.015271631,47.464237,-102.00514,9.848093
4393915644000.0,1.163331091757642,9.4308025709607,0.0047047631413755,0.25259277,0.09315695,0.0012217305,47.552673,-101.92676,9.763927
4393920902000.0,1.2616071617068894,9.415519808262264,0.0357758869359462,0.29993483,0.14813483,0.0027488936,47.617043,-101.871475,9.695734
4393925598000.0,1.2344054119941934,9.431840914897478,0.0085741181927055,0.33292156,0.21899518,0.008246681,47.659218,-101.82195,9.62885
4393930471000.0,1.2061783833847457,9.448777191011915,-0.0196529301645799,0.33658674,0.29077184,0.018325957,47.684017,-101.79205,9.58344
4393935621000.0,1.176346822264562,9.46667618998367,-0.0494845121551442,0.34238997,0.36071593,0.044593163,47.68942,-101.77362,9.547763
4393940773000.0,0.972165569102648,9.522204612519884,-0.0439294674773088,0.3408628,0.38606682,0.0580322,47.686947,-101.754585,9.513364
4393945576000.0,0.7225305272218583,9.58676534574717,-0.0267132602649948,0.33322698,0.41874814,0.05497787,47.662907,-101.738335,9.485338
4393950587000.0,0.4564210855423244,9.689512943413645,0.0501144696506969,0.3408628,0.43493605,0.03726278,47.642498,-101.724106,9.451676
4393955691000.0,0.1811804907966399,9.820364841133571,0.1719422776979599,0.33567044,0.43676865,0.01863139,47.617138,-101.70623,9.418561
4393960549000.0,-0.0504858590781762,9.954668376378264,0.3263648791079765,0.32375857,0.41355577,-0.018325957,47.631508,-101.644356,9.336431
4393966208000.0,-0.2712071408622231,10.126938747094467,0.5686199516102116,0.31031954,0.39400807,-0.046120327,47.643913,-101.58106,9.25431
4393970588000.0,-0.372811723705146,10.222421067408437,0.7183990518080667,0.2932153,0.3567453,-0.082161374,47.688602,-101.44285,9.109091
4393975603000.0,-0.3950776820083449,10.280312813815485,0.8386352461752433,0.26725355,0.3023783,-0.11301007,47.74294,-101.2994,8.960142
4393980596000.0,-0.3374007349366315,10.304076978469997,0.9612209746373492,0.24129178,0.21960606,-0.13713925,47.842953,-101.09241,8.767031
4393985576000.0,-0.0351807623301267,10.22397038204306,1.0923043422507253,0.21502456,0.18112154,-0.15027285,47.944553,-100.88153,8.573
4393990563000.0,0.2674640174667887,10.143751185982593,1.2235719635936786,0.20525073,0.09773844,-0.15332718,48.091366,-100.649765,8.365981
4393995499000.0,0.4708343266137566,10.055514131613757,1.2325768348544974,0.18051068,0.013439035,-0.13805555,48.248707,-100.41738,8.164513
4394000668000.0,0.6205018034618293,9.957294829176114,1.1624202111866968,0.14385876,-0.02687807,-0.116980694,48.416073,-100.186935,7.9677157
4394005566000.0,0.6994573550046387,9.869804062570868,1.075463258602206,0.112704635,-0.049785517,-0.083383106,48.585648,-99.999245,7.8318543
4394010601000.0,0.7193395065354088,9.785304710957632,0.966111347330172,0.081855945,-0.065973446,-0.05681047,48.764194,-99.81149,7.7016897
4394015590000.0,0.662144615741487,9.71634285079589,0.8399947702045134,0.03940081,-0.062308256,-0.036651913,48.928654,-99.658455,7.6087008
4394020597000.0,0.5462040905097724,9.658372928672174,0.699899934203103,-0.0033597588,-0.059253927,-0.014660766,49.09759,-99.50866,7.524696
4394027155000.0,0.4018545055809579,9.637369334973233,0.6044307575170019,-0.018325957,-0.028405234,0.0012217305,49.24731,-99.37995,7.4567327
4394030681000.0,0.326119992394733,9.639812433077704,0.5751141925047026,-0.033292156,-0.015271631,-0.0015271631,49.400196,-99.24667,7.3900566
4394035567000.0,0.2211742092331066,9.643197849225873,0.5344900471132976,-0.03023783,0.01282817,-0.020463986,49.548775,-99.12348,7.315813
4394040591000.0,0.1670528188985507,9.65519820772947,0.5380777657971014,-0.018325957,0.050396383,-0.015577064,49.689922,-99.005775,7.249013
4394045479000.0,0.1263472267362319,9.668766540096618,0.5516462870724638,-0.029932396,0.06872234,-0.02321288,49.826355,-98.8792,7.1744604
4394050628000.0,0.149449740578465,9.656461819014892,0.6383221559641085,-0.016187929,0.06047566,-0.025961773,49.96721,-98.75094,7.086017
4394055589000.0,0.194801529969454,9.635297537609777,0.7471664643935344,-0.0143553335,0.056505036,-0.016493361,50.100338,-98.62199,7.001096
4394060563000.0,0.2402721609774722,9.614077796487209,0.8562959927402316,-0.01985312,0.033292156,-0.008857546,50.241787,-98.48556,6.9060655
4394065594000.0,0.2659337558313599,9.632523637770635,1.005712967193843,-0.033292156,-0.0018325958,0.0030543262,50.386734,-98.35358,6.8163886
4394071776000.0,0.2809550276733762,9.687601681579835,1.2210178165409336,-0.040927973,-0.02443461,0.017715093,50.533478,-98.226234,6.731106
4394075548000.0,0.2873042,9.722009857728764,1.3474293633886256,-0.047036625,-0.04062254,0.027183503,50.69724,-98.0919,6.6524105
4394080498000.0,0.2873042,9.769536083576376,1.4986489309241706,-0.05955936,-0.043066,0.02565634,50.861973,-97.9582,6.5755224
4394085675000.0,0.2920930272511722,9.813034439794745,1.6541278952578962,-0.06566802,-0.035124753,0.022907447,51.03565,-97.80196,6.4909735
4394090553000.0,0.3664876111085552,9.763437915332212,1.761586743882155,-0.06658431,-0.033292156,0.018020526,51.210438,-97.646706,6.4063025
4394095516000.0,0.442178533553039,9.71297716278864,1.8709180816685835,-0.0729984,-0.02076942,0.012217305,51.385216,-97.46781,6.3102446
4394100615000.0,0.6613889104363931,9.636350174466932,1.9303945235543911,-0.10170906,-0.046731193,0.017715093,51.56972,-97.291115,6.216742
4394105844000.0,0.928334165182508,9.550384904228409,1.975639499602457,-0.13316862,-0.10415252,0.049785517,51.75916,-97.12257,6.1303678
4394110653000.0,1.1189063384006734,9.47460675429293,2.02729634513468,-0.14966199,-0.18142697,0.076052725,51.95009,-96.949524,6.0479655
4394115588000.0,1.278036078047138,9.39902025050505,2.0869700494276096,-0.1872302,-0.2415972,0.11789699,52.15257,-96.78658,5.9796453
4394120579000.0,1.3537918417039196,9.309387646042545,2.1206283587733505,-0.22296582,-0.24831672,0.15668693,52.336475,-96.66494,5.9537706
4394125666000.0,1.0697265110398444,9.162094250404923,2.0417212492387438,-0.28038713,-0.21991149,0.19547687,52.527164,-96.55299,5.9393964
4394130655000.0,0.8077415368593239,9.05570096183206,1.9056905367502728,-0.33108896,-0.14782938,0.21227567,52.69364,-96.468346,5.952857
4394135593000.0,0.5780177875503123,9.018194778625954,1.6665902954892435,-0.38056904,-0.03848451,0.23701571,52.841015,-96.39868,5.979546
4394140710000.0,0.3764976464240706,8.975460358853182,1.4533965371455575,-0.43127087,0.07727446,0.23732115,52.97863,-96.30335,5.971317
4394145604000.0,0.2509823370522999,8.927469400126023,1.31311474536862,-0.46822822,0.20158553,0.2321288,53.082363,-96.22013,5.9686723
4394150742000.0,0.1192092149533711,8.877085757718968,1.1658389288279771,-0.49480084,0.29168814,0.20586158,53.169586,-96.12348,5.9336677
4394155419000.0,0.0282539699914654,8.79685825010408,1.0608735521596586,-0.49693888,0.36193767,0.18142697,53.22759,-96.033844,5.897945
4394160416000.0,-0.0614000102797668,8.702223661948377,0.9562772354288094,-0.50518554,0.42088616,0.15210545,53.26403,-95.94299,5.85345
4394165440000.0,-0.0805021512738407,8.55787023272091,0.9696286290026248,-0.5012149,0.49266282,0.11728613,53.28643,-95.838776,5.780508
4394170395000.0,-0.0851150679385632,8.405644270827258,1.0065319632837562,-0.50854534,0.5540548,0.090713486,53.29653,-95.735855,5.702717
4394175399000.0,0.034036583870246,8.260206973154363,1.2281165350484713,-0.5448918,0.5665775,0.06078109,53.30853,-95.62125,5.604993
4394180383000.0,0.1897578868456376,8.11783265771812,1.503965696868009,-0.5873469,0.5653558,0.055588737,53.309006,-95.51436,5.5092325
4394185406000.0,0.409324533039051,7.963073447008187,1.8478230740604664,-0.6072,0.5320636,0.038789943,53.316845,-95.40348,5.4033103
4394190408000.0,0.6657871074942263,7.8021559669745955,2.2300027061200924,-0.65148777,0.45937067,0.042455133,53.338886,-84.69342,5.303975
4394195398000.0,0.8651234006756756,7.658975550152265,2.4579010426437,-0.72204274,0.37751472,0.05131268,53.361134,-84.75923,5.2219515
4394200610000.0,1.0503783060810812,7.516471593623906,2.633655604920061,-0.79779,0.32467487,0.073303826,53.398464,-84.8032,5.1454887
4394205442000.0,1.1753588602417042,7.387045843947153,2.651185482435477,-0.89858276,0.31031954,0.09254608,53.442204,-84.784584,5.097672
4394210615000.0,1.2819092032363786,7.2500528409873,2.585225652949611,-1.0091494,0.3323107,0.1151481,53.492752,-84.72753,5.056658
4394215481000.0,1.3868134358283146,7.152126177124558,2.4138861763884907,-1.1362094,0.3662137,0.1441642,53.537918,-84.593025,5.045732
4394220448000.0,1.495945657202944,7.065729672975815,2.191074751629863,-1.2782356,0.38728857,0.16737708,53.58255,-84.40956,5.038433
4394225417000.0,1.592160796059832,6.996684408819774,1.941406774662532,-1.3729197,0.4089743,0.18600847,53.602623,-84.16899,5.054294
4394230440000.0,1.6799102787303903,6.939647290897483,1.6693831035023714,-1.4333953,0.39187005,0.20189096,53.63007,-83.88316,5.074589
4394235441000.0,1.7762121994730486,6.864106122000219,1.3975524333406522,-1.4630222,0.37751472,0.2098322,53.624664,-83.56435,5.1237397
4394240426000.0,1.886273491052805,6.759285948545394,1.125019818179822,-1.4773777,0.3286455,0.21838433,53.636402,-83.22162,5.1763687
4394245421000.0,1.9738966702439025,6.687087143512195,0.9031722833463416,-1.4816537,0.27183503,0.22388211,53.61994,-82.881096,5.252625
4394250561000.0,2.0459328926829268,6.639062794634146,0.7158779696097561,-1.4605788,0.23273966,0.226631,53.61465,-82.53925,5.328739
4394255531000.0,2.135839903321714,6.683110768525733,0.6058542781751077,-1.4416419,0.20738874,0.23335053,53.593903,-82.20645,5.4309764
4394260468000.0,2.242480773621079,6.804293720627435,0.5573811631340989,-1.3973542,0.18997909,0.24862215,53.58376,-81.88431,5.534382
4394265545000.0,2.339502969511227,7.205439957237745,1.1015132614396073,-1.357648,0.18112154,0.26847526,53.55832,-81.578766,5.656603
4394270610000.0,2.4270536026424088,7.807788180073642,2.078577797682477,-1.3390167,0.16401732,0.29901853,53.54105,-81.27887,5.7838287
4394275473000.0,2.5111125816980726,8.386113828178472,3.016675495559887,-1.3500122,0.15943582,0.3576616,53.512497,-80.975494,5.9384274
4394280553000.0,2.314882608366376,8.671040326526567,3.448783997729976,-1.4004086,0.17592919,0.43188173,53.482468,-80.66568,6.102236
4394285461000.0,2.058621371728787,8.871389673869945,3.737660324732355,-1.4563028,0.25411993,0.4709771,53.436424,-80.354935,6.266549
4394290523000.0,1.5022625505920988,8.738229845954821,3.2837897831923577,-1.6334536,0.37965274,0.5357288,53.446407,-79.82281,6.428331
4394295438000.0,0.8839681205493084,8.51808000666733,2.642075028440641,-1.8671097,0.56107974,0.59040123,53.417156,-79.26671,6.587966
4394300626000.0,0.1835205405942318,8.200700241596236,2.053568737169992,-2.0983222,0.8032878,0.61178154,53.36947,-78.65753,6.6943183
4394305619000.0,-0.5039242871743487,7.871559697795591,1.5119455685370742,-2.3063216,1.0415252,0.5739079,53.27289,-78.00709,6.7851276
4394310568000.0,-1.0801425316945996,7.63833635009311,1.3625673861824954,-2.4672847,1.176221,0.48930305,53.14802,-77.48178,6.768447
4394315585000.0,-1.558821461964618,7.495179945437616,1.599670012057728,-2.5870142,1.1520919,0.3744604,53.010796,-76.93234,6.725277
4394320526000.0,-1.859546221941748,7.3743197355533985,1.9555913473592232,-2.665205,0.9779953,0.267559,52.86781,-76.46801,6.580813
4394326696000.0,-1.830862311262136,7.271057717009709,2.689899999883495,-2.7663033,0.7556403,0.16920967,52.758453,-75.98255,6.412654
4394330580000.0,-1.7745358651091254,7.242777690361799,3.0490451365607147,-2.9095511,0.54092115,0.089186326,52.69148,-75.38863,6.185209
4394335570000.0,-1.6205381938040135,7.284777051940823,3.290541438230555,-3.162144,0.3930918,0.03359759,52.675587,-74.74462,5.9488616
4394340561000.0,-1.466509661242127,7.326784830225575,3.5320861359528344,-3.4733799,0.2742785,-0.013133603,52.78201,-73.96685,5.6900773
4394345569000.0,-1.2568042940465305,7.546647308544143,3.7941932166819057,-3.8069122,0.13927728,-0.040011674,52.940144,-73.11638,5.436869
4394350614000.0,-1.001559051457889,7.909880645433303,4.073981546256222,-4.1218133,-0.013744468,-0.03940081,53.140434,-72.18913,5.1931973
4394355569000.0,-0.5240512048312298,8.405369292045787,4.251447598180217,-4.389983,-0.1685988,-0.048563786,53.433956,-71.16524,4.96615
4394360595000.0,0.1164039648429702,9.003441655806672,4.364468918794638,-4.5970664,-0.3387248,-0.070249505,53.778194,-70.08233,4.755285
4394365602000.0,0.8358509555434881,9.742305564756991,4.491571038465019,-4.7418413,-0.64599,-0.08735373,54.25859,-68.976974,4.5845737
4394370634000.0,1.6252870554475518,10.601526054575077,4.631139927595257,-4.76536,-0.9388999,-0.07849618,54.781082,-67.865555,4.436075
4394375546000.0,2.3242748039921466,11.55804014790576,4.289112278141361,-4.7696357,-1.2055426,-0.13103059,55.26968,-66.67418,4.403775
4394380585000.0,2.89726530749813,12.776208975691848,2.9761969650336573,-4.735733,-1.2651019,-0.21930063,55.78158,-65.51523,4.374806
4394385613000.0,3.333779873524194,13.76625136086132,1.9158089662935092,-4.6883907,-1.2000448,-0.26450464,56.223675,-64.356636,4.479701
4394390558000.0,3.246869691074815,13.879234340918822,1.826001843304582,-4.4834456,-0.9682214,-0.36041048,56.651073,-63.28707,4.5330286
4394396356000.0,3.1449677218449867,14.011706599437206,1.7207032186150364,-4.235434,-0.840856,-0.49541172,56.978226,-62.613316,4.627143
4394400990000.0,3.068947847168774,14.119582521715229,1.6387921726772952,-3.9327505,-0.79504114,-0.6740898,57.283905,-62.030014,4.6602893
4394405741000.0,3.4149669121495325,14.386392482866045,1.7305080641744548,-3.61113,-0.56505036,-0.8151997,57.522343,-61.533844,4.6236253
4394410481000.0,3.7601848384826826,14.652584698369068,1.822011605680777,-3.2779028,-0.27000242,-0.8231409,57.73437,-61.18818,4.5312123
4394415631000.0,3.845811168177544,14.490393086985142,2.274637479349257,-2.9862146,0.03573562,-0.7846564,57.89515,-60.921654,4.383961
4394420613000.0,3.827864349445176,14.176323290671432,2.835475939533572,-2.7464502,0.20280726,-0.77824235,58.020294,-60.73005,4.209291
4394425508000.0,3.751097123027847,13.998710247262697,3.3106093215363392,-2.5604417,0.22571471,-0.84940815,58.078304,-60.56969,4.06412
4394430499000.0,3.635712982774377,13.899809789205966,3.747420359255108,-2.400395,0.14844026,-0.90469146,58.11812,-60.46253,3.9192948
4394435558000.0,3.568232620158218,13.877391608457856,4.391633215255395,-2.2913556,-0.06414085,-0.9437868,58.198612,-60.238976,3.796772
4394440534000.0,3.6194287057134487,14.040287935052252,5.503983291630042,-2.1786509,-0.29779682,-0.9434814,58.308258,-60.062523,3.6875277
4394445563000.0,3.667591319064219,14.1280176549694,6.409555293237276,-2.0494528,-0.4166101,-0.9114109,58.457302,-59.82098,3.5890117
4394450577000.0,3.704788681524518,13.982948019056472,6.651338226911457,-1.9339994,-0.44440445,-0.8588765,58.63854,-59.609287,3.5169687
4394455550000.0,3.741681877279418,13.839064632659383,6.891144076365326,-1.8206838,-0.32925636,-0.79504114,58.849033,-59.268097,3.4658487
4394460547000.0,3.733797527523741,13.595111406272444,7.142017294070705,-1.6948457,-0.14538592,-0.72387534,59.038982,-58.968044,3.4224892
4394466652000.0,3.696471622807438,13.235848891309551,7.454622135823159,-1.5564847,0.03176499,-0.6609562,59.19286,-58.707752,3.3761933
4394470585000.0,3.6965297295818975,13.009761338828111,7.626648780623407,-1.4107933,0.19975294,-0.62980205,59.308456,-58.41515,3.3278136
4394475588000.0,3.8114112201708377,12.747688259403567,7.705629678885059,-1.2479976,0.2837469,-0.61666846,59.394424,-58.17209,3.2764072
4394480558000.0,3.9255349475798,12.48734382511614,7.784089615794995,-1.0647382,0.37568212,-0.6239988,59.45003,-57.897167,3.202909
4394485582000.0,4.138191366621998,11.891361597876507,7.682252504174827,-0.98471475,0.42730024,-0.64476824,59.495644,-57.646027,3.1235187
4394490570000.0,4.44841231658592,10.960698542315225,7.39665230370065,-0.83016586,0.46670106,-0.6826419,59.526302,-57.47417,3.027507
4394495599000.0,4.534951103752932,10.25358176954652,7.098693902892885,-0.65668017,0.47342056,-0.70005155,59.56118,-57.27538,2.9566507
4394500719000.0,4.439108226505082,9.721653450547302,6.787204351681001,-0.46731192,0.45173484,-0.71685034,59.599197,-57.131237,2.8767283
4394505575000.0,4.272696738901003,9.258262279546448,6.408675512952464,-0.27183503,0.40958515,-0.7305948,59.640392,-56.989155,2.8346941
4394510644000.0,4.027114543148714,8.813673619712167,5.934447638604448,-0.07819075,0.35979962,-0.7507534,59.691013,-56.904774,2.7936175
4394515629000.0,3.76731611641259,8.381169490557452,5.47611676237391,0.1151481,0.3231477,-0.75716746,59.73542,-56.860718,2.7589474
4394520572000.0,3.447779039908988,7.968284468259386,5.0488706474175205,0.27397305,0.2932153,-0.7669413,59.79139,-56.86417,2.7277029
4394525524000.0,3.127660164156238,7.554647682821388,4.620846621266591,0.4266894,0.26847526,-0.7657196,59.82458,-56.93338,2.6880605
4394530495000.0,2.762233687973724,7.0777004262758965,4.153938691409803,0.5702427,0.2556471,-0.7593055,59.859554,-57.0447,2.6531634
4394535617000.0,2.350778484557857,6.537355722142497,3.643337614684184,0.7076874,0.2415972,-0.73792523,59.894512,-57.196003,2.6291435
4394540571000.0,1.9736247043933663,6.058022655222578,3.261522625283677,0.8191703,0.22052236,-0.70066243,59.904552,-57.39032,2.585332
4394545496000.0,1.6122537010959168,5.609739564106294,2.955043424187761,0.92179567,0.20677789,-0.6743952,59.910656,-57.617813,2.5488012
4394550677000.0,1.2448258799511718,5.071629783789063,2.645948191894531,1.0042624,0.17470746,-0.6133087,59.889553,-57.858994,2.519936
4394555600000.0,0.9060911075174386,4.505975641503906,2.3631211207519534,1.1007792,0.14996742,-0.57604593,59.865658,-58.129215,2.49662
4394560482000.0,0.5701774046895925,3.9450324112304687,2.0826495056152345,1.2073752,0.15302174,-0.5369505,59.805008,-58.388634,2.4714663
4394566537000.0,0.3991228061022425,3.5601933061193463,1.958866498289624,1.3148874,0.13103059,-0.4801401,59.74535,-58.670082,2.470847
4394570742000.0,0.3493778279142911,3.380346047472444,1.9359072941847209,1.4318681,0.129198,-0.42730024,59.67167,-58.9789,2.478863
4394575653000.0,0.32561144,3.251045929029512,1.948597570261067,1.5418239,0.13988814,-0.37140608,59.60728,-59.30509,2.4386888
4394580499000.0,0.32561144,3.178613974404086,1.9881059466515325,1.5986344,0.16340645,-0.3387248,59.533607,-59.642082,2.40839
4394585586000.0,0.32561144,3.102579852823496,2.029579143246311,1.6963727,0.20738874,-0.27947086,59.432686,-59.9858,2.3929486
4394590822000.0,0.3985782176560788,3.076782643483023,2.0572329010405257,1.7837266,0.22815818,-0.22815818,59.326553,-60.335384,2.3875499
4394595508000.0,0.4845964113910186,3.068590269989047,2.0777134926067906,1.8680259,0.2501493,-0.16249016,59.19721,-60.703217,2.3979514
4394600524000.0,0.7314368982730597,2.986928462190167,2.07539063051605,1.9135354,0.26450464,-0.106901415,59.045254,-61.040253,2.4243083
4394605627000.0,1.1153574711093053,2.841303474522552,2.0522229552214544,1.9688187,0.26267207,-0.049785517,58.882023,-61.39593,2.469923
4394610533000.0,1.4844568891642964,2.701300301977516,2.0299496620614925,2.0011945,0.2302962,0.026267206,58.70418,-61.75609,2.5355384
4394616619000.0,1.7791759869446218,2.537042180978013,2.034860397609707,2.0329595,0.20372356,0.129198,58.51352,-62.122692,2.624909
4394620638000.0,1.919634665322507,2.4316982180275524,2.0489062544475867,2.0589213,0.17470746,0.16493362,58.329727,-62.489803,2.723703
4394626679000.0,2.1145928378174665,2.2965977896935934,2.0318357189251186,2.0720549,0.129198,0.21594086,58.18726,-62.95559,2.8744256
4394630552000.0,2.2300653523513025,2.223667797214485,1.9984095014582992,2.071444,0.10995574,0.2669481,58.03788,-63.415497,3.0380535
4394635986000.0,2.385908980604219,2.1269071885591706,1.9521706177869147,2.0830505,0.10629055,0.33292156,57.89352,-63.882053,3.2377794
4394640591000.0,2.409559903333929,2.142674497819092,1.9245777854218808,2.115121,0.10323623,0.408058,57.74336,-64.34303,3.4586654
4394645524000.0,2.4348954086163745,2.1595648640686447,1.8950196003932789,2.1481075,0.08246681,0.47616947,57.582336,-64.80957,3.7198422
4394650622000.0,2.3758955777871225,2.253715052892253,1.8171312734043548,2.172237,0.05589417,0.5439755,57.411476,-65.268875,4.004796
4394655661000.0,2.28570303429586,2.375474970124288,1.722429105092982,2.2021692,0.00030543262,0.5888741,57.245224,-65.72548,4.310451
4394660746000.0,2.13953553616024,2.6264578975061905,1.6458701496285817,2.2589796,-0.06688975,0.6224717,57.07397,-66.1931,4.6364245
4394666352000.0,1.9401299476034664,2.9920348346480368,1.5746539211177928,2.3273966,-0.16737708,0.64721173,56.919003,-66.65661,4.9841943
4394670581000.0,1.7884994588428926,3.371305423790524,1.5355686837705735,2.4120014,-0.2959642,0.66675943,56.770008,-67.141075,5.3407097
4394675565000.0,1.6075746906832915,4.009303162244389,1.5165238876009977,2.514016,-0.36926803,0.68661255,56.627197,-67.631165,5.7096267
4394680475000.0,1.485856639248601,4.732514737839728,1.5224299253896882,2.5680776,-0.49754974,0.70371675,56.49481,-68.12331,6.0656695
4394685565000.0,1.4907273338928857,5.701783734942047,1.5857490066247002,2.6743681,-0.58276546,0.7538077,56.361923,-68.63391,6.4375286
4394690510000.0,1.484883180098453,6.904440103375527,1.7879331967651195,2.7644706,-0.6609562,0.8038987,56.1641,-69.1033,6.7868285
4394695546000.0,1.4552065934247538,8.71471609599156,2.3093943517580877,2.8136454,-0.713796,0.8677341,55.975235,-69.5634,7.1556807
4394700682000.0,1.4136158380595714,10.49004871799338,2.8451389218428846,2.8276951,-0.7641924,0.94134337,55.808414,-70.0763,7.518268
4394705577000.0,1.2217251874760495,11.22903129028044,3.408562374551472,2.8166997,-0.81336707,0.9990701,55.650845,-70.56085,7.893394
4394710678000.0,1.0217590570109738,11.99911302699878,3.9956968040236895,2.7843237,-0.890947,1.0238101,55.585815,-71.07231,8.213577
4394715599000.0,0.7775262860306484,12.50317495486825,4.462035589562698,2.713769,-0.9798279,1.0390818,55.5339,-71.53237,8.542954
4394720813000.0,0.502243641040927,12.960424046439918,4.923950533928237,2.6184738,-1.02717,1.0192287,55.49277,-71.94797,8.86319
4394725563000.0,0.1652512213982283,13.08571590484808,5.269624319154205,2.521041,-1.006095,0.9569204,55.505703,-72.293625,9.070672
4394730488000.0,-0.2345729253300315,13.045284370892466,5.584092816630155,2.4022276,-0.90285885,0.80909103,55.513454,-72.60832,9.242335
4394735571000.0,-0.6869738737211222,12.747839719265675,5.927142516914191,2.3005185,-0.7470882,0.589485,55.56024,-72.90814,9.274177
4394740625000.0,-1.176177200660066,12.198733773927392,6.286557184818482,2.1801782,-0.54428095,0.3231477,55.57335,-73.196655,9.246583
4394745520000.0,-1.4628580577510113,11.478079033560132,6.499694860858772,2.0131063,-0.3286455,0.080634214,55.62339,-73.48543,9.061138
4394750584000.0,-1.6144667958900332,10.586263282916514,6.615631080719014,1.8322903,-0.03176499,-0.11942416,55.603672,-73.7692,8.809899
4394755514000.0,-1.6261530417943106,9.68861834016312,6.670003126974339,1.6288722,0.31612277,-0.26816985,55.595882,-74.02103,8.408411
4394760497000.0,-1.422053941356674,8.73457357648697,6.632031021503879,1.4523321,0.7058548,-0.3555236,55.500237,-74.24297,7.9679847
4394765577000.0,-1.228846323252343,8.01386761836168,6.510361937764665,1.3048081,1.0054842,-0.4361578,55.38178,-74.41171,7.4537673
4394770641000.0,-1.060512556351961,7.706658502776813,6.253652995314127,1.1994339,1.1972959,-0.52687126,55.197655,-74.541176,6.9159594
4394775575000.0,-0.8873004900871098,7.425603025741411,5.967195941284134,1.1566733,1.2916746,-0.5534439,54.967514,-74.61686,6.4070063
4394780535000.0,-0.6083479831672702,7.351215744934912,5.2651654932074,1.1533136,1.4792101,-0.62125,54.68129,-74.67332,5.860708
4394785691000.0,-0.3023774021208162,7.279524456689114,4.517848119107447,1.1600331,1.6270396,-0.6930266,54.394444,-74.74826,5.3572407
4394790990000.0,0.2791096544738165,7.299927497477133,3.456889412252488,1.1722504,1.7666223,-0.7706065,54.076683,-74.81476,4.8378763
4394795852000.0,0.8389248523570514,7.324867946658793,2.495193294446413,1.2021828,1.8509218,-0.79412484,53.70961,-74.98303,4.3932223
4394800688000.0,1.618336180730243,7.402353221887609,1.638296628972542,1.2464706,1.8341229,-0.8381071,53.349697,-75.15391,3.936349
4394805783000.0,2.4516010011492138,7.496557311896662,0.7682268534531581,1.3026701,1.7284433,-0.8762862,52.926586,-75.48574,3.6155076
4394810581000.0,3.431677040700561,7.788045406132205,0.4767386798170451,1.3616186,1.50731,-0.86406887,52.545326,-75.82137,3.3226283
4394815594000.0,4.455670618497747,8.092595180288681,0.1721888227020318,1.4001031,1.1484267,-0.80664754,52.140392,-76.31999,3.222341
4394820573000.0,5.784033606702228,8.776126823668587,0.8501869667220167,1.4110987,0.64904433,-0.7086037,51.83335,-76.813896,3.1733465
4394825561000.0,7.173172466652327,9.532344401746537,1.7132613877733802,1.4071281,0.090713486,-0.6068946,51.545967,-77.39004,3.3398588
4394830482000.0,8.028116461461886,10.305228382523737,2.573465153654715,1.3897184,-0.37293324,-0.5363397,51.36717,-77.93859,3.550707
4394835587000.0,8.388625924269517,11.134400561065537,3.474738810673795,1.3365731,-0.77824235,-0.4700608,51.320927,-78.44205,3.815013
4394840569000.0,8.671586147857036,11.920751476197536,4.349889661723269,1.2302825,-1.1979067,-0.33658674,51.35041,-78.79298,4.2964354
4394845495000.0,8.82200447634584,12.655351910277323,5.206923805872757,1.058324,-1.6050484,-0.15088372,51.487408,-79.05268,4.817915
4394850574000.0,8.977094750481982,13.412768801201246,6.090577159127984,0.8332202,-1.9917262,0.0729984,51.7642,-79.113365,5.3868427
4394855587000.0,8.89695488779104,14.06237785756212,6.409486392486793,0.56199604,-2.2088888,0.3100141,52.100643,-79.05067,6.002961
4394860929000.0,8.676742670123264,14.697990151438074,6.429505566229701,0.23976462,-2.03693,0.51251596,52.428272,-78.85557,6.651287
4394865587000.0,7.946450853079693,14.84960858830398,5.484702465155201,-0.1151481,-1.3261884,0.6817256,52.711765,-78.44801,7.2734137
4394870632000.0,6.841651423187701,14.77908953215919,3.900373306208037,-0.44776422,-0.5467244,0.90316427,52.913067,-77.922905,7.9339705
4394875535000.0,5.535574337063184,14.148390427462054,2.190923586789622,-0.77579886,-0.26816985,1.0073168,53.071564,-77.35291,8.531528
4394880509000.0,4.018079800105895,13.04284738122132,0.3161241827479704,-0.9431759,0.049480084,1.0897835,52.98725,-76.72069,9.127164
4394885594000.0,2.367425724787374,11.758099575186325,-1.7201075200350724,-1.1936307,0.11148291,1.0247264,52.886982,-76.23651,9.586703
4394890588000.0,0.4960878598421745,10.10691918982902,-4.021276600438404,-1.3035865,0.048563786,0.8732319,52.73612,-75.76062,10.018143
4394895508000.0,-1.1462800785347431,8.71799716389728,-5.82424664652568,-1.2183707,0.006414085,0.64599,52.564472,-75.63514,10.189552
4394900613000.0,-2.5956129346808914,7.577916966106495,-7.1074138444108765,-0.93554014,0.04062254,0.28985557,52.40663,-75.589226,10.274414
4394905551000.0,-3.760669262264531,6.701071360511736,-7.741437375833585,-0.45570546,-0.015882496,-0.034513887,52.307167,-75.72803,10.319244
4394910584000.0,-4.474420707121991,6.2592251676236526,-7.173349580134985,0.029626964,-0.11759156,-0.2959642,52.232857,-75.987305,10.275399
4394915647000.0,-3.7630717383348578,7.0068316852699,-4.973858784080512,0.38881573,0.0125227375,-0.5546656,52.15279,-76.53584,10.016425
4394920605000.0,-0.6063062207227805,9.79072245126563,-0.0178816374961874,0.752586,0.2864958,-0.73548174,52.07366,-77.21793,9.698505
4394925560000.0,2.548549192703569,12.572928733135102,4.935096733081733,1.1594223,0.5534439,-0.74281216,52.01924,-78.00397,9.237039
4394931048000.0,4.358241774765668,14.515550728634445,7.683321055045028,1.5515977,0.8717047,-0.3145956,51.86011,-78.795654,8.832804
4394935582000.0,5.3917008688660175,15.808371955430989,9.203583087943391,1.856114,1.774869,0.41630468,51.4465,-79.56522,8.484286
4394940527000.0,4.421847941497783,16.777197620170995,10.82194450332489,1.9339994,2.6236663,0.7831292,50.981045,-79.67922,8.400352
4394945497000.0,1.720228610829639,17.38760545028499,12.415786755541482,1.2696834,2.7837129,0.23090707,50.46312,-79.7628,8.260128
4394950598000.0,-1.004304554740061,17.92335333936217,13.883055725277414,-0.025961773,2.2489004,-0.35155296,49.905453,-79.48979,8.299348
4394955596000.0,-2.183675125382263,15.64825544211446,10.11910729812145,-1.3778065,1.568702,-0.5864306,49.357098,-79.13548,8.280857
4394960584000.0,-3.3606860110091743,13.377709561467892,6.362689780183486,-2.07572,1.3213016,-0.59406644,49.089146,-78.93321,7.5914235
4394965623000.0,-3.5353668622574954,11.368013394885365,3.087786301719577,-1.9321668,1.2886202,-0.54428095,48.981113,-78.56052,6.909693
4394970586000.0,-3.3593309153439157,9.486105941798945,0.0406887730158729,-1.4908166,1.2205088,-0.5213735,48.97411,-78.02052,6.265943
4394975570000.0,-2.6937665600363965,8.1656645673753,-1.699014559243941,-1.3191634,0.89888823,-0.51068336,48.98459,-77.729935,5.641562
4394980581000.0,-1.471107273066424,7.482880687732649,-1.9530736685747372,-1.1029172,0.28252518,-0.49021935,49.10047,-77.510544,5.0684423
4394985623000.0,-0.2721260332127379,6.872577809308461,-2.2069839208215565,-0.99296147,-0.43463063,-0.45234573,49.14492,-77.50056,4.698786
4394990512000.0,0.424851501861692,7.423984139532693,-2.427546406849444,-0.8915578,-1.0784826,-0.39920044,49.336975,-77.53585,4.372053
4394995504000.0,1.1365127526474466,7.987007334558131,-2.652755637827397,-0.74220127,-1.5253305,-0.3304781,49.610035,-77.610886,4.2781153
4395000658000.0,1.8635512284784452,8.791105914159042,-3.470815115856994,-0.54702985,-1.6578883,-0.22724187,49.968388,-77.71969,4.226722
4395005559000.0,2.5542412390246203,9.57477354881615,-4.298757675323083,-0.3387248,-1.41904,-0.099571034,50.33953,-77.86517,4.203691
4395010582000.0,3.1540703078479893,10.354211952982766,-4.106120026866991,-0.055588737,-0.93554014,0.0036651916,50.645615,-78.12269,4.2842336
4395015657000.0,3.73394743268228,11.13597230870526,-3.659399823596996,0.258396,-0.44073927,0.08399397,50.87035,-78.427864,4.3767376
4395020578000.0,4.253623202468896,11.707069566290825,-2.863858959924184,0.5119051,-0.04520403,0.15454891,50.91076,-78.863335,4.59166
4395025574000.0,4.746590390882582,12.134927822122862,-1.761658659807543,0.65087694,0.3100141,0.22999077,50.819237,-79.316765,4.8033276
4395030572000.0,5.1353878000660576,12.34122301519322,-0.9090818228239568,0.6606508,0.65087694,0.28527406,50.62874,-79.74383,5.04642
4395035611000.0,5.41697430991963,12.314658281514918,-0.3140313390641858,0.58001655,1.0112875,0.32834008,50.324783,-80.133354,5.2884016
4395040589000.0,5.410687334455779,12.318993821927306,-0.1340961632356145,0.5479461,1.3451253,0.39064834,49.947456,-80.368126,5.563011
4395045582000.0,5.2686145532336335,12.337936760522927,-0.1483034512478954,0.61666846,1.5653422,0.4615087,49.49675,-80.56525,5.839733
4395050642000.0,4.766502121941845,12.176680175551471,-0.3610107342438168,0.77366084,1.6016886,0.4886922,49.00122,-80.65015,6.1511335
4395055742000.0,4.0727276617145725,11.919575488051471,-0.6793307413460896,0.95417154,1.5054774,0.46792278,48.483818,-80.723076,6.4620695
4395060675000.0,3.304880388906332,11.559531541496598,-0.9896394584050237,1.1279627,1.3515394,0.3979787,47.97344,-80.81443,6.7425675
4395065580000.0,2.297060485452642,10.920426725170069,-1.304275850210361,1.2626585,1.2244794,0.3203988,47.486897,-80.90595,7.015861
4395070586000.0,1.3324852920491084,10.323083611322224,-1.5294653400760012,1.3414601,1.1942415,0.29046643,47.044945,-81.09995,7.1784687
4395075562000.0,0.4920479684127448,9.830893550716166,-1.5758983582578194,1.3698653,1.210124,0.2415972,46.62911,-81.286446,7.3222623
4395081311000.0,-0.5058087455317428,9.403944136271734,-1.4183083938940555,1.4165965,1.2794572,0.18997909,46.219208,-81.535934,7.362551
4395085586000.0,-1.2797612885463,9.254947507682976,-1.049956640456935,1.4251486,1.382388,0.13133603,45.7985,-81.7566,7.3945546
4395090529000.0,-2.041507861801242,9.172598205516987,-0.5574526962367555,1.3775011,1.4630222,0.070554934,45.39365,-82.0204,7.328054
4395095573000.0,-2.5180319295031053,9.291729763792471,0.095561659408111,1.3060299,1.5204436,0.008246681,44.970108,-82.26828,7.2498937
4395100631000.0,-2.9193292418141965,9.412725950092732,0.7820348680998145,1.2195925,1.4813483,-0.029321533,44.60487,-82.5818,7.0454626
4395105595000.0,-2.8391752885853987,9.540971823301298,1.6517044843533977,1.149343,1.303281,-0.013439035,44.26633,-82.876434,6.844786
4395110557000.0,-2.759053629455404,9.669166026133873,2.521023709947732,1.0546589,1.0506883,0.031154128,44.00411,-83.21135,6.5551276
4395115812000.0,-1.542094062844575,9.123990066348972,3.4782116436950146,0.9633345,0.79504114,0.08124508,43.79654,-83.52734,6.2787185
4395120558000.0,-0.1258992146920823,8.440884438049853,4.35292032052786,0.85062987,0.571159,0.1600467,43.65401,-83.80773,6.029918
4395125513000.0,0.827215615812902,7.93254519544427,4.656842740619023,0.75716746,0.44318274,0.23151793,43.583565,-84.05092,5.780867
4395130534000.0,1.3832341189045383,7.577195030203443,4.489619125743349,0.63529986,0.4709771,0.30024028,43.53549,-84.25698,5.559719
4395135639000.0,1.818545596923077,7.268599891965812,4.359739083760684,0.5137377,0.61911196,0.35063666,43.44608,-84.21373,5.5607195
4395140609000.0,1.9151628748076923,7.100790815470086,4.334313498290598,0.364992,0.7266242,0.45173484,43.36166,-84.12355,5.594023
4395145496000.0,1.872575571100516,6.968423512007395,4.174140370380461,0.17959438,0.75319684,0.52626044,43.21986,-83.934006,5.7269444
4395151566000.0,1.5558150102364503,6.866607752447212,3.715968714060524,-0.004581489,0.7654142,0.59223384,43.05138,-83.70451,5.882629
4395155509000.0,1.3014478330769983,6.840683812748263,3.3974772941493008,-0.15363261,0.7632761,0.61758476,42.873226,-83.439064,6.058147
4395160498000.0,0.8947610317620585,6.8780802750905,2.958068617571666,-0.25534168,0.73853606,0.6374379,42.698235,-83.14149,6.2470922
4395165632000.0,0.4985652116705178,6.920210374942234,2.585700978844673,-0.30024028,0.7049385,0.61911196,42.529327,-82.88581,6.3978024
4395170587000.0,0.165561152419341,6.968942513709885,2.4029548541976893,-0.29932398,0.68111473,0.6093381,42.36615,-82.616875,6.552518
4395175940000.0,-0.1925791554455445,7.021956160891089,2.2115786613861386,-0.2782491,0.6771441,0.5543602,42.21737,-82.44554,6.6257997
4395180490000.0,-0.4580747915841584,7.0758851831683165,2.194985196039604,-0.20922135,0.68233645,0.52656585,42.07586,-82.27918,6.7008743
4395185566000.0,-0.7542628902741813,7.13604863747144,2.1764734531607006,-0.18295415,0.732122,0.48533243,41.94867,-82.21782,6.678838
4395190599000.0,-0.8900392735558018,7.119739296747968,2.195423897058389,-0.16462818,0.80848014,0.441961,41.818165,-82.17264,6.6475077
4395195484000.0,-0.99722802681153,7.092077487804878,2.2196277903325945,-0.17867808,0.88453287,0.408058,41.6794,-82.13383,6.606452
4395200600000.0,-1.0611213579575018,7.018917683364305,2.23534603344914,-0.22143865,0.9560041,0.3817908,41.54495,-82.148384,6.5006285
4395205698000.0,-0.8678349654665912,6.711237504888099,2.1998444791468046,-0.3100141,0.9923506,0.36926803,41.406033,-82.1533,6.3916345
4395210498000.0,-0.6858469929368991,6.421542554577038,2.166418143201099,-0.408058,0.99265605,0.37232238,41.262436,-82.162094,6.2540154
4395215592000.0,-0.4774026432634811,6.1726416435733,2.2821052035769127,-0.50854534,0.915687,0.3817908,41.13863,-82.14973,6.1197686
4395221192000.0,-0.2400369389910576,5.930431653509168,2.490405577526872,-0.6123924,0.77824235,0.38331795,41.03987,-82.11349,5.989355
4395225481000.0,-0.041315843184305,5.779474230518037,2.691339577278167,-0.7125743,0.57818395,0.38453966,40.961124,-82.03048,5.90312
4395230495000.0,0.2090777833279193,5.63991058206531,2.9704669599076765,-0.7672467,0.34574974,0.40225476,40.93667,-81.9294,5.827785
4395235617000.0,0.4561104951511335,5.505710944584383,3.2295066293450883,-0.8020661,0.12217305,0.4260785,40.94521,-81.740486,5.8014817
4395240630000.0,0.6418218063332134,5.427971382583663,3.315884010651313,-0.8213083,-0.01038471,0.46853364,40.996174,-81.53621,5.7877026
4395245521000.0,0.823013512495502,5.3521237468873695,3.400159249424253,-0.85918194,-0.044593163,0.5222898,41.05931,-81.23509,5.8280163
4395250615000.0,0.7536244222544584,5.359359853730814,3.200070753233963,-0.9126327,-0.015577064,0.58246,41.141464,-80.91839,5.8812804
4395255556000.0,0.6570635915943572,5.376153028710851,2.973362759488954,-0.9804387,0.05589417,0.6267477,41.220516,-80.58557,5.941512
4395260542000.0,0.4900621220899243,5.3689223783356255,2.5558227008167123,-1.0677924,0.12797627,0.64873886,41.274033,-80.19696,6.0405493
4395266033000.0,0.2640208349484181,5.34631826519945,1.981677802303989,-1.1212431,0.17989981,0.6591236,41.312115,-79.799065,6.143101
4395270592000.0,0.1010515225816203,5.345325986457074,1.568650849183797,-1.1426234,0.16920967,0.65270954,41.339912,-79.43323,6.22971
4395275552000.0,-0.0281832566203143,5.3788312762595725,1.243170641203144,-1.1542299,0.13897185,0.6249151,41.360195,-79.06501,6.3080516
4395280485000.0,-0.1038041875070306,5.431494996277916,1.0755411361869314,-1.1615603,0.07696902,0.6224717,41.391098,-78.827034,6.3456554
4395285573000.0,-0.0685387250355665,5.527215363523573,1.236754721298594,-1.1655309,-0.013439035,0.6206391,41.44155,-78.597,6.375558
4395290505000.0,-0.0872286239753051,5.786558381647257,1.5213416997614704,-1.187522,-0.08124508,0.6398814,41.505184,-78.4418,6.382376
4395295645000.0,-0.1908306745660165,6.321835616107759,2.022084870239933,-1.2018774,-0.09743301,0.67256266,41.579254,-78.28782,6.3931036
4395300573000.0,-0.2901596444708854,6.83503526813526,2.502174820457415,-1.2730432,-0.07819075,0.70157874,41.663067,-78.083496,6.414938
4395305547000.0,-0.4947718234955089,7.411401746257485,2.9162235729790416,-1.3698653,0.041233405,0.6747007,41.723972,-77.87681,6.423456
4395310545000.0,-0.7858662579154192,8.038374846182634,3.2744936619386227,-1.491122,0.19364429,0.65209866,41.76845,-77.6461,6.435782
4395315545000.0,-1.0683702059960622,8.605218286916054,3.6036749881331662,-1.599856,0.3286455,0.634689,41.82135,-77.324646,6.3912096
4395320580000.0,-1.340234431698586,9.08853232575622,3.8928003780114553,-1.6988163,0.40194935,0.6044512,41.853607,-76.98557,6.3305554
4395325606000.0,-1.5899395132044198,9.51161160165746,4.137518970322284,-1.8216002,0.45356745,0.5714644,41.89217,-76.60351,6.1903853
4395330536000.0,-1.7421013756353592,9.67246851325967,4.189688947578269,-1.9740111,0.47708577,0.5342017,41.925095,-76.19529,6.0403852
4395336676000.0,-1.890649822242461,9.828711523477027,4.196950955960332,-2.1798725,0.43768495,0.47891834,41.993927,-75.71504,5.8308125
4395340568000.0,-1.871790833373811,9.806080658065168,4.042307089698442,-2.4239132,0.38728857,0.37568212,42.069836,-75.19551,5.6022787
4395345745000.0,-1.814945411711544,9.801463623590797,3.858817003987701,-2.6902506,0.31031954,0.24740042,42.179554,-74.60555,5.346606
4395350578000.0,-1.3319595814776857,10.142141266747414,3.98818807905525,-2.9407053,0.160963,0.093462385,42.33738,-73.96917,5.0708585
4395355976000.0,-0.7925104791391038,10.522645698313612,4.132683229730737,-3.1670308,-0.010079277,-0.0580322,42.51781,-73.28462,4.7961383
4395360539000.0,0.2778031216804689,11.407855513259516,4.947885018060854,-3.3860261,-0.24007004,-0.19975294,42.771206,-72.550156,4.505451
4395367184000.0,1.928264153606715,12.773159695287225,6.139697550520241,-3.6212091,-0.48808134,-0.31306845,43.090084,-71.76316,4.2050505
4395370686000.0,3.4560499438139374,14.004772401416457,6.380155275168313,-3.8319576,-0.6059783,-0.35063666,43.40821,-70.91047,3.9799454
4395375559000.0,5.581949474276471,15.718549876278743,6.7147499331380605,-3.922671,-0.7877107,-0.38362336,43.73755,-69.89767,3.923653
4395380542000.0,6.6336681125921375,16.8095907512285,6.273214297665848,-4.0973787,-0.8445212,-0.3555236,44.063316,-68.82527,3.8762228
4395385580000.0,6.27803198939394,17.07631746969697,4.835851957575757,-4.21497,-0.86132,-0.3210097,44.429718,-67.76957,3.8375602
4395390578000.0,5.8049686931872095,17.205011349463895,3.5857529331910047,-4.3209553,-0.8155051,-0.37323865,44.64273,-66.725334,4.078468
4395395603000.0,5.206793246275738,17.19587919034064,2.508123731653857,-4.3655486,-0.7131852,-0.46120325,44.851414,-65.691734,4.301687
4395400606000.0,4.588634056147058,16.949793764117647,1.7339118464705885,-4.256509,-0.59742624,-0.5522222,45.0143,-64.91336,4.4594936
4395406604000.0,3.805850188754902,16.217693173137256,1.356598835882353,-3.987423,-0.6065892,-0.691194,45.205605,-64.19347,4.571855
4395410576000.0,3.283071151101744,15.60035376164016,1.4622475921824103,-3.7012324,-0.5152648,-0.82253003,45.324512,-63.66911,4.572686
4395415601000.0,2.614561865798046,14.604505442996745,2.172250629641694,-3.431841,-0.3885103,-0.8680395,45.44796,-63.225525,4.5494685
4395420553000.0,2.046252870699632,13.757498565491844,2.766850813624408,-3.2195654,-0.3191771,-0.87598073,45.584373,-62.82772,4.4561453
4395425534000.0,1.7357251533206206,13.293275457456602,3.0616953245331406,-3.066849,-0.3539964,-0.9071349,45.72763,-62.496155,4.342408
4395430484000.0,1.4271300517293528,12.831941511507102,3.354704826440032,-2.921463,-0.4016439,-0.89736104,45.92737,-62.066265,4.174754
4395435629000.0,1.1818716856505445,12.413314376405497,3.571680651258254,-2.7550023,-0.27183503,-0.8472701,46.091362,-61.69199,3.9935246
4395440652000.0,1.1990425820988757,12.211555939719792,3.4858260793681954,-2.5668557,-0.022602014,-0.76052725,46.232113,-61.36902,3.8165236
4395445882000.0,1.240834807469819,12.027789878143862,3.447831081589537,-2.3793201,0.15974127,-0.67011917,46.396523,-60.9804,3.613321
4395450590000.0,1.8342916667924207,12.473827684817236,4.608285035043595,-2.211332,0.061086524,-0.659429,46.571056,-60.646053,3.4206917
4395455562000.0,2.461026480843394,12.94487695728538,5.833811172803487,-2.0952678,0.02565634,-0.6554584,46.66895,-60.31887,3.2402563
4395460594000.0,3.140343884999566,13.34469701135871,6.696060422231856,-1.9694295,0.049785517,-0.679893,46.781593,-60.04904,3.0640397
4395465605000.0,3.847722288736669,13.690064099280326,7.295251583629584,-1.815186,0.058643065,-0.6976081,46.90701,-59.825268,2.9007566
4395470515000.0,4.511823029937382,13.886109132293011,7.817798557757678,-1.7458528,0.07666359,-0.7443393,47.068283,-59.47301,2.7917013
4395476483000.0,5.227602029400655,13.675919980518836,8.249538424252062,-1.5968018,0.060170226,-0.82436264,47.243027,-59.196297,2.6744032
4395480474000.0,5.575013549412577,13.435723078476542,8.430929605851187,-1.3817772,0.044898596,-0.8542951,47.388817,-58.88205,2.6400762
4395485616000.0,5.658202367657221,12.849620758734549,8.366646906473163,-1.3054191,0.008552114,-0.91690874,47.559826,-58.581863,2.583043
4395490540000.0,5.737864316516932,12.2883668064962,8.305089533517622,-1.1221595,-0.017715093,-0.9596693,47.72438,-58.306023,2.5871885
4395495584000.0,5.5572566291079815,11.552947244131456,8.045813752676056,-0.9129381,-0.034208454,-0.9896017,47.901062,-58.068428,2.581997
4395500605000.0,5.245718901408451,10.74024064084507,7.689126155774648,-0.6942484,-0.03634648,-1.0140363,48.083817,-57.892895,2.568586
4395505578000.0,4.858179474926254,9.90455228318584,7.164329078859391,-0.48624873,0.0012217305,-1.028697,48.268463,-57.718445,2.566289
4395510553000.0,4.403752115044248,9.042545480088496,6.494400079351032,-0.30176744,0.015882496,-1.035722,48.45817,-57.60447,2.5638497
4395515600000.0,3.885363454545454,8.239082674135723,5.7606394916773365,-0.15668693,0.042760566,-1.0161743,48.630013,-57.506012,2.533624
4395520583000.0,3.317980954545454,7.514578673632705,4.983761809584782,-0.022602014,0.084910266,-0.98746365,48.79047,-57.458958,2.5012584
4395525555000.0,2.745415321184767,6.831885616361072,4.23139240606488,0.081855945,0.11911872,-0.9599747,48.93343,-57.439228,2.4418054
4395530494000.0,2.162784316934649,6.24035967512929,3.5331248525622945,0.18448131,0.15668693,-0.9245446,49.055984,-57.45649,2.3873243
4395535592000.0,1.571398846550789,5.629678705278264,2.813232440009568,0.26267207,0.19181168,-0.89552844,49.15683,-57.50939,2.2957816
4395540539000.0,1.0387819335608357,5.03662309972891,2.118186276494977,0.3491095,0.21227567,-0.86834496,49.24317,-57.59168,2.2126672
4395545619000.0,0.4918456250932865,4.42762320561314,1.4044538102216553,0.45356745,0.23793201,-0.8390234,49.296913,-57.708557,2.0906165
4395550631000.0,0.3811887805138301,4.088870498749877,1.1057926867703514,0.5687156,0.29138273,-0.8045095,49.331272,-57.849163,1.9738423
4395555610000.0,0.4609810464937494,3.868268206614824,0.9884510759080618,0.689056,0.31764993,-0.77640975,49.35961,-58.016907,1.8677896
4395560513000.0,0.5711339666744446,3.766744677655404,0.9709222847535934,0.8164214,0.33536503,-0.7458665,49.35237,-58.26856,1.6880692
4395565619000.0,0.7034912421177898,3.72566830401344,1.007434640708419,0.88147855,0.37995818,-0.7324274,49.329628,-58.53185,1.5080289
4395570585000.0,0.833925723385438,3.7539221134718224,1.08245786842863,1.0241156,0.4266894,-0.70157874,49.28921,-58.839645,1.3567781
4395575593000.0,0.9670949531674208,3.847633824208145,1.1958983386877828,1.1630874,0.473726,-0.6835582,49.236393,-59.16012,1.2045294
4395580534000.0,1.0533175124290468,3.9297824149540026,1.3333824360735955,1.294118,0.4972443,-0.65270954,49.161526,-59.48504,1.0950774
4395585604000.0,1.1055878826580543,4.005811972205911,1.4949453444705425,1.3857478,0.50610185,-0.6227771,49.07441,-59.832233,0.99172974
4395590612000.0,1.127950705971024,4.009724989565362,1.6318586709572065,1.4795157,0.50640726,-0.6001751,48.96929,-60.169876,0.93825376
4395595543000.0,1.1239959952432794,3.950404328649192,1.7465453646512017,1.5549575,0.49541172,-0.5684101,48.85674,-60.521885,0.90136427
4395600562000.0,1.1163469949752125,3.872923948239644,1.860224494849172,1.5876387,0.4605924,-0.5348125,48.736065,-60.846645,0.8904961
4395605584000.0,1.084017147332157,3.678944693588774,1.953172849021091,1.6377298,0.4089743,-0.49296826,48.614307,-61.19149,0.8991714
4395610544000.0,1.0520864336106208,3.487360244550878,2.0449736926476767,1.6829338,0.3359759,-0.45142943,48.503674,-61.50988,0.91925997
4395615868000.0,1.0061168898324893,3.2341961667315933,2.1554268567978188,1.7424932,0.26389378,-0.40561453,48.39687,-61.840496,0.96223456
4395620573000.0,0.9622340357469809,2.99722894253993,2.2563573089306583,1.8277088,0.18478674,-0.3378085,48.29851,-62.18487,1.0358425
4395625495000.0,0.8824415761022686,2.798555423435785,2.324672553759605,1.9077321,0.099265605,-0.27152961,48.22274,-62.510883,1.1100999
4395630585000.0,0.7843432567188071,2.6157358652579585,2.3781808295554336,2.0189097,0.03359759,-0.19150625,48.14727,-62.862984,1.215344
4395635578000.0,0.6583134577806479,2.341072119857927,2.4591490443224626,2.1233675,-0.057421334,-0.12767084,48.117363,-63.23547,1.3031569
4395640506000.0,0.5059256685480573,1.9804209668711656,2.5658204867075662,2.2177463,-0.12858713,-0.058643065,48.083622,-63.627625,1.4206489
4395645549000.0,0.3299292332606578,1.6942459009937394,2.524771062536023,2.3112087,-0.15882497,0.01160644,48.071484,-64.04531,1.5149946
4395650633000.0,0.1412329200355758,1.4523275779091722,2.3989735628242075,2.3909266,-0.15302174,0.09712757,48.053116,-64.4752,1.6370007
4395655603000.0,-0.0642474918293204,1.395355983880264,1.907436119196802,2.4898868,-0.12522738,0.172264,48.06203,-64.908295,1.7282795
4395660558000.0,-0.2804044882939481,1.4350582610951008,1.2192627613832854,2.6120598,-0.102319926,0.26083946,48.054504,-65.35899,1.8460873
4395665594000.0,-0.3392937950590086,1.6342988303894572,0.8247958827793077,2.669481,0.0012217305,0.31795537,48.012886,-65.790596,1.9381541
4395670595000.0,-0.230958521007081,1.9969865186467348,0.749432219433517,2.7452285,0.10873401,0.4428773,47.941772,-66.2481,2.0689604
4395675544000.0,-0.1478031444663563,2.3352980188469705,0.8473816002531439,2.7931814,0.19058995,0.6035349,47.822487,-66.856926,2.1903126
4395680499000.0,-0.0935533423419892,2.6491718181283685,1.1535054736403725,2.7962356,0.14721853,0.75716746,47.693066,-67.45919,2.347453
4395685817000.0,-0.0377764289627101,2.992165119959246,1.4753365641772798,2.765998,-0.09193522,0.87109387,47.567753,-68.11031,2.570707
4395690562000.0,-0.0285167352607233,3.399591753071829,1.6512707701375446,2.6798658,-0.4615087,0.91721416,47.47931,-68.728836,2.8361342
4395695782000.0,-0.0109585163068032,3.863198309297374,1.8320383821859476,2.5928175,-0.88606006,0.9129381,47.416786,-69.195595,3.168071
4395700585000.0,0.0823141240259556,4.450815873172463,1.864683783463449,2.5076017,-1.3292428,0.8713993,47.453728,-69.62209,3.5364408
4395705771000.0,0.1859858380273827,5.073706379675661,1.8878364300013293,2.4501805,-1.8145752,0.816116,47.623257,-70.0364,3.9122624
4395710597000.0,0.305784401531304,5.562115894483584,1.8141142602685096,2.4339926,-2.2583687,0.713796,47.902283,-70.42617,4.2918706
4395715590000.0,0.4297285017333511,6.067426443061279,1.737840991831716,2.4349089,-2.6282477,0.59681535,48.28747,-70.84515,4.682575
4395720702000.0,0.5352320297623413,6.657760472089782,1.7080357667204578,2.4425447,-2.8842003,0.45937067,48.76212,-71.2498,5.053745
4395725617000.0,0.4143892036235604,7.983578567519988,2.181049086422651,2.4379632,-2.9895744,0.32070425,49.293736,-71.64079,5.395026
4395731457000.0,0.27080383136507,9.558914819262084,2.74308322417663,2.4233024,-3.0072896,0.16615535,49.882023,-72.12591,5.723903
4395735537000.0,0.1002831256882063,10.451364722399305,3.187100816980585,2.363743,-2.9697213,0.0030543262,50.483624,-72.58788,5.9979105
4395740583000.0,-0.2404580524630543,11.1701889408867,3.831241749753695,2.2999077,-2.8393016,-0.13836098,51.062027,-73.036705,6.212598
4395745601000.0,-0.501403158053851,11.81959938336844,4.543178879274659,2.2476788,-2.5286767,-0.25809056,51.629433,-73.4761,6.2542663
4395751006000.0,-0.553549795149739,12.326843708856122,5.519743032676985,2.1755965,-1.9917262,-0.355829,52.09277,-73.89007,6.2291594
4395755522000.0,-0.5528621714479348,12.719525113380348,6.343315089165674,2.078469,-1.5815301,-0.45662177,52.55536,-74.234505,6.0284314
4395760447000.0,0.0259649912501144,12.741123126018866,7.341143994743109,1.8649716,-0.4428773,-0.50732356,52.65655,-74.52181,5.7345924
4395765415000.0,0.6098458733382176,12.762909710138292,8.34768490903929,1.6707164,0.88117313,-0.5693264,52.6696,-74.71822,5.301511
4395770423000.0,1.1987004998893809,12.183318860619467,9.127247956858406,1.2315043,1.7324139,-0.5729916,52.49287,-74.78044,4.8517137
4395775511000.0,1.8125265691943595,11.48608832196036,9.724067527147223,0.84940815,1.9617938,-0.56413406,52.12884,-74.80088,4.370837
4395780400000.0,2.5881828347796074,10.664261933241296,8.408221982763042,0.5186246,1.8924606,-0.5717699,51.6627,-74.6172,3.9093735
4395785627000.0,3.439952294505604,9.813830468975182,6.962772495126101,0.20861048,1.7101172,-0.58246,51.252537,-74.30747,3.5051763
4395790399000.0,4.501053058757005,9.393049148718976,5.156156765782626,0.02565634,1.5296066,-0.5833763,50.871902,-73.94584,3.1241672
4395795626000.0,5.657075135016465,8.987859320526894,3.2372551880351264,-0.052534413,1.2968669,-0.5375614,50.468273,-73.719444,2.9855814
4395800907000.0,6.739638107299671,9.339461266922797,2.1176815455726308,-0.029932396,0.9392053,-0.39187005,50.14839,-73.47032,2.9028373
4395805419000.0,7.664562199506038,9.639864217526528,1.1611361422795468,0.15210545,0.44990227,-0.22724187,49.75228,-73.51289,3.1465588
4395810413000.0,8.548259440949227,10.308064195916115,1.5937587192604856,0.3921755,-0.15699236,-0.16157386,49.489674,-73.57126,3.435287
4395815442000.0,9.41208825459897,11.043425927888151,2.3069709256806474,0.4746423,-0.9718866,-0.122783914,49.412895,-73.62067,3.809196
4395820422000.0,9.912368863766927,12.052071751743949,3.2425840532211736,0.4859433,-1.8423696,-0.06352998,49.374,-73.873184,4.483076
4395825408000.0,10.240564078785392,13.198305480919164,4.290849429462454,0.51893,-2.4727826,0.07360926,49.490036,-74.1041,5.2021804
4395830414000.0,10.09156805993691,14.430102697160883,4.289412363091483,0.53969944,-2.617252,0.25137106,49.700222,-74.227715,6.0390005
4395835491000.0,9.75017377887453,15.711567565482852,3.868854441599675,0.46914452,-2.278833,0.47433686,49.94343,-74.260284,6.896828
4395840609000.0,8.605309688578812,16.214726867596898,1.6426553937571065,0.28130344,-1.4553864,0.68416905,50.13231,-74.13068,7.724719
4395845411000.0,7.312421690232558,16.471402329302325,-0.9383667966511622,0.06536258,-0.44043383,0.8191703,50.16708,-73.91855,8.517112
4395850636000.0,5.350885020902783,15.492146207586268,-2.417547961410938,-0.1563815,0.3436117,0.8216137,50.056404,-73.73323,9.18381
4395855533000.0,3.402979621542481,14.325938827732228,-3.5415021157041178,-0.3368922,0.57971114,0.66828656,49.82523,-73.4969,9.777729
4395860457000.0,1.6642803322862294,12.954565818259466,-3.8059440666223785,-0.39950588,0.77946407,0.52839845,49.37222,-73.55746,10.162085
4395866272000.0,-0.2277866197399638,11.189341637278163,-3.4835527846635665,-0.44012842,0.6068946,0.058948494,49.002747,-73.65299,10.400308
4395870519000.0,-1.1701034496786504,10.268968297549709,-2.8651684444065078,-0.27397305,0.42485678,-0.043982297,48.669666,-73.84709,10.538066
4395875568000.0,-1.9470191612773649,9.462917604739909,-1.8308993009841328,-0.18020524,-0.08979719,-0.16737708,48.52046,-74.100845,10.564483
4395880467000.0,-2.283366065678863,8.69408068472936,-1.249288256576958,0.029932396,-0.4813618,-0.25992316,48.49162,-74.44108,10.400511
4395885577000.0,-2.2340389848402378,7.904846258159459,-1.0470468594395728,0.2012801,-0.68294734,-0.3387248,48.562683,-74.81456,10.223108
4395890524000.0,-0.4364700579269873,9.01850113318374,1.0447860848364543,0.28802297,-0.6835582,-0.37934732,48.75789,-75.18281,9.919786
4395895587000.0,2.9070536936221627,11.771991245533789,4.81514284631915,0.3390302,-0.55863625,-0.37873647,48.973743,-75.58607,9.609712
4395900590000.0,5.515295388937525,14.122036738479904,7.919395959315559,0.40042216,-0.5320636,-0.21013765,49.21509,-75.94645,9.355429
4395905610000.0,5.840518276323119,15.25840373091922,8.986891907743733,0.40133846,-0.66889745,0.31673363,49.446423,-76.235016,9.203485
4395910566000.0,6.161594895821727,16.380283176044568,10.040778346072424,0.37384954,-0.40744713,0.95417154,49.513123,-75.9835,9.420351
4395915601000.0,3.2688121054718926,16.70842684388738,10.006266878683004,0.37232238,0.4905248,0.96791595,49.439663,-75.76507,9.575673
4395920550000.0,-0.8186221737255632,16.717293474324197,9.54521135422318,0.028099801,1.4828753,0.43157628,49.25777,-75.463554,9.724073
4395925563000.0,-3.0791613323518483,14.847686257291471,7.358059631339401,-0.86559606,1.7788396,-0.071776666,49.041756,-74.97132,9.848073
4395930617000.0,-3.9603270773453465,11.56579253817574,3.8738576628088426,-1.6927075,1.5302174,-0.48472157,48.730064,-74.51279,9.819332
4395935607000.0,-3.716827172505908,9.006417784023425,1.2630404212062056,-1.8310685,0.8900307,-0.7593055,48.678997,-74.44637,9.110976
4395940902000.0,-1.9141579415390937,7.235008420363711,-0.3572779970615427,-1.4227052,0.12858713,-0.79045963,48.760708,-74.29359,8.421424
4395945548000.0,-0.683617576201873,6.303798990645161,-1.485843086212279,-1.0852021,-0.40530908,-0.625526,48.85596,-74.207306,7.8483605
4395950615000.0,0.2909356171279915,5.940235202580645,-2.409901225494277,-0.9294315,-0.5876524,-0.39767328,49.05994,-74.14763,7.319106
4395955395000.0,0.6795267330747127,5.914476313505746,-2.9697319216954026,-0.8164214,-0.5720753,-0.28985557,49.238976,-74.184715,7.081821
4395960399000.0,0.6235829207686782,6.164071753376437,-3.2838780179238505,-0.7131852,-0.38515055,-0.10995574,49.398335,-74.2211,6.9283576
4395965424000.0,0.6892757645012031,6.605897902739219,-3.49047835298908,-0.4343252,-0.043676864,-0.013744468,49.440422,-74.375984,6.913466
4395970403000.0,1.0378738467740145,7.4884245008328705,-3.441939415435869,-0.1151481,0.32559118,0.044593163,49.412262,-74.55281,6.9228187
4395975492000.0,1.485219251047845,8.505856044978252,-3.3650944988434164,0.17195857,0.5384777,0.0711658,49.31514,-74.8249,6.9418807
4395980374000.0,2.409576050019771,10.10961572726374,-3.1432488612989324,0.42546764,0.6398814,0.11178834,49.142258,-75.159904,6.9645123
4395985423000.0,3.2561142,11.694806608555613,-2.8754490257372924,0.66645396,0.6658431,0.15974127,48.930267,-75.5808,7.0191636
4395990397000.0,3.2561142,12.69689212924006,-2.319267410196276,0.9401216,0.59315014,0.16523905,48.718575,-76.06185,7.0758123
4395995411000.0,3.2038679218306547,13.646923535851894,-1.7877138032327788,1.1685852,0.6774496,0.15974127,48.46181,-76.58217,7.21987
4396000579000.0,2.7759617957146885,14.195759696363124,-1.448179505779532,1.3408492,1.010982,0.16035213,48.14896,-77.11371,7.361099
4396005774000.0,2.362014236409354,14.690424048696672,-1.0810441720224624,1.4123205,1.4410311,0.15943582,47.802017,-77.62104,7.457153
4396010437000.0,2.189840377420166,14.43216318204677,-0.4335208647724414,1.4202617,1.7880026,0.15454891,47.37885,-78.10719,7.548637
4396015474000.0,2.003857163238622,14.153188276338948,0.2659376165954237,1.425454,1.947133,0.17867808,46.902195,-78.56789,7.5720754
4396020464000.0,1.8518026729903856,13.614935483695112,0.698057072970562,1.4865406,1.9489655,0.20158553,46.375404,-79.002945,7.598868
4396025429000.0,1.7198403646347509,12.922133684706116,0.9714075618198036,1.568702,1.8255708,0.21074851,45.84381,-79.40092,7.6398077
4396030437000.0,1.330355405540296,12.027404988502076,1.0760699499627382,1.6572775,1.6471981,0.23365596,45.359436,-79.71438,7.6656623
4396035533000.0,0.7588260878611732,10.983065155860748,1.065678515319919,1.6887369,1.4214834,0.2556471,44.92929,-79.999886,7.709869
4396040430000.0,0.156284080981595,10.266631024539878,0.9744254262576688,1.6957619,1.215011,0.24862215,44.560513,-80.2492,7.7527595
4396045421000.0,-0.4774890311042945,9.642317472392635,0.8514544954601226,1.640784,1.0885619,0.22632557,44.235954,-80.46376,7.808784
4396050524000.0,-0.9949609532072442,9.366569258006958,0.7527862110018735,1.5149459,1.0650436,0.18936823,43.95949,-80.67962,7.8147297
4396056227000.0,-1.5114523417789276,9.230136850477296,0.6553350066669641,1.368949,1.063211,0.16646078,43.71452,-80.863525,7.827301
4396060470000.0,-1.738476570875822,9.19898547593634,0.6881610516925569,1.2950343,1.1203269,0.12858713,43.464676,-81.10075,7.748458
4396065589000.0,-1.855277486133613,9.23168990002859,0.8329941729524445,1.2104294,1.1814134,0.095294975,43.21724,-81.30653,7.6698337
4396070545000.0,-1.7121010552500264,9.2047578804544,1.1031873394734049,1.1655309,1.2284501,0.0720821,42.961437,-81.57155,7.5108147
4396075531000.0,-1.154452077991294,9.083089210956578,1.5847932527232191,1.1472049,1.2455542,0.055283304,42.700047,-81.827255,7.348097
4396080477000.0,-0.4201127766679672,8.874654704642996,2.111280471907921,1.1111639,1.205848,0.08093964,42.44771,-82.073685,7.171759
4396085529000.0,0.5237426459617633,8.567901916504097,2.7011900740928603,1.0711522,1.1157454,0.13439035,42.208187,-82.30722,7.0042195
4396090468000.0,1.3129027161886917,8.289566174433762,3.175919251352453,1.0094548,0.9935723,0.23793201,41.997578,-82.40705,6.9476943
4396095456000.0,1.9356058309679,8.036592809271632,3.522297894761284,0.8979719,0.8723156,0.35308012,41.81663,-82.47369,6.915394
4396100920000.0,2.5869208172235023,7.768231600641869,3.888579229262673,0.77091193,0.75533485,0.47800204,41.63965,-82.38229,7.02488
4396105870000.0,2.746862559735023,7.647299988561553,4.036818042626728,0.65087694,0.64904433,0.5757405,41.495678,-82.25792,7.1589384
4396110539000.0,2.8977247811059907,7.533233383146807,4.176641682949309,0.548557,0.5684101,0.65270954,41.32601,-82.03086,7.38274
4396116862000.0,2.8205646596583445,7.490604400525624,4.209170243626807,0.45020768,0.505491,0.7281514,41.180367,-81.7685,7.63231
4396120576000.0,2.687025199549465,7.50061986003379,4.179123725661723,0.36285394,0.46181414,0.79779,41.050934,-81.48122,7.899338
4396126626000.0,2.3476189635869567,7.536790656521739,4.038862056521739,0.28588495,0.4361578,0.850019,40.92124,-81.15151,8.196152
4396130533000.0,2.059858037120591,7.571321934044299,3.896900137817884,0.21105394,0.42210788,0.8915578,40.798553,-80.8017,8.505692
4396135575000.0,1.590880445044319,7.608471983763095,3.661349908561644,0.14538592,0.41813725,0.90469146,40.68084,-80.47369,8.784852
4396140636000.0,1.0148077360193393,7.637764101551168,3.368431534417808,0.10781772,0.43279803,0.8943067,40.560448,-80.14138,9.063646
4396145493000.0,0.4682117883600032,7.659399090163268,3.103136684989034,0.09712757,0.44684792,0.86193085,40.45224,-79.87257,9.278344
4396150718000.0,-0.1130204754081716,7.675657239379417,2.834875652578994,0.08857546,0.48930305,0.8008443,40.332584,-79.61579,9.475609
4396155660000.0,-0.6902870152797977,7.683769245652861,2.562445328011381,0.07819075,0.52320606,0.7425067,40.237957,-79.467125,9.571192
4396160672000.0,-1.7474882465201813,7.567426300769312,1.9655565874064709,0.07574729,0.61850107,0.71593404,40.11665,-79.33042,9.652478
4396165635000.0,-2.640141509827278,7.460491938653961,1.5166832533650985,0.07666359,0.7156286,0.63255095,40.020195,-79.34045,9.589724
4396170642000.0,-2.682980336212031,7.398613689100656,1.8546350772483624,0.0571159,0.75502944,0.56169057,39.91841,-79.350296,9.523151
4396175636000.0,-2.6816679894320483,7.343403354624747,2.260309070121704,0.043066,0.7516697,0.4804455,39.83567,-79.479385,9.327834
4396180505000.0,-2.412106223894523,7.329215799716024,3.0737237163083164,0.043982297,0.7125743,0.42913285,39.754875,-79.61474,9.122779
4396185602000.0,-2.1137023657924154,7.320608611970075,3.895858757296414,0.02443461,0.6246097,0.3930918,39.705063,-79.75725,8.879114
4396190623000.0,-1.7332884531430044,7.345418111720698,4.549178376145843,-0.043066,0.56169057,0.36896262,39.663643,-79.89503,8.628258
4396196734000.0,-1.269406756571781,7.377073778131744,5.307603944692221,-0.18570304,0.49602258,0.37995818,39.67451,-79.97838,8.373954
4396200632000.0,-0.9625080153529956,7.415436090740931,5.334457563518652,-0.47067168,0.46731192,0.39522982,39.701015,-80.018135,8.120402
4396205549000.0,-0.5753809987873806,7.463826929914706,5.3683311509402944,-0.58368176,0.47525316,0.43890667,39.73482,-79.956635,7.9170218
4396210553000.0,-0.3431619496826905,7.382118413984419,4.766034467794034,-0.8155051,0.50946164,0.4596761,39.778324,-79.81075,7.71326
4396215547000.0,-0.1341535418202546,7.282158043131294,4.075398048223446,-1.0247264,0.56016344,0.4596761,39.82259,-79.62596,7.516514
4396220600000.0,0.0487938381927503,7.166015534272462,3.312695006940388,-1.1942415,0.59559363,0.44012842,39.834946,-79.34417,7.3773184
4396226540000.0,0.2540181748359388,7.02431291066827,2.394071812987459,-1.2907583,0.5699373,0.4260785,39.858196,-79.02316,7.239215
4396230574000.0,0.4193347451865518,6.937534527265273,1.9230613593173431,-1.3106114,0.528093,0.38820487,39.840096,-78.720436,7.149166
4396235628000.0,0.6525097486223863,6.838311183271833,1.4864782831180812,-1.2968669,0.4636467,0.35155296,39.84307,-78.40507,7.0560036
4396240600000.0,0.8751482276923077,6.816022134615385,1.5888781635897438,-1.2305881,0.41813725,0.3210097,39.815445,-78.18493,7.0087276
4396245502000.0,1.0881160527810652,6.866949273668639,2.204632789861933,-1.1688906,0.32345316,0.31764993,39.824753,-77.97214,6.9631586
4396250683000.0,1.2393633865778484,6.925651874527739,3.1497809993438057,-1.149343,0.25503623,0.3371976,39.80729,-77.78423,6.9701524
4396255575000.0,1.3045747971564925,6.986205087492543,4.351534116305428,-1.2198979,0.24617869,0.36132678,39.801365,-77.59372,6.977797
4396260513000.0,1.2220966236604949,7.044228380960184,5.178781801687695,-1.3087788,0.3173445,0.43310347,39.77337,-77.27648,7.02859
4396266411000.0,0.9074224745371128,7.109014572013764,5.604517426577093,-1.570229,0.7296785,0.5705481,39.648457,-76.893616,7.0834117
4396270802000.0,0.6331357864156886,7.150929012882909,5.840393565273404,-2.1856759,0.9126327,0.6041457,39.60164,-76.25177,7.110227
4396275513000.0,-0.2322505695963357,7.105722024906957,4.936258526195248,-2.4153612,1.2596041,0.5983425,39.390564,-75.62968,7.127323
4396280481000.0,-1.144846497566562,7.058048852275981,3.982800051531634,-2.810591,1.4532484,0.53023106,39.23181,-74.80503,7.0603805
4396285534000.0,-1.8355437957829577,7.002008924170616,3.2563522950188606,-3.0277536,1.4312572,0.44135013,39.04733,-73.97512,6.9731107
4396290619000.0,-1.6377182128929295,6.9172267914691945,3.440047538852887,-3.0980031,1.1902709,0.37598756,38.88397,-73.094696,6.871594
4396295590000.0,-1.4057513655466225,6.846794673601326,3.69336207597182,-3.114191,0.7788532,0.34147367,38.86622,-72.45513,6.609052
4396300672000.0,-0.9579854565006216,6.842760664981351,4.354926179146291,-3.2073479,0.31429017,0.32711834,38.944088,-71.784615,6.362424
4396305641000.0,-0.520175774869457,6.838816353916287,5.0017801792789065,-3.395189,-0.15515977,0.3390302,39.1395,-71.0425,6.1827955
4396310580000.0,-0.1914133791836068,7.113326739570577,5.185097888113315,-3.6630535,-0.61391956,0.3494149,39.465195,-70.26413,6.039813
4396315637000.0,0.1090742709184423,7.4889364570169,5.21672818662748,-3.9724567,-0.8011498,0.36132678,39.84491,-69.43332,5.9183292
4396320502000.0,0.4518831666626016,8.051614922357723,5.113425196910569,-4.2681155,-0.7687739,0.36835176,40.293644,-68.4177,5.876456
4396325590000.0,0.9520260070528456,9.17074637601626,4.652897493495935,-4.514294,-0.9923506,0.37873647,40.859303,-67.35136,5.878481
4396330471000.0,1.3342396837261614,10.265798346894863,4.135588321418093,-4.6685376,-1.3063353,0.30176744,41.356674,-66.20658,5.92692
4396335677000.0,1.5097748534669926,11.484792538777503,3.4041919081173595,-4.716185,-1.5699236,0.19456059,41.90042,-65.05208,5.98794
4396340620000.0,1.6490079687399954,12.586938522981931,2.7887867583428614,-4.7412305,-1.78617,0.07880162,42.44967,-64.00405,6.126773
4396345572000.0,1.7213067157786417,13.555741325634576,2.365839227829865,-4.6547933,-1.9315559,-0.060170226,43.05933,-63.010605,6.2495246
4396350523000.0,1.7935908629087582,14.524348489595244,1.9429771067535635,-4.538118,-1.9853121,-0.16035213,43.640957,-62.207283,6.397607
4396355657000.0,2.040960209191727,15.05885759256669,1.960898290328704,-4.4898596,-2.0696115,-0.43554693,44.299965,-61.448593,6.4807715
4396360568000.0,2.3651871376261364,15.33139625826756,2.2099420725846737,-4.3789873,-1.8887954,-0.6569856,44.903107,-60.75836,6.5180206
4396365611000.0,2.600428386736342,15.287194405700712,2.310437123277909,-4.2256603,-1.5308284,-0.75869465,45.41187,-60.22448,6.5264616
4396370653000.0,2.7839391265558198,15.071569263657956,2.328788326603325,-4.09127,-1.102001,-0.7611381,45.867382,-59.72743,6.4649777
4396375542000.0,2.903222215943809,14.749523525754205,2.4261940608735704,-3.9232821,-0.68661255,-0.77182823,46.228657,-59.24766,6.3726726
4396380514000.0,2.976325539195517,14.32917903538804,2.5906765381899133,-3.6963456,-0.34116822,-0.68875057,46.485485,-58.81899,6.2513485
4396386053000.0,3.0553196252828854,13.85801189639321,2.801121008451202,-3.4067955,-0.036651913,-0.5757405,46.635376,-58.400974,6.125451
4396390823000.0,3.063396282726308,13.381491342114568,3.6491663292609617,-3.0928106,0.112399206,-0.55680364,46.74258,-58.05868,5.9703417
4396395477000.0,3.0712765266973125,12.916559128359264,4.476588325707214,-2.8432722,-0.015577064,-0.61819565,46.847866,-57.68957,5.851167
4396400635000.0,3.049466439660796,12.53379118721461,5.112122119569471,-2.7003298,-0.35705075,-0.6588182,46.96693,-57.382347,5.7546196
4396405564000.0,3.01427560278632,12.230270247879972,5.5871982106793405,-2.579684,-0.62858033,-0.6789767,47.10835,-57.14478,5.659654
4396410557000.0,3.1087081422169107,11.765059882880193,5.851019980101583,-2.44621,-0.7556403,-0.66828656,47.34688,-56.782997,5.6032686
4396415640000.0,3.322020760332636,11.149362334628025,5.923740037805,-2.2708917,-0.74464476,-0.6258314,47.613216,-56.474216,5.5685034
4396420552000.0,3.573384858714703,10.556332818535894,6.067105838647429,-2.116648,-0.65148777,-0.56046885,47.895878,-56.088604,5.5591116
4396425602000.0,3.873057366017527,9.948425378507569,6.281157623191998,-1.9779817,-0.5360342,-0.48380527,48.1579,-55.75456,5.554418
4396430475000.0,4.198577071482502,9.39808649341904,6.490854835190287,-1.8481728,-0.33078352,-0.4560109,48.366966,-55.37764,5.566855
4396435601000.0,4.654373031302928,8.932273207223753,6.721257212070197,-1.6896533,-0.21930063,-0.51007247,48.569122,-55.05844,5.5714483
4396441034000.0,5.181048564220752,8.721390855346561,6.918102105429241,-1.4718798,-0.08399397,-0.6093381,48.7241,-54.683235,5.592624
4396445733000.0,5.701941261389004,8.963234114165633,7.017319836034174,-1.2299771,0.08277224,-0.70952,48.853798,-54.371685,5.5761156
4396451532000.0,6.344770959384043,9.26169103221028,7.139763679357861,-1.0027353,0.2321288,-0.7699956,48.962276,-54.04127,5.5844374
4396455536000.0,6.6112155488238376,9.342388076319915,7.259725302352326,-0.7742717,0.30115658,-0.78801614,49.060017,-53.788822,5.5657616
4396460568000.0,6.717018123042342,9.281929109252482,7.456215353915316,-0.66737026,0.42485678,-0.81153446,49.12136,-53.574234,5.499334
4396465612000.0,6.618151622605364,9.182315946751114,7.511422106747987,-0.46609017,0.45173484,-0.8026769,49.159206,-53.445892,5.5350704
4396470611000.0,6.311191954022989,9.04380975721323,7.421580277316444,-0.25900686,0.44959682,-0.7901542,49.177288,-53.354553,5.5511236
4396476095000.0,5.96808184952274,8.888262914373948,7.316819999719259,-0.061391957,0.4098906,-0.7742717,49.195248,-53.27584,5.592783
4396480592000.0,5.532818456765861,8.673653941816395,7.081052276038742,0.1469131,0.35613444,-0.75777835,49.212025,-53.261112,5.6405582
4396485691000.0,5.039287649635036,8.43031590510949,6.81372302919708,0.31337386,0.29016098,-0.7440339,49.234116,-53.269745,5.672386
4396490751000.0,4.524968680791618,8.15446681257276,6.5052826658905705,0.46120325,0.2406809,-0.72692966,49.25749,-53.33198,5.7158785
4396495621000.0,3.85016459142968,7.637375617384556,5.892529541548866,0.58032197,0.20555615,-0.7144069,49.286537,-53.43258,5.770789
4396500645000.0,3.154021727989356,7.103932873108266,5.260399829702312,0.6762278,0.19181168,-0.6988298,49.318398,-53.55359,5.784719
4396505646000.0,2.4610658243139865,6.57293224330617,4.631164023781806,0.7834347,0.1957823,-0.68691796,49.34755,-53.709152,5.804944
4396510669000.0,1.8817610288056208,6.015348472098845,3.931791527077445,0.8888089,0.20677789,-0.6881397,49.372475,-53.888706,5.828142
4396515655000.0,1.4267424053864168,5.436935025761124,3.168285826229508,1.0036516,0.2284636,-0.6789767,49.38478,-54.0969,5.855456
4396520959000.0,0.9705295033025986,4.8596138880972335,2.395341688432523,1.135293,0.25289822,-0.6789767,49.40266,-54.3401,5.794317
4396525587000.0,0.8925118586085499,4.792741615674769,2.172434049036044,1.2745703,0.2687807,-0.6713409,49.41059,-54.61103,5.738924
4396530575000.0,0.8084254256496228,4.720667524308466,1.9321870081307628,1.4150693,0.28069258,-0.6783658,49.408096,-54.94846,5.6477027
4396535619000.0,0.7448528452336448,4.735851431547248,1.7430544479127723,1.5598444,0.2883284,-0.6545421,49.39291,-55.316353,5.5693493
4396540586000.0,0.6954571907476635,4.8050052756178605,1.5899280273208722,1.6859881,0.2773328,-0.6374379,49.37772,-55.710453,5.4948153
4396545637000.0,0.676783725021325,4.836219391839636,1.478474434233722,1.8145752,0.2764165,-0.6084218,49.34466,-56.193943,5.4029202
4396550615000.0,0.6722653561084257,4.849774451397972,1.3881069616150128,1.9199494,0.2782491,-0.59559363,49.310024,-56.6974,5.3184805
4396555405000.0,0.7132489722419302,4.772554165418089,1.3703369752010577,1.9804251,0.29016098,-0.56046885,49.262726,-57.259396,5.2348094
4396560450000.0,0.7930908409981271,4.61819311688884,1.4075965539715765,2.0775528,0.27885997,-0.5161811,49.21418,-57.851376,5.165345
4396565424000.0,0.827430220908394,4.4269447972882325,1.427418735185895,2.1609359,0.27763826,-0.46914452,49.148033,-58.46834,5.102761
4396570408000.0,0.8457249012610195,4.221129619442315,1.4411397311230356,2.240043,0.2846632,-0.42546764,49.073776,-59.100174,5.0560746
4396575410000.0,0.9330077970417424,3.9381226170417434,1.5712785530127042,2.302962,0.29260445,-0.3662137,48.98206,-59.703926,5.0508337
4396580396000.0,1.0586655843738657,3.6131457243738656,1.7662647248094374,2.3377812,0.2687807,-0.30390546,48.88671,-60.30886,5.066542
4396585450000.0,1.1775835195040214,3.250295663885165,1.9815987433646112,2.3768766,0.22174409,-0.22571471,48.782898,-60.8792,5.1253853
4396590401000.0,1.283514677479893,2.85305395974084,2.214647158176944,2.3976462,0.1863139,-0.14202617,48.669487,-61.439087,5.2082534
4396595390000.0,1.3300904530116042,2.537584800101308,2.4682547080033155,2.4110851,0.1591304,-0.041233405,48.52557,-61.83131,5.4037848
4396600593000.0,1.343857654264137,2.25765156421072,2.7435989726468963,2.4233024,0.099571034,0.044593163,48.38542,-62.216465,5.626596
4396605507000.0,1.3052285586133785,2.0333430418318668,2.958233262800805,2.4425447,-0.007941248,0.1441642,48.26607,-62.56586,5.8707976
4396610479000.0,1.214368197116506,1.846574418488286,3.1298584486377607,2.4593434,-0.12003502,0.24587326,48.14724,-62.903687,6.145203
4396615483000.0,1.056744315241228,1.81913646686769,3.22236707840826,2.4853053,-0.21502456,0.36346483,48.09362,-63.286594,6.3708806
4396620579000.0,0.8516129933114034,1.899405265259503,3.262501384475512,2.5283713,-0.2929099,0.46670106,48.048973,-63.66082,6.6319656
4396625446000.0,0.6352820927096774,2.069517080645161,3.3009707329032256,2.5717428,-0.37384954,0.5458081,48.036377,-64.01095,6.8872004
4396630524000.0,0.3798011404829493,2.383265639815668,3.3413098968847925,2.5686884,-0.4792238,0.59895337,48.0362,-64.34184,7.1744437
4396635545000.0,0.1466689666122449,2.7477878734275247,3.353089120188383,2.5454755,-0.5702427,0.6426302,48.03878,-64.6321,7.457567
4396640529000.0,-0.0281691431020408,3.267306836650968,3.283153819968603,2.5051584,-0.6924158,0.68019843,48.066315,-64.9013,7.7660723
4396645466000.0,-0.1681908024402907,3.787134802907581,3.189519124558671,2.484389,-0.79259765,0.6963864,48.08372,-65.10786,8.063822
4396650624000.0,-0.2451334329491173,4.341121571173416,3.0407634222326068,2.4868324,-1.0198395,0.68966687,48.160217,-65.30154,8.386419
4396655550000.0,-0.2557535367569158,4.891240601628409,2.9414860429174023,2.4700336,-1.2479976,0.6398814,48.278774,-65.54728,8.660911
4396660769000.0,-0.1773052702177751,5.504117795958408,2.8973588705905438,2.4602597,-1.4596626,0.55863625,48.45149,-65.79029,8.940581
4396665596000.0,-0.1580295956048265,6.1743939174962295,2.919541524864253,2.4327707,-1.6853772,0.44837508,48.727768,-66.13404,9.182588
4396670621000.0,-0.2197263333876319,7.0308896301659125,3.039305805972851,2.3738225,-1.8976529,0.2883284,49.063908,-66.46832,9.40259
4396675568000.0,-0.2804653904645551,7.874090484012067,3.157211059434389,2.3176227,-2.1209242,0.10476339,49.487762,-66.881546,9.590367
4396680580000.0,-0.2799213164774479,8.312278599942175,3.1348056345605246,2.257758,-2.310598,-0.06566802,49.9667,-67.28156,9.747624
4396685589000.0,-0.2568053559483423,8.598916887047032,3.0608345415574405,2.1948388,-2.4324653,-0.226631,50.49575,-67.67401,9.864481
4396690696000.0,-0.0825440674747969,8.83978668268572,2.8693947774199864,2.1545217,-2.4678955,-0.3707952,51.112446,-68.15406,9.8847275
4396695609000.0,0.1569239003455026,9.04701843642948,2.6299267807477733,2.1288655,-2.3417518,-0.46853364,51.718636,-68.62282,9.862499
4396700629000.0,0.4183481879250225,9.227325961201604,2.491220816141442,2.1111503,-2.0421226,-0.5390886,52.294094,-69.12806,9.781838
4396705650000.0,0.6899267459580912,9.388698690103954,2.416438411205697,2.0934353,-1.5763378,-0.5839872,52.783974,-69.62212,9.651065
4396710606000.0,0.9689517193923314,9.545637134457378,2.4062859270626498,2.0928242,-0.98654735,-0.59620446,53.1338,-70.15241,9.525331
4396715610000.0,1.3011760933533036,9.693292394642246,2.68929176389935,2.0845776,-0.3472769,-0.6044512,53.334793,-70.66671,9.344823
4396720533000.0,1.6280227346422458,9.838557551694624,2.967716571003081,2.0595322,0.24740042,-0.6047566,53.34205,-71.16405,9.185999
4396725590000.0,2.0085601014203425,9.971791557168784,3.507591289907678,2.0076087,0.71776664,-0.6047566,53.20203,-71.63918,8.9903
4396730474000.0,2.385018613311765,10.097277560798547,4.079660572634735,1.9355265,1.0033462,-0.6273586,52.947945,-72.09325,8.765958
4396735596000.0,2.8799815790609133,10.236026232233502,4.697119793147208,1.8075503,1.1304061,-0.64476824,52.558643,-72.42665,8.589919
4396740645000.0,3.60098566697335,10.389431789022842,5.346535137373096,1.6655241,1.1588113,-0.66767573,52.127045,-72.73522,8.405673
4396745472000.0,4.379927567123287,10.61474404328767,5.739456658630138,1.4468343,1.1539245,-0.6722572,51.695904,-72.920616,8.2514925
4396750636000.0,5.355470832876712,10.980572650045662,5.79816968803653,1.3261884,1.1255192,-0.66675943,51.27407,-73.095505,8.104056
4396755569000.0,6.366901288262195,11.421577145528456,5.805750166930895,1.069625,1.0729848,-0.59315014,50.89445,-73.15191,8.035201
4396760668000.0,7.701845138719513,12.210632886178862,5.637021251422764,0.8023715,0.9569204,-0.4914411,50.544407,-73.17145,7.987134
4396765552000.0,9.199596332655826,13.005364519163765,5.547123325125822,0.54458636,0.6435465,-0.3680463,50.233715,-73.13771,8.139077
4396770582000.0,11.409546939024391,13.942495581881534,5.673006718466899,0.35155296,0.11759156,-0.2452624,50.01269,-73.0409,8.337014
4396776099000.0,13.138721469767036,14.687079488875316,5.485437251339325,0.2003638,-0.5522222,-0.13469578,49.845253,-72.901794,8.790767
4396780542000.0,12.960518442282524,14.64624156967106,4.598133207102347,0.06291912,-1.4355333,0.06261369,49.875725,-72.68363,9.331741
4396785588000.0,12.758129858738329,14.599861164470813,3.590405048826455,-0.040317107,-2.270586,0.34605515,49.966385,-72.34978,10.253829
4396790585000.0,10.707597554058012,13.498675371618322,0.6069182378161928,-0.17440203,-2.613587,0.7150178,50.158005,-71.908875,11.222881
4396795481000.0,8.486608849692352,12.29888329192304,-2.543680044984862,-0.39400807,-2.3414464,1.0671816,50.399742,-71.36212,12.223983
4396800633000.0,5.722419066140269,11.030487796098466,-4.493630783660009,-0.6078109,-1.6255124,1.3060299,50.574173,-70.83612,13.242049
4396806186000.0,2.649686762796099,9.662084677194612,-6.296761430441245,-0.72509706,-0.8042041,1.3518448,50.637135,-70.24347,14.221459
4396810641000.0,0.6093514671128741,9.483379667988762,-5.981770548686168,-0.72021013,-0.15515977,1.1725558,50.542946,-69.97616,14.959268
4396815606000.0,-1.5398155736655093,9.55410158420096,-5.113459988200297,-0.63529986,0.22937989,0.7867944,50.311993,-69.72582,15.579125
4396820545000.0,-3.402558033495836,9.797999079219988,-4.222315403554743,-0.453262,0.26908615,0.39767328,50.17944,-69.73261,15.920784
4396825526000.0,-4.526555691133455,10.519876802559416,-3.248507037294333,-0.27458394,0.1966986,0.06536258,50.007214,-69.82235,16.141558
4396830499000.0,-5.249548394817676,11.049326431451991,-2.405399052869123,-0.051618114,0.40042216,-0.226631,49.92226,-70.19918,15.853328
4396835646000.0,-4.9801688766607,11.109704868557431,-1.861995398285122,0.18997909,0.6704246,-0.43127087,49.853893,-70.670876,15.494594
4396840529000.0,-4.588330328098575,11.0846121175002,-1.363495246144801,0.33078352,0.7611381,-0.58184916,49.859306,-71.2934,14.858298
4396846388000.0,-3.345647611017154,10.587538936297012,-0.861903344811146,0.35521814,0.7870999,-0.64751714,49.803535,-71.96085,14.1824465
4396850643000.0,-2.4431702324232907,10.226547916324394,-0.4976306805041476,0.36163223,0.70249504,-0.6478226,49.748894,-72.61279,13.504105
4396855585000.0,-1.121712175195849,9.875570085156172,0.0415975852294231,0.3472769,0.42821655,-0.6310238,49.73711,-73.26821,12.829547
4396860604000.0,0.3355740575338286,9.547925230745753,0.6382046854603725,0.36346483,0.121256754,-0.589485,49.75089,-73.91657,12.176363
4396865618000.0,2.160168515625,11.19349159375,3.4647093865625,0.4474588,-0.14049901,-0.47525316,49.7839,-74.38986,11.74123
4396870632000.0,4.116263426432291,13.542592097284226,7.086611379161086,0.5534439,-0.37201694,-0.10842858,49.878624,-74.80014,11.409681
4396875579000.0,4.379241483738554,15.366758717871802,8.511154819466372,0.57818395,-0.09040806,0.4868596,49.85908,-74.97026,11.351602
4396880561000.0,3.464027476160404,16.854452032996527,8.424529448926428,0.58551437,0.9767735,0.93034774,49.66439,-75.099396,11.332165
4396885625000.0,2.485530862025431,18.16260867724772,8.230437923275318,0.49113566,2.053118,0.6835582,49.38314,-74.86355,11.373405
4396890600000.0,0.7239389488682477,16.061588427450626,6.279797086860853,0.040317107,2.2864685,0.10995574,49.038166,-74.552246,11.427372
4396895502000.0,-1.0118044799350714,13.991397218504826,4.357778719000812,-0.5180137,1.8078557,-0.3051272,48.658955,-74.42046,11.233941
4396900597000.0,-1.4839839087416982,12.274179664153651,2.47886126897864,-0.732122,1.2983941,-0.5140431,48.26399,-74.33911,10.9459095
4396905594000.0,-1.6557853612098368,10.685015713067672,0.662060583977742,-0.54367006,1.0494665,-0.54153204,47.96511,-74.26837,10.621222
4396910629000.0,-1.562504372119488,9.584694251778094,-0.270820653029872,-0.312763,0.9868528,-0.40744713,47.791653,-74.36494,10.1777725
4396916149000.0,-1.271113347937411,8.734020439544809,-0.6562087969843529,-0.23273966,0.8720101,-0.2669481,47.712124,-74.45576,9.762544
4396920593000.0,-1.0451210782608695,8.318913869565218,-0.7611479495652174,-0.20769419,0.5839872,-0.1740966,47.6117,-74.65555,9.451921
4396925611000.0,-0.8045795619589754,8.309480679654529,-0.5300394557267641,-0.19150625,0.24740042,-0.100792766,47.55082,-74.84699,9.188851
4396930584000.0,-0.4391538380349891,8.50558319884411,-0.4323594630584192,-0.12461651,-0.0061086523,-0.03726278,47.52029,-75.033356,9.021558
4396935620000.0,0.2087181617463293,9.153455316619809,-0.6206943546735395,0.0290161,-0.12308934,0.016798794,47.542694,-75.23279,8.884792
4396940590000.0,0.848099384723524,9.792836656044988,-0.806560997113402,0.1572978,-0.13897185,0.06078109,47.612522,-75.39927,8.801037
4396945585000.0,1.2062695883909669,10.399498756351448,-0.791805761159139,0.20708331,-0.092240654,0.09896017,47.693825,-75.57331,8.73423
4396950610000.0,1.4737164364855329,10.998070408609738,-0.7111471970712774,0.30604348,0.028405234,0.15699236,47.75373,-75.77456,8.682156
4396955636000.0,1.6920649884031935,11.500219343912176,-0.5159337579393214,0.43035457,0.13439035,0.19028452,47.790836,-75.98053,8.742726
4396960621000.0,1.858822840249501,11.900437730638725,-0.206240648859481,0.54825157,0.2406809,0.21960606,47.787926,-76.188515,8.811406
4396965567000.0,2.0416593903528715,12.132311233073048,0.0043032690916279,0.6102544,0.3631594,0.24037547,47.7445,-76.38518,8.9097
4396970600000.0,2.246522837264011,12.189482571019076,0.1138813610374616,0.6658431,0.48808134,0.25137106,47.66595,-76.58835,9.007467
4396975501000.0,2.396429592842395,12.101642938059188,0.1740039207295251,0.7370089,0.65209866,0.2660318,47.54879,-76.75524,9.12028
4396980503000.0,2.488008650745584,11.834232353674391,0.1776670853406744,0.82558435,0.8573494,0.26725355,47.381474,-76.92333,9.224154
4396985697000.0,2.5831029383803625,11.55655730863348,0.181470859229181,0.9450085,1.0103711,0.26389378,47.179886,-77.07314,9.350021
4396990593000.0,2.677754218726869,11.17989870299778,0.155728554477239,1.1139128,1.1191051,0.2761111,46.930706,-77.23073,9.473913
4396995551000.0,2.774404758771281,10.780116373242045,0.12497608698094,1.271516,1.1695015,0.2874121,46.654877,-77.39236,9.594047
4397000643000.0,2.6131808393442624,10.347598327868852,0.0590308081114754,1.4450017,1.1325442,0.29352075,46.358704,-77.553024,9.731706
4397005580000.0,2.338917104035309,9.918315905422446,-0.0204659462860025,1.5949692,1.0390818,0.27672195,46.065697,-77.71741,9.868851
4397010507000.0,1.9805239303273627,9.474567390982088,-0.109266693555281,1.7146988,0.9275989,0.25381452,45.772026,-77.87006,10.024095
4397015643000.0,1.3931621618282892,8.973284485484866,-0.2257263479691167,1.7873917,0.8219192,0.22388211,45.503986,-78.01558,10.178708
4397020529000.0,0.8145503004105803,8.604225711409395,-0.2886199343900513,1.8023579,0.7874053,0.19517145,45.24506,-78.17128,10.298515
4397026653000.0,0.044689229080142,8.384265194630872,-0.259677778626135,1.7699821,0.7828238,0.16035213,45.007507,-78.30835,10.414873
4397030612000.0,-0.4576723526203596,8.37387556286253,-0.0684965170178364,1.7278323,0.7959574,0.12644911,44.77821,-78.48994,10.454312
4397035553000.0,-1.0923892360324827,8.579729903712298,0.456431521937355,1.68385,0.799928,0.09315695,44.553825,-78.649506,10.489211
4397040543000.0,-1.7334006200087009,8.787625706351509,0.986565283197506,1.6334536,0.8005389,0.08155051,44.346355,-78.869606,10.4273
4397045570000.0,-1.9368131624052003,8.889590526002168,1.5640544807692307,1.6145169,0.79779,0.06414085,44.140533,-79.07936,10.358018
4397050614000.0,-1.80597508127844,8.91052449219935,2.17637668076923,1.5888605,0.79320854,0.054367006,43.936123,-79.266136,10.291392
4397055561000.0,-1.4514030569578715,8.69733620585366,2.635488024390244,1.5503759,0.7651087,0.0842994,43.787544,-79.54806,10.076144
4397060722000.0,-0.995501235600887,8.386095177560975,3.060704073170732,1.4782939,0.6762278,0.17379116,43.658367,-79.80289,9.879905
4397065606000.0,-0.402793569747185,8.031308513490545,3.4387490355215635,1.3610078,0.59406644,0.23732115,43.53913,-80.01117,9.699465
4397070582000.0,0.3717009558529848,7.606096257701296,3.798155039175696,1.2473868,0.5549711,0.29046643,43.43434,-80.18708,9.54643
4397075592000.0,0.9539728961078868,7.366097890406282,4.139730877705701,1.1136073,0.5342017,0.35460728,43.33536,-80.2138,9.51693
4397080494000.0,1.3907311799761013,7.257910173011266,4.4602874524069644,0.98349303,0.50854534,0.44043383,43.25223,-80.21237,9.509497
4397085611000.0,1.756624250968973,7.181584043980319,4.724011223918064,0.8173377,0.47678033,0.5543602,43.14469,-80.083405,9.616732
4397090604000.0,1.8478506074505476,7.21519366718546,4.772025042976202,0.6246097,0.40561453,0.66981375,43.057858,-79.9234,9.745588
4397095615000.0,1.8441445943127963,7.284863685891359,4.759313341961357,0.42332962,0.38331795,0.7483099,42.946835,-79.70107,9.92222
4397100636000.0,1.5724275872037916,7.455782516332483,4.575246923259206,0.22021692,0.40378192,0.8017606,42.84305,-79.44166,10.120349
4397105687000.0,1.2936908054972809,7.626047010415706,4.381094592294221,0.05681047,0.43004912,0.8338311,42.740788,-79.15237,10.334157
4397110557000.0,0.966972403506314,7.772210348695732,4.097365492469352,-0.06994407,0.44532076,0.818254,42.635895,-78.84928,10.543673
4397115541000.0,0.6326059732141212,7.921795169637755,3.806994684763573,-0.18234327,0.44715336,0.8008443,42.537308,-78.57372,10.711994
4397120622000.0,0.3615531470548797,7.935169143179497,3.621124968613613,-0.25411993,0.45998153,0.7672467,42.4339,-78.30036,10.864377
4397125534000.0,0.1081968427131581,7.930800979895998,3.4551329393444146,-0.31673363,0.47861293,0.70952,42.351063,-78.08841,10.951108
4397130537000.0,-0.0982184103113944,7.90085378165364,3.5350904802961742,-0.37384954,0.5207626,0.64843345,42.26378,-77.88212,11.0201845
4397135662000.0,-0.2900204638258947,7.860474431591937,3.711750242225422,-0.4550946,0.569021,0.5888741,42.176273,-77.68261,11.06696
4397140554000.0,-0.4552969821814254,7.693653694384449,3.8297533389946983,-0.5879578,0.6047566,0.56779927,42.10299,-77.51971,11.0652275
4397145595000.0,-0.6211799606479481,7.489854665658747,3.938762167838209,-0.66431594,0.67103547,0.5131268,42.015842,-77.37594,11.031884
4397150661000.0,-0.825643763762052,7.249421601782791,3.806682225941423,-0.8512407,0.75808376,0.44806966,41.93298,-77.22206,10.948158
4397155604000.0,-1.0366287992814265,7.003990006912861,3.604308774058577,-1.058324,0.8200866,0.38087448,41.848057,-77.06039,10.845489
4397160669000.0,-1.2366533361455108,6.735415740131579,3.5946306716718266,-1.2327261,0.8344419,0.28344148,41.77549,-76.89825,10.687287
4397165571000.0,-1.4183309604102168,6.462899208881579,3.7308890084365327,-1.3628404,0.8042041,0.16646078,41.711803,-76.716576,10.503651
4397171616000.0,-1.3490273390432252,6.354183926737539,4.321109899117441,-1.4743233,0.60994893,0.025045475,41.7101,-76.54512,10.274243
4397175550000.0,-1.163882196570053,6.391968633587403,4.906773289288937,-1.5839735,0.5207626,-0.016798794,41.69843,-76.33636,10.038797
4397180492000.0,-0.9539263985947508,6.437763388034719,5.504160577908658,-1.6224581,0.32650748,-0.06811147,41.8005,-76.127174,9.750616
4397185618000.0,-0.761175080533168,6.483414978363299,5.970821755734656,-1.7440202,0.12980886,-0.1001819,41.940033,-75.86166,9.463702
4397190530000.0,-0.6232379556287425,6.480458756287425,5.989920192814371,-1.9404135,-0.014049901,-0.0870483,42.14022,-75.47494,9.188264
4397195603000.0,-0.5186896482176272,6.439548580613772,5.662638312780689,-2.2058344,-0.063224554,-0.061391957,42.379784,-75.02727,8.914619
4397200685000.0,-0.4661205580331012,6.360700763043698,5.1626757995055,-2.5445592,-0.04062254,-0.02107485,42.655136,-74.43648,8.666884
4397205619000.0,-0.4804263297840347,6.2367176435563625,4.461692923958018,-2.8725939,0.009162978,0.0009162979,42.945484,-73.76703,8.422592
4397210539000.0,-0.4240503705608843,6.209113003854937,3.994417110852288,-3.1526756,0.023518313,0.0067195175,43.22237,-73.03305,8.217267
4397215657000.0,-0.2718187729779848,6.307615592454554,3.81532119345026,-3.374725,0.01740966,-0.00061086525,43.50026,-72.224365,8.011651
4397220579000.0,-0.0510449633528972,6.450091258424928,3.784700694098816,-3.5271358,-0.037873644,0.011301007,43.760746,-71.426155,7.8413014
4397226349000.0,0.4619698066182906,6.780307662650731,4.232851563589798,-3.6682458,-0.13713925,0.029626964,44.04365,-70.57639,7.674119
4397230591000.0,0.8253987184629803,7.074587336944704,4.428536298163074,-3.837761,-0.29993483,0.087659165,44.3392,-69.68671,7.566956
4397235588000.0,1.2335367720243675,7.496180480365511,4.464416490955951,-4.070806,-0.36987892,0.19700404,44.636024,-68.745895,7.477419
4397240947000.0,1.5217919998345877,8.017923582896369,4.369823767339343,-4.3811255,-0.45570546,0.34697145,44.931984,-67.65984,7.4823823
4397245650000.0,1.462190975353569,8.62138375155901,4.008492833562154,-4.6951103,-0.47983465,0.3979787,45.233215,-66.5277,7.487309
4397250604000.0,1.3994090329170457,9.257050703622529,3.627877599470681,-4.8456883,-0.5564982,0.4352415,45.503063,-65.34041,7.603064
4397255592000.0,1.7332354922924902,10.435155693181818,3.496002002332016,-5.0637674,-0.64934975,0.38453966,45.790516,-64.078995,7.709062
4397260603000.0,2.1505344398221347,11.729730460227271,3.4153873912845847,-5.12577,-1.0219775,0.35521814,46.16713,-62.841316,7.8687987
4397265732000.0,2.4737842835954145,12.594635588414326,2.232262612553515,-5.0488014,-2.0039434,0.21197024,46.77048,-61.788033,8.054801
4397270616000.0,2.758494330993203,13.315901358932738,0.8609089574576441,-4.921436,-2.6166413,0.01985312,47.38128,-60.765957,8.21956
4397275558000.0,3.162357781744332,13.690294128727013,0.0146250721522943,-4.7155743,-2.9746084,-0.18234327,48.127834,-59.88874,8.488563
4397280535000.0,3.592106092537047,13.996649316193537,-0.729988345247277,-4.57813,-2.9089403,-0.39370266,48.93871,-59.065933,8.719931
4397285631000.0,3.663927217402894,14.26519157711348,-1.0602721788271134,-4.415334,-2.4150558,-0.5128214,49.61785,-58.483524,8.979788
4397290997000.0,3.468233631607007,14.514700870906324,-1.0896262013709064,-4.1987824,-1.9095647,-0.602924,50.295494,-57.977047,9.167452
4397295499000.0,3.365638550172669,14.524930624666997,-0.9272437422516032,-3.9180896,-1.2928963,-0.6401868,50.714027,-57.551346,9.358882
4397300628000.0,3.3123268081894426,14.331070112777503,-0.5492154707903305,-3.6209037,-0.6282749,-0.66828656,51.01174,-57.200466,9.438072
4397305549000.0,3.416169524059631,14.084740018165665,0.0482442523723961,-3.3029485,-0.106901415,-0.64812803,51.1747,-56.911884,9.447
4397311079000.0,3.7351097217099416,13.729200163293514,1.025978640347517,-3.0335567,0.17104226,-0.6249151,51.244827,-56.69501,9.382852
4397315581000.0,3.835387214220969,13.525242500553931,1.8507475666230235,-2.8108964,0.2959642,-0.64812803,51.240406,-56.482635,9.261478
4397320631000.0,3.757453237989727,13.398599852754558,2.810309108570853,-2.612976,0.310625,-0.6969972,51.20209,-56.339092,9.114566
4397325554000.0,3.676019854239821,13.318980834889802,3.675215000821815,-2.4040601,0.28252518,-0.7849618,51.2004,-56.168903,8.950929
4397330606000.0,3.585653690399701,13.291871391483005,4.4749552347030255,-2.2516494,0.26053402,-0.852157,51.20175,-56.040436,8.780804
4397335602000.0,3.544450971511508,13.24084642691271,5.3070640100974495,-2.1316142,0.21746802,-0.8671232,51.26452,-55.852306,8.602429
4397340674000.0,3.6099140545718433,13.135097908563134,6.243688944121915,-2.0778582,0.044593163,-0.8445212,51.370495,-55.689793,8.445897
4397345545000.0,3.673100744789916,12.974991640388655,6.846335586134454,-2.0231857,-0.09773844,-0.8002335,51.499783,-55.433876,8.302793
4397350812000.0,3.7419802692436974,12.69947359789916,6.978796210084034,-1.9587394,-0.073303826,-0.7360926,51.62465,-55.195568,8.173259
4397355424000.0,3.89448312679804,12.459506191607485,6.951758763729119,-1.87444,0.053450707,-0.64721173,51.772343,-54.84553,8.085106
4397360491000.0,4.171162614584375,12.197388664749424,6.752743810943283,-1.7641789,0.24098633,-0.57696223,51.89227,-54.52538,7.9930105
4397365412000.0,4.404865974029821,12.053017769132024,6.414216463118396,-1.6178766,0.42149702,-0.5891795,51.98382,-54.185192,7.9088554
4397370404000.0,4.598418241038807,12.043576249234718,5.890208781475264,-1.432479,0.63194007,-0.689056,52.028927,-53.896687,7.784139
4397375389000.0,4.926893947591709,12.01691959686679,5.617848532548409,-1.2189816,0.7654142,-0.8200866,52.048573,-53.63428,7.685824
4397380410000.0,5.450931765087088,11.965451537608253,5.702069126398754,-0.9801333,0.82650065,-0.93431836,52.05304,-53.442913,7.546419
4397385405000.0,5.880608082946277,11.822739174025717,5.843286894547991,-0.73364913,0.82833326,-0.97066486,52.018734,-53.338554,7.433534
4397390405000.0,6.147876646685936,11.51728965743048,6.086692157181302,-0.52106804,0.8240572,-0.98746365,51.989716,-53.299763,7.2932796
