timestamp,acc_x,acc_y,acc_z,gyro_x,gyro_y,gyro_z,ori_azimuth,ori_pitch,ori_roll
3083181194000.0,-0.5695507528463871,9.339900979291754,0.6178423124937094,-0.6582073,-1.3023647,-3.8722749,51.07339,-40.689175,45.079514
3083186241000.0,-0.5334253175212885,9.343272704125209,0.5978529056680603,-0.6582073,-8.010581,-5.1327953,53.789898,-41.021057,45.463726
3083191187000.0,-0.4980228203709146,9.34657695437808,0.5782635246179987,6.1782913,0.74006325,0.041233405,50.990322,-41.65671,44.682865
3083196376000.0,-0.4608809769189755,9.350043544463434,0.5577117053157808,-1.1691961,0.73975784,0.036651913,54.917255,-42.61968,43.786465
3083201220000.0,-0.4262085757470363,9.353279652070576,0.5385263106925504,-1.1636983,0.7626653,0.030543262,54.794193,-43.562733,43.363987
3083206253000.0,-0.3901833496738799,9.356642023991869,0.5185923529843094,-1.1826351,0.7684685,0.03359759,54.682888,-43.821415,42.94132
3083211255000.0,-0.3543800155157378,9.35998368589338,0.4987811754646152,-1.1927143,0.768163,0.035430185,54.57025,-44.082897,42.516
3083216212000.0,-0.3188987825245523,9.36329528486295,0.4791482272508758,-1.2009611,0.7415904,0.04428773,54.467842,-44.3398,42.09612
3083221208000.0,-0.2831383951886711,9.366632938373536,0.4593608136386421,-1.1725558,0.70707655,0.031154128,54.374805,-44.60461,41.672512
3083226161000.0,-0.2476857934123261,9.36994186508249,0.4397437080298765,-1.1249083,0.7415904,0.02321288,54.268433,-44.866802,41.249424
3083231200000.0,-0.2116176205169088,9.373308245394709,0.4197859864141749,-1.153619,0.7489208,0.07513642,54.18149,-45.11152,40.84581
3083237206000.0,-0.1686278514337817,9.377320644711077,0.3959983150460654,-1.2250903,0.7507534,0.09712757,54.092297,-45.3664,40.430298
3083241147000.0,-0.1404189470121029,9.379953489483938,0.3803893884956625,-1.2550226,0.7318166,0.10934488,54.005447,-45.611332,40.02856
3083246140000.0,-0.1046800330873521,9.383289138799062,0.3606138568371593,-1.246776,0.72265357,0.12889257,53.913864,-45.84474,39.634636
3083251151000.0,-0.0688122786958188,9.38663681328696,0.340767033456274,-1.251052,0.700357,0.16279559,53.83296,-46.066204,39.252308
3083256180000.0,-0.0328156838375028,9.389996512947636,0.3208489183530069,-1.2464706,0.6921103,0.19456059,53.75091,-46.284946,38.875362
3083261209000.0,0.0031809110208129,9.393356212608312,0.3009308032497396,-1.258077,0.66706485,0.2134974,53.6822,-46.495693,38.509384
3083266152000.0,0.0385619347600565,9.396658458665724,0.2813533041534084,-1.2574661,0.6206391,0.26358834,53.61754,-46.69218,38.16455
3083271148000.0,0.0743223220959377,9.399996112176307,0.2615658905411748,-1.2596041,0.53878313,0.31306845,53.57305,-46.882275,37.8324
3083276149000.0,0.1101184984503695,9.403337106012666,0.241758673672724,-1.1768318,0.43463063,0.3640757,53.546597,-47.070305,37.522636
3083281184000.0,0.1461580401309463,9.406700814064267,0.2218167946619962,-1.0882565,0.3145956,0.41386122,53.547844,-47.247265,37.237366
3083286214000.0,0.1821617927929724,9.410061181790098,0.2018947189074856,-0.9801333,0.17562376,0.45265114,53.58577,-47.428276,36.976986
3083291153000.0,0.2175141853173753,9.413360755586892,0.1823330624161281,-0.86620694,0.035124753,0.5015204,53.656464,-47.60763,36.74628
3083296148000.0,0.2532674148495464,9.416697741032324,0.1625496094551379,-0.7797695,-0.15118915,0.537256,53.7849,-47.79243,36.54278
3083301150000.0,0.2890707490076884,9.420039402933837,0.1427384319354437,-0.61422503,-0.46486846,0.5002986,54.004612,-48.010227,36.36196
3083306808000.0,0.3295696023996851,9.423819315576528,0.1203290672000518,-0.16493362,-0.52839845,0.49754974,54.193417,-48.26065,36.191376
3083311158000.0,0.360706048538813,9.426725398997474,0.1031002342910814,-0.12492194,-0.5198463,0.5012149,54.464222,-48.48708,36.03731
3083316222000.0,0.396953166526984,9.430108480938548,0.0830434963942937,-0.18234327,-0.5323691,0.4990769,54.76211,-48.761936,35.8874
3083321144000.0,0.4321838763883145,9.43339669762772,0.0635491709740748,-0.19303341,-0.54092115,0.49541172,55.053448,-49.046875,35.734123
3083326140000.0,0.4679442637241957,9.436734351138304,0.0437617573618412,-0.18325958,-0.54702985,0.4877759,55.34654,-49.327637,35.577984
3083331220000.0,0.504305906571729,9.440128122121848,0.0236416490451585,-0.1685988,-0.54611355,0.4783075,55.638317,-49.608017,35.418438
3083336180000.0,0.5398086129740449,9.44344172528688,0.0039968188776888,-0.15577064,-0.539394,0.4636467,55.929134,-49.891483,35.253586
3083341161000.0,0.5754616332542739,9.446769357820154,-0.0157311849658931,-0.1441642,-0.5366451,0.45265114,56.218838,-50.176754,35.085773
3083346148000.0,0.6111576003567638,9.450100998744352,-0.0354829527169358,-0.12614368,-0.5476407,0.44593164,56.50911,-50.465477,34.914383
3083351146000.0,0.6469323033000652,9.453439988385243,-0.0552782876316563,-0.11362094,-0.5671884,0.44226643,56.799107,-50.755173,34.740128
3083356196000.0,0.6830792120362942,9.45681371741416,-0.0752795764110357,-0.08827003,-0.5723807,0.43096542,57.086395,-51.050377,34.56054
3083361181000.0,0.7187608635313638,9.46014402220805,-0.0950234228595915,-0.07360926,-0.5864306,0.4175264,57.380222,-51.345116,34.381023
3083366156000.0,0.7543709369893319,9.463467646350397,-0.1147276627957128,-0.052839845,-0.6105598,0.40561453,57.676582,-51.643833,34.199345
3083371142000.0,0.7900597462881116,9.46679861920944,-0.134475469895512,-0.0290161,-0.63194007,0.38820487,57.97498,-51.947014,34.012756
3083376592000.0,0.8290697765083983,9.47043957430005,-0.1560610191722681,-0.012217305,-0.64599,0.36102137,58.29931,-52.231934,33.855663
3083381222000.0,0.8622104076863667,9.473532715964184,-0.1743988344294021,0.018325957,-0.66248333,0.33475417,58.62935,-52.523075,33.69473
3083386268000.0,0.898328685207755,9.476903772732484,-0.1943842806038078,0.040927973,-0.67347896,0.3100141,58.960785,-52.819134,33.5263
3083391179000.0,0.933480659228274,9.480184640704955,-0.2138350388603488,0.0571159,-0.6762278,0.27488935,59.294292,-53.12453,33.347473
3083396212000.0,0.9695058853014304,9.48354701262625,-0.2337689965685898,0.07513642,-0.67103547,0.25625798,59.625057,-53.4316,33.165787
3083401219000.0,1.0053450084781232,9.486892014853533,-0.2535999773445013,0.106901415,-0.65118235,0.22327125,59.951984,-53.751503,32.96897
3083406300000.0,1.0417138091293667,9.490286453902227,-0.2737240463124274,0.12370021,-0.62949663,0.19120082,60.27336,-54.07266,32.76641
3083411232000.0,1.0770160970277989,9.493581351242945,-0.2932579782450808,0.14172074,-0.61391956,0.16249016,60.58794,-54.40131,32.554596
3083416214000.0,1.1126762751117378,9.49690965184137,-0.3129899427399062,0.14874569,-0.57787853,0.13347405,60.88651,-54.73494,32.331013
3083421214000.0,1.1484652936624595,9.500249977612572,-0.3327931989571136,0.15485434,-0.552833,0.10293079,61.181026,-55.074036,32.099403
3083426179000.0,1.1840037890833262,9.503566921103378,-0.3524578323808005,0.15515977,-0.5323691,0.07452556,61.46236,-55.415844,31.859098
3083431191000.0,1.2198787012785697,9.506915263656431,-0.3723086164129292,0.14874569,-0.50671273,0.048563786,61.73098,-55.76035,31.610249
3083436192000.0,1.2556748776330016,9.510256257492788,-0.39211583328138,0.14446963,-0.48991394,0.016187929,61.993504,-56.10956,31.352617
3083441219000.0,1.2916571568838973,9.513614621023155,-0.4120260270821603,0.15027285,-0.46609017,-0.01160644,62.24198,-56.459915,31.088829
3083446326000.0,1.3282120604316043,9.517026429765862,-0.432253072982416,0.15027285,-0.45937067,-0.043066,62.488297,-56.81379,30.817331
3083451222000.0,1.3632566673964712,9.520297276761024,-0.4516444214703053,0.1459968,-0.44348818,-0.079107046,62.721333,-57.171314,30.537231
3083456266000.0,1.399360629310439,9.523666997399014,-0.4716219463422242,0.1572978,-0.43860126,-0.099265605,62.95194,-57.52925,30.255865
3083461216000.0,1.4347917576756537,9.526973919912503,-0.4912271699972595,0.16279559,-0.42149702,-0.10995574,63.17051,-57.887836,29.968449
3083466214000.0,1.4705664606189552,9.530312909553398,-0.51102250491198,0.16279559,-0.39767328,-0.1328632,63.382748,-58.250134,29.67457
3083471224000.0,1.5064270572067784,9.533659915976145,-0.5308653676416218,0.17592919,-0.37415496,-0.16615535,63.586258,-58.614307,29.37722
3083476225000.0,1.5422232335612105,9.5370009098125,-0.5506725845100726,0.18448131,-0.3475823,-0.18967366,63.77739,-58.97588,29.078293
3083481253000.0,1.578212670615816,9.540359941408022,-0.5705867389620963,0.18875736,-0.33414328,-0.2098322,63.962624,-59.34054,28.774271
3083486240000.0,1.6139086377183058,9.54369158233222,-0.590338506713139,0.20586158,-0.30879238,-0.23273966,64.132805,-59.708385,28.46484
3083492154000.0,1.6562398888600995,9.547642519654396,-0.6137617981668518,0.2180789,-0.2770274,-0.24617869,64.29305,-60.073048,28.155617
3083496222000.0,1.6853578343529667,9.550360208701848,-0.6298737274251718,0.226631,-0.25259277,-0.25686884,64.44467,-60.438305,27.844223
3083501222000.0,1.7211468529036886,9.553700534473052,-0.6496769836423791,0.23396139,-0.22388211,-0.2648101,64.58149,-60.80134,27.532534
3083506286000.0,1.7573939708918591,9.557083616414126,-0.6697337215391668,0.23579398,-0.19639318,-0.27488935,64.707924,-61.161957,27.220768
3083511226000.0,1.7927535212199723,9.560383858276074,-0.6892993386817677,0.23243423,-0.15790866,-0.27397305,64.81803,-61.51579,26.912703
3083516229000.0,1.8285640131818248,9.56372618824274,-0.7091144768527053,0.25350907,-0.1133155,-0.2770274,64.91494,-61.869637,26.603971
3083521225000.0,1.864324400517706,9.567063841753326,-0.728901890464939,0.26175576,-0.06261369,-0.28405234,64.99486,-62.216778,26.297241
3083526168000.0,1.899705424256949,9.570366087810736,-0.7484793895612702,0.28069258,-0.005192355,-0.28771752,65.05573,-62.56059,25.993282
3083531193000.0,1.9356733879004249,9.573723115210797,-0.7683816620595636,0.30482176,0.06414085,-0.2779437,65.09402,-62.897766,25.693466
3083536170000.0,1.971297776965813,9.57704807548345,-0.7880938232981719,0.3371976,0.13347405,-0.27183503,65.11238,-63.23327,25.394295
3083541209000.0,2.00736594986123,9.580414455795667,-0.8080515449138734,0.3726278,0.22021692,-0.2678644,65.10121,-63.56306,25.098804
3083546220000.0,2.043233704252764,9.583762130283567,-0.8278983682947587,0.40591997,0.30268374,-0.26083946,65.06757,-63.887024,24.80848
3083551184000.0,2.0787650418699206,9.58707840570922,-0.8475590410672021,0.4474588,0.3408628,-0.25900686,65.01935,-64.20913,24.521437
3083556221000.0,2.114818899157917,9.590443449891128,-0.8675088413804168,0.47433686,0.4092797,-0.25228736,64.93437,-64.523674,24.238539
3083562188000.0,2.157529513896349,9.594429794666482,-0.8911420473500321,0.50915617,0.4810564,-0.24953845,64.83564,-64.83709,23.958858
3083566154000.0,2.1629371287214383,9.597646827752492,-0.9098532059660192,0.54244834,0.49663344,-0.24404067,64.732,-65.144135,23.686846
3083571148000.0,2.130126873067236,9.602676113174196,-0.9385921126292808,0.54550266,0.48808134,-0.23426682,64.6128,-65.44376,23.420393
3083576144000.0,2.0973034775429267,9.607707412727027,-0.9673425286664564,0.56291234,0.45234573,-0.22876903,64.5406,-65.62224,23.312956
3083581223000.0,2.0639347774092265,9.61282229872159,-0.996570583721063,0.56016344,0.39400807,-0.23090707,64.47554,-65.79287,23.209944
3083586164000.0,2.031472728312828,9.617798209668456,-1.0250044919756034,0.55680364,0.32162055,-0.24098633,64.42351,-65.95973,23.110533
3083591149000.0,1.9987216020741008,9.622818431500091,-1.053691606456252,0.53786683,0.22204952,-0.2501493,64.39541,-66.119835,23.016048
3083596137000.0,1.9659507660302151,9.62784167452842,-1.0823959849977716,0.52290064,0.13133603,-0.2657264,64.384834,-66.27898,22.921124
3083601148000.0,1.9330288214801128,9.632888080064696,-1.1112327213393025,0.50701815,0.04795292,-0.2837469,64.40023,-66.43449,22.827759
3083606201000.0,1.8998309396577884,9.63797678235462,-1.140311154533027,0.5137377,-0.01985312,-0.29932398,64.43614,-66.58881,22.734749
3083611171000.0,1.867178362444855,9.642981898202814,-1.1689119487093205,0.514654,-0.0720821,-0.33200526,64.49077,-66.74617,22.635437
3083616145000.0,1.83449950549171,9.647991042313258,-1.197535761633442,0.52106804,-0.11026118,-0.36041048,64.558784,-66.90219,22.53607
3083621148000.0,1.8016301204220309,9.653029391325031,-1.2263264604793165,0.51923543,-0.12980886,-0.38423425,64.63432,-67.06027,22.431349
3083626146000.0,1.7687935850276162,9.65806270500899,-1.255088385890406,0.5213735,-0.14172074,-0.4092797,64.716324,-67.22187,22.320795
3083632109000.0,1.7296170623071492,9.664067836961255,-1.2894035842150011,0.51893,-0.14172074,-0.4447099,64.79782,-67.387375,22.202589
3083636257000.0,1.702364971707703,9.66824514491665,-1.3132740257126403,0.5103779,-0.13255776,-0.46914452,64.87676,-67.55131,22.0825
3083641151000.0,1.6702117095587905,9.673173723782057,-1.3414374636802018,0.49266282,-0.10720685,-0.505491,64.948166,-67.722694,21.95082
3083646142000.0,1.637421163709746,9.678199988007073,-1.3701591062825924,0.46883908,-0.08246681,-0.5170974,65.01346,-67.8881,21.821476
3083651149000.0,1.6045254988998554,9.683242365281096,-1.398972823876295,0.44257188,-0.02076942,-0.52839845,65.05709,-68.05763,21.683357
3083656237000.0,1.5710976693506793,9.688366314865725,-1.4282526711135146,0.4382958,0.048563786,-0.5329799,65.087906,-68.2235,21.54607
3083661279000.0,1.537972056813937,9.693443939434454,-1.4572678027507124,0.4288274,0.13591751,-0.52778757,65.09178,-68.38376,21.40994
3083666155000.0,1.5059370534959764,9.698354391119723,-1.4853276563530478,0.42119157,0.23976462,-0.5137377,65.06711,-68.538155,21.276714
3083671149000.0,1.4731267978417737,9.70338367654143,-1.5140665630163093,0.4089743,0.32467487,-0.49205196,65.01967,-68.684074,21.14917
3083676153000.0,1.4402508428370413,9.708423032618764,-1.5428630165491408,0.4251622,0.40561453,-0.46670106,64.94027,-68.82159,21.02829
3083681249000.0,1.406770453807442,9.7135550387279,-1.5721889012820167,0.43463063,0.47616947,-0.45112398,64.83728,-68.951294,20.912687
3083686196000.0,1.3742689851007257,9.718536992068142,-1.600657337658299,0.44532076,0.52564955,-0.44043383,64.71544,-69.07218,20.804932
3083691154000.0,1.3416952471084271,9.723530023129578,-1.6291890755911087,0.42821655,0.552833,-0.44165558,64.57885,-69.18812,20.700275
3083696147000.0,1.308891561389277,9.72855830148572,-1.6579222275674133,0.4156938,0.57879484,-0.44532076,64.42767,-69.298965,20.599985
3083701195000.0,1.2757265292422173,9.733641968447827,-1.6869718873263528,0.3894266,0.57604593,-0.4636467,64.277626,-69.410416,20.49766
3083706165000.0,1.2430739520292835,9.738647084296025,-1.7155726815026464,0.35521814,0.5714644,-0.4792238,64.12086,-69.51867,20.397274
3083711185000.0,1.2100928780637052,9.743702553422366,-1.74446121002679,0.31795537,0.5494733,-0.49754974,63.971195,-69.62932,20.293535
3083716151000.0,1.1774665805909836,9.748703641008309,-1.7730389854552555,0.27122417,0.52534413,-0.5131268,63.82454,-69.73978,20.188662
3083721147000.0,1.1446431850666747,9.753734940561138,-1.8017894014924312,0.23945917,0.5015204,-0.5326745,63.685555,-69.85334,20.080091
3083726157000.0,1.1117278104516253,9.758780339031851,-1.830620383147005,0.21288654,0.46883908,-0.54641896,63.55762,-69.96609,19.971481
3083731176000.0,1.0787533064210997,9.763834801092631,-1.8595031569841916,0.17928895,0.44990227,-0.5558874,63.433784,-70.079704,19.861088
3083736184000.0,1.045851071676156,9.768878185432222,-1.888322629264851,0.15668693,0.44257188,-0.5564982,63.31726,-70.19175,19.751978
3083741147000.0,1.013244484008593,9.773876251821472,-1.9168831406324456,0.14996742,0.4642576,-0.55924714,63.198647,-70.30419,19.641947
3083746147000.0,0.9803948087440726,9.778911579636556,-1.945656575417449,0.13194689,0.46975538,-0.55833083,63.08805,-70.4126,19.53538
3083751150000.0,0.9475254236743932,9.783949928648328,-1.974447274263324,0.1301143,0.5018258,-0.5549711,62.96382,-70.51887,19.430754
3083756152000.0,0.9146626085397672,9.788987270594538,-2.0032322184222413,0.13408493,0.56077427,-0.5384777,62.83074,-70.618546,19.332245
3083761136000.0,0.8819180522360932,9.794006485360612,-2.0319135782159328,0.13683382,0.6392705,-0.50732356,62.683083,-70.71076,19.240778
3083766168000.0,0.8544944720954385,9.797358318371508,-2.048295350347599,0.1469131,0.7330383,-0.47678033,62.514233,-70.79655,19.155476
3083771194000.0,0.8357307524938652,9.798080014463707,-2.045408626264575,0.16401732,0.79076505,-0.44165558,62.333958,-70.870415,19.082037
3083776239000.0,0.8168960996108693,9.798804438814114,-2.042510989376621,0.21471913,0.8008443,-0.40775254,62.224766,-71.12289,18.841358
3083781190000.0,0.7984123798043852,9.79951536546602,-2.0396673421551625,0.28191432,0.75502944,-0.36193767,62.11397,-71.355934,18.618938
3083786217000.0,0.7796449268722107,9.80023720515076,-2.036780043713984,0.34605515,0.65301496,-0.3295618,62.016308,-71.57718,18.407194
3083791173000.0,0.7611425404127206,9.800948849765351,-2.0339335247017547,0.42913285,0.5045747,-0.29901853,61.945427,-71.77998,18.212597
3083796181000.0,0.7424460207619685,9.80166796119188,-2.0310571390655063,0.49510628,0.30298916,-0.28527406,61.92013,-71.97145,18.026714
3083801169000.0,0.7238241677232404,9.802384200767666,-2.0281922405923423,0.56230146,0.0729984,-0.26419923,61.946465,-107.855286,17.855242
3083806234000.0,0.7049148482282208,9.803111496968818,-2.025283116541305,0.6200282,-0.14569137,-0.22571471,62.027966,-107.699394,17.6956
3083811230000.0,0.6862631285446831,9.8038288852849,-2.022413623202907,0.6417139,-0.36743546,-0.19181168,62.176865,-107.557274,17.542673
3083817236000.0,0.6638407449539451,9.8046913020636,-2.018964028128764,0.65393126,-0.5665775,-0.15485434,62.38154,-107.4367,17.402653
3083821164000.0,0.6491762223524767,9.805255333549905,-2.0167079492990547,0.6542367,-0.73731434,-0.10567969,62.64078,-107.33876,17.275925
3083826142000.0,0.6305917026197605,9.805970137200315,-2.0138487944074326,0.6417139,-0.8518516,-0.06078109,62.939053,-107.25913,17.158094
3083831171000.0,0.6118167830263835,9.80669226407013,-2.0109603472499464,0.6105598,-0.91324353,-0.0125227375,63.268684,-107.20237,17.054352
3083836178000.0,0.5931239967062328,9.80741123190412,-2.008084535971852,0.56077427,-0.915687,0.007330383,63.610638,-107.15678,16.954521
3083841164000.0,0.5745096103287071,9.80812718429483,-2.005220786214996,0.5009095,-0.8772025,0.039095376,63.955013,-107.13308,16.871265
3083846147000.0,0.5559064239429848,9.80884270590793,-2.002358759532603,0.43890667,-0.8582657,0.05131268,64.30164,-107.11262,16.787365
3083851147000.0,0.5372397709370424,9.80956066859416,-1.9994869687615888,0.42058071,-0.77213365,0.056505036,64.61305,-107.10309,16.711935
3083856170000.0,0.5184872513272727,9.81028193390875,-1.9966019677530276,0.36132678,-0.66523224,0.06078109,64.90899,-107.09464,16.640438
3083861232000.0,0.4995891318240565,9.81100879933229,-1.9936945667764523,0.29810223,-0.5491679,0.057421334,65.17289,-107.08721,16.570173
3083866153000.0,0.4812174119356081,9.81171541820808,-1.99086815029962,0.25228736,-0.43310347,0.04550946,65.40168,-107.07845,16.501226
3083871150000.0,0.4625619589214692,9.8124329501167,-1.987998082603068,0.22510384,-0.31123585,0.03481932,65.5914,-107.06819,16.434893
3083876149000.0,0.4438990392461279,9.813150769210392,-1.9851268661902075,0.18020524,-0.20555615,0.02107485,65.748695,-107.05092,16.367355
3083881173000.0,0.425142786305757,9.81387217811752,-1.982241290823492,0.14905111,-0.12675454,-0.006414085,65.87517,-107.027565,16.296011
3083886280000.0,0.4060766669254874,9.814605505205236,-1.9793080437299773,0.1133155,-0.0852157,-0.025045475,65.97955,-107.00043,16.225996
3083891151000.0,0.3878916135670983,9.815304944454162,-1.976510345160855,0.06719518,-0.063224554,-0.046120327,66.064224,-106.9631,16.150135
3083896149000.0,0.3692324272223583,9.81602261995532,-1.9736397031061488,0.03726278,-0.03940081,-0.058337633,66.1346,-106.92292,16.073935
3083901149000.0,0.3505657742164159,9.81674058264155,-1.9707679123351345,-0.013439035,-0.040011674,-0.071776666,66.20407,-106.87225,15.992728
3083906176000.0,0.3317983212842413,9.817462422326289,-1.967880613893956,-0.06566802,-0.047647487,-0.08674286,66.26731,-106.81644,15.909531
3083911240000.0,0.3128927351198229,9.818189574934904,-1.9649720642010724,-0.10720685,-0.064446285,-0.08827003,66.33265,-106.7584,15.827588
3083916177000.0,0.2944612819417553,9.818898491291288,-1.9621364579937728,-0.13958271,-0.07544186,-0.09040806,66.397385,-106.69361,15.742745
3083921140000.0,0.2759327621680569,9.819611141053642,-1.9592859184744635,-0.18478674,-0.0852157,-0.08368854,66.46627,-106.62712,15.661149
3083926139000.0,0.2572698424927157,9.820328960147336,-1.9564147020616032,-0.19547687,-0.09468412,-0.06719518,66.537926,-106.5643,15.582999
3083931220000.0,0.238300789708077,9.821058553829085,-1.9534963882800984,-0.20922135,-0.105068825,-0.05681047,66.612175,-106.498405,15.506248
3083936248000.0,0.2195296034453013,9.821780537106358,-1.9506085154807655,-0.20799962,-0.121256754,-0.04550946,66.6909,-106.438866,15.435418
3083941153000.0,0.2012176168464718,9.822484858501552,-1.9477912887344004,-0.2012801,-0.13194689,-0.02076942,66.77119,-106.38613,15.372563
3083946144000.0,0.1825845638159401,9.823201528854948,-1.9449246671867737,-0.18325958,-0.17134771,-0.0143553335,66.86394,-106.33382,15.307647
3083951141000.0,0.1639291108018012,9.823919060763568,-1.9420545994902216,-0.15149458,-0.22602014,-0.009162978,66.9644,-106.29079,15.249741
3083956366000.0,0.1444224584105914,9.82466933177068,-1.9390535781345115,-0.10170906,-0.27580565,0.0033597588,67.07472,-106.25591,15.195758
3083961253000.0,0.1261776717625833,9.825371068500202,-1.9362466898349215,-0.059864793,-0.33628133,0.0076358155,67.20326,-106.22343,15.139945
3083966135000.0,0.0705326574190665,9.802721613406156,-1.94871947714002,-0.0076358155,-0.41355577,0.01740966,67.35084,-106.202576,15.08813
3083971143000.0,-0.0485354867080436,9.740805924031775,-1.986821256206554,0.048563786,-0.47403142,0.0070249503,67.50942,-106.18291,15.031257
3083976116000.0,-0.1578303133473622,9.67797277429774,-2.021128940217285,0.09621128,-0.52839845,0.0033597588,67.70321,-106.09011,14.885652
3083981218000.0,-0.2534765241000293,9.61102057208574,-2.0498227839678966,0.14202617,-0.5674938,0.004276057,67.90838,-106.00442,14.739268
3083986165000.0,-0.3501055868340699,9.5532919214544,-2.084077022217758,0.1908954,-0.59131753,-0.016493361,68.1501,-105.90156,14.55408
3083991153000.0,-0.4556620977460828,9.510109849537969,-2.132057313660104,0.21624629,-0.5830709,-0.03359759,68.391655,-105.806496,14.372462
3083996120000.0,-0.5530714620586475,9.474452237924254,-2.186753391057536,0.23640485,-0.57696223,-0.058643065,68.67081,-105.70032,14.15663
3084001146000.0,-0.6353712345302214,9.453877305548431,-2.2567081611353337,0.26542094,-0.5488624,-0.081855945,68.93765,-105.59996,13.940283
3084006559000.0,-0.7214621943575579,9.433795351843033,-2.3361287486141533,0.27763826,-0.5119051,-0.113926366,69.23952,-105.485725,13.685973
3084011237000.0,-0.7641332091856368,9.442329727688351,-2.4556076489475185,0.28924468,-0.43585235,-0.1469131,69.517136,-105.37669,13.430738
3084016120000.0,-0.8086741594647109,9.451238098199829,-2.580322371121059,0.29718593,-0.3475823,-0.18325958,69.836586,-105.26359,13.136047
3084021151000.0,-0.7549618318556617,9.507900903992162,-2.7586168431300515,0.28252518,-0.23060162,-0.21319197,70.11965,-105.15252,12.842341
3084026690000.0,-0.6813410831627071,9.577190633112908,-2.962156575532697,0.28038713,-0.10048734,-0.2501493,70.36698,-105.0442,12.545198
3084031198000.0,-0.5957196867528336,9.629019152515411,-3.0753108637701336,0.26725355,0.055283304,-0.27580565,70.665596,-104.95471,12.219067
3084036267000.0,-0.4702309320918671,9.682110602604892,-3.142881772758004,0.24678956,0.21013765,-0.2941316,70.918884,-104.86999,11.896283
3084041155000.0,-0.3375817487857074,9.716758857838922,-3.138362713318047,0.23945917,0.28069258,-0.30757064,71.330025,-104.854904,11.541693
3084046134000.0,-0.187248666433553,9.7304257775867,-3.042696177825547,0.22327125,0.40500367,-0.3231477,71.66615,-104.84688,11.1988945
3084051153000.0,-0.0316399245611222,9.74923956513026,-2.9334622704208417,0.19761491,0.5155703,-0.33444872,72.2943,-104.92681,10.788544
3084056178000.0,0.1323077193266533,9.778171078156312,-2.79844656250501,0.1881465,0.5873469,-0.3381139,72.86464,-105.02386,10.391063
3084061173000.0,0.2998819050700664,9.817802792856387,-2.668776840554209,0.16890424,0.6417139,-0.33841935,73.51321,-105.13878,9.94005
3084066170000.0,0.4763580967611421,9.878309086608365,-2.54776462159941,0.15424347,0.6649268,-0.33536503,74.11436,-105.26887,9.50415
3084071148000.0,0.6376170668599594,9.944515622789211,-2.4356771383589444,0.15057829,0.675617,-0.32650748,74.6961,-105.39591,9.053331
3084076148000.0,0.7810794230984827,10.01856075664444,-2.333865067227216,0.15790866,0.6728681,-0.30757064,75.247406,-105.53666,8.619907
3084081172000.0,0.9212693044033302,10.090113934875117,-2.2282198578815917,0.17379116,0.655153,-0.2950479,75.87718,-105.69723,8.139375
3084086191000.0,1.054662438519889,10.156810455504164,-2.1170589437372804,0.18051068,0.6203337,-0.27122417,76.48474,-105.870514,7.680635
3084091168000.0,1.1773892171335438,10.21920699429561,-2.008588127727412,0.20677789,0.56505036,-0.25289822,77.264984,-106.09265,7.125704
3084096212000.0,1.2659598430274015,10.268413354283387,-1.905255799358256,0.22418754,0.49846604,-0.23548855,78.020355,-106.32186,6.5932794
3084101200000.0,1.3382938528147788,10.302272275644142,-1.809003404637822,0.23273966,0.4266894,-0.20952678,78.84764,-106.56697,6.0204477
3084106172000.0,1.3660716940982012,10.293012318424893,-1.7302994726592125,0.22540927,0.35277468,-0.18173242,79.65735,-106.81374,5.46902
3084111182000.0,1.3895516233598897,10.275429018884626,-1.6599619600767188,0.2180789,0.26206118,-0.16218472,80.48408,-107.05453,4.9371114
3084116276000.0,1.3943498637257794,10.22264772351726,-1.6263738766892888,0.19120082,0.17745635,-0.1423316,81.29927,-107.283676,4.4268665
3084121254000.0,1.3959943223280422,10.172007276719576,-1.6030256756613757,0.16218472,0.087659165,-0.12308934,82.140724,-107.5008,3.9201646
3084126147000.0,1.3835977299206348,10.12655307579365,-1.623686734920635,0.116675265,0.010995574,-0.105374254,82.97455,-107.69742,3.4310083
3084131182000.0,1.3708413753791888,10.079779746208112,-1.6449473998236332,0.06811147,-0.065973446,-0.098043874,83.81728,-107.87607,2.9473138
3084136195000.0,1.3656941526646045,10.052065134688467,-1.6851032129209014,0.029626964,-0.10048734,-0.08124508,84.64678,-108.03548,2.4856503
3084141116000.0,1.3615291122050377,10.027075022403888,-1.726753661007512,-0.004276057,-0.13927728,-0.07574729,85.475075,-108.17164,2.0330038
3084146143000.0,1.3536157882986588,9.960722497623824,-1.802741576850776,-0.0125227375,-0.17287487,-0.06291912,86.28198,-108.2975,1.6068537
3084151178000.0,1.3434311462034003,9.86906039972542,-1.8994957831027564,-0.030848695,-0.18295415,-0.052534413,87.074036,-108.40079,1.1958615
3084156195000.0,1.337386305816278,9.79445658724417,-1.985538765616373,-0.043676864,-0.18234327,-0.048258353,87.84194,-108.49851,0.8067795
3084161186000.0,1.3328363002189434,9.72620650328415,-2.067438961389814,-0.059253927,-0.18112154,-0.04062254,88.59756,-108.5809,0.43459886
3084166317000.0,1.3502395705522705,9.637760431492431,-2.148156454806054,-0.050701816,-0.1777618,-0.027183503,89.292145,-108.66275,0.09502675
3084171150000.0,1.378074395289165,9.54497768236945,-2.22238265410444,-0.046120327,-0.15760323,-0.028405234,89.96901,-108.73103,-0.23302957
3084176140000.0,1.382799360057943,9.483499681216804,-2.2972507804925155,-0.05955936,-0.13958271,-0.01282817,90.60354,-108.79638,-0.52636224
3084181197000.0,1.3734454484017382,9.441407176436504,-2.3720821714147755,-0.06169739,-0.12370021,0.003970624,91.22344,-108.85899,-0.80821395
3084186172000.0,1.3777382620588234,9.407068304614604,-2.412033490791075,-0.060170226,-0.10934488,0.016493361,91.80247,-108.92022,-1.0572742
3084191155000.0,1.3922578447058822,9.378029189858012,-2.4265531239756597,-0.062308256,-0.10140363,0.034513887,92.37303,-108.97276,-1.2914624
3084196145000.0,1.390273042921475,9.358176787644243,-2.42456831528286,-0.05131268,-0.10567969,0.049785517,92.9107,-109.03048,-1.5046738
3084201148000.0,1.3767879419833005,9.344691592832348,-2.411083167407824,-0.047647487,-0.11453723,0.063224554,93.442444,-109.0791,-1.706546
3084206172000.0,1.3715991612946343,9.350081744510216,-2.393199683062822,-0.05009095,-0.12614368,0.08124508,93.967674,-109.12502,-1.8932852
3084212357000.0,1.3772542968206989,9.38401303007447,-2.364923710177582,-0.040011674,-0.1386664,0.09590584,94.49049,-109.169266,-2.0722
3084216122000.0,1.3675683239992338,9.427681694694504,-2.3526112305305498,-0.028710667,-0.1572978,0.11026118,95.007965,-109.20393,-2.2422233
3084221146000.0,1.3353143113579773,9.519836153993488,-2.3433957846006512,-0.021685716,-0.14844026,0.12980886,95.51771,-109.23388,-2.39991
3084226132000.0,1.292115317774176,9.5934101154331,-2.334398932991176,-0.010995574,-0.16493362,0.14202617,96.047165,-109.25971,-2.5594313
3084231211000.0,1.217660909508374,9.61968820106249,-2.325639464406627,0.011301007,-0.16890424,0.15332718,96.567116,-109.28438,-2.7064884
3084236335000.0,1.1399653217091297,9.644307535031848,-2.316661952653928,0.032986723,-0.17440203,0.16554448,97.09199,-109.30101,-2.8557575
3084241152000.0,1.042021649341826,9.64920430700637,-2.3068675905307856,0.057421334,-0.16462818,0.17562376,97.60951,-109.31876,-2.996027
3084246190000.0,0.94506844652264,9.649637380585972,-2.29780288798461,0.06566802,-0.1695151,0.18295415,98.14346,-109.336296,-3.1497264
3084251147000.0,0.8748224459751406,9.628563895827169,-2.294290591624741,0.089491755,-0.17928895,0.18997909,98.671036,-109.35881,-3.2944696
3084256186000.0,0.8034144175791654,9.607141807931342,-2.2907201939331165,0.11362094,-0.17165314,0.18906279,99.198975,-109.38359,-3.4565868
3084261233000.0,0.7228023169333194,9.581513560386975,-2.2840409035576825,0.1441642,-0.16279559,0.18325958,99.72311,-109.41102,-3.612592
3084266156000.0,0.6345219829501716,9.552086690211173,-2.2742319809736817,0.1572978,-0.15302174,0.17959438,100.23885,-109.43454,-3.7613878
3084271146000.0,0.549418728391784,9.543167566687597,-2.2650354114629114,0.17440203,-0.13439035,0.17012598,100.75067,-109.47114,-3.9291756
3084276146000.0,0.4678152841366938,9.551757126289354,-2.256445627625796,0.17684549,-0.10751228,0.15821409,101.25038,-109.501976,-4.090349
3084282223000.0,0.3785690797550949,9.564299855156127,-2.248334027884195,0.17623462,-0.07941248,0.14905111,101.74591,-109.53921,-4.269237
3084286165000.0,0.3290390789364121,9.574206056678038,-2.245032029668504,0.18600847,-0.03604105,0.1423316,102.222176,-109.57516,-4.439617
3084291307000.0,0.2643288289627898,9.58918663526874,-2.240463230918569,0.17379116,0.005192355,0.122783914,102.693565,-109.60697,-4.6286263
3084296143000.0,0.2018893535035053,9.63497563580802,-2.2321379738989755,0.16737708,0.036651913,0.11148291,103.148766,-109.638016,-4.806514
3084301118000.0,0.1376551950233687,9.682080738720115,-2.223573425993169,0.1563815,0.08093964,0.100792766,103.592514,-109.66637,-4.992114
3084306251000.0,0.085316963474218,9.711319748943366,-2.1845967360946745,0.1518,0.116675265,0.07452556,104.02006,-109.692276,-5.174985
3084311202000.0,0.0381638915663069,9.734896267664462,-2.1398013012878523,0.15424347,0.15454891,0.06169739,104.428215,-109.7128,-5.3452644
3084316174000.0,-0.0091891832723385,9.758572787777831,-2.094815863626871,0.15454891,0.1957823,0.05131268,104.83108,-109.732895,-5.531934
3084321148000.0,-0.0565613060091492,9.782258831833325,-2.049812330455969,0.15118915,0.22082779,0.04795292,105.22048,-109.74955,-5.710054
3084326142000.0,-0.0525228739350004,9.780239466089323,-1.99994419708086,0.16401732,0.2510656,0.03023783,105.59468,-109.770775,-5.883523
3084331232000.0,-0.0335500413282086,9.770752859102853,-1.9477689482728424,0.1600467,0.28344148,0.021991149,105.95532,-109.78269,-6.045349
3084336162000.0,-0.0004930099955411,9.771872747567896,-1.888629203029996,0.16249016,0.29749137,0.015577064,106.3445,-109.79565,-6.2373333
3084341156000.0,0.0382800517482772,9.776719478212405,-1.825622969852047,0.15088372,0.3210097,0.008857546,106.71322,-109.80127,-6.418689
3084346140000.0,0.1410727032331663,9.757950943516972,-1.6835461796327211,0.14263703,0.34391713,0.006414085,107.08815,-109.79945,-6.5916667
3084351787000.0,0.2815147706080504,9.7278561311445,-1.492946259933222,0.1282817,0.36926803,-0.0021380284,107.44677,-109.79123,-6.7572355
3084356220000.0,0.3735581000508721,9.711376478197677,-1.3976570776889536,0.12034045,0.37110063,0.0021380284,107.82216,-109.77011,-6.9139442
3084361207000.0,0.4677681476744186,9.69650142524917,-1.3183223056478406,0.112399206,0.3811799,0.0036651916,108.17968,-109.743835,-7.0625806
3084366143000.0,0.5595574785598377,9.643126254361055,-1.2313054545233266,0.08399397,0.37201694,-0.00030543262,108.569664,-109.675476,-7.1966333
3084376150000.0,0.7190894133736462,9.499909436191334,-1.0687630052436825,0.055588737,0.36071593,0.011911872,108.95137,-109.60093,-7.3174233
3084381181000.0,0.7756193549133574,9.430334066245488,-1.007884590595668,0.027488936,0.33964106,0.013439035,109.35228,-109.50273,-7.4208655
3084386185000.0,0.8514065221236802,9.35493613815988,-0.9486614388034188,0.01160644,0.312763,0.01740966,109.76979,-109.38206,-7.505311
3084391355000.0,0.950978351565611,9.27029941719457,-0.8889183328205128,-0.01038471,0.29626966,0.025350908,110.183105,-109.25025,-7.5826354
3084396149000.0,1.036715242570316,9.195386515015146,-0.8476580386057984,-0.03176499,0.26633725,0.03145956,110.60767,-109.102234,-7.6487155
3084401156000.0,1.119711499896149,9.120690134746862,-0.8186093658745132,-0.048563786,0.24007004,0.043066,111.0296,-108.94693,-7.706086
3084406218000.0,1.2041034743786052,9.052832162244362,-0.7919491927194546,-0.064751714,0.21044308,0.044593163,111.44871,-108.770744,-7.7431636
3084411165000.0,1.2885712035762975,9.01805114640797,-0.7770430956990036,-0.092240654,0.18753563,0.050396383,111.86831,-108.584755,-7.7724957
3084416117000.0,1.3773214277772192,8.987479766964913,-0.7571472952146375,-0.10995574,0.15393804,0.05467244,112.28602,-108.385414,-7.7827687
3084421459000.0,1.485328375781643,8.966907132602795,-0.7211449971147079,-0.10781772,0.14080444,0.06688975,112.70026,-108.1822,-7.785239
3084426125000.0,1.5712282625663794,8.948494720466615,-0.7002707559066771,-0.12797627,0.13652839,0.06719518,113.12637,-107.96267,-7.7702394
3084431197000.0,1.6431139168190128,8.927351893967094,-0.7044993212065813,-0.14049901,0.13255776,0.073303826,113.55195,-107.74327,-7.7477007
3084436568000.0,1.7219357036942442,8.906737498312506,-0.7117586208355378,-0.14019357,0.12308934,0.07360926,113.9757,-107.507454,-7.7031794
3084441149000.0,1.821979846374168,8.910739344248837,-0.7517762695503056,-0.17012598,0.1301143,0.08155051,114.39206,-107.259285,-7.651051
3084446115000.0,1.9304319774696708,8.915077516464471,-0.7951571129289428,-0.17684549,0.14263703,0.0852157,114.80209,-107.010506,-7.5757337
3084451145000.0,2.045376202202048,8.945353254973924,-0.8154566783928916,-0.19333886,0.16615535,0.0983493,115.20385,-106.750145,-7.4923396
3084456172000.0,2.161617784720881,8.982550336101989,-0.8294056760633571,-0.20738874,0.1872302,0.118202426,115.599106,-106.488335,-7.4035416
3084461233000.0,2.248749470215551,9.004990281787242,-0.8300899312156383,-0.22540927,0.21288654,0.13225232,115.969505,-106.21368,-7.2827806
3084466246000.0,2.324162156645432,9.021748987084388,-0.8259003248869884,-0.24740042,0.21777347,0.14966199,116.338104,-105.93314,-7.155166
3084471151000.0,2.3675283350577,9.0206443247115,-0.7989221264206128,-0.26725355,0.20799962,0.16249016,116.69656,-105.63524,-6.999157
3084476143000.0,2.372284342379626,8.996864288101872,-0.7418500087604457,-0.2828306,0.16462818,0.16798794,117.06092,-105.33409,-6.8428807
3084481184000.0,2.352475003444478,8.964575902172825,-0.6820063490037048,-0.2959642,0.09896017,0.1872302,117.43921,-105.01719,-6.6619635
3084486226000.0,2.2992908646440373,8.921061326824873,-0.6191525154881347,-0.3182608,0.00030543262,0.19333886,117.835304,-104.6979,-6.4889975
3084491427000.0,2.1459110121638707,8.856233902638456,-0.5455001991705303,-0.33292156,-0.10873401,0.19394971,118.2512,-104.368645,-6.3194184
3084496145000.0,1.902150131358004,8.776250220939055,-0.4693248975705976,-0.33353242,-0.23518312,0.19211712,118.69631,-104.039665,-6.1562214
3084501245000.0,1.643133960798494,8.693409878739846,-0.3936481267029919,-0.35002577,-0.36193767,0.19456059,119.18023,-103.70385,-6.0047655
3084506204000.0,1.4502325454131166,8.660475319397662,-0.4077628634555181,-0.36254853,-0.47555858,0.18997909,119.69039,-103.37221,-5.861316
3084511292000.0,1.253621704871504,8.62840251408814,-0.427689576449582,-0.36835176,-0.5684101,0.18295415,120.23736,-103.06536,-5.7896934
3084516162000.0,1.0851454144906596,8.623588808855402,-0.5287753406254515,-0.3830125,-0.6417139,0.17898351,120.80286,-102.7542,-5.7190433
3084521191000.0,0.9178076039700503,8.62084026562772,-0.6374921488559986,-0.39278635,-0.68508536,0.15577064,121.359085,-102.470985,-5.686855
3084526147000.0,0.8103699508096813,8.637369254831968,-0.782119788253526,-0.42180246,-0.68783426,0.13041973,121.91512,-102.18079,-5.6519423
3084531172000.0,0.70143649497214,8.654128369188577,-0.9287610085869756,-0.43188173,-0.6780604,0.12308934,122.45202,-101.93084,-5.641846
3084537173000.0,0.6117863370407955,8.633088174243962,-1.1475743934239904,-0.44012842,-0.6206391,0.10293079,122.96491,-101.68016,-5.63353
3084541121000.0,0.5580691374873148,8.613903474426628,-1.2972151721940328,-0.46670106,-0.5467244,0.08002335,123.46093,-101.42503,-5.6204844
3084546144000.0,0.5020956835548842,8.573727514048338,-1.4426220321752266,-0.48288897,-0.43401974,0.05681047,123.87186,-101.21098,-5.620669
3084551117000.0,0.4493383635448137,8.530562324773413,-1.5769133148036254,-0.48655418,-0.31978795,0.033292156,124.25376,-100.998695,-5.618976
3084556195000.0,0.3913659911049724,8.45311894820442,-1.6379580134668508,-0.48349985,-0.19425514,0.025350908,124.552666,-100.82344,-5.6169186
3084561177000.0,0.3337034354281767,8.370743487741713,-1.683264323187155,-0.45662177,-0.07452556,-0.0030543262,124.81455,-100.66177,-5.6192093
3084566152000.0,0.3143428912900523,8.268740528481676,-1.686273085685864,-0.43554693,0.02687807,-0.021380283,125.011246,-100.528915,-5.6244893
3084571145000.0,0.3293639370554974,8.148572350575916,-1.6512239510157067,-0.41599923,0.13713925,-0.020463986,125.16867,-100.40558,-5.624715
3084576141000.0,0.3977844199043062,8.031870429938483,-1.6150992902939163,-0.3921755,0.23151793,-0.017715093,125.27841,-100.311935,-5.640505
3084581265000.0,0.5026023368421053,7.914474616541353,-1.5773648654135335,-0.38698313,0.31429017,-0.011911872,125.35916,-100.21977,-5.6495295
3084586246000.0,0.6332959513497527,7.775140425080663,-1.527365740546354,-0.39064834,0.39706242,0.0143553335,125.408455,-100.12413,-5.644032
3084591208000.0,0.8326167109647236,7.575819585416219,-1.445593069219187,-0.39278635,0.4538729,0.03390302,125.4414,-100.0322,-5.6358504
3084596194000.0,1.012337073424616,7.396099168590665,-1.361509032839095,-0.4016439,0.4822781,0.06566802,125.45361,-99.90995,-5.589473
3084601208000.0,1.164902389507527,7.243533833542628,-1.2743289280807928,-0.42546764,0.50243664,0.10140363,125.45385,-99.78229,-5.5351834
3084607570000.0,1.3596817251012143,7.047715380850202,-1.1572001406477732,-0.4361578,0.473726,0.13347405,125.47057,-99.61862,-5.4375544
3084611398000.0,1.493260714979757,6.899294405829959,-0.9976473958704452,-0.46303585,0.408058,0.16279559,125.49471,-99.44313,-5.3329434
3084616214000.0,1.6613162048582997,6.712566240809716,-0.7969143710931175,-0.48808134,0.2864958,0.19211712,125.55856,-99.219604,-5.185096
3084621206000.0,1.806680944198552,6.53953701540848,-0.5652771932450879,-0.5103779,0.12858713,0.22571471,125.65387,-98.98828,-5.0335884
3084626110000.0,1.9426696249017577,6.374407874146845,-0.3321537724881075,-0.5311473,0.04886922,0.23793201,125.76244,-98.75337,-4.883276
3084631279000.0,1.9890615020551072,6.230023393210534,-0.2032975806361698,-0.5494733,-0.12583824,0.25778514,125.9771,-98.45611,-4.694872
3084636186000.0,2.0176767297001064,6.0976778159537215,-0.0995673034827218,-0.6044512,-0.30726522,0.2883284,126.21686,-98.14482,-4.5041733
3084641151000.0,2.0230388135306354,5.98772182322239,-0.0580521468296142,-0.6737844,-0.45845437,0.31398472,126.53216,-97.77251,-4.2912617
3084646211000.0,1.9497277097106656,5.95564823623298,-0.2275840814703101,-0.7415904,-0.571159,0.33841935,126.88743,-97.385704,-4.0746355
3084651206000.0,1.8750793358776665,5.943270476501328,-0.399223950156772,-0.81489426,-0.65270954,0.35705075,127.28744,-96.954735,-3.8515153
3084656202000.0,1.7849049384476998,6.062136842439818,-0.6000669764430737,-0.8918633,-0.6908886,0.3753767,127.705376,-96.50565,-3.6220088
3084661197000.0,1.6947485903366744,6.180979416071276,-0.8008698019635055,-0.9468411,-0.6951646,0.39400807,128.0929,-96.08344,-3.4000533
3084666149000.0,1.661037563880597,6.503843022089552,-0.9843432902487562,-0.9828822,-0.6621779,0.41599923,128.47888,-95.64706,-3.1706092
3084671115000.0,1.6421088025074626,6.882417360119403,-1.1641662021094528,-1.0030408,-0.64873886,0.4370741,128.86974,-95.20192,-2.9353535
3084676917000.0,1.7223300144276703,7.391160793961399,-1.3337217832027517,-0.9877691,-0.6197228,0.45570546,129.20525,-94.81161,-2.719633
3084681164000.0,1.8000535230651633,7.775892003458819,-1.4503069650009557,-0.9645562,-0.6001751,0.46975538,129.53804,-94.41963,-2.498843
3084686171000.0,1.9564126080283235,8.18755462142216,-1.575547512895183,-0.93309665,-0.5867361,0.48624873,129.84091,-94.062164,-2.2817345
3084691155000.0,2.142061513184402,8.577893478906951,-1.6945532251520894,-0.8698721,-0.58093286,0.5149594,130.13893,-93.71824,-2.0579143
3084696143000.0,2.3723665881518405,8.785539627731978,-1.7303165298312884,-0.8081747,-0.57543504,0.5314528,130.42662,-93.38956,-1.8205434
3084701164000.0,2.6258830003834355,8.905383514474693,-1.725707144018405,-0.7263188,-0.59895337,0.5702427,130.7197,-93.08052,-1.5714804
3084706226000.0,2.8938354321121498,8.884222648785046,-1.6052088679626169,-0.6395759,-0.6407976,0.6230826,131.017,-92.78151,-1.2827568
3084711161000.0,3.1632704279532717,8.769381739672896,-1.410862387682243,-0.56107974,-0.7199047,0.6960809,131.33018,-92.51114,-0.98224986
3084716148000.0,3.4265784773936425,8.635460965763949,-1.053838758244502,-0.4792238,-0.86467975,0.7892379,131.69585,-92.24882,-0.6148141
3084721138000.0,3.67898933468741,8.479425108182081,-0.4985347571881302,-0.41386122,-0.979217,0.9193522,132.0738,-92.04867,-0.22262372
3084726152000.0,3.916079793634213,8.355593987780845,0.197358843289318,-0.39492437,-1.3234396,0.9801333,132.6005,-91.881676,0.23546116
3084731208000.0,4.126022072546315,8.288793804887662,1.1420992976842728,-0.39767328,-1.8063285,1.1224649,133.1973,-91.870346,0.743936
3084736180000.0,4.324343930868167,8.281196784565918,1.972729778456592,-0.46944994,-2.3478606,1.2788464,133.98517,-91.9575,1.3359146
3084741144000.0,4.506788926076133,8.38474723534903,2.6137530170832903,-0.58459806,-2.8863382,1.4541647,134.90147,-92.27296,1.9633582
3084746640000.0,4.659320091431557,8.729993768025079,3.138263371443499,-0.7266242,-3.388164,1.6447546,136.08153,-92.73641,2.6635377
3084751147000.0,4.7366379825496345,9.235780893416928,3.389546248462457,-0.86590147,-3.8395934,1.8490891,137.37769,-93.417465,3.415948
3084756224000.0,4.823734262382445,9.80553488401254,3.672608854769369,-0.9963212,-4.24307,2.051591,138.8337,-85.69011,4.272514
3084761178000.0,4.939471645579268,10.505260460365854,3.4837678083841466,-1.0815369,-4.5420885,2.2812762,140.35266,-84.6586,5.199426
3084766158000.0,5.0666999700838415,11.259543520579268,3.129345677858232,-1.1432343,-4.714658,2.5384505,141.91187,-83.526764,6.196873
3084771157000.0,5.285409770196983,12.312571895244377,2.664686281035193,-1.142318,-4.7079387,2.8151724,143.48776,-82.28518,7.2824807
3084776146000.0,5.557125850309075,13.53726263479766,2.137006046394132,-1.0906999,-4.4956627,3.1202996,145.00513,-80.9769,8.442841
3084781238000.0,5.812400954048071,14.808075388361797,1.5992782597406705,-1.0103711,-4.086383,3.4202344,146.40001,-79.664345,9.644056
3084786227000.0,5.983650561669829,16.127706385199243,1.0754554015180269,-0.9468411,-3.4807103,3.6994,147.63274,-78.31145,10.898892
3084791113000.0,5.962556911398544,17.21569644017785,0.6019336539450283,-0.9923506,-2.730873,3.9272528,148.6443,-76.9811,12.185726
3084796228000.0,5.487355527506063,17.864148290925627,0.2009822943957154,-1.162782,-1.8750509,4.036292,149.41881,-75.6449,13.465341
3084801118000.0,4.9776224696175575,18.375362958236877,-0.2170970472302991,-1.4083499,-0.9611965,3.9339721,149.91127,-74.40675,14.65562
3084806251000.0,4.322125060607464,18.675799601444577,-0.7314803816390406,-1.6566665,-0.046731193,3.6474764,150.13855,-73.21389,15.76329
3084811208000.0,3.6543729192837726,18.83165399100028,-1.2007512838098808,-1.81091,0.7125743,3.220787,150.08678,-72.23525,16.63863
3084816173000.0,2.8252657679760005,18.368066723258647,-1.543983777153839,-1.8438967,1.2244794,2.8087585,149.84242,-71.34433,17.389336
3084821317000.0,1.962113464559881,17.874056045914806,-1.900218670844972,-1.7302758,1.5118915,2.4740043,149.39563,-70.70925,17.881708
3084826146000.0,1.0941861043134602,17.220082735247907,-2.243352758606844,-1.5296066,1.5916094,2.3356433,148.8737,-70.14847,18.28962
3084831278000.0,0.1717998519248427,16.52507527400489,-2.6080171070006983,-1.4223998,1.6572775,2.096184,148.25029,-69.82745,18.44616
3084836225000.0,-0.6827111068755203,15.792402142483787,-2.960751702981318,-1.1780536,1.6426166,1.8723019,147.64642,-69.57979,18.563738
3084841178000.0,-1.5275317572258251,15.039409984125449,-3.314290763798277,-0.9505063,1.5497651,1.6566665,147.07062,-69.4053,18.6144
3084846207000.0,-2.036856545539947,14.65489270526778,-3.4198474109218613,-0.766025,1.3637567,1.4523321,146.50485,-69.431946,18.490059
3084851201000.0,-2.3811743427480248,14.449142097541705,-3.407250429569798,-0.6062838,1.1661417,1.3213016,145.99031,-69.5177,18.334307
3084856164000.0,-2.289996640614965,14.501743821251338,-3.157965323732607,-0.4792238,0.94042706,1.2724323,145.54175,-69.759,18.04689
3084862213000.0,-1.3937343746229445,15.031609616716942,-2.4251723826797704,-0.3707952,0.786489,1.2846496,145.14049,-70.030876,17.753254
3084866180000.0,-1.0630256,15.227123,-1.9619154828894187,-0.2773328,0.70616025,1.3408492,144.74748,-70.34585,17.435938
3084871214000.0,-1.0630256,15.227123,-1.40232583820085,-0.1853976,0.6719518,1.4071281,144.39081,-70.66234,17.138287
3084876202000.0,-0.4037574053390929,15.113756672224625,-0.8449821683801295,-0.12522738,0.63713247,1.4636332,144.08653,-70.852745,16.965658
3084881256000.0,1.1768599835680345,14.841957136846652,-0.2762944085097192,-0.044898596,0.56688297,1.5112807,143.80704,-71.03764,16.81849
3084886258000.0,2.598299552908881,14.533455233192065,0.2767717419235215,0.02687807,0.4034765,1.5586227,143.54361,-71.17509,16.711533
3084891205000.0,2.9451124139279523,13.93565969601233,0.7513577936139473,0.10995574,0.16126843,1.5971072,143.33138,-71.30979,16.626938
3084896464000.0,3.273442032186366,13.282389196317306,1.2269214185250628,0.19853121,-0.10873401,1.599856,143.29729,-71.16606,16.828688
3084901208000.0,3.142464352506277,12.504972758857992,1.349448928168883,0.2574797,-0.3652974,1.5436565,143.33412,-71.036674,17.028366
3084906155000.0,3.0058820208499952,11.69428997721566,1.4772194994606158,0.32375857,-0.5491679,1.4236214,143.45596,-70.83103,17.301414
3084911226000.0,2.702933151335917,10.7458002367938,1.3989715720171323,0.35246924,-0.67011917,1.2476922,143.6377,-70.66072,17.542093
3084916154000.0,2.385287166755048,9.807300679787884,1.293089526901897,0.38545597,-0.6924158,1.0311406,143.84749,-70.54316,17.733015
3084921203000.0,2.045454643121273,8.942172867196819,1.0952791429622266,0.37140608,-0.679893,0.7861836,144.06906,-70.44038,17.892336
3084926107000.0,1.7139942580715706,8.111187629821073,0.8945356091252485,0.36285394,-0.6102544,0.65179324,144.2792,-70.37126,18.014963
3084932353000.0,1.4267325988353574,7.268161366215409,0.5951929032231733,0.33750305,-0.42455134,0.2648101,144.44846,-70.41858,18.003027
3084936143000.0,1.2605350626020306,6.769568870694804,0.4109304146107903,0.32406402,-0.35063666,0.14294247,144.61937,-70.43212,18.027136
3084941209000.0,1.1282971810913074,6.295735446081848,0.1902726363859404,0.32467487,-0.16523905,-0.10262536,144.68974,-70.58023,17.897638
3084946111000.0,1.0114359025490391,5.861011560191177,-0.0200776317992631,0.3323107,0.022907447,-0.31795537,144.73688,-70.750534,17.739775
3084951202000.0,0.8429758422975995,5.600907408902711,-0.1429996274537856,0.35277468,0.21074851,-0.52595496,144.71793,-70.98184,17.520252
3084956220000.0,0.6701614138594616,5.372045056409758,-0.2504248036831568,0.3848451,0.36743546,-0.72418076,144.65804,-71.267296,17.239098
3084961221000.0,0.4373596898296081,5.234140944031272,-0.2761618230931141,0.44104472,0.49480084,-0.9071349,144.53694,-71.602,16.913298
3084966120000.0,0.1975325550285657,5.116578496441816,-0.2855668031873308,0.50579643,0.5671884,-1.0638218,144.39136,-71.98361,16.539095
3084971203000.0,-0.116958273902439,5.054534583551703,-0.2550430457871397,0.55955255,0.5873469,-1.2055426,144.19608,-72.42062,16.114037
3084976155000.0,-0.4371992826829269,5.00673745232816,-0.2168053158536585,0.6224717,0.56413406,-1.3228287,143.99655,-72.897095,15.6558695
3084981253000.0,-0.6866754540401485,4.96083268638664,-0.0854739685138326,0.68325275,0.50671273,-1.4147639,143.76727,-73.42768,15.148284
3084986234000.0,-0.916012335699224,4.916574762069838,0.0593703899586707,0.7315111,0.42577308,-1.4972308,143.55418,-73.98761,14.618505
3084991192000.0,-1.157901066451948,4.872354947719481,0.2220257082753247,0.7690793,0.34269542,-1.5601498,143.32552,-74.60392,14.038098
3084996183000.0,-1.4161335396883117,4.827660840883117,0.405768063948052,0.7791586,0.25411993,-1.6197093,143.12184,-75.23767,13.445559
3085001382000.0,-1.5642730495383457,4.831545044111551,0.5283971993989072,0.7809912,0.1731803,-1.6664404,142.95782,-75.91383,12.8147135
3085006270000.0,-1.617197231712832,4.871238192255512,0.5945524063934426,0.7770206,0.118202426,-1.7067575,142.81041,-76.59911,12.176593
3085011228000.0,-1.600987528161381,4.981992583018868,0.6488776635026094,0.77763146,0.101098195,-1.7461584,142.68199,-77.31967,11.4976015
3085016208000.0,-1.4956849683460458,5.183024847169811,0.6871695202468888,0.7715228,0.10170906,-1.7993035,142.56358,-78.04768,10.809493
3085021199000.0,-1.3381557864863622,5.448343875553311,0.7144698848838277,0.766025,0.09987647,-1.8310685,142.44986,-78.7801,10.11378
3085026174000.0,-1.1150062483056296,5.794006729350721,0.7275963188998071,0.7593055,0.13225232,-1.8860464,142.32599,-79.52494,9.40129
3085031174000.0,-0.8464221371551723,6.171170392890592,0.7517538325564069,0.7611381,0.18875736,-1.9278907,142.192,-80.25048,8.706153
3085036177000.0,-0.4486788929310344,6.63520428697318,0.80784584348659,0.75411314,0.26175576,-1.9453003,142.04262,-80.973366,8.008948
3085041164000.0,-0.0176412474371474,7.0646358039575565,0.8513324484638181,0.7498371,0.3268129,-1.9306396,141.86276,-81.64719,7.3613687
3085046223000.0,0.4779184389886244,7.444410596013766,0.874489456354077,0.745561,0.38728857,-1.8924606,141.66121,-82.30774,6.7245793
3085051130000.0,0.9612260326741154,7.802715069013035,0.8844992765102422,0.73456544,0.44715336,-1.8289305,141.41753,-82.86725,6.191745
3085056216000.0,1.4691641612811916,8.147387416908753,0.8618234544283054,0.7312057,0.47708577,-1.7513506,141.1639,-83.40375,5.6844215
3085061154000.0,1.9550461790128664,8.473272390634888,0.8300552395486185,0.7443393,0.48472157,-1.6673567,140.85623,-83.79853,5.328392
3085066219000.0,2.4052227593756594,8.74951680689728,0.7328580391162203,0.7583892,0.4859433,-1.5937474,140.5462,-84.17102,4.9978967
3085071169000.0,2.800781597234122,8.985221409666604,0.6298922413671074,0.7672467,0.4700608,-1.5170839,140.27684,-84.4441,4.775933
3085076216000.0,3.0618525481467684,9.115756720618364,0.4993567236096107,0.78893244,0.4474588,-1.4504995,140.0131,-84.70274,4.574477
3085081184000.0,3.309016538673055,9.231570229038642,0.365652267449224,0.8240572,0.41538838,-1.3771957,139.7939,-84.89652,4.449558
3085086171000.0,3.4632240737631497,9.22659621466514,0.1815982359858348,0.870483,0.37995818,-1.2980887,139.5849,-85.07449,4.344701
3085091156000.0,3.600918372585608,9.192015003275436,0.0127041206431761,0.9233228,0.3368922,-1.2275337,139.42188,-85.226944,4.2713957
3085096145000.0,3.657825951980149,9.011807371414392,-0.0821419143404466,0.9767735,0.28588495,-1.1643091,139.27206,-85.36257,4.216969
3085101189000.0,3.678106743674812,8.766984021240601,-0.1418978584022556,1.0381655,0.23335053,-1.1191051,139.1666,-85.49878,4.169836
3085106199000.0,3.502241005610902,8.194292993045114,-0.0111258401691729,1.0906999,0.17379116,-1.0937542,139.07649,-85.618286,4.1341023
3085111338000.0,3.3241458562209605,7.631563202478059,0.1231981768301497,1.1285735,0.112704635,-1.106277,139.01826,-85.739136,4.0892673
3085116147000.0,3.190997928693857,7.465128404790914,0.2515906712049561,1.1609493,0.081855945,-1.1120802,138.96608,-85.84077,4.05308
3085121182000.0,3.050755434856988,7.3071036,0.3816263841183924,1.1682798,0.027183503,-1.1505647,138.94409,-85.95911,3.9806354
3085126144000.0,2.9045132850923245,7.3071036,0.4676512145564808,1.1655309,-0.005192355,-1.1939361,138.92227,-86.06771,3.9057426
3085131184000.0,2.7559722865405507,7.3071036,0.5550283095601013,1.1661417,-0.0143553335,-1.2382239,138.90993,-86.19342,3.798533
3085136355000.0,2.56663826095828,7.375233314665695,0.5530086944069958,1.1542299,0.016493361,-1.2797627,138.89322,-86.3181,3.6815777
3085141245000.0,2.3832063787392967,7.447752754089999,0.5402111305520132,1.1218541,0.09254608,-1.2971723,138.86392,-93.56379,3.5610821
3085146147000.0,2.225733378646616,7.548436153082707,0.5199414163007519,1.0613784,0.20005837,-1.3185526,138.80786,-93.41537,3.403187
3085151141000.0,2.0770994223558894,7.663507926115288,0.4959681886616541,1.0122037,0.3268129,-1.3396275,138.72357,-93.27153,3.2436454
3085156215000.0,1.9873254104019855,7.753449895884048,0.4454595575984946,0.9505063,0.47708577,-1.3420709,138.5891,-93.096886,3.048524
3085161225000.0,1.925852253050929,7.8302912121877,0.3839863962355861,0.86529064,0.63591075,-1.3545936,138.41685,-92.9198,2.8487751
3085166161000.0,1.8962108645954552,7.901371291612691,0.3150232209792513,0.7883216,0.7959574,-1.3603969,138.20512,-92.71579,2.6178567
3085171137000.0,1.9956103021626963,7.953686701690636,0.2103922150905697,0.7098254,0.96944314,-1.3646729,137.94688,-92.51289,2.3888385
3085176150000.0,2.1001463144316856,7.968204140317244,0.1076607904768392,0.63163465,1.1166617,-1.3683381,137.65248,-92.297005,2.140914
3085181244000.0,2.214083816397431,7.915982857541845,0.0079654502316076,0.54641896,1.2470814,-1.3652838,137.31795,-92.08517,1.8985783
3085186141000.0,2.360901319087137,7.902296128630706,-0.0706935230705394,0.462425,1.352761,-1.3616186,136.97188,-91.87899,1.6574265
3085191168000.0,2.593956853289864,7.968883268030034,-0.1134996349081209,0.38973203,1.4636332,-1.3295482,136.59224,-91.68418,1.4296728
3085196221000.0,2.815300220684468,8.062756236555096,-0.1048514462880782,0.29046643,1.557401,-1.2684617,136.20842,-91.511,1.2234616
3085201149000.0,3.001664406619029,8.21584115569763,0.0216099435878149,0.20341812,1.6444492,-1.1893547,135.80038,-91.35196,1.0351561
3085206507000.0,3.2042900779334333,8.382283728093268,0.1591059109082361,0.079107046,1.6850718,-1.10139,135.4092,-91.21313,0.89823234
3085211274000.0,3.38456566120252,8.530367293343362,0.2814357496944339,-0.026267206,1.6575829,-0.9914343,135.019,-91.08786,0.79169875
3085216293000.0,3.568233475468688,8.686419729158356,0.4186137941842839,-0.09590584,1.6270396,-0.86132,134.63483,-90.96348,0.7081857
3085221151000.0,3.656382437734344,8.839520364579178,0.673782022092142,-0.15577064,1.4892895,-0.7987063,134.29585,-90.834175,0.6364996
3085226503000.0,3.7461819675359793,9.000461230266026,0.9326640291103356,-0.172264,1.2739595,-0.6062838,134.05354,-90.79196,0.71002996
3085231225000.0,3.761959254792848,9.075403674225903,0.9681629460314,-0.18081611,1.0329732,-0.548557,133.86418,-90.77573,0.7600293
3085236142000.0,3.77838808186655,9.153440945922371,1.0051278283907543,-0.14752395,0.7800749,-0.44104472,133.78035,-89.1067,0.8887746
3085241143000.0,3.7795080522085303,9.297811407393365,0.8752584023374407,-0.07086037,0.5271767,-0.33841935,133.76967,-88.923584,1.0291086
3085246143000.0,3.774969284436019,9.465746004549764,0.6846300326691943,0.054061573,0.2950479,-0.2284636,133.82799,-88.696976,1.1991102
3085251141000.0,3.688675138482633,9.998242339122488,0.1981681214552102,0.17837265,0.118202426,-0.092240654,133.95126,-88.43831,1.4019864
3085256286000.0,3.5490542294332723,10.772912855575868,-0.4864247508299817,0.2996294,0.00061086525,0.051618114,134.12317,-88.16839,1.6349661
3085261188000.0,3.4176740452774714,11.369865386622566,-0.99735350246233,0.40866885,-0.06169739,0.2134974,134.30492,-87.90372,1.8956904
3085266244000.0,3.284211207203234,11.810292970599043,-1.3488057526644617,0.48838675,-0.046731193,0.36041048,134.49599,-87.62029,2.187621
3085271163000.0,3.1389936406306225,12.235135167313702,-1.663719203124704,0.5360342,-0.00030543262,0.48899764,134.61052,-87.41362,2.4527628
3085276152000.0,2.9489827028406403,12.655873537449104,-1.908018973534703,0.5510005,0.08032878,0.59406644,134.71059,-87.16717,2.7461576
3085281228000.0,2.753766394537037,13.093152681018518,-2.142296298796296,0.58001655,0.19150625,0.6533204,134.74983,-86.951294,3.0100076
3085286157000.0,2.554654622098765,13.56422233271605,-2.297700620123457,0.6044512,0.31306845,0.68569624,134.76466,-86.699326,3.288935
3085291174000.0,2.355676195222584,14.053480252985883,-2.423919945276873,0.61453044,0.4370741,0.7113526,134.71436,-86.473595,3.526308
3085296144000.0,2.172449156233343,14.574972379626889,-2.428618118507551,0.65240407,0.5534439,0.72326446,134.63484,-93.769966,3.762893
3085301158000.0,1.9783049388244391,15.0949840566512,-2.410892671113689,0.689056,0.6603453,0.74372846,134.50555,-93.99208,3.959168
3085306183000.0,1.7410373025135344,15.58812824893658,-2.289932701566125,0.75136423,0.7440339,0.7535023,134.35434,-94.22736,4.1512756
3085311184000.0,1.5067912344180352,16.063926745996124,-2.1517814324186477,0.8185594,0.7703011,0.7443393,134.18741,-94.43202,4.296462
3085316178000.0,1.28724668042436,16.42495631755585,-1.878570303968173,0.8503244,0.79534656,0.7348709,134.00227,-94.64841,4.441224
3085321169000.0,1.0669533405226668,16.715762514133335,-1.3819050719466666,0.89369583,0.77182823,0.6957755,133.83562,-94.81332,4.521395
3085326155000.0,0.8419979796906667,16.618139736533333,0.3540711242133336,0.93309665,0.6441574,0.66920286,133.69669,-94.98841,4.6004105
3085331212000.0,0.6138392833955555,16.51912682311111,2.114767398577778,0.91324353,0.15851954,0.65484756,133.68681,-95.10547,4.626105
3085336292000.0,0.236114740614362,15.880061002215731,2.515585625329842,0.75900006,-0.7281514,0.65148777,133.83142,-95.210945,4.641936
3085341151000.0,-0.1388169158505388,15.219244342834124,2.7733511464900795,0.40194935,-1.4123205,0.6795876,134.05714,-95.293236,4.6602607
3085346149000.0,-0.4955466279539852,14.814478993221035,1.6833067087099427,-0.02443461,-1.6814066,0.7150178,134.50043,-95.232834,4.682889
3085351546000.0,-0.8766345927272727,14.427259665953654,0.3768311306595365,-0.4196644,-1.6059648,0.7651087,135.02747,-95.158264,4.719835
3085356191000.0,-1.1819187722727271,14.522413029144383,-0.5469509032085562,-0.75777835,-1.3591752,0.78954333,135.56136,-95.036095,4.735718
3085361848000.0,-1.5537148118181818,14.638297329590015,-1.6719961057040995,-1.047023,-1.0094548,0.80878556,135.9478,-94.906906,4.702839
3085366148000.0,-1.8701388081555836,14.74639555395232,-2.3552515801129235,-1.255328,-0.6704246,0.77518797,136.25644,-94.781075,4.6716757
3085371111000.0,-2.242862183856127,14.875606356022583,-3.1056680256482645,-1.3787229,-0.34300083,0.70921457,136.46107,-94.681435,4.6454983
3085376145000.0,-2.5437230338188663,14.694539464823622,-3.578070286028537,-1.3988814,-0.01985312,0.59315014,136.49936,-94.54027,4.5326915
3085381148000.0,-2.823831495541022,14.438169425089178,-3.9768685772889416,-1.3435981,0.26297748,0.46578476,136.45403,-85.59549,4.4040504
3085386177000.0,-2.8927132926004413,13.94694278013245,-4.1783332623134655,-1.2269229,0.5403103,0.29993483,136.26343,-85.813576,4.1769066
3085391302000.0,-2.9057148632406182,13.38353897218543,-4.330018916838852,-1.0830641,0.79626286,0.14355333,136.00127,-86.048935,3.9226203
3085396198000.0,-2.794448544893525,12.721876427748803,-4.3957543,-0.9502009,1.0372492,0.030543262,135.64125,-86.35494,3.5993133
3085401166000.0,-2.577340899521947,11.946492211321166,-4.3957543,-0.83169305,1.2330315,-0.05467244,135.2264,-86.69092,3.2471774
3085406259000.0,-2.401851946232965,11.363648558669754,-4.297180530290564,-0.74006325,1.3833044,-0.13316862,134.75632,-87.05445,2.8754685
3085411195000.0,-2.2519393182051943,10.889600483243337,-4.159422849858576,-0.6963864,1.4443909,-0.1704314,134.26195,-87.42732,2.4982638
3085416159000.0,-2.102547144962917,10.495314484033786,-4.007461401225793,-0.66156703,1.5183055,-0.24190263,133.73778,-87.80143,2.1249623
3085421201000.0,-1.9533312116501853,10.246621002163163,-3.8284024162855377,-0.6435465,1.5509869,-0.33628133,133.21355,-88.190186,1.7398602
3085426150000.0,-1.801216137992278,10.131928615444016,-3.693193835830116,-0.63316184,1.5534303,-0.4260785,132.69638,-88.55885,1.3730043
3085431734000.0,-1.6205509384555985,10.209356488803088,-3.605442246023166,-0.6200282,1.5674802,-0.5311473,132.17165,-88.95547,0.9795498
3085436161000.0,-1.4434214362799636,10.33111346252655,-3.5230755107413776,-0.61300325,1.5592335,-0.61850107,131.6651,-89.32928,0.60001224
3085441141000.0,-1.1829385243754424,10.577125059573175,-3.4073053444624257,-0.59437186,1.5384641,-0.6939429,131.16264,-89.70291,0.19938728
3085446111000.0,-0.8594742191400536,10.861549013082858,-3.307256060248239,-0.5439755,1.4996742,-0.7535023,130.67697,-89.77434,-0.18280178
3085451149000.0,-0.4143824138208655,11.221668835961086,-3.2344228215028514,-0.48075095,1.4410311,-0.8072584,130.20692,-89.42105,-0.5783287
3085456564000.0,0.060315414653168,11.592030549035812,-3.171350394187328,-0.39645153,1.378112,-0.86254174,129.76038,-90.94808,-0.944641
3085461197000.0,0.4107069383546373,11.657219709458218,-3.346546161781451,-0.27580565,1.3252722,-0.893085,129.33104,-91.33087,-1.3120489
3085466140000.0,0.7845436104151515,11.726770760606062,-3.533464503939394,-0.12644911,1.3154984,-0.9101892,128.9237,-91.64813,-1.606507
3085471152000.0,1.1740026634347789,11.720587575724933,-3.7333383340694857,0.0076358155,1.3570372,-0.9166033,128.51933,-91.977264,-1.9001724
3085476112000.0,1.562061503905198,11.695001207110154,-3.9337642796660384,0.19181168,1.4285084,-0.88056225,128.1112,-92.31676,-2.1797092
3085481189000.0,1.9908395880756908,11.611732488986783,-4.05824461331598,0.35979962,1.5198327,-0.8145888,127.68187,-92.61939,-2.3922532
3085486171000.0,2.4350910822887464,11.487533643171806,-4.12034413598318,0.49418998,1.6056592,-0.71929383,127.2355,-92.93159,-2.5798812
3085491147000.0,2.7525248417537136,11.25378748251078,-4.10742650033541,0.59986967,1.6462818,-0.6542367,126.77371,-93.22624,-2.7002215
3085496140000.0,2.9770608412553905,10.93760402299952,-4.038691048873981,0.6918049,1.5952746,-0.61391956,126.31553,-93.53977,-2.7961693
3085501322000.0,3.176036408547525,10.573355780969662,-3.880266873823203,0.786489,1.416902,-0.6114761,125.89343,-93.83354,-2.823394
3085506199000.0,3.331393757252293,10.19673153290999,-3.649584724664853,0.8695667,1.2815952,-0.64751714,125.47435,-94.16153,-2.847766
3085511178000.0,3.4458139490129724,9.902909685843204,-3.422149981725888,0.93279123,0.93309665,-0.66706485,125.175,-94.48323,-2.83719
3085516146000.0,3.517372669825155,9.697178538635082,-3.2030014984771573,0.95630956,0.5479461,-0.7131852,124.92303,-94.839325,-2.8464139
3085521116000.0,3.4967594521134493,9.583281873376029,-2.9971601150594696,0.98624194,0.16890424,-0.7254025,124.7812,-95.17425,-2.831304
3085526142000.0,3.316205483293687,9.62731938188472,-2.8122025333394327,0.9633345,-0.16310102,-0.68477994,124.73342,-95.50781,-2.8206499
3085531213000.0,3.092992830575937,9.66107480701578,-2.6335034914865814,0.9049969,-0.4456262,-0.6239988,124.789116,-95.80451,-2.799815
3085536171000.0,2.711191248989848,9.65153007146447,-2.4903279233088758,0.77549344,-0.6945538,-0.5684101,124.9266,-96.0745,-2.7762809
3085541162000.0,2.3210862076430026,9.630837141011948,-2.369473407448772,0.6239988,-0.9266826,-0.5186246,125.1317,-96.30092,-2.76828
3085547033000.0,1.835113199106536,9.554391555307372,-2.3367110380110714,0.4615087,-1.1123856,-0.47983465,125.39102,-96.48379,-2.753323
3085551174000.0,1.504588122319486,9.50625495802998,-2.330472118295503,0.33353242,-1.2357804,-0.44684792,125.673004,-96.63517,-2.7822587
3085556177000.0,1.1762779652668094,9.481632056102784,-2.4207574775845826,0.25411993,-1.2956452,-0.43279803,125.9853,-96.75097,-2.8079572
3085561149000.0,0.8500021106064239,9.457161724625267,-2.51048340330621,0.20280726,-1.2983941,-0.4334089,126.27512,-96.86183,-2.8921666
3085566147000.0,0.5869049730981067,9.401737977624784,-2.6644292182444063,0.20830505,-1.255328,-0.43188173,126.56419,-96.96133,-2.9694304
3085571116000.0,0.3411881746420978,9.339104026931254,-2.833058423742027,0.2611449,-1.1496484,-0.43401974,126.83103,-97.056984,-3.0431986
3085576150000.0,0.233792860538088,9.255258472021014,-2.939171101894452,0.3454443,-0.9960158,-0.4447099,127.024315,-97.20357,-3.1783423
3085581189000.0,0.1569680090328743,9.166909716707792,-3.03136093653586,0.44776422,-0.8359691,-0.45081854,127.18082,-97.364586,-3.3055239
3085586155000.0,0.1801219258139534,8.999043083333333,-2.811795108914729,0.57818395,-0.6936375,-0.44104472,127.256615,-97.594635,-3.4681325
3085591198000.0,0.418793218244186,8.652736070833335,-1.913267868507752,0.71837753,-0.7293731,-0.4361578,127.33304,-97.8503,-3.6309865
3085596127000.0,0.6434903149141997,8.358603704565981,-1.1337930238735574,0.9755518,-0.97585726,-0.44440445,127.405334,-98.19197,-3.8158348
3085601146000.0,0.8460765257862519,8.19460504646262,-0.641797905790266,1.3359623,-1.1282681,-0.44868052,127.45681,-98.58818,-3.993624
3085606175000.0,1.015701822659231,8.055998316064963,-0.2518528746120732,1.702176,-1.4269812,-0.4529566,127.69603,-98.882126,-4.133989
3085611259000.0,1.091918995890813,7.989308283269739,-0.1518178274088641,1.8500054,-1.6902641,-0.43310347,127.96293,-99.20145,-4.2711625
3085616181000.0,1.147328223449265,7.941061276550736,-0.0964445221785586,2.1077905,-1.8359555,-0.37751472,128.3212,-99.52913,-4.375781
3085621151000.0,1.1387952912154895,7.949594208784511,-0.186040375676228,2.25562,-1.8759671,-0.2910773,128.71729,-99.84938,-4.4697547
3085626523000.0,1.1262675144308942,7.95655498394309,-0.278992628699187,2.2892175,-1.8432859,-0.20738874,129.14365,-100.16948,-4.5373807
3085631205000.0,1.0641297527716187,7.927557425277162,-0.2997052188026607,2.2629502,-1.7424932,-0.1328632,129.5548,-100.49152,-4.581291
3085636118000.0,0.9989262450757576,7.897129188257575,-0.3214397243939393,2.1636846,-1.6200147,-0.083383106,129.95514,-100.81182,-4.6120715
3085641156000.0,0.9283854866518706,7.945169599936588,-0.159823975764109,2.0460932,-1.4969252,-0.07544186,130.31905,-101.10709,-4.629228
3085646111000.0,0.8581737860071866,8.010366025745085,0.0407808802282815,1.9095647,-1.3994923,-0.07544186,130.64955,-101.35816,-4.63045
3085651153000.0,0.8399674190423059,8.32911939795444,0.8902645838214783,1.7806722,-1.3805555,-0.08674286,130.9688,-101.58645,-4.6478386
3085656165000.0,0.8265785798716876,8.668303410599721,1.791779133288703,1.6639969,-1.5323554,-0.077579886,131.30385,-101.77214,-4.6631503
3085661276000.0,1.0500464786417865,9.188698976547364,2.6205451350056084,1.5054774,-1.9178114,-0.050701816,131.69655,-101.856285,-4.7026362
3085666126000.0,1.3247436835974304,9.728621134189863,3.3830667144896505,1.2293663,-2.2547035,0.040317107,132.11746,-101.86431,-4.723753
3085671149000.0,1.683897779733699,9.96112626884668,3.225193532328177,0.81581056,-2.3802364,0.15668693,132.69466,-101.59349,-4.713748
3085676117000.0,2.0565438409829646,10.114842434110043,2.847889496847464,0.39370266,-2.2757785,0.29046643,133.29965,-101.23548,-4.6672316
3085681176000.0,2.3036793986039483,9.973131261870888,2.404853996505424,0.0067195175,-2.0314324,0.41599923,134.06723,-100.63395,-4.5090437
3085686976000.0,2.540757725120043,9.706418421749955,1.8763668775297884,-0.28527406,-1.7333301,0.5170974,134.78062,-99.9454,-4.301086
3085691149000.0,2.5768826803144784,9.37200393587911,1.5729880490912804,-0.51893,-1.4379768,0.5681047,135.40004,-99.19004,-4.0223055
3085696141000.0,2.5231883531754136,8.869230430467633,1.2654663736165,-0.6954701,-1.1667526,0.5665775,135.93466,-98.38646,-3.7114697
3085701147000.0,2.376300814556142,8.404044713460197,1.0148552711766463,-0.84849185,-1.0445796,0.5216789,136.41768,-97.63147,-3.3833995
3085706189000.0,2.1550028280860816,7.966259261631961,0.8079897522566504,-0.91538155,-0.82253003,0.4831944,136.79176,-96.86939,-3.0384026
3085711182000.0,1.9378459474073408,7.7133599135179,0.5801295944287131,-1.0210613,-0.6084218,0.39492437,137.12622,-96.163414,-2.7449486
3085716150000.0,1.7233199657678782,7.601806383352872,0.3355699583352872,-1.10139,-0.4007276,0.32345316,137.39825,-95.46309,-2.4497123
3085721123000.0,1.525365484521755,7.563427682187301,0.088728779856481,-1.1456778,-0.2125811,0.27458394,137.60811,-94.84366,-2.2119544
3085726145000.0,1.359355927868108,7.672644618221455,-0.1646542617603778,-1.1502593,-0.035124753,0.26267207,137.7622,-94.23039,-1.9779068
3085731198000.0,1.2068935160972063,7.784072195035829,-0.4190760408869041,-1.153619,0.14508049,0.24648413,137.84998,-93.71167,-1.8013101
3085736161000.0,1.1427242300342717,7.902538422608786,-0.6658809642870496,-1.1365148,0.29229903,0.22602014,137.8983,-93.211006,-1.6267802
3085741210000.0,1.131690366593973,8.013447927983743,-0.9564940084258524,-1.1291844,0.44226643,0.20189096,137.87843,-92.79581,-1.4939519
3085746149000.0,1.3098618540444091,8.088467313540841,-1.3784791721252976,-1.1304061,0.5729916,0.17867808,137.82436,-92.3984,-1.3665926
3085751187000.0,1.4704954095420897,8.132425791499864,-1.742133265807513,-1.14018,0.6789767,0.15393804,137.72755,-92.0722,-1.2646899
3085756229000.0,1.545522037766201,8.044159362526278,-1.834813253560004,-1.1377366,0.77366084,0.14905111,137.59991,-91.76349,-1.1647984
3085761443000.0,1.6248682633458449,7.945550376643432,-1.9255769956675604,-1.1255192,0.8381071,0.16401732,137.42896,-91.51067,-1.0519116
3085766150000.0,1.721550396686327,7.7521861604396785,-1.9352451989061663,-1.1252137,0.8671232,0.17989981,137.2449,-91.26745,-0.94214064
3085771190000.0,1.8151028468164117,7.553001232678199,-1.9472707667602571,-1.1169671,0.8949176,0.19394971,137.05219,-91.042915,-0.821963
3085776151000.0,1.849527630658455,7.40239280336926,-1.9687862566615344,-1.1166617,0.9095783,0.21135938,136.85945,-90.82499,-0.6986312
3085781821000.0,1.8884736194896743,7.232080889694202,-1.9959683583598091,-1.1136073,0.9459248,0.22693644,136.66266,-90.60818,-0.5574273
3085786207000.0,1.913495810454726,7.123651497120731,-2.0501830981930103,-1.1230757,0.9896017,0.24556783,136.46414,-90.41564,-0.4127826
3085791173000.0,1.9418269094817315,7.00088351638205,-2.111567137867355,-1.1377366,1.0454959,0.27091873,136.25667,-89.70272,-0.2610063
3085796140000.0,1.9487363904701265,6.977135131592911,-2.2093661609041706,-1.1435398,1.0775663,0.29168814,136.04814,-89.65367,-0.10772581
3085801383000.0,1.9536686,6.969460868369124,-2.3169907993781607,-1.1459832,1.1881329,0.31490102,135.80598,-89.48258,0.05062195
3085806183000.0,1.9536686,7.057122017527568,-2.427520022493989,-1.1588113,1.2394456,0.3268129,135.57576,-89.27797,0.21214616
3085811144000.0,1.9536686,7.147723467730702,-2.5417565799684936,-1.1582005,1.3344351,0.3381139,135.29224,-89.07506,0.37373695
3085816143000.0,1.9682629439565864,7.322711093418845,-2.682060700592008,-1.1563679,1.4272866,0.35338554,134.99997,-88.86362,0.53666943
3085821148000.0,1.9919096553527385,7.549719670971879,-2.838129045189936,-1.1362094,1.5311338,0.3640757,134.68298,-88.656136,0.69791067
3085826358000.0,2.0335355761448555,7.83128195478061,-2.954108210145621,-1.1148291,1.6154331,0.38881573,134.33351,-88.46814,0.8585782
3085831189000.0,2.082292205288369,8.119388761831768,-3.033891679919525,-1.0845913,1.6691893,0.39828414,133.96916,-88.289345,1.0142319
3085836157000.0,2.1165612968790506,8.42665102363147,-3.06690720211387,-1.0348058,1.7018706,0.41722095,133.5803,-88.13886,1.1699407
3085841147000.0,2.1356213156246886,8.745906536643734,-3.052612138298933,-0.9767735,1.6722436,0.42180246,133.20045,-87.99843,1.3209236
3085846145000.0,2.1360903156485995,9.043147503202372,-2.983901683041774,-0.9077458,1.5577064,0.42760566,132.83951,-87.87514,1.4761721
3085851151000.0,2.117758813574228,9.31812051285728,-2.8601639483319,-0.829555,1.38025,0.42485678,132.51166,-87.76495,1.6275197
3085856191000.0,2.086875095282258,9.587157969758064,-2.710765299153226,-0.7583892,1.1264355,0.40103304,132.24539,-87.66645,1.7698841
3085861273000.0,2.037813200887097,9.847185262096774,-2.52433038733871,-0.6774496,0.7987063,0.37323865,132.05669,-87.58299,1.9088377
3085866147000.0,1.977039886553538,10.048766927954748,-2.368789943901955,-0.6072,0.42638394,0.33292156,131.9611,-87.50555,2.0285373
3085871147000.0,1.8962590490026796,10.191321259601072,-2.240490995802322,-0.52870387,0.02107485,0.30695978,131.97221,-87.443054,2.1442938
3085876116000.0,1.8483237,10.277709584895051,-2.153579115742129,-0.43585235,-0.38362336,0.2846632,132.10153,-87.39073,2.2393043
3085881167000.0,1.8483237,10.282242327305095,-2.1263832292353824,-0.34055737,-0.7779369,0.25900686,132.34404,-87.35324,2.3269627
3085886195000.0,1.8470669512619915,10.260355025239823,-2.120721836118096,-0.22479841,-1.1322387,0.2507602,132.68202,-87.33265,2.393511
3085891146000.0,1.842650937775915,10.1720347555183,-2.1692979844649343,-0.10262536,-1.4419475,0.25228736,133.11678,-87.32189,2.457349
3085896174000.0,1.844472405840757,10.082503000275508,-2.213960049958674,0.046731193,-1.5732834,0.27366763,133.59064,-87.31233,2.5233135
3085901148000.0,1.8882184366424832,9.995011030030309,-2.2270838454954545,0.20769419,-1.7993035,0.2932153,134.17415,-87.30288,2.590846
3085906574000.0,1.9392183756777823,9.903358680467736,-2.2154401785534867,0.2846632,-2.048842,0.355829,134.77792,-87.265816,2.6772912
3085911233000.0,2.0744839761888265,9.930411953919446,-1.4811408988046777,0.5500842,-2.1181753,0.38362336,135.38774,-87.229515,2.7574978
3085916150000.0,2.217240137964487,9.958963348116066,-0.7061785552706801,0.6423248,-2.2617285,0.4456262,136.07474,-87.12441,2.8755434
3085921150000.0,2.3169483275470326,10.094516956193765,0.634689071707716,0.8219192,-2.5082128,0.52290064,136.80347,-93.019684,3.0015574
3085926151000.0,2.390945628819413,10.290392259020267,2.288744482641098,0.9877691,-2.96178,0.59406644,137.62471,-93.214005,3.138143
3085931197000.0,2.4633973393408857,10.523966357363545,3.414168993913491,1.0900891,-3.6911533,0.6814202,138.66626,-93.45988,3.338547
3085936174000.0,2.5321194067971167,10.798854627188463,3.8510459021421215,1.0311406,-4.447099,0.78984874,139.83018,-93.731346,3.5583253
3085941152000.0,2.5713290072861565,11.048218689390158,3.885091206098413,0.82436264,-4.987409,0.8970556,141.22678,-93.955795,3.8362973
3085946140000.0,2.5808649042818645,11.272308285956685,3.513198840433177,0.548557,-5.2103753,1.0030408,142.71452,-94.22461,4.151511
3085951136000.0,2.6364284576413053,11.530079591131384,3.0741072805040908,0.29565877,-5.1428747,1.099252,144.26505,-94.55598,4.529308
3085956171000.0,2.740730237054453,11.824845386532491,2.561667491921377,0.08155051,-4.797125,1.1612549,145.76007,-94.941666,4.9394593
3085961138000.0,2.915116633222233,12.152525373933928,1.9630773572002749,-0.10293079,-4.1981716,1.2018774,147.1139,-84.6345,5.36189
3085966145000.0,3.2159566400745025,12.547377708067836,1.196875549877463,-0.29840767,-3.3851097,1.2272283,148.27385,-84.16271,5.8059835
3085971114000.0,3.5107161203786936,12.898277901405756,0.4876185560830066,-0.48838675,-2.427273,1.2507466,149.16864,-83.66432,6.2579317
3085976272000.0,3.808317873309745,13.17226107516496,-0.1359280241331166,-0.6942484,-1.4575244,1.2779301,149.80595,-83.13151,6.7149405
3085981181000.0,4.043536080366766,13.370148020188209,-0.6535676040762488,-0.8579602,-0.5635232,1.325883,150.20601,-82.57845,7.1969867
3085986215000.0,4.132719951612644,13.374025248853856,-0.9443842741510498,-1.0112875,0.18661933,1.3848315,150.36076,-82.0032,7.6734486
3085991190000.0,4.220858560958739,13.377857035228828,-1.231792485041422,-1.1307116,0.7858781,1.4459181,150.3243,-81.41102,8.179776
3085996136000.0,4.143665302189501,13.201532372024095,-1.404714961898843,-1.2195925,1.0387764,1.4770721,150.17175,-80.81173,8.674588
3086001118000.0,4.011373600956114,12.96431981747777,-1.541568296462377,-1.2519683,1.4605788,1.5366315,149.79921,-80.19461,9.167416
3086006185000.0,3.8402334778223697,12.717487280317572,-1.5980541937707209,-1.3185526,1.752267,1.5940529,149.40808,-79.580345,9.662372
3086012010000.0,3.621220999197348,12.43033795428372,-1.6126550121270284,-1.3536774,1.9859229,1.6655241,148.9161,-78.960625,10.154526
3086016143000.0,3.4941975926773456,12.319378075930931,-1.632896321479093,-1.4135422,2.0204368,1.6844609,148.40276,-78.3688,10.612628
3086021146000.0,3.384557477345538,12.32934556729769,-1.6727655063657163,-1.4462235,2.0390682,1.7082846,147.8327,-77.77017,11.071177
3086026131000.0,3.3177137879302867,12.644903968004856,-1.6461511942252665,-1.505172,2.003638,1.7153096,147.27,-77.19885,11.491454
3086031201000.0,3.305083583993757,13.364820668776554,-1.5324800621694268,-1.5784758,1.8680259,1.7278323,146.7394,-76.62712,11.907533
3086036188000.0,3.261603410102642,14.253122614616991,-1.3406409824699677,-1.6615535,1.5949692,1.7592919,146.26411,-76.07369,12.303443
3086041145000.0,3.0315061315719447,16.220228588671354,-0.6683959373548755,-1.7406605,1.1475104,1.7828102,145.8879,-75.5222,12.698282
3086046407000.0,2.7735120542703218,18.14743495832673,-0.0331796665762953,-1.7928895,0.5360342,1.820073,145.64941,-74.99788,13.071385
3086051152000.0,2.391889019648233,18.14023475352559,-0.3103964207582792,-1.7767016,-0.12156218,1.8585575,145.56049,-74.477066,13.460559
3086056141000.0,1.9906419554270325,18.132664295832672,-0.6018683673576295,-1.6875153,-0.743423,1.892155,145.66618,-74.06906,13.722651
3086061299000.0,1.5178748183251334,17.701038554735547,-0.9674812765067652,-1.5140295,-1.2770138,1.8820758,145.93839,-73.678154,14.008733
3086066149000.0,1.0227393672693728,16.92500872693727,-1.3673983767527675,-1.3038919,-1.7333301,1.8457294,146.36557,-73.30488,14.321692
3086071145000.0,0.6857702425395784,16.109139292646372,-1.6332712371803275,-1.0485502,-2.1010711,1.815186,146.8699,-73.05465,14.57782
3086076146000.0,0.488363317058548,15.27913304355972,-1.7813264160655735,-0.7657196,-2.352442,1.81091,147.46613,-72.83585,14.848954
3086081656000.0,0.3647132739493872,14.385598695529492,-1.8147841653557888,-0.46028697,-2.482251,1.8228219,148.09694,-72.706665,15.086787
3086086163000.0,0.3494896922070364,13.673896064280044,-1.7234426431090732,-0.17745635,-2.4947736,1.8240436,148.75714,-72.60867,15.325068
3086091171000.0,0.3556096887667658,12.914481369752773,-1.616137642275067,0.094989546,-2.4523184,1.779145,149.42535,-72.54618,15.558304
3086096144000.0,0.4868188163082723,12.330946528383963,-1.4780227977452332,0.3203988,-2.2653937,1.7391334,150.04266,-72.50281,15.782095
3086101115000.0,0.6179751752483144,11.747646368230262,-1.3399634991009932,0.41447207,-1.9639318,1.6368134,150.61893,-72.451355,15.999434
3086106176000.0,0.7927895871421242,11.133099813648023,-1.1803962388363265,0.5561928,-1.5598444,1.5118915,151.1004,-72.44019,16.180283
3086111199000.0,1.0297322545715752,10.491379477270396,-0.9928166258327348,0.61727935,-1.1053606,1.3518448,151.47202,-72.458694,16.303448
3086116148000.0,1.1110371705741158,9.718259241256002,-0.7909774579739395,0.61422503,-0.63071835,1.1795808,151.73824,-72.444824,16.43318
3086121136000.0,1.0033963798030765,8.763532242333692,-0.5663357847222494,0.535118,-0.20708331,1.0009027,151.88374,-72.47152,16.497013
3086126156000.0,0.9046592853233832,8.045172336854941,-0.4064962533001658,0.44348818,0.0870483,0.79259765,151.95357,-72.47885,16.5566
3086131169000.0,0.8203598293532338,7.68924146354502,-0.3456133267330016,0.3371976,0.2837469,0.59681535,151.9296,-72.52378,16.554825
3086136161000.0,0.7832386949318526,7.333835453891974,-0.3440650310005048,0.25625798,0.3585779,0.4166101,151.86293,-72.581154,16.511932
3086141145000.0,0.8314273077940434,6.9772399904290765,-0.4500799289793034,0.19425514,0.38698313,0.28405234,151.75653,-72.67312,16.420366
3086146123000.0,0.90719992602258,6.685335380483065,-0.5122953318054784,0.14019357,0.40133846,0.17379116,151.62955,-72.79496,16.28449
3086151439000.0,1.039116323357394,6.492171982481954,-0.4981614475522857,0.10170906,0.41386122,0.061391957,151.4996,-72.94978,16.109438
3086156258000.0,1.1772218642628547,6.348389018391295,-0.4801643819074034,0.0693332,0.42119157,-0.026572637,151.35728,-73.09268,15.949284
3086161267000.0,1.3819166210155749,6.302332775602731,-0.4443427914604224,0.08032878,0.41080686,-0.10567969,151.22086,-73.26439,15.760066
3086166122000.0,1.5577816246981335,6.255526207903403,-0.4271403018770582,0.084910266,0.39095375,-0.18509217,151.08986,-73.418976,15.586245
3086171156000.0,1.6944903200329309,6.202606766410538,-0.4447801295225027,0.100792766,0.3839288,-0.26542094,150.96176,-73.59699,15.390345
3086176139000.0,1.8177863319065148,6.14593339708929,-0.4555029745980652,0.09590584,0.37965274,-0.35308012,150.83931,-73.75462,15.214828
3086181242000.0,1.8721751552521189,6.062258176714322,-0.4262166867845218,0.09315695,0.37140608,-0.45051312,150.72394,-73.93716,15.015455
3086186222000.0,1.925253019304854,5.980599819381903,-0.3976363000881773,0.100792766,0.3707952,-0.54611355,150.61488,-74.11094,14.828517
3086191217000.0,1.8810648634141944,5.902210406330598,-0.4033391073171611,0.09743301,0.37659842,-0.63591075,150.50983,-74.30608,14.617705
3086196122000.0,1.8175231959509424,5.825960369988277,-0.4160474408098115,0.09682214,0.37323865,-0.6792821,150.40948,-74.51315,14.395881
3086201213000.0,1.6747748568994532,5.705374478312999,-0.4397091968920908,0.093767814,0.3857614,-0.7473936,150.30467,-74.7266,14.164478
3086206250000.0,1.481983734875894,5.558244386411443,-0.470149910128313,0.09132435,0.41233405,-0.8533788,150.1995,-74.958694,13.9129505
3086211191000.0,1.24221104876652,5.422194694823789,-0.5225045681087305,0.07452556,0.4361578,-0.9294315,150.08513,-75.20231,13.648965
3086216200000.0,0.978057792863436,5.287716836123348,-0.5849407852102524,0.07544186,0.4831944,-1.0094548,149.95952,-75.47298,13.356394
3086221153000.0,0.6917315727131783,5.162047404740608,-0.6794535975074538,0.06841691,0.53023106,-1.0958922,149.81642,-75.785095,13.017725
3086226148000.0,0.3922207889922481,5.0384396216457965,-0.7887987840906381,0.061086524,0.593761,-1.1826351,149.65707,-76.11382,12.659346
3086231243000.0,0.1146964499228718,4.919187543896401,-0.954650421483527,0.06719518,0.6789767,-1.2705997,149.4553,-76.50324,12.2416315
3086236245000.0,-0.1452999037221481,4.8051541369263004,-1.141665370853171,0.08399397,0.79198676,-1.3494014,149.22894,-76.90812,11.80514
3086241183000.0,-0.4039499885415833,4.689239778998401,-1.2810530115453818,0.11911872,0.9279043,-1.4193454,148.94864,-77.38917,11.295929
3086246170000.0,-0.6665224328048781,4.5698886158536585,-1.390855993902439,0.16493362,1.0589349,-1.4758505,148.6382,-77.885025,10.772051
3086251208000.0,-0.8899213737415367,4.436691894701207,-1.4532331785104504,0.2312125,1.201572,-1.5308284,148.25835,-78.46118,10.185292
3086256228000.0,-1.0833369837896183,4.295168533500147,-1.4815378803061523,0.29840767,1.3151928,-1.5796975,147.8494,-79.05198,9.58843
3086261251000.0,-1.272888370217629,4.168630138427904,-1.437702992010335,0.39706242,1.4217888,-1.6123788,147.38385,-79.71914,8.934734
3086266956000.0,-1.4846335582828185,4.038325058431878,-1.323686443863659,0.4908302,1.4957036,-1.6615535,146.89496,-80.40784,8.267667
3086271204000.0,-1.6345932816949151,3.934779672090395,-1.2050220606497175,0.59986967,1.5314392,-1.7015651,146.37361,-81.15177,7.5654507
3086276206000.0,-1.8059982569491528,3.808481338681733,-1.0426383242749528,0.70921457,1.5149459,-1.7492126,145.84462,-81.92037,6.854256
3086281186000.0,-1.944900196590437,3.667017016548857,-0.871931411010395,0.8491027,1.4792101,-1.8020525,145.2981,-82.73747,6.109655
3086286218000.0,-2.04007895966736,3.5017066103950105,-0.6865833873180873,0.98899084,1.4251486,-1.8545868,144.75842,-83.57901,5.361077
3086291154000.0,-2.087744,3.364345138069629,-0.5173572036644967,1.110553,1.3787229,-1.8759671,144.22668,-84.455246,4.5771847
3086296143000.0,-2.087744,3.2516489517407305,-0.3595824816124162,1.1765264,1.2812898,-1.9318613,143.722,-85.360275,3.7789748
3086301191000.0,-2.03594342454093,3.184070533396259,-0.1854435863428865,1.2910637,1.1704178,-1.9556851,143.23804,-86.277115,2.9803393
3086306245000.0,-1.8947351675991075,3.1965300701733312,0.0139091365282306,1.4025466,1.0537425,-1.9608774,142.77983,-87.206406,2.1806786
3086311319000.0,-1.743505383144654,3.2375819708715183,0.2318757434932614,1.4498887,0.94959,-1.953547,142.36258,-88.1119,1.3920628
3086316156000.0,-1.4688136742138365,3.6704296294249774,0.6855333059838274,1.4688255,0.8341365,-1.9388863,141.97746,-89.00914,0.6130741
3086321109000.0,-1.1875343617610064,4.1136577569451935,1.1500703965390835,1.4511104,0.7324274,-1.9364429,141.64632,-89.65168,-0.11372614
3086326153000.0,-0.9975029958518096,4.637800739808325,1.383068442383064,1.4049901,0.6221663,-1.9532416,141.34692,-90.84192,-0.83379227
3086331200000.0,-0.8315726014232585,5.180531411686454,1.5559125987340867,1.3219124,0.5006041,-1.9694295,141.07605,-91.63876,-1.5453329
3086336499000.0,-0.6464732217610537,5.788049195145814,1.732030804289746,1.2366967,0.38606682,-1.9807305,140.90579,-92.31053,-2.1552722
3086341148000.0,-0.3658511497083725,6.730436657855127,1.828363769802446,1.1252137,0.2648101,-1.9975294,140.77135,-92.968216,-2.7632782
3086346118000.0,-0.0658529354468485,7.737893248447789,1.931348247883349,1.0021244,0.19761491,-1.997224,140.69392,-93.51252,-3.289978
3086351148000.0,0.4324239488233663,8.843488070394676,1.635352878149552,0.8744536,0.22357668,-1.9843957,140.62419,-94.036476,-3.807302
3086356197000.0,0.959800711720122,9.965280574544783,1.2822786275441356,0.70402217,0.36254853,-1.9361374,140.54137,-94.52622,-4.3033466
3086361193000.0,1.636540546183768,11.032490133095038,0.7879511445752734,0.537256,0.602924,-1.8332067,140.44597,-94.861885,-4.6628428
3086366119000.0,2.360636497214045,12.069039229394448,0.2473588956265768,0.4034765,0.87995136,-1.6997325,140.30118,-95.16078,-4.9890594
3086371143000.0,3.0194863225298745,12.848552472457008,0.0753388483649081,0.27977628,1.138042,-1.5170839,140.09058,-95.29092,-5.141881
3086376111000.0,3.652744728592247,13.555767761294083,-0.0078629741707957,0.14905111,1.3414601,-1.3203852,139.82202,-95.37679,-5.252644
3086381188000.0,4.197282246469907,14.01977188990162,-0.0110371585943287,0.049785517,1.4957036,-1.110553,139.52573,-95.314255,-5.20173
3086386206000.0,4.702504921277006,14.395212716194058,0.0121381965958719,-0.029932396,1.5613716,-0.8970556,139.20433,-95.20517,-5.1070857
3086391147000.0,5.095427195292395,14.44029523553719,0.0705792345389685,-0.06963864,1.6655241,-0.79626286,138.90031,-94.97289,-4.8939977
3086396135000.0,5.445237581650801,14.34034973140496,0.1455386136296683,-0.06078109,1.743104,-0.6123924,138.58957,-94.680725,-4.618583
3086401148000.0,5.569265972109827,13.949685477601156,0.2998357096242774,-0.03176499,1.7531832,-0.4447099,138.32219,-94.298454,-4.2562613
3086406832000.0,5.633179451372833,13.408879470014451,0.5014088103034682,0.06566802,1.676825,-0.25778514,138.05937,-93.892044,-3.863141
3086411188000.0,5.563117958203837,12.8685796945665,0.7618236506698103,0.23945917,1.6175711,-0.20616703,137.82275,-93.45163,-3.4336882
3086416152000.0,5.4102750629085845,12.175690998178116,1.1235521021969777,0.2941316,1.4517213,-0.14019357,137.63974,-92.98342,-2.9747071
3086421139000.0,5.292886537777778,11.564054171313131,1.5125705398787876,0.38698313,1.2055426,-0.10629055,137.52336,-92.526695,-2.5233753
3086426141000.0,5.191273686666666,10.988248436060609,1.914183090363636,0.46517387,0.9092729,-0.071776666,137.46947,-92.076,-2.0754962
3086431153000.0,5.161899,10.581444468735905,2.175107709916088,0.52839845,0.5885687,-0.04734206,137.52316,-88.34275,-1.6559845
3086436193000.0,5.161899,10.241749696562303,2.379795465938825,0.5644395,0.2660318,-0.0106901415,137.66165,-88.74981,-1.2400442
3086441146000.0,5.062191847668196,10.015882750191132,2.342162609824159,0.57879484,-0.014660766,0.049480084,137.91197,-89.11309,-0.832607
3086446148000.0,4.860764070623089,9.896857473719418,2.0629104241781344,0.5720753,-0.26175576,0.15974127,138.24004,-89.39353,-0.41227204
3086451113000.0,4.615550395953392,9.846346738596331,1.7661029381176043,0.51893,-0.47036624,0.30573806,138.6581,-89.37319,0.030505333
3086456221000.0,4.292992445741126,9.899369633366453,1.4302893334206486,0.46883908,-0.65118235,0.44318274,139.13013,-89.05719,0.49331135
3086461132000.0,3.9505682487731018,9.992636032055968,1.1007008570575336,0.41050145,-0.7837401,0.56688297,139.60612,-88.668564,0.93928355
3086466288000.0,3.44529053170095,10.28136664832411,0.7243204050495979,0.3594942,-0.8894198,0.6747007,140.11769,-88.21414,1.4127578
3086471149000.0,3.00745150850473,10.590638900286384,0.4022325232692875,0.33292156,-0.98471475,0.752586,140.60669,-87.81616,1.8412969
3086476493000.0,2.6343723200989326,11.034780813329862,0.1401888901098672,0.32742378,-1.0714576,0.80909103,141.1162,-87.38676,2.2880554
3086481575000.0,2.2872274468879668,11.4640344813278,-0.1069741204979253,0.3313944,-1.1462886,0.85918194,141.57573,-87.04051,2.6705546
3086486177000.0,2.096226497178423,11.96388806307054,-0.297975127918119,0.38087448,-1.1753048,0.8915578,142.04095,-86.68628,3.0578086
3086491114000.0,1.8913217408298757,12.500128204979251,-0.5028799461783311,0.40317106,-1.2263119,0.95447695,142.48082,-86.39924,3.3863995
3086496146000.0,1.706586933142857,13.00141844,-0.7240613314285714,0.46792278,-1.2657127,0.9981538,142.92021,-86.11427,3.712643
3086501152000.0,1.5290258082962962,13.48844290962963,-0.9472809903703704,0.5519168,-1.2727377,1.0118983,143.35919,-85.82121,4.04201
3086506189000.0,1.400636948281973,13.800293611696368,-1.196581310406616,0.5891795,-1.2599095,0.97219205,143.77017,-85.58672,4.315525
3086511176000.0,1.2783816031702275,14.0918256678153,-1.445794176498966,0.6081163,-1.2198979,0.895223,144.17007,-85.3591,4.5757995
3086516150000.0,1.2317347394865212,14.403022323662816,-1.7304580918442447,0.6017023,-1.0961977,0.82436264,144.51102,-85.1795,4.7839274
3086521117000.0,1.1950970252888318,14.716478492939666,-2.0194892033376126,0.55833083,-0.89461213,0.7629707,144.81317,-85.01364,4.9680767
3086526144000.0,1.119206641373865,15.118598202724042,-2.2671550118634034,0.4978552,-0.6096435,0.7244862,145.03249,-84.88529,5.1094303
3086531225000.0,1.0087472459336757,15.59885650917884,-2.4784685964962496,0.4474588,-0.27366763,0.72112644,145.17609,-84.759155,5.240478
3086536165000.0,0.698189934542838,15.889923727525664,-2.516644887863379,0.37048978,0.067500606,0.7309003,145.21231,-95.34732,5.3459544
3086541147000.0,0.1992385669212318,16.02267206428092,-2.4022065363139213,0.29168814,0.3744604,0.7021896,145.1625,-95.444466,5.4375873
3086546123000.0,-0.3720526038790388,15.90254049716497,-2.278102739897399,0.18142697,0.63132924,0.61269784,145.0131,-95.502945,5.487429
3086551150000.0,-1.0479815670398704,15.438922696246962,-2.139450560435604,0.054367006,0.88147855,0.4569272,144.7813,-95.532936,5.5092797
3086556254000.0,-1.6661037647378976,14.905176494414206,-2.029235065998281,-0.099571034,1.1163563,0.25350907,144.45978,-95.43937,5.412109
3086561174000.0,-2.035020754712117,14.180839559438557,-2.024736082325981,-0.2687807,1.3319917,0.06261369,144.07831,-95.3035,5.276946
3086566180000.0,-2.3870789148528964,13.429246234551565,-2.026546081075028,-0.43066,1.5238034,-0.11362094,143.61336,-95.03292,5.0094295
3086571141000.0,-2.566035310821541,12.57799358281584,-2.0749127755879058,-0.5656612,1.6881261,-0.26908615,143.10316,-94.71703,4.6998067
3086576163000.0,-2.743179071524243,11.75694007045272,-2.1132291006161266,-0.6432411,1.7739527,-0.4111123,142.55495,-94.32303,4.311419
3086581186000.0,-2.8978138241807305,11.16417359335655,-2.091751974390571,-0.67347896,1.779756,-0.55680364,141.99263,-93.89028,3.884317
3086586161000.0,-3.0509708806143405,10.577071617733726,-2.0704800844896867,-0.63407815,1.7602082,-0.61391956,141.41193,-93.43993,3.4370382
3086592002000.0,-3.250989430943552,10.508933118871036,-2.0206558892459827,-0.6215554,1.6878207,-0.7464773,140.85358,-92.9339,2.933167
3086596530000.0,-3.407223539259259,10.529323821925926,-1.9801204288296297,-0.5861252,1.5717562,-0.9786061,140.32173,-92.39217,2.3920774
3086601146000.0,-3.5644023283950617,11.227895812839506,-1.9320935588641976,-0.5928447,1.4263704,-1.072374,139.82242,-88.154106,1.845874
3086606641000.0,-3.741244413487117,12.10790456459864,-1.8788802055250675,-0.62858033,1.2360858,-1.2550226,139.36827,-88.80106,1.198801
3086611311000.0,-3.6663652573155994,13.917485475211608,-1.9204797801692863,-0.70341134,0.9963212,-1.4416419,138.97311,-89.46474,0.5345503
3086616155000.0,-3.588696171128267,15.794489743093663,-1.9636293175518555,-0.81306165,0.7538077,-1.5876387,138.62164,-89.820984,-0.17336415
3086621147000.0,-3.006337635397367,16.249851664553876,-2.420293974939054,-0.9468411,0.5839872,-1.5968018,138.31958,-89.11807,-0.8783131
3086626236000.0,-2.2792128792198927,16.321138356704044,-2.9953404049049244,-1.1246029,0.56382865,-1.4453071,138.04404,-88.43224,-1.5607069
3086631238000.0,-1.4166608262539369,15.703406930261854,-3.818581261612526,-1.3286319,0.71868294,-1.1337659,137.77756,-87.837166,-2.1484866
3086636161000.0,-0.5214986457608208,14.880367094034014,-4.709500775632142,-1.5125023,1.0519099,-0.7675522,137.46927,-87.31675,-2.6555395
3086641141000.0,0.2537444223946786,13.891781913842255,-4.923094348495407,-1.6059648,1.5622878,-0.43127087,137.08287,-86.9709,-2.987955
3086646148000.0,0.9119261554767186,12.752621480202723,-4.497807878238834,-1.5848899,2.0002782,-0.15302174,136.62851,-86.71801,-3.2230184
3086651153000.0,1.3093667229936183,11.824405720943725,-3.86920039285438,-1.4456125,2.0937407,0.014049901,136.11485,-86.627686,-3.306927
3086656189000.0,1.5518631244633532,11.017638715722295,-3.113730808209244,-1.2403619,1.9016235,0.06536258,135.56801,-86.589096,-3.3442822
3086662045000.0,1.7567054917916498,10.511548989055534,-2.5156450096777463,-0.9569204,1.5570955,0.042455133,135.07942,-86.647644,-3.2793007
3086666152000.0,1.8683080976084312,10.336173263477908,-2.212723668869072,-0.6264423,1.1887437,-0.018325957,134.66095,-86.72364,-3.2115455
3086671138000.0,1.9419914183730715,10.29834296037868,-2.0370878335203364,-0.3042109,0.84116143,-0.09193522,134.38797,-86.83328,-3.1044018
3086676143000.0,1.9714026375175315,10.386577144284711,-1.999273408906031,-0.040011674,0.6933321,-0.1572978,134.16766,-86.94144,-3.013265
3086681171000.0,1.990486313994704,10.434891501527806,-1.993675035180281,0.16065755,0.44898596,-0.17867808,134.10176,-87.069305,-2.9026217
3086686169000.0,1.9856111004685275,10.391014172540231,-2.0619281263597475,0.23579398,0.27397305,-0.22785273,134.0594,-87.16902,-2.8201401
3086691242000.0,1.9671393507061865,10.26885169584245,-2.115375173105232,0.34513888,0.1554652,-0.27763826,134.0594,-87.25801,-2.7416267
3086696154000.0,1.925029576924607,10.01151448796499,-2.138769464730456,0.3848451,0.059864793,-0.3136793,134.10161,-92.67935,-2.6748538
3086701111000.0,1.8502878789177657,9.694658907777349,-2.1370061664274638,0.3830125,-0.043982297,-0.35643986,134.16414,-92.65432,-2.6279345
3086706220000.0,1.7032005021722263,9.24390707757952,-2.080069056633049,0.38453966,-0.19272798,-0.40775254,134.26433,-92.66343,-2.5953982
3086711136000.0,1.5461068797450843,8.79810391103646,-2.027483103626124,0.41447207,-0.410196,-0.4709771,134.39398,-92.718636,-2.591526
3086716158000.0,1.3417720652801108,8.308650541942496,-1.979963402410829,0.47861293,-0.7076874,-0.54825157,134.58562,-92.81083,-2.6078396
3086721165000.0,1.1561948155567128,7.858322977948451,-1.9804741759784776,0.57787853,-1.0647382,-0.61422503,134.8382,-92.95566,-2.6622505
3086726152000.0,1.0277086794393822,7.526746033975527,-2.12968380509416,0.700357,-1.457219,-0.67011917,135.18019,-93.13873,-2.737579
3086731923000.0,0.8941826125957796,7.165506931561156,-2.3481442258451137,0.8405506,-1.774869,-0.6921103,135.5715,-93.38038,-2.8574753
3086736194000.0,0.9277024111247696,7.0942771781192375,-2.9096010393362017,0.98654735,-1.9172006,-0.68386364,136.01605,-93.65231,-2.9850945
3086741544000.0,0.9689757259091348,7.016522576618115,-3.615677413620141,1.0732902,-1.8335121,-0.64873886,136.45203,-93.982445,-3.1423028
3086746152000.0,0.9945163226487894,7.11017165357384,-4.262706219947912,1.1209377,-1.5622878,-0.5907067,136.86475,-94.32726,-3.2883844
3086751117000.0,1.0220356505160606,7.211076095215588,-4.959862909057587,1.0974194,-1.1472049,-0.56077427,137.16783,-94.751976,-3.4440725
3086756192000.0,0.9270727724066222,7.509410689733494,-5.365144460125177,1.0149527,-0.6740898,-0.5119051,137.36867,-95.164894,-3.5713918
3086761699000.0,0.8050724371530815,7.85546834473161,-5.748715428628231,0.8915578,-0.22266038,-0.4642576,137.44983,-95.56326,-3.6820712
3086766155000.0,0.5972157527475149,8.135438470377734,-5.58752029304175,0.74464476,0.13164146,-0.4269948,137.37413,-96.02806,-3.7940872
3086771148000.0,0.3643099122544732,8.44914826332008,-5.406899262524851,0.61086524,0.36865717,-0.39187005,137.16724,-96.51908,-3.9091113
3086776153000.0,0.0474817395859047,8.676577358351583,-5.007022432609994,0.49968776,0.45937067,-0.3866777,136.89787,-96.98229,-4.015275
3086781182000.0,-0.2785186349850688,8.8971069678479,-4.585139592574159,0.46914452,0.5696318,-0.38881573,136.55391,-97.42921,-4.1049085
3086786241000.0,-0.5825113813300115,9.064651122652355,-4.183742978382522,0.4196644,0.65148777,-0.42363504,136.18642,-97.83529,-4.229922
3086791119000.0,-0.8734770840456113,9.221324854350325,-3.798773050670755,0.4184427,0.7147123,-0.4636467,135.79178,-98.24365,-4.352326
3086796148000.0,-1.043656200037704,9.365901317089262,-3.53296786540673,0.43982297,0.78893244,-0.50915617,135.37547,-98.606926,-4.5255647
3086801131000.0,-1.1830999055848808,9.505345468847205,-3.299062350871901,0.5140431,0.8698721,-0.54183745,134.93867,-98.983116,-4.7014046
3086806215000.0,-1.128484380444423,9.652137126133228,-3.1266802106622,0.60048056,1.0002918,-0.5332854,134.46277,-99.31838,-4.9147058
3086811199000.0,-0.9920837487140324,9.797944173827355,-2.9855761376625938,0.68325275,1.1441506,-0.47891834,133.96295,-99.666084,-5.1165204
3086816175000.0,-0.6920630680421949,9.916773464047228,-2.587242989964192,0.7861836,1.2800682,-0.38087448,133.43893,-99.99557,-5.317254
3086821173000.0,-0.3122198420923255,10.02331507500242,-2.0638004619858705,0.9138544,0.9990701,-0.29871312,132.99927,-100.34283,-5.514977
3086826174000.0,0.819419522713619,10.19500767160544,-0.3565412238177388,1.3393221,0.19211712,-0.30543262,132.71037,-100.746475,-5.6952176
3086831224000.0,2.4537646547412217,10.410957438197686,2.1416018881165013,2.0512855,-0.7669413,-0.2968805,132.55261,-101.23255,-5.867693
3086836213000.0,3.233919764377845,10.507076224962065,2.946502855652504,2.6978865,-1.6447546,-0.24251351,132.68333,-101.67088,-5.9854913
3086841236000.0,3.557839095362292,10.539011624336116,2.8370090301688164,3.1227431,-2.3243423,-0.14385876,133.02617,-102.21133,-6.125248
3086846184000.0,3.551528499279712,10.454737047218888,2.7665627531412564,3.32891,-2.7809641,-0.028710667,133.83379,-102.28485,-5.998585
3086851208000.0,3.2579164099639857,10.267017569027612,2.7280562759903964,3.3224962,-3.0454686,0.0888809,134.76413,-102.39411,-5.87242
3086856209000.0,2.7813248191550777,10.047894238520072,3.077849067357649,3.1322114,-3.218038,0.18661933,135.81464,-102.489136,-5.698956
3086861154000.0,2.151716588856818,9.803507087728503,3.7571633926878336,2.8115072,-3.3799174,0.25595254,136.91666,-102.53504,-5.518739
3086866129000.0,1.531540487238408,9.581979356893722,4.307112170906853,2.3793201,-3.627318,0.2519819,138.07062,-102.5404,-5.3946567
3086871154000.0,0.9490038048420188,9.438813766516208,4.420657169881001,1.8264871,-3.801109,0.22113322,139.22887,-102.42037,-5.2598333
3086876143000.0,0.5039596717549234,9.323012948533917,4.237575490258205,1.2425,-3.7772853,0.19730948,140.50272,-102.219086,-5.171514
3086881372000.0,0.3856154791772429,9.270415387221009,3.273289673295405,0.956615,-3.4196236,0.16890424,141.70975,-101.952576,-5.0760226
3086886605000.0,0.2761791637016479,9.209692032957502,2.352399409436253,0.4569272,-2.032654,0.13836098,142.61292,-101.54025,-4.995395
3086891147000.0,0.2610888433859497,9.085196718993927,1.9449606584908927,-0.20861048,-1.473407,0.12797627,143.63252,-101.01324,-4.9325542
3086896118000.0,0.2445732154050303,8.948942600607111,1.4990385909106678,-0.41386122,-0.49541172,0.09315695,144.00284,-100.61648,-4.838355
3086901147000.0,0.215114324679376,8.848703702271276,1.2717978800145944,-0.799928,0.19211712,0.073303826,144.28886,-100.01304,-4.7241693
3086906220000.0,0.1796618795840554,8.764504303657757,1.1432827746419774,-1.1221595,0.65668017,0.06414085,144.35529,-99.390884,-4.5807257
3086911198000.0,0.1721167294269205,8.74309291190679,0.9285475104272046,-1.3585643,1.0036516,0.06566802,144.18681,-98.765045,-4.437856
3086917050000.0,0.1933513464052287,8.785561901960785,0.5781762526797386,-1.5268577,1.2760975,0.06169739,143.91504,-98.10464,-4.2884765
3086921140000.0,0.2066008046387311,8.834012279518308,0.3110840213618562,-1.6132951,1.5311338,0.063224554,143.5635,-97.46615,-4.1494074
3086926150000.0,0.2206931684726845,8.91856669796358,-0.0459225405433718,-1.6737708,1.7699821,0.05222898,143.15077,-96.83019,-4.014618
3086931165000.0,0.251215764228371,8.966891915237724,-0.3484207317809821,-1.6978999,1.9294178,0.04062254,142.69633,-96.268715,-3.891383
3086936164000.0,0.3118517737275916,8.948234793939985,-0.5489859789848013,-1.7095064,2.031127,0.020158553,142.20453,-95.73584,-3.7783828
3086941189000.0,0.3984164740148264,8.893929898263755,-0.723652376502146,-1.7015651,2.053729,-0.0067195175,141.69635,-95.2955,-3.6894546
3086946242000.0,0.5447430342099103,8.757043724102614,-0.8369374377145923,-1.6902641,1.9905044,-0.035124753,141.19856,-94.89408,-3.6150582
3086951276000.0,0.6934206184991432,8.614063537656715,-0.9756370726255976,-1.6646078,1.8805487,-0.050701816,140.72447,-94.56025,-3.5514367
3086956218000.0,0.8470986765851899,8.456116335077118,-1.180541142644539,-1.6227635,1.7357736,-0.07544186,140.29166,-94.27452,-3.5064335
3086961299000.0,0.9910727497255742,8.286707179058,-1.3812446123102375,-1.5790867,1.5839735,-0.08093964,139.9071,-94.01908,-3.4473448
3086966236000.0,0.908253306364344,8.010642592059167,-1.4180532719540675,-1.5427402,1.4245378,-0.09193522,139.57664,-93.807236,-3.4028265
3086971754000.0,0.8106724746174434,7.720973578015689,-1.4623496383756345,-1.5228871,1.2812898,-0.093462385,139.2735,-93.61713,-3.3405755
3086976158000.0,0.6900020779547762,7.650906852551915,-1.5246311405076145,-1.534799,1.2202033,-0.08674286,138.9999,-93.45426,-3.2824562
3086981173000.0,0.5525901707651131,7.57111924396862,-1.595553423248731,-1.5366315,1.1096367,-0.08124508,138.77618,-93.340614,-3.2460165
3086986215000.0,0.3974331954776879,7.5012495475292,-1.675508048128182,-1.5558738,1.022283,-0.090713486,138.56941,-93.25265,-3.213617
3086991138000.0,0.2421133809673554,7.435356246720575,-1.7555212717580115,-1.5980235,0.9324858,-0.0888809,138.40059,-93.185265,-3.1780257
3086996144000.0,0.1725120026394273,7.4258428516751165,-1.9015136056069195,-1.6389514,0.85918194,-0.10903945,138.24171,-86.82064,-3.1789832
3087001119000.0,0.125146842260662,7.430579463167312,-2.0625552310169994,-1.6652187,0.8026769,-0.12492194,138.10812,-86.805916,-3.1786346
3087006236000.0,0.144209900626891,7.490178403025719,-2.298677300085098,-1.6698002,0.7666359,-0.13988814,137.984,-86.73564,-3.217261
3087011245000.0,0.1804959993456883,7.5627505531013615,-2.548144208055976,-1.6575829,0.7498371,-0.14263703,137.87363,-86.65005,-3.256305
3087016294000.0,0.2802180374722708,7.689935338820782,-2.7718482333917103,-1.638646,0.763887,-0.1441642,137.73602,-86.533264,-3.3187644
3087021222000.0,0.4041966020179023,7.836872974936758,-2.9784791103716675,-1.5971072,0.79229224,-0.12950343,137.60191,-86.416504,-3.3765948
3087026146000.0,0.4962702486295688,7.981044976600707,-3.0755170388231226,-1.525636,0.82833326,-0.11178834,137.42702,-86.301315,-3.440422
3087031197000.0,0.5715060567605633,8.127336828169014,-3.108955243661972,-1.4547756,0.84665924,-0.09621128,137.25217,-86.19311,-3.5001094
3087036239000.0,0.6449888402114209,8.297180100839464,-3.105905696766504,-1.3588698,0.8405506,-0.08979719,137.05414,-86.11593,-3.5427725
3087041158000.0,0.7133395763633537,8.511996995854492,-3.0277905085604724,-1.2760975,0.7819075,-0.0729984,136.86916,-86.05374,-3.5773401
3087046143000.0,0.7687907565129403,8.721195164039697,-2.9312408123759486,-1.16492,0.68294734,-0.05681047,136.69392,-86.018234,-3.595731
3087051145000.0,0.801416011943958,8.916946229422066,-2.805400508056042,-1.0616838,0.548557,-0.050396383,136.54877,-85.995346,-3.6110382
3087056179000.0,0.8347791637533511,9.086396843967828,-2.680704723324397,-0.95264435,0.37018433,-0.050396383,136.4492,-85.99652,-3.6044204
3087061158000.0,0.8688688505719392,9.197188270509384,-2.561390930697051,-0.8368854,0.16187929,-0.051618114,136.39899,-86.01342,-3.5949316
3087066186000.0,0.906626136764925,9.30640051431308,-2.440680309758433,-0.7156286,-0.054367006,-0.06566802,136.40329,-86.036026,-3.5769825
3087071148000.0,0.977423342349686,9.387312215919977,-2.3193136550175586,-0.6096435,-0.16982053,-0.071776666,136.43906,-86.07265,-3.5563002
3087076165000.0,1.0617097362830274,9.458499340080609,-2.213860120089566,-0.5479461,-0.3915646,-0.083383106,136.5697,-86.11035,-3.5261781
3087081235000.0,1.1965227391491269,9.488940682669057,-2.1747209007433947,-0.4251622,-0.5861252,-0.07819075,136.72485,-86.17003,-3.4925268
3087086563000.0,1.3413215863748291,9.519576581668948,-2.1344751157318744,-0.32253686,-0.7357872,-0.05375614,136.92918,-86.236824,-3.4387949
3087091336000.0,1.524745560492476,9.523745393433654,-2.113631492202462,-0.21380283,-0.8454375,-0.018936822,137.17546,-86.32128,-3.3798192
3087096114000.0,1.7083616820793432,9.527918572275423,-2.0927660337437297,-0.13255776,-0.91324353,0.042760566,137.45079,-86.44831,-3.2719493
3087101147000.0,1.884778354756871,9.550364578224102,-2.034140166384778,-0.06505715,-0.96944314,0.10415252,137.7509,-86.592224,-3.1552293
3087106195000.0,2.056671341110897,9.578239182106476,-1.9644538022102636,-0.014966198,-1.0002918,0.1881465,138.05939,-86.76167,-3.0163045
3087111219000.0,2.202600182401448,9.637653202333066,-1.848389217598552,0.017715093,-1.0195341,0.27305678,138.38289,-86.98043,-2.8191295
3087116153000.0,2.335650771741754,9.70893025060338,-1.715338628258246,0.045814894,-1.0595458,0.3585779,138.71751,-87.22172,-2.60156
3087121142000.0,2.4674058128193046,9.831947612404562,-1.4625631774908097,0.07727446,-1.1456778,0.4560109,139.08087,-87.51123,-2.3250573
3087126567000.0,2.6094239674521638,9.988656937034593,-1.1344521309737017,0.122478485,-1.2950343,0.5671884,139.47011,-87.82555,-2.0255525
3087131218000.0,2.8207995444156344,10.262361674253338,-0.1363303343704984,0.18784106,-1.5696182,0.6780604,139.9283,-88.17835,-1.6740732
3087136175000.0,3.098894765840776,10.636195069336406,1.3498838036012677,0.29840767,-2.0039434,0.78954333,140.47055,-88.56124,-1.2973311
3087141147000.0,3.2798217682363977,10.869164629643528,2.5140996454409006,0.43371433,-2.547919,0.9034697,141.14648,-88.96755,-0.86093843
3087146143000.0,3.365100301294559,10.96341937185741,3.36239626217636,0.5552765,-3.1908545,1.0088439,141.96771,-89.36538,-0.40316376
3087151135000.0,3.397411975068107,11.049375407327384,4.008609325326445,0.64812803,-3.8924334,1.1157454,143.04077,-89.275986,0.15868084
3087156184000.0,3.338361394382339,11.122053023203382,4.312946586867073,0.6197228,-4.5732427,1.2189816,144.27031,-88.824265,0.7447284
3087161194000.0,3.274599434162709,11.235599013937644,4.441535215124922,0.50488013,-5.1288247,1.3228287,145.69609,-88.12283,1.4078778
3087166148000.0,3.1962291079392937,11.470710452921743,4.054581221133595,0.29657507,-5.353623,1.4343116,147.18793,-87.368095,2.1016455
3087171133000.0,3.13880562020854,11.758754104518372,3.657517490466733,0.03726278,-5.645922,1.4914275,148.83667,-86.55602,2.8174393
3087176148000.0,3.1308566128020523,12.168126305155578,3.24019653142999,-0.09407325,-5.7403007,1.6074919,150.45378,-85.70417,3.5829668
3087181288000.0,3.1227094746027806,12.58770219972691,2.8124737538728897,-0.32162055,-5.66211,1.7266107,152.0439,-84.85002,4.3396
3087186181000.0,3.161058152420498,13.185841051853352,2.009897682803322,-0.50823987,-5.4095173,1.8274034,153.57417,-83.97097,5.124781
3087191159000.0,3.2045116962122746,13.813502874924044,1.155311708081831,-0.6160576,-4.9226575,1.8796324,154.97968,-83.0658,5.9266667
3087196371000.0,3.203638578421158,14.367714035664196,0.0260824697255057,-0.66431594,-4.1358633,1.8860464,156.18187,-82.208855,6.7036767
3087201151000.0,3.1990526132839108,14.867584618713684,-1.0286902780204368,-0.6979135,-3.098614,1.8829921,157.14502,-81.344025,7.473071
3087206211000.0,2.988192087734242,15.121549632027255,-1.7013596868824532,-0.7089091,-1.8442022,1.8640553,157.82222,-80.6042,8.173626
3087211152000.0,2.764270933986371,15.34547101959114,-2.3193818467632026,-0.74464476,-0.57940567,1.8637499,158.18391,-79.86902,8.841145
3087216173000.0,2.2385099270332427,15.446552771691406,-2.2277238321346435,-0.8368854,0.49021935,1.890017,158.25897,-79.269806,9.426841
3087221120000.0,1.6491519314969685,15.515888860443235,-1.965236663736149,-0.9459248,1.2363913,1.9905044,158.05952,-78.65888,9.994668
3087226144000.0,1.1385015277982942,15.434172633166272,-1.620104707992614,-1.087951,1.713477,2.149024,157.61963,-78.12347,10.492585
3087231265000.0,0.6296601056959465,15.330679623142531,-1.2578785875494591,-1.2177598,1.9978348,2.295937,157.02347,-77.56652,10.98538
3087236198000.0,0.0376774594103599,15.299659923401911,-0.9430938181943423,-1.3503176,2.129171,2.386956,156.3082,-77.046364,11.394608
3087241172000.0,-0.6185730552130786,15.308409649889787,-0.6455935926340926,-1.450805,2.0879374,2.405282,155.56981,-76.51052,11.804329
3087246188000.0,-1.2788607334064328,15.360106071637428,-0.418400756381579,-1.4941764,1.8817704,2.3625214,154.82414,-76.021576,12.122497
3087251180000.0,-1.934115926388889,15.464947194444443,-0.2829813437499999,-1.4587462,1.4837917,2.25562,154.16454,-75.557,12.419996
3087256191000.0,-2.511500370596232,15.568292117692756,-0.2370152728724024,-1.3591752,0.99296147,2.1423044,153.58098,-75.20265,12.593686
3087261224000.0,-2.8578594272480093,15.666582727131482,-0.4523195156671198,-1.1890492,0.45204028,2.043955,153.1478,-74.89614,12.751786
3087266188000.0,-3.0983921349372383,15.712842140737925,-0.7392245602605554,-0.9407325,0.1957823,1.9703459,152.74658,-74.73472,12.785461
3087271222000.0,-2.9287689774058574,15.552387938379612,-1.3351977283453786,-0.7974846,-0.24617869,1.9495764,152.56892,-74.59437,12.838757
3087276259000.0,-2.639228017139465,15.319784935807244,-1.8920795604379177,-0.48075095,-0.54641896,1.9120082,152.42421,-74.60401,12.826252
3087281248000.0,-1.3661939903534996,14.496304245867044,-2.1189569676925784,-0.16432275,-0.7996226,1.890628,152.4008,-74.63107,12.835332
3087286163000.0,-0.1120424085429125,13.685037941786844,-2.342469185903975,0.13988814,-1.0390818,1.8701639,152.49095,-74.71635,12.881351
3087291211000.0,0.7668625607980679,13.163186599600966,-1.7629822761577234,0.4279111,-1.2767084,1.8533652,152.65584,-74.8394,12.934856
3087296108000.0,1.5301862333770873,12.724890958311455,-1.0242818591095242,0.66645396,-1.566564,1.8371773,152.90569,-74.989075,12.995418
3087301210000.0,1.940601294867207,12.356286685722358,-0.3095857236814843,0.8570439,-1.8747455,1.7965547,153.31387,-74.95573,13.298849
3087306313000.0,2.308809658410247,11.99728357091731,0.3992152331606705,0.9804387,-2.1591032,1.738828,153.79863,-74.9345,13.590951
3087312197000.0,2.282303626418968,11.50314735184235,0.7170947637852817,1.0167851,-2.2883012,1.6759088,154.37677,-74.774826,13.984324
3087316147000.0,2.2085337783228987,11.16147660874474,0.8685170225351535,0.9831876,-2.1817052,1.582141,154.96321,-74.62831,14.340257
3087321164000.0,1.959053269558989,10.57260068924588,0.904325742738156,0.8897252,-1.8127426,1.4398094,155.54211,-74.40923,14.710288
3087326114000.0,1.6825673803745014,9.961421813772638,0.9091763679300112,0.7333437,-1.2681563,1.2483032,156.02777,-74.21312,15.021159
3087331261000.0,1.4775526559682206,9.279116632430362,1.0132466946472671,0.54367006,-0.6585127,1.0302242,156.38318,-74.03496,15.276693
3087336199000.0,1.2919586326122332,8.618220611371687,1.1264137905906002,0.33567044,-0.10873401,0.8020661,156.592,-73.897964,15.456725
3087341209000.0,1.1849323501509057,8.047933264486922,1.257529180331992,0.13744467,0.27397305,0.5687156,156.65907,-73.81975,15.547676
3087346135000.0,1.0995041615191146,7.51163389583501,1.3904175453420522,-0.01863139,0.473726,0.35216382,156.62257,-73.78923,15.567011
3087351167000.0,1.0579964590250446,7.306140816466905,1.3897300868962432,-0.12858713,0.50915617,0.15424347,156.52467,-73.79684,15.527632
3087356197000.0,1.0278354902415026,7.185497166288014,1.3552604147137746,-0.17745635,0.44715336,0.0030543262,156.40479,-73.844055,15.436901
3087361295000.0,1.02743364868676,7.162378562346609,1.1594441518191605,-0.17256944,0.36193767,-0.11636983,156.2753,-73.90877,15.318059
3087366240000.0,1.047824348202368,7.20825751649085,0.8586819061786868,-0.14782938,0.33475417,-0.2144137,156.15446,-74.00437,15.1639
3087371172000.0,1.0702366659722904,7.264560986587403,0.5675516971641937,-0.12583824,0.29077184,-0.25503623,156.05052,-74.10676,15.007596
3087376208000.0,1.0939316472044809,7.3261679872752286,0.2737336973096197,-0.09896017,0.28802297,-0.34422258,155.94923,-74.24858,14.811972
3087381177000.0,1.1344579185555554,7.399615562222222,0.0313906421666666,-0.048258353,0.29352075,-0.42271876,155.84877,-74.40539,14.6182375
3087386236000.0,1.1838042008796297,7.480363760185186,-0.1929105921527778,0.006414085,0.33353242,-0.48899764,155.74252,-74.58336,14.404772
3087391262000.0,1.2325341225679758,7.528135612225579,-0.3485938462366566,0.064751714,0.39003745,-0.5338962,155.61562,-74.785706,14.184115
3087396216000.0,1.2803120850453171,7.547246877039275,-0.4441497362688822,0.12217305,0.4642576,-0.5626069,155.47372,-75.00468,13.950666
3087401145000.0,1.2685225532006457,7.538008026896181,-0.4612785690909091,0.15485434,0.54153204,-0.5888741,155.29872,-75.23664,13.716695
3087406191000.0,1.2035351942980097,7.503348150403442,-0.4092887136363636,0.16279559,0.6093381,-0.6123924,155.10631,-75.477104,13.476166
3087411149000.0,1.1038503785368756,7.449901206661379,-0.3382754443933386,0.15760323,0.67011917,-0.627664,154.8891,-75.71676,13.24324
3087416265000.0,0.9144369546788264,7.347909425852498,-0.2168565765741475,0.13622294,0.72051555,-0.6441574,154.65735,-75.96057,13.004047
3087421142000.0,0.7245527343238263,7.238941947067778,-0.1031697272872937,0.10720685,0.75502944,-0.6585127,154.40288,-76.206856,12.759845
3087426148000.0,0.505624259885435,7.0968304624178815,0.0082149357795225,0.08460484,0.7861836,-0.66339964,154.13759,-76.451935,12.514855
3087431130000.0,0.2877453826077551,6.955400295313251,0.1190655932703092,0.06078109,0.8032878,-0.6783658,153.86162,-76.71567,12.246078
3087436213000.0,-0.0317011739591836,6.716703185714286,0.2831998612244898,0.05589417,0.79717916,-0.6921103,153.58679,-76.97836,11.978865
3087441120000.0,-0.366138701329147,6.460956816483517,0.4553368306384092,0.055588737,0.78038037,-0.6960809,153.31361,-77.238625,11.712928
3087446151000.0,-0.620238960292976,6.221460976275416,0.5791985476848429,0.0711658,0.7458665,-0.7058548,153.03348,-77.530266,11.411437
3087451127000.0,-0.8580694878641405,5.988034746774492,0.6937095294963032,0.09773844,0.70952,-0.70554936,152.7619,-77.81943,11.115634
3087456163000.0,-1.0152933904683863,5.7421826529921765,0.8213757162613661,0.12950343,0.675617,-0.71868294,152.4909,-78.14971,10.772917
3087461137000.0,-1.1361689268291395,5.495395050285472,0.9523242337069148,0.17470746,0.6621779,-0.73731434,152.22699,-78.483406,10.432847
3087466150000.0,-1.15488435024,5.316288344879999,1.03547308722,0.19181168,0.63804877,-0.7538077,151.9741,-78.848175,10.051636
3087471136000.0,-1.15010935776,5.15393840112,1.10709802428,0.23609942,0.6151413,-0.7901542,151.72745,-79.22867,9.663178
3087476175000.0,-1.0556806770163725,5.062433275258392,1.1312790235068144,0.27550024,0.60231316,-0.8222246,151.48764,-79.61393,9.262248
3087481208000.0,-0.9410550848623432,4.987485906905698,1.1445050459343271,0.31123585,0.5897904,-0.86376345,151.25703,-80.01267,8.851905
3087486160000.0,-0.833972118535975,5.008105777685088,1.111360944911366,0.3549127,0.5522222,-0.90224797,151.04422,-80.40928,8.442988
3087491149000.0,-0.7293472428905109,5.082837772262773,1.0515752972262773,0.38148534,0.5183192,-0.9462303,150.83633,-80.81627,8.024053
3087496149000.0,-0.6109369936246019,5.202781360788217,0.9732544018511148,0.40530908,0.46303585,-0.9831876,150.65576,-81.20517,7.6281266
3087501141000.0,-0.4872314926054936,5.340760578622612,0.8876121407046179,0.43676865,0.41172317,-1.0183123,150.48541,-81.60493,7.224528
3087506182000.0,-0.346124910117942,5.564926882893759,0.7169637911868499,0.4615087,0.3659083,-1.0598512,150.33496,-82.00224,6.832462
3087511255000.0,-0.1972352669167905,5.826611614115899,0.5094206618870728,0.48747048,0.31642818,-1.1081096,150.20087,-82.40961,6.4340997
3087516155000.0,-0.0427432381810758,6.131029187914668,0.2602052721057467,0.5030475,0.27977628,-1.1426234,150.07076,-82.80507,6.059325
3087521158000.0,0.1235356210911504,6.483149336072267,-0.0332280110656322,0.5314528,0.27000242,-1.1866057,149.94673,-83.21473,5.673966
3087526147000.0,0.2917309919725211,6.860035762230976,-0.3509106526277863,0.54183745,0.29932398,-1.2241739,149.81068,-83.62183,5.3264465
3087531187000.0,0.4633185231792851,7.258860676143351,-0.6894481935194081,0.54733527,0.3387248,-1.269378,149.67194,-84.03875,4.969692
3087536182000.0,0.6263248710424028,7.657308543286219,-1.0132295375441696,0.5354234,0.41722095,-1.317331,149.50414,-84.465996,4.6244144
3087541149000.0,0.7818033179169611,8.056510282314488,-1.3241864225176678,0.5225952,0.52595496,-1.3622295,149.3132,-84.897095,4.271156
3087546158000.0,0.9505637049738548,8.483342823572475,-1.6408329077598829,0.4804455,0.66706485,-1.4135422,149.0865,-85.34548,3.9160323
3087551144000.0,1.1553062914662204,8.982714814055637,-1.9654247928257689,0.4334089,0.85062987,-1.4596626,148.81383,-85.79321,3.5528238
3087556192000.0,1.3758607994896397,9.460979283505154,-2.2167087405940595,0.37812558,1.040609,-1.4914275,148.51015,-86.26107,3.1732342
3087561211000.0,1.621170482433398,9.882911608247422,-2.314832675247525,0.33536503,1.1417072,-1.502423,148.1779,-86.72221,2.7922125
3087566149000.0,1.859596041394377,10.23986567762158,-2.283781062215046,0.30604348,1.3301591,-1.5152513,147.7778,-87.19195,2.4094815
3087571151000.0,2.0961999061170213,10.503770114361702,-2.03807695930851,0.27550024,1.475545,-1.518611,147.36061,-87.64749,2.0336173
3087576130000.0,2.331588149196907,10.69836000492904,-1.7362643891816096,0.27580565,1.5497651,-1.5045611,146.92595,-88.06546,1.7003316
3087581207000.0,2.571245200892326,10.702492105634402,-1.2652144009093227,0.30390546,1.5366315,-1.4792101,146.47604,-88.47166,1.3756058
3087586185000.0,2.806229010886377,10.70654363159684,-0.8033497482365939,0.36377025,1.4340062,-1.4398094,146.06274,-88.78807,1.123838
3087591153000.0,3.0321237659705798,10.643880541610946,-0.2127359236127971,0.43799037,1.2629639,-1.4162911,145.67566,-89.09152,0.8787297
3087596530000.0,3.2700385363560653,10.57200454372166,0.4278095160007402,0.52564955,1.0509937,-1.3768903,145.33195,-90.653275,0.6531749
3087601193000.0,3.360946886258906,10.555475854816322,0.7625174813435736,0.59406644,0.81306165,-1.3185526,145.09583,-90.55236,0.5246752
3087606192000.0,3.458405784213935,10.537756164522994,1.121343369987971,0.65087694,0.5626069,-1.2681563,144.97792,-90.54155,0.4758152
3087611179000.0,3.498082755960234,10.483850178296017,1.3105018882096071,0.69974613,0.3475823,-1.2046263,144.91908,-90.5717,0.44375494
