timestamp,acc_x,acc_y,acc_z,gyro_x,gyro_y,gyro_z,ori_azimuth,ori_pitch,ori_roll
895268995000.0,-4.498127931418903,9.312333583810036,1.3326085230868192,5.7684007,-1.8325957,-1.1722504,350.64035,-71.70445,-17.626637
895274007000.0,-4.462644944817595,9.317096397465727,1.3090325785819892,-8.02738,-3.2400293,0.034208454,350.9059,-70.63791,-17.217833
895279057000.0,-4.426892933178207,9.321895321839476,1.2852778858945608,-2.4346035,0.7348709,0.03145956,350.36435,-71.56575,-17.57424
895284066000.0,-4.391431185395694,9.326655284649004,1.261716053088357,-1.1695015,0.74128497,0.03481932,351.35995,-70.93817,-17.40246
895289031000.0,-4.356280940288851,9.331373435048148,1.2383611918620043,-1.1624765,0.7483099,0.035124753,351.1677,-70.71861,-17.355421
895294308000.0,-4.318921858027258,9.336388073448203,1.2135387139785272,-1.1768318,0.7666359,0.03390302,350.97092,-70.64502,-17.308296
895299013000.0,-4.285612310549373,9.340859150513252,1.1914068666331112,-1.1960741,0.77304995,0.03848451,350.77618,-70.57256,-17.25955
895304284000.0,-4.24829570592537,9.345868087220984,1.1666126121468865,-1.212262,0.7629707,0.043066,350.58194,-70.49797,-17.211418
895308990000.0,-4.214979078841221,9.350340114568086,1.1444760609019284,-1.1988231,0.73364913,0.03359759,350.39297,-70.42226,-17.16554
895314021000.0,-4.179361579720872,9.355120983582806,1.1208107423057994,-1.1566733,0.6988298,0.027488936,350.2092,-70.35036,-17.116863
895319658000.0,-4.139453839203799,9.360477723522378,1.094294860587179,-1.1294898,0.7901542,0.06169739,349.9961,-70.28621,-17.064447
895324000000.0,-4.108714188800191,9.364603848201748,1.0738705287755326,-1.2547172,0.75991637,0.06627888,349.83182,-70.19721,-17.014847
895328994000.0,-4.073358635111656,9.369349556780463,1.0503792544624595,-1.2409728,0.7480045,0.06169739,349.63507,-70.13855,-16.963678
895334068000.0,-4.037436712921902,9.374171287923517,1.0265116681860218,-1.244027,0.7357872,0.06383542,349.4477,-70.06223,-16.908184
895339027000.0,-4.002328945452651,9.378883736630332,1.0031850303569214,-1.2455542,0.7150178,0.08093964,349.26666,-69.99092,-16.84898
895344018000.0,-3.966994630582912,9.383626594362884,0.9797078677424748,-1.2351695,0.6976081,0.08674286,349.0896,-69.91908,-16.792189
895349256000.0,-3.929911652965662,9.388604171762823,0.9550688419411384,-1.2370021,0.6753115,0.10751228,348.919,-69.85308,-16.725433
895354388000.0,-3.8935791136125264,9.39348101926502,0.9309284294912604,-1.2409728,0.6429357,0.10445796,348.75824,-69.784294,-16.662678
895359075000.0,-3.860396999047416,9.397934991253091,0.9088812523376018,-1.1942415,0.5858198,0.116675265,348.60974,-69.732124,-16.587715
895364034000.0,-3.825289231578164,9.40264743995991,0.8855546145085014,-1.0839803,0.56107974,0.1255328,348.4621,-69.68866,-16.515184
895368978000.0,-3.79028765820289,9.407345634435917,0.8622985351725319,-1.0268645,0.5137377,0.1328632,348.3374,-69.646904,-16.435846
895374081000.0,-3.754160427431446,9.41219492375854,0.8382945358093741,-0.8933904,0.4700608,0.13347405,348.21912,-69.63692,-16.355495
895379032000.0,-3.719109296812316,9.416899770208923,0.8150055291766101,-0.7663304,0.44409904,0.13958271,348.10892,-69.63862,-16.270844
895384055000.0,-3.6835484345420895,9.42167303696721,0.7913778417768175,-0.64904433,0.36193767,0.1328632,348.02893,-69.65831,-16.184662
895389030000.0,-3.648327393372594,9.426400690186894,0.767975941555044,-0.4560109,0.13072516,0.08155051,348.00272,-69.70343,-16.099665
895394028000.0,-3.612943521258999,9.431150199893825,0.744465851643803,0.004886922,0.1001819,0.06780604,347.94025,-69.82125,-16.014814
895398992000.0,-3.5778003557584204,9.435867400010912,0.7211156943169923,0.07086037,0.13164146,0.059253927,347.92944,-69.89228,-15.93438
895403891000.0,-3.543117364665082,9.440522831794478,0.6980712904604156,0.021380283,0.12034045,0.055283304,347.94067,-70.01707,-15.854183
895408921000.0,-3.5075069451509995,9.445302750527146,0.6744106757638286,0.011911872,0.12003502,0.03634648,347.94128,-70.15079,-15.785236
895413920000.0,-3.4721159934311383,9.450053210516131,0.6508958819530455,0.038179077,0.112704635,0.021380283,347.94736,-70.27854,-15.71717
895418899000.0,-3.436866633836582,9.454784664864032,0.6274751661331037,0.06627888,0.11056661,0.0076358155,347.95322,-70.39757,-15.656172
895423940000.0,-3.401178338653581,9.459575036699295,0.6037628085415541,0.08307768,0.099265605,-0.008246681,347.96506,-70.51188,-15.600706
895428920000.0,-3.36592189945276,9.46430744132925,0.5803373888220702,0.09254608,0.08582657,-0.020463986,347.97888,-70.624054,-15.549433
895433917000.0,-3.3305451069454297,9.469056000754128,0.5568320028103713,0.10567969,0.061391957,-0.022907447,347.99966,-70.73499,-15.500105
895438909000.0,-3.2952037124694256,9.473799808768735,0.5333501362963826,0.10995574,0.051618114,-0.035430185,348.02148,-70.83765,-15.458571
895443926000.0,-3.2596853278367903,9.478567373834696,0.5097506722938424,0.10415252,0.03604105,-0.030543262,348.05115,-70.94112,-15.412602
895448914000.0,-3.224372251785847,9.483307380721085,0.486287621378022,0.118202426,0.014660766,-0.03940081,348.08682,-71.039406,-15.374547
895453903000.0,-3.189052096128638,9.488048337889529,0.4628198665626596,0.11453723,-0.0067195175,-0.04886922,348.1266,-71.1318,-15.335877
895458942000.0,-3.1533779601581684,9.492836809160684,0.439116916770194,0.10293079,-0.014660766,-0.050396383,348.1685,-71.22206,-15.298453
895463971000.0,-3.117774620250351,9.497615777611296,0.415461005973149,0.096516706,-0.06078109,-0.043066,348.22742,-71.30963,-15.259339
895468977000.0,-3.0823341112866336,9.50237288957466,0.3919132848655715,0.11178834,-0.101098195,-0.04520403,348.34964,-71.36051,-15.2701645
895473973000.0,-3.046964398385568,9.507120498717484,0.3684126027534146,0.103847094,-0.14752395,-0.038789943,348.4848,-71.40706,-15.275282
895478984000.0,-3.0114884913905247,9.51188236209112,0.3448413621481268,0.100792766,-0.19242255,-0.04184427,348.63034,-71.45086,-15.283245
895483980000.0,-2.97611877848946,9.516629971233945,0.3213406800359699,0.10048734,-0.23365596,-0.03756821,348.78577,-71.49399,-15.286817
895488984000.0,-2.9406924287382723,9.5213851826332,0.2978023667274766,0.10629055,-0.23823744,-0.049480084,348.94266,-71.53007,-15.29713
895493985000.0,-2.905287317805881,9.526137543186294,0.2742781651176094,0.090713486,-0.2770274,-0.059253927,349.11905,-71.5615,-15.303478
895498944000.0,-2.870179550336629,9.530849991893112,0.2509515272885089,0.098043874,-0.3173445,-0.043676864,349.29437,-71.5981,-15.307384
895505473000.0,-2.823956801030974,9.537054383425035,0.2202397671783664,0.10567969,-0.33658674,-0.04428773,349.474,-71.62368,-15.319288
895509032000.0,-2.798760482333037,9.540436437255964,0.2034985887081569,0.10873401,-0.3304781,-0.05375614,349.65515,-71.64887,-15.330271
895514086000.0,-2.762980152268589,9.545239162757928,0.1797250804225603,0.119729586,-0.33108896,-0.05467244,349.84097,-71.675995,-15.339423
895519040000.0,-2.727907782830663,9.549946860054476,0.1564219620911702,0.12156218,-0.3378085,-0.05131268,350.0247,-71.69865,-15.351601
895524050000.0,-2.692438955441885,9.554707773146058,0.1328554253854244,0.12675454,-0.32742378,-0.04642576,350.2012,-71.7214,-15.365933
895528973000.0,-2.657586053798181,9.559386011698924,0.1096981279398383,0.13591751,-0.31245756,-0.028710667,350.37515,-71.74676,-15.377048
895534059000.0,-2.621579176333245,9.564219146226623,0.0857740948688956,0.1414153,-0.28130344,-0.025350908,350.5396,-71.76788,-15.393525
895539027000.0,-2.5864076924076067,9.568940147471931,0.0624051219439165,0.13958271,-0.26450464,-0.015271631,350.7005,-71.79302,-15.404525
895544123000.0,-2.550330018880019,9.573782784820176,0.0384340498775532,0.14935656,-0.24831672,0.00580322,350.84982,-71.82209,-15.414218
895549038000.0,-2.515533754086437,9.578453421116606,0.0153143836283036,0.15577064,-0.23854288,0.033292156,350.99344,-71.85232,-15.420948
895554411000.0,-2.4774950296233818,9.583559286593866,-0.0099596686112117,0.16584991,-0.2415972,0.050396383,351.13385,-71.88503,-15.426044
895559054000.0,-2.444624417733941,9.587971446171554,-0.0317998741850196,0.17959438,-0.22999077,0.07238753,351.26385,-71.92492,-15.424481
895564068000.0,-2.409127271920102,9.592736160391354,-0.0553852264889337,0.18387043,-0.21074851,0.08032878,351.39072,-71.96336,-15.423638
895569063000.0,-2.373764638625302,9.597482819252122,-0.0788812047015484,0.19547687,-0.1994475,0.102319926,351.51315,-72.01138,-15.414209
895574989000.0,-2.331810891897577,9.60311419070536,-0.1067565133878257,0.21166481,-0.17562376,0.129198,351.62424,-72.0615,-15.404003
895579128000.0,-2.30250840156581,9.607047408127723,-0.1262259535924329,0.22999077,-0.15821409,0.13836098,351.7323,-72.11222,-15.394214
895584045000.0,-2.2676979775596977,9.611719944988266,-0.1493550276407667,0.22418754,-0.15241088,0.16646078,351.83337,-72.17059,-15.373499
895589016000.0,-2.232505254815263,9.616443797079734,-0.1727381122643718,0.23609942,-0.18081611,0.17531833,351.93875,-72.22902,-15.356316
895594201000.0,-2.19579749633007,9.621371009530804,-0.197127831389979,0.23579398,-0.17898351,0.16920967,352.03183,-72.28551,-15.338579
895598999000.0,-2.16182954546952,9.625930462826892,-0.219697141392807,0.226631,-0.17623462,0.19211712,352.13,-72.349236,-15.310496
895604402000.0,-2.123578432818508,9.63106483676578,-0.2451123106185844,0.22785273,-0.18234327,0.18967366,352.2305,-72.404,-15.2925205
895609057000.0,-2.0906228656538843,9.635488399728116,-0.267008962986897,0.22937989,-0.19547687,0.17073683,352.33072,-72.456604,-15.274126
895614072000.0,-2.05511864023378,9.64025406422997,-0.2905990191903531,0.22113322,-0.21991149,0.14569137,352.4352,-72.503456,-15.258924
895619058000.0,-2.0198197233953668,9.644992170552252,-0.3140526623070894,0.20158553,-0.20097467,0.13713925,352.52972,-72.54609,-15.24711
895624014000.0,-1.9847331947449107,9.649701768412903,-0.3373651884375636,0.19486602,-0.18753563,0.12583824,352.6329,-72.580345,-15.243113
895629088000.0,-1.948811272555158,9.654523499555957,-0.3612327747140015,0.19058995,-0.18325958,0.105068825,352.73276,-72.60592,-15.245695
895634064000.0,-1.9135831517793973,9.659252103057696,-0.384639378835317,0.19058995,-0.1881465,0.076052725,352.8311,-72.62461,-15.254901
895639004000.0,-1.8786098968291849,9.663946496405485,-0.4078766425731183,0.17287487,-0.16401732,0.059864793,352.91885,-72.63688,-15.268468
895643994000.0,-1.843282661565711,9.66868840385598,-0.4313491012880228,0.16768251,-0.12217305,0.057421334,353.00244,-72.64576,-15.287401
895649237000.0,-1.806164285917135,9.673670732666194,-0.4560116465870697,0.17715092,-0.10170906,0.04337143,353.0855,-72.64619,-15.314613
895654560000.0,-1.7684795417673411,9.678729084040745,-0.4810505038494819,0.19028452,-0.079107046,0.035430185,353.15472,-72.646454,-15.342735
895659000000.0,-1.7402425971862057,9.682715334687083,-0.4976720437742547,0.17959438,-0.074830994,0.03390302,353.22305,-72.6421,-15.373091
895664034000.0,-1.7238057893525065,9.686099376232164,-0.4957383016019374,0.16707164,-0.059253927,0.03726278,353.2811,-72.6377,-15.405566
895669062000.0,-1.707388572469741,9.689479384354662,-0.4938068642474655,0.1704314,-0.035430185,0.043676864,353.29663,-72.7999,-15.299294
895674056000.0,-1.6910823709756024,9.692836536415872,-0.491888487527451,0.16707164,-0.03604105,0.037873644,353.31503,-72.95342,-15.197463
895679069000.0,-1.6747141314701723,9.69620646098192,-0.4899628122175927,0.17989981,-0.04337143,0.040317107,353.32785,-73.10933,-15.094381
895684059000.0,-1.6584209906099896,9.699560924094742,-0.4880459720428086,0.16768251,-0.059864793,0.03726278,353.344,-73.25495,-14.99631
895689010000.0,-1.6422551909308785,9.702889169960793,-0.4861441131840197,0.16340645,-0.0571159,0.0421497,353.35623,-73.402115,-14.897921
895694052000.0,-1.625792261829267,9.706278589402643,-0.4842072979212418,0.15974127,-0.056199603,0.04062254,353.3741,-73.54181,-14.803689
895699017000.0,-1.6095807499313095,9.709616246588048,-0.482300061154147,0.15790866,-0.06169739,0.032986723,353.39304,-73.67736,-14.711831
895704301000.0,-1.592327652475357,9.713168347407318,-0.4802702849049367,0.14752395,-0.051923547,0.039095376,353.40665,-73.81117,-14.619181
895709052000.0,-1.5768148844940484,9.716362145854015,-0.4784452533076622,0.15027285,-0.043676864,0.03634648,353.42282,-73.93878,-14.533004
895714358000.0,-1.5594899535513371,9.719929035889416,-0.4764070260596853,0.15363261,-0.029626964,0.03573562,353.43402,-74.06412,-14.447029
895719073000.0,-1.5440947312756337,9.723098633800628,-0.4745958233694834,0.14752395,-0.010079277,0.0009162979,353.44238,-74.17589,-14.373968
895724060000.0,-1.5278113858909177,9.72645108020216,-0.472680135603622,0.11789699,-0.014966198,-0.015882496,353.45316,-74.28675,-14.297475
895729075000.0,-1.5114366160685098,9.7298223492424,-0.4707536920211486,0.098043874,0.0021380284,-0.0033597588,353.45197,-74.393875,-14.225486
895734062000.0,-1.495153270683794,9.733174795643931,-0.4688380042552871,0.106595986,0.040011674,0.0027488936,353.4469,-74.49229,-14.162031
895739012000.0,-1.478990736163172,9.736502369272886,-0.4669365295328059,0.13500121,0.05497787,0.005497787,353.44327,-74.59066,-14.097214
895744048000.0,-1.4625473980124946,9.73988775529216,-0.4650020190878734,0.14172074,0.06291912,-0.00030543262,353.43085,-74.68452,-14.0354185
895749046000.0,-1.4462281358843998,9.743247596301757,-0.4630821058226287,0.1459968,0.058643065,-0.0036651916,353.41772,-74.780235,-13.973549
895754292000.0,-1.4290991144510294,9.746774152111348,-0.4610669267531061,0.14844026,0.05100725,-0.0036651916,353.40366,-74.87348,-13.913758
895759004000.0,-1.4137136876507927,9.749941733311273,-0.459256876471827,0.14813483,0.040011674,-0.0076358155,353.3923,-74.962616,-13.857045
895763993000.0,-1.397423811949099,9.753295524186996,-0.4573404204333504,0.1554652,0.026572637,-0.009773844,353.3841,-75.05105,-13.80073
895769060000.0,-1.380879253885262,9.756701749556273,-0.4553940017628832,0.15485434,0.009773844,-0.009773844,353.38037,-75.13585,-13.745722
895774050000.0,-1.3645861130250794,9.760056212669094,-0.453477161588099,0.16676621,-0.004276057,-0.015271631,353.38013,-75.21856,-13.693792
895779075000.0,-1.3481786916177811,9.763434204080305,-0.4515468766425499,0.172264,-0.008857546,-0.026267206,353.38226,-75.29686,-13.644448
895784010000.0,-1.3320651344744945,9.766751694152804,-0.4496511639646822,0.172264,-0.00580322,-0.024740042,353.38608,-75.37556,-13.59412
895789008000.0,-1.3157458723463995,9.7701115351624,-0.4477312506994375,0.17745635,-0.03145956,-0.041233405,353.40048,-75.44555,-13.552299
895794133000.0,-1.2990119350902,9.773556750283284,-0.4457625521231311,0.19425514,-0.022907447,-0.047036625,353.40363,-75.51794,-13.50911
895799013000.0,-1.2830779616638086,9.776837267315464,-0.4438879669421798,0.1908954,0.0009162979,-0.05589417,353.41025,-75.581604,-13.472255
895804297000.0,-1.2658248642078558,9.780389368134731,-0.4418581906929695,0.17104226,0.02565634,-0.06627888,353.41425,-75.64142,-13.438705
895809065000.0,-1.2502565885322343,9.783594594612076,-0.4400266287784664,0.13897185,0.042760566,-0.07269296,353.41367,-75.6966,-13.407803
895814077000.0,-1.2338916141852931,9.786963846941026,-0.4381013376049156,0.13041973,0.07819075,-0.056505036,353.4003,-75.75388,-13.375178
895819062000.0,-1.2176147991175554,9.790314948868366,-0.4361864181116693,0.13194689,0.11636983,-0.0580322,353.3819,-75.80117,-13.350497
895824063000.0,-1.2012857415139937,9.793676806589252,-0.4342653524375019,0.1301143,0.13622294,-0.06872234,353.3586,-75.84789,-13.324805
895829915000.0,-1.1821780340362804,9.79761073807948,-0.4320173867655907,0.12034045,0.14630222,-0.06505715,353.32715,-75.89626,-13.296604
895834067000.0,-1.168621095989892,9.80040186650522,-0.4304224528165519,0.101098195,0.17898351,-0.062308256,353.28403,-75.93936,-13.273066
895839001000.0,-1.152510804005094,9.803718684340623,-0.4285271242749917,0.080634214,0.2171626,-0.054061573,353.23672,-75.98292,-13.247591
895844293000.0,-1.135231585281229,9.807276163056668,-0.4264942749353209,0.07513642,0.22937989,-0.038789943,353.18787,-76.02786,-13.21974
895849057000.0,-1.1196763702395636,9.81047870058562,-0.424664249566048,0.064446285,0.24770586,-0.011301007,353.12637,-76.075226,-13.18728
895854351000.0,-1.1023906211987204,9.81403752377586,-0.4226306319537619,0.040317107,0.28710666,0.0061086523,353.05582,-76.121506,-13.154357
895859058000.0,-1.103445741768511,9.812191254217838,-0.4194312096568104,0.037873644,0.30726522,0.02107485,352.9858,-76.17473,-13.114652
895864055000.0,-1.1437310104700629,9.798283239270628,-0.4127169980396254,0.033292156,0.28221974,0.03970624,352.918,-76.23051,-13.069223
895869060000.0,-1.1840807742986137,9.784352958139792,-0.40599203723434,0.018325957,0.25503623,0.04886922,352.86374,-76.371124,-12.9363
895874058000.0,-1.22437410489104,9.770442159919629,-0.3992764819686424,0.006414085,0.23640485,0.069027774,352.81342,-76.51624,-12.797588
895879023000.0,-1.2644013930845972,9.756623209706918,-0.3926052671038588,-0.0030543262,0.21410827,0.08399397,352.77164,-76.65792,-12.660159
895884011000.0,-1.3046141047682756,9.742740244216286,-0.3859031483232867,-0.013439035,0.18112154,0.10934488,352.7373,-76.80334,-12.516546
895889014000.0,-1.3449477448150764,9.728815529631357,-0.3791808748150264,-0.028710667,0.14019357,0.11911872,352.71127,-76.943855,-12.375694
895894033000.0,-1.3854103751158746,9.714846282679174,-0.3724371029305653,-0.03970624,0.10323623,0.12339478,352.69257,-77.08576,-12.231914
895899997000.0,-1.433491492293392,9.698246842786205,-0.3644235832017498,-0.039095376,0.07238753,0.11759156,352.68317,-77.22379,-12.090908
895904183000.0,-1.467238567495453,9.68659606220405,-0.3587990705282383,-0.032986723,0.050396383,0.12339478,352.6806,-77.3622,-11.948214
895909006000.0,-1.5061210671847831,9.673172336750698,-0.3523186537522361,-0.022907447,0.0061086523,0.12034045,352.69272,-77.49371,-11.81198
895914024000.0,-1.5465756355947065,9.65920587307147,-0.3455762255162876,0.009773844,-0.027183503,0.086437434,352.7074,-77.61782,-11.686045
895919007000.0,-1.5867480378240106,9.645336823945602,-0.3388808249782782,0.014049901,-0.06811147,0.0983493,352.735,-77.74849,-11.550182
895924033000.0,-1.6272671013609328,9.631348094082748,-0.3321276475542294,0.03145956,-0.098043874,0.09560041,352.76874,-77.86723,-11.430883
895929111000.0,-1.6682053832233463,9.617214634026324,-0.3253046004075282,0.04337143,-0.15118915,0.076052725,352.8198,-77.98139,-11.314901
895934059000.0,-1.7080956192720311,9.603442999453822,-0.3186562275674579,0.0421497,-0.21685717,0.06291912,352.88156,-78.093796,-11.2002125
895939008000.0,-1.7479939172115908,9.589668581608365,-0.312006511078875,0.047036625,-0.27580565,0.053145275,352.95544,-78.200516,-11.092332
895944261000.0,-1.7903430299771006,9.575048048785131,-0.3049483254424786,0.06383542,-0.35246924,0.038789943,353.052,-78.30052,-10.990937
895949064000.0,-1.8290642918489344,9.561679988790845,-0.2984947816367271,0.080634214,-0.37995818,0.011301007,353.1497,-78.391914,-10.898989
895954205000.0,-1.8705104728364623,9.54737118253837,-0.2915870846337357,0.08735373,-0.43004912,0.00061086525,353.27377,-78.4817,-10.807456
895959068000.0,-1.9097154481607863,9.53383612616689,-0.2850529219172316,0.09743301,-0.46273044,-0.011301007,353.39893,-78.56297,-10.726849
895964077000.0,-1.950097459552836,9.51989471194424,-0.2783225865178961,0.15424347,-0.47861293,-0.020158553,353.5313,-78.64475,-10.650663
895969750000.0,-1.9958325664857768,9.504105204480656,-0.2707000685062309,0.19822577,-0.46914452,-0.0061086523,353.66296,-78.72659,-10.573991
895974055000.0,-2.0305390067019427,9.492123214417068,-0.2649156616597267,0.2764165,-0.4550946,-0.005192355,353.79572,-78.808716,-10.506155
895979035000.0,-2.070687223258622,9.478262515110062,-0.2582242920672549,0.29749137,-0.3933972,0.013744468,353.90878,-78.89523,-10.43303
895984063000.0,-2.1112224105772937,9.4642682187013,-0.251468427346181,0.3304781,-0.31306845,0.04153884,354.0099,-78.98997,-10.3604555
895989014000.0,-2.1511368322986035,9.450488234309937,-0.244816023560573,0.3549127,-0.27488935,0.08277224,354.10275,-79.091385,-10.281593
895994009000.0,-2.1914059772184054,9.436585785908632,-0.2381044992404131,0.37843102,-0.25289822,0.11789699,354.17505,-79.19833,-10.200254
895999023000.0,-2.23182829806483,9.422630455321215,-0.2313674455985148,0.38087448,-0.25228736,0.17073683,354.24002,-79.318,-10.104988
896004220000.0,-2.2737259449413485,9.408165785783362,-0.2243845042788208,0.36377025,-0.23609942,0.1908954,354.29285,-79.43502,-10.012402
896008989000.0,-2.3121731025234378,9.394892357069484,-0.217976644522496,0.35796702,-0.22174409,0.21471913,354.34378,-79.564735,-9.906594
896014078000.0,-2.3532000651854745,9.380728281010578,-0.2111388172421568,0.31612277,-0.2321288,0.24862215,354.39545,-79.69419,-9.79495
896019074000.0,-2.393477271996152,9.366823049336318,-0.2044259492734843,0.27030787,-0.22357668,0.28680122,354.43588,-79.82679,-9.678796
896024039000.0,-2.433504560189709,9.353004099123613,-0.1977547344087007,0.2452624,-0.204029,0.31031954,354.47452,-79.959206,-9.560243
896029022000.0,-2.473676962419013,9.339135049997743,-0.1910593338706913,0.22174409,-0.17715092,0.32162055,354.50687,-80.09132,-9.437715
896034058000.0,-2.514276644864683,9.32511848740536,-0.184292719961517,0.20708331,-0.16310102,0.2968805,354.5362,-80.215164,-9.322081
896038986000.0,-2.554005643095872,9.31140251829192,-0.1776712200916976,0.18875736,-0.16829337,0.25411993,354.56223,-80.33154,-9.211607
896044011000.0,-2.594516644741919,9.297416571702016,-0.1709193863161613,0.1591304,-0.15393804,0.2125811,354.57788,-80.436264,-9.111196
896048976000.0,-2.634543932935476,9.283597621489308,-0.1642481714513777,0.1255328,-0.1151481,0.19303341,354.5873,-80.530785,-9.019492
896054180000.0,-2.676498013048118,9.269113469040782,-0.1572558245920959,0.12370021,-0.060170226,0.13836098,354.5882,-80.6024,-8.952265
896059034000.0,-2.708847815729128,9.25587681513808,-0.1489567455990571,0.10598512,0.008246681,0.077579886,354.57373,-80.660904,-8.894941
896064077000.0,-2.731084582676889,9.242583106328883,-0.1373549550368843,0.07849618,0.055283304,0.0061086523,354.55023,-80.69921,-8.858093
896069064000.0,-2.753074421417418,9.2294370175263,-0.1258819965729628,0.05375614,0.11453723,-0.05589417,354.59482,-80.59987,-8.964497
896074030000.0,-2.7749716620802345,9.21634628622619,-0.1144573501458856,0.025350908,0.17562376,-0.10354166,354.62677,-80.48426,-9.085678
896079053000.0,-2.797120240382556,9.203105298847928,-0.102901571047374,0.01160644,0.226631,-0.14752395,354.64648,-80.354454,-9.221427
896084060000.0,-2.819198267768525,9.18990648861441,-0.0913826011197914,-0.01282817,0.26450464,-0.17928895,354.65433,-80.21476,-9.364736
896089004000.0,-2.8409985009213568,9.176873750888326,-0.0800085673027415,-0.034513887,0.27183503,-0.20005837,354.65857,-80.06859,-9.514163
896094334000.0,-2.864500774931186,9.162823489545277,-0.0677465122370304,-0.043982297,0.2828306,-0.20433442,354.65295,-79.92099,-9.664714
896099008000.0,-2.8851104613705747,9.150502491136756,-0.0569936331794068,-0.062308256,0.30390546,-0.21410827,354.64462,-79.76757,-9.819158
896104191000.0,-2.907964548836418,9.13683973231105,-0.0450697623716055,-0.05589417,0.29443705,-0.20861048,354.6437,-79.62224,-9.966359
896109150000.0,-2.92983092347333,9.123767453511766,-0.0336612199568098,-0.06078109,0.27763826,-0.19822577,354.64075,-79.47709,-10.111342
896114042000.0,-2.951401866148017,9.1108717915061,-0.0224068159452791,-0.0720821,0.2669481,-0.19853121,354.64056,-79.3342,-10.254138
896119063000.0,-2.9735416255857947,9.09763607627093,-0.0108556379931336,-0.0693332,0.26450464,-0.17012598,354.64377,-79.20626,-10.382245
896124029000.0,-2.995438866248611,9.084545344970822,0.0005690084339435,-0.0693332,0.23671028,-0.15118915,354.65887,-79.0779,-10.509363
896129051000.0,-3.017583035118661,9.071306993664107,0.0121224869592721,-0.061391957,0.2134974,-0.1414153,354.6742,-78.95874,-10.6280575
896134076000.0,-3.0397404322855257,9.058060734142751,0.0236828672041498,-0.06261369,0.19058995,-0.116675265,354.69785,-78.851006,-10.733996
896138996000.0,-3.0614348390638293,9.045091262133784,0.0350016872648062,-0.070249505,0.17928895,-0.09621128,354.72543,-78.74746,-10.83576
896144240000.0,-3.0845579018982656,9.031267702943737,0.0470658930367741,-0.06841691,0.17287487,-0.079107046,354.7583,-78.6527,-10.929007
896149064000.0,-3.105829003178456,9.018551293803236,0.0581638580718568,-0.049785517,0.17165314,-0.07666359,354.7931,-78.56232,-11.0186
896155313000.0,-3.133383545446265,9.002078482708919,0.0725401398928002,-0.04550946,0.16646078,-0.064751714,354.8306,-78.48019,-11.09872
896158996000.0,-3.149623484504089,8.992369831203018,0.0810131509260111,-0.035430185,0.1740966,-0.06566802,354.86496,-78.39878,-11.180354
896163982000.0,-3.1716089138123453,8.979226378471978,0.0924838088167495,-0.032986723,0.18600847,-0.061391957,354.89932,-78.32343,-11.255589
896169060000.0,-3.194000010889628,8.965840407158657,0.1041661194403295,-0.030543262,0.20250183,-0.06811147,354.93036,-78.24708,-11.332943
896174026000.0,-3.215897251552444,8.952749675858549,0.1155907658674066,-0.01160644,0.22449298,-0.06811147,354.9562,-78.176674,-11.405977
896179006000.0,-3.2378562242670683,8.939622039556788,0.1270476203190467,-0.0018325958,0.24129178,-0.06872234,354.97906,-78.10524,-11.479786
896184069000.0,-3.26018117986027,8.926275609316663,0.1386954223448807,-0.013439035,0.26206118,-0.07422013,354.99472,-78.03372,-11.553883
896189000000.0,-3.281924090393566,8.913277140520684,0.1500395487105508,-0.015271631,0.29077184,-0.07696902,355.00348,-77.96566,-11.626234
896194037000.0,-3.304134400747696,8.899999248140771,0.1616275358336252,-0.034513887,0.30757064,-0.081855945,355.01022,-77.89485,-11.69932
896199018000.0,-3.326097782894592,8.886868975767463,0.1730866908584483,-0.05467244,0.31856623,-0.087964594,355.01096,-77.82432,-11.772246
896204211000.0,-3.348995964683155,8.87317985622629,0.1850335673980802,-0.08002335,0.32925636,-0.08124508,355.00742,-77.75587,-11.84146
896209074000.0,-3.3704390338219543,8.860360640295474,0.1962212547873021,-0.110872045,0.33658674,-0.07391469,355.0024,-77.68579,-11.9106245
896214076000.0,-3.3924950140465637,8.84717501041969,0.2077287218489695,-0.12522738,0.3472769,-0.087964594,354.9942,-77.61277,-11.982507
896219058000.0,-3.414462805625732,8.834042101974836,0.2191901774469756,-0.18203785,0.3481932,-0.077579886,354.98685,-77.54503,-12.043639
896225110000.0,-3.4411486897359547,8.818088596975187,0.2331132463508562,-0.20555615,0.33567044,-0.08246681,354.98148,-77.47241,-12.111372
896228991000.0,-3.458261696383637,8.807858003303071,0.242041770874313,-0.2406809,0.3145956,-0.08674286,354.97876,-77.39975,-12.174195
896233986000.0,-3.4802868105823417,8.794690825928113,0.253533133923699,-0.27214047,0.3200934,-0.08002335,354.97235,-77.329216,-12.233878
896239007000.0,-3.502426570020119,8.781455110692944,0.2650843118758445,-0.3032946,0.31612277,-0.094989546,354.97565,-77.25079,-12.298923
896243998000.0,-3.5244340464897355,8.768298477604171,0.2765664726324982,-0.32650748,0.31337386,-0.10048734,354.97702,-77.17694,-12.35793
896249101000.0,-3.5469353793738176,8.754846604502188,0.2883062975856546,-0.34330627,0.32406402,-0.10995574,354.97626,-77.097946,-12.420929
896254165000.0,-3.5692647443992915,8.741497538190517,0.2999564001846717,-0.3744604,0.3213151,-0.122783914,354.98062,-77.01557,-12.484598
896259022000.0,-3.572046886765336,8.711719415130045,0.3083744363959165,-0.39553526,0.33017266,-0.13897185,354.97903,-76.93117,-12.550675
896264053000.0,-3.54807120361241,8.6564091687092,0.3131220962126848,-0.4156938,0.31123585,-0.14294247,354.98666,-76.84634,-12.614663
896269051000.0,-3.5242527849285845,8.601461720565412,0.3178386145518237,-0.43799037,0.29229903,-0.15882497,355.08026,-76.70895,-12.735259
896274055000.0,-3.5004057727049225,8.546448309098523,0.3225607949778042,-0.44806966,0.26725355,-0.17440203,355.18042,-76.57219,-12.854749
896279089000.0,-3.476415792782078,8.491105081016125,0.3273112858379933,-0.45723262,0.24465153,-0.19700404,355.28494,-76.42978,-12.978724
896284026000.0,-3.4528880750865905,8.43682825999054,0.3319702396275749,-0.47128254,0.22937989,-0.2302962,355.3942,-76.28133,-13.108103
896289032000.0,-3.429031531682983,8.381792860749284,0.336694307415836,-0.4896085,0.16829337,-0.23732115,355.52234,-76.13521,-13.233217
896294965000.0,-3.4007572863746325,8.316566128088802,0.3422931676211403,-0.49021935,0.12156218,-0.26328292,355.65082,-75.9778,-13.371191
896299063000.0,-3.381227898666286,8.271513178410283,0.3461603729340237,-0.5161811,0.07788532,-0.2874121,355.79504,-75.8178,-13.507573
896303923000.0,-3.3580671313987005,8.218082886697838,0.3507466632758034,-0.5317582,0.0421497,-0.31245756,355.94968,-75.653854,-13.648925
896308897000.0,-3.334363086874221,8.163399291846458,0.3554405332675755,-0.548557,0.03176499,-0.32253686,356.10812,-75.4877,-13.790592
896313898000.0,-3.310530371420477,8.10841886204112,0.3601598826501352,-0.5540548,0.00061086525,-0.32895094,356.2818,-75.318085,-13.935126
896318901000.0,-3.286688124786788,8.053416444461416,0.3648811193949755,-0.5589417,-0.024129177,-0.33628133,356.45502,-75.14685,-14.080686
896323918000.0,-3.2627791598934803,7.998260112461139,0.3696155676757798,-0.56046885,-0.014966198,-0.3371976,356.62537,-74.97818,-14.224392
896328886000.0,-3.239103708908837,7.943642480932861,0.3743037755807101,-0.57635134,0.017104227,-0.3417791,356.79437,-74.807465,-14.369345
896333895000.0,-3.215232868735312,7.888574100030054,0.3790306744123922,-0.58093286,0.03390302,-0.3277292,356.96268,-74.64515,-14.507224
896338886000.0,-3.1914478091812954,7.833703609096553,0.383740586983549,-0.5852089,0.06505715,-0.31612277,357.1156,-74.48232,-14.646259
896343907000.0,-3.167519781928097,7.778503301547542,0.3884788099889145,-0.57604593,0.095294975,-0.2910773,357.26132,-74.330536,-14.775931
896348897000.0,-3.143739487964053,7.723643804501224,0.3931877788789311,-0.5849035,0.113926366,-0.26328292,357.3993,-74.18325,-14.900091
896353994000.0,-3.1194492758729253,7.667607961526258,0.397997721650958,-0.59803706,0.099571034,-0.22632557,357.53564,-74.04818,-15.012602
896359016000.0,-3.095516483029753,7.612396660090064,0.4027368883374637,-0.61208695,0.07727446,-0.18142697,357.66638,-73.9242,-15.113527
896364312000.0,-3.0702779185340474,7.554173033565555,0.4077346236564072,-0.5925393,0.07727446,-0.13836098,357.79214,-73.81377,-15.203311
896369002000.0,-3.0479273015618302,7.502611702674327,0.4121604882043386,-0.59498274,0.06627888,-0.1001819,357.9247,-73.71234,-15.279826
896374020000.0,-3.02401357107855,7.447444376786866,0.4168958801662832,-0.61422503,0.031154128,-0.06719518,358.0614,-73.62268,-15.344232
896379021000.0,-3.000180855624806,7.392463946981529,0.4216152295488429,-0.6249151,-0.018325957,-0.043982297,358.20267,-73.542274,-15.399469
896384008000.0,-2.976414858430681,7.337637431596762,0.4263213673954387,-0.6582073,-0.08307768,-0.03848451,358.35608,-73.46253,-15.448862
896388988000.0,-2.952682220366365,7.282887873422281,0.4310208994740524,-0.6786713,-0.14110987,-0.040317107,358.51904,-73.387726,-15.492727
896394183000.0,-2.927924980457907,7.225774629503318,0.4359233229978272,-0.70096785,-0.19242255,-0.044898596,358.6961,-73.31046,-15.534514
896398972000.0,-2.905102570078387,7.17312490378091,0.4404426119786467,-0.729984,-0.24373524,-0.064446285,358.8876,-73.22622,-15.579874
896404134000.0,-2.88050259463903,7.116374458139008,0.4453138940247922,-0.7654142,-0.2919936,-0.10293079,359.09067,-73.13299,-15.631042
896409055000.0,-2.857051126383107,7.062273539308361,0.4499577489161293,-0.7974846,-0.35033122,-0.13133603,359.3085,-73.03493,-15.683515
896414086000.0,-2.83307544323018,7.006963292887514,0.4547054087328975,-0.8188649,-0.40775254,-0.160963,359.5379,-72.92437,-15.746091
896419060000.0,-2.809371398705701,6.952279698036135,0.4593992787246695,-0.8399397,-0.45234573,-0.20311269,359.77817,-72.80039,-15.819057
896424049000.0,-2.78559587033163,6.897431194877,0.4641073039335459,-0.86193085,-0.473726,-0.24190263,0.025344716,-72.668045,-15.898521
896429014000.0,-2.761934716116905,6.842846545010273,0.4687926807950553,-0.9071349,-0.4605924,-0.2782491,0.27268833,-72.52153,-15.988918
896434181000.0,-2.737310912727685,6.786041129932452,0.4736686812469022,-0.95294976,-0.4538729,-0.30451632,0.52513844,-72.36643,-16.086248
896438995000.0,-2.714369362598846,6.733116557030454,0.4782115622562288,-0.9804387,-0.44837508,-0.31337386,0.77082545,-72.2053,-16.188715
896444040000.0,-2.690326961186301,6.677652396189036,0.4829724336089611,-0.98990715,-0.4361578,-0.31429017,1.0094295,-72.03857,-16.29595
896448985000.0,-2.666761118771032,6.6232876240659815,0.4876389368476649,-1.0015136,-0.42485678,-0.29229903,1.2424175,-71.87455,-16.398333
896454136000.0,-2.642213564821375,6.566658111183099,0.4924998384012672,-1.031446,-0.4016439,-0.2565634,1.4641507,-71.71309,-16.49694
896460514000.0,-2.6197626086604315,6.523157069855298,0.5088513156207257,-1.0516045,-0.35705075,-0.18325958,1.6702114,-71.56928,-16.579039
896463972000.0,-2.652690161444196,6.650688668703535,0.5763778809381167,-1.0821478,-0.3399465,-0.14905111,1.8742108,-71.42197,-16.661148
896469053000.0,-2.701072144004724,6.838076769845204,0.6755977994973023,-1.0815369,-0.3371976,-0.06261369,2.0981443,-71.34694,-16.664154
896474060000.0,-2.748749488362245,7.0227357390277145,0.7733726729918589,-1.0436633,-0.3484986,0.02687807,2.3150086,-71.28247,-16.658218
896480124000.0,-2.8064917324573138,7.246377039032256,0.8917882577473994,-0.9621128,-0.3726278,0.122783914,2.5261152,-71.24722,-16.62752
896484070000.0,-2.844066088525773,7.391906156746295,0.968844309436938,-0.89858276,-0.38606682,0.21868975,2.7285774,-71.23653,-16.574007
896489015000.0,-2.8911530603348288,7.574278555908969,1.0654084694989678,-0.8179486,-0.40653083,0.30482176,2.931373,-71.25899,-16.498053
896494066000.0,-2.939249378759003,7.760560252202331,1.1640425589778984,-0.74372846,-0.42821655,0.3912592,3.1290383,-71.31103,-16.398138
896498993000.0,-2.986164952086246,7.942268808456022,1.260255221591775,-0.66339964,-0.42638394,0.46181414,3.3175004,-71.38935,-16.283037
896504089000.0,-3.0346897667149517,8.130210112021844,1.359768054691088,-0.58551437,-0.37965274,0.5128214,3.4909515,-71.49043,-16.155218
896509057000.0,-3.081995747695212,8.313430754901555,1.4567813503813132,-0.528093,-0.29626966,0.5338962,3.6463318,-71.605484,-16.023176
896514218000.0,-3.1311395012860177,8.503769268972043,1.5575634798211788,-0.4877759,-0.2302962,0.50915617,3.7884948,-71.725426,-15.896552
896519065000.0,-3.177293303582983,8.682527412296915,1.6522139315543756,-0.47952923,-0.2125811,0.4465425,3.9174573,-71.83986,-15.7814865
896524056000.0,-3.2248182937344483,8.866596298893661,1.7496763628727965,-0.5002986,-0.21044308,0.37568212,4.03012,-71.94303,-15.682683
896529028000.0,-3.2721623632662227,9.049964462419812,1.8467677691070552,-0.5369505,-0.19364429,0.29565877,4.1339374,-72.02307,-15.60969
896534063000.0,-3.320106327484341,9.23565607612741,1.94508941640985,-0.59681535,-0.17531833,0.21502456,4.2375317,-72.07554,-15.56055
896538994000.0,-3.367059989363098,9.41751215302754,2.0413801895677604,-0.6563747,-0.13744467,0.17134771,4.3302803,-72.10938,-15.527954
896544239000.0,-3.417003602535696,9.610948600673291,2.14380264043234,-0.68386364,-0.11636983,0.08093964,4.4265513,-72.105644,-15.533486
896550085000.0,-3.472670020573257,9.8265500254468,2.2579612005380274,-0.72173727,-0.09101892,0.047036625,4.508263,-72.09415,-15.53869
896554094000.0,-3.5108442713280605,9.974402593342283,2.336247493296102,-0.7684685,-0.086132,0.021380283,4.592301,-72.05659,-15.567881
896559057000.0,-3.5581026416189285,10.157438835413943,2.4331631508062843,-0.79320854,-0.11759156,-0.020158553,4.680806,-72.00441,-15.610967
896564077000.0,-3.60590377376887,10.342577246697386,2.5311918835689515,-0.8668178,-0.19120082,-0.054367006,4.780121,-71.93465,-15.6576
896569067000.0,-3.6534192417824567,10.526609253132523,2.628634787251364,-0.94225967,-0.29657507,-0.08460484,4.8986883,-71.852425,-15.711878
896574018000.0,-3.7005633464187833,10.70920293326486,2.7253161131294443,-1.0112875,-0.40500367,-0.1133155,5.039884,-71.75356,-15.771782
896579040000.0,-3.7483835228444815,10.894415104871523,2.8233839011641284,-1.0351112,-0.5186246,-0.13103059,5.212519,-71.646835,-15.832076
896584056000.0,-3.796146566442909,11.079405995508528,2.921334523382761,-1.0384709,-0.61117065,-0.15943582,5.4102182,-71.52481,-15.899615
896588995000.0,-3.8431764054246935,11.26155711370154,3.01778151762874,-1.0345002,-0.67011917,-0.20372356,5.630053,-71.393394,-15.973358
896594231000.0,-3.893034319356385,11.454661639892798,3.1200282197692437,-1.0366384,-0.70280045,-0.25137106,5.8675647,-71.25397,-16.053553
896599015000.0,-3.9385882269670063,11.631096333036222,3.2134484304339046,-1.0537425,-0.70432764,-0.3213151,6.113077,-71.0978,-16.15176
896604076000.0,-3.986779766769965,11.817746830945689,3.31227779627292,-1.0549643,-0.711658,-0.4196644,6.370302,-70.92644,-16.269896
896609057000.0,-4.0342095355426455,12.00144691592633,3.409544951231256,-1.063211,-0.70524395,-0.54367006,6.6256547,-70.73006,-16.415392
896614171000.0,-4.082905748653164,12.190052062401138,3.509409281778722,-1.065349,-0.6649268,-0.6658431,6.875253,-70.51323,-16.588654
896620057000.0,-4.138953052205864,12.407128693639056,3.624348947324749,-1.0800097,-0.58184916,-0.7770206,7.113734,-70.26877,-16.79466
896623983000.0,-4.176336965516754,12.551920208120888,3.7010144462941184,-1.1133019,-0.46486846,-0.8729264,7.3339286,-69.99886,-17.032084
896629012000.0,-4.2242237969076015,12.737390540858826,3.7992189277808617,-1.1453724,-0.3304781,-0.94714653,7.5278306,-69.70963,-17.296392
896634069000.0,-4.272377248159046,12.923893518121847,3.8979701830758433,-1.2018774,-0.2910773,-0.98532563,7.717747,-69.402695,-17.57397
896639014000.0,-4.3194642199681015,13.106265917284524,3.994534343137873,-1.2479976,-0.25228736,-1.001819,7.87102,-69.08599,-17.867676
896643982000.0,-4.366770200948363,13.289486560164232,4.091547638828098,-1.2822062,-0.2565634,-1.0207558,8.027788,-68.75957,-18.16648
896648940000.0,-4.413980960549838,13.47233840142784,4.188365658158238,-1.3863586,-0.2947425,-1.0338894,8.184067,-68.42074,-18.46215
896654097000.0,-4.46308662558913,13.66252939485189,4.289069677054069,-1.4920384,-0.3231477,-1.0512991,8.340269,-68.07829,-18.758282
896659026000.0,-4.498138274861899,13.785441158057338,4.366216529763292,-1.6169603,-0.33567044,-1.0751228,8.504286,-67.72077,-19.052366
896664078000.0,-4.482175005494039,13.65434881067813,4.361862912222361,-1.6920967,-0.29840767,-1.1249083,8.664412,-67.35258,-19.353653
896669073000.0,-4.466391844272252,13.524735533726597,4.357558415069363,-1.6985108,-0.226631,-1.1985176,8.874163,-66.93826,-19.592743
896673977000.0,-4.450896224125778,13.397483579738545,4.353332338184817,-1.6239853,-0.09682214,-1.2996159,9.060249,-66.51511,-19.8539
896679008000.0,-4.4349993103906815,13.266936153043217,4.348996817628914,-1.5286902,0.070249505,-1.4425583,9.221844,-66.07583,-20.148386
896684009000.0,-4.419197190416677,13.137167184467716,4.344687149908766,-1.4285084,0.2180789,-1.5775595,9.357848,-65.63631,-20.469372
896690779000.0,-4.397805398330292,12.9614951354263,4.338853026640337,-1.3329079,0.3173445,-1.6643023,9.466794,-65.198586,-20.816624
896694001000.0,-4.387624548389032,12.87788873335666,4.336076432080386,-1.2751812,0.31245756,-1.6554449,9.567672,-64.772026,-21.168669
896699050000.0,-4.37167075839728,12.746874231789436,4.331725399823031,-1.2696834,0.29016098,-1.5906931,9.648854,-64.35555,-21.525284
896704042000.0,-4.355897076551604,12.617338800649886,4.327423487953608,-1.2464706,0.20891592,-1.5091426,9.749608,-63.966824,-21.861311
896709008000.0,-4.340205549298872,12.488478033214186,4.323143981875171,-1.2455542,0.06414085,-1.4575244,9.875922,-63.593098,-22.173445
896714055000.0,-4.324258078891194,12.35751542885495,4.3187946731402,-1.2739595,-0.0036651916,-1.3921618,9.99828,-63.249573,-22.452011
896719005000.0,-4.308617108311045,12.22906983908316,4.314528955240832,-1.25319,0.051618114,-1.3283265,10.124542,-62.932858,-22.70971
896724036000.0,-4.292720194575949,12.098522412387831,4.31019343468493,-1.1756102,0.12858713,-1.2550226,10.259647,-62.645077,-22.938805
896728998000.0,-4.277041306491364,11.96976543936811,4.305917375651261,-1.0797043,0.16157386,-1.1899655,10.38796,-62.382603,-23.149185
896734009000.0,-4.261207588596996,11.839736984752667,4.301599090319194,-0.9981538,0.25137106,-1.1591167,10.474206,-62.14424,-23.355139
896738999000.0,-4.245440226335392,11.710253450821106,4.297298901972154,-0.947452,0.31581733,-1.1111639,10.552682,-61.939747,-23.535772
896744012000.0,-4.22960018885695,11.580173098997674,4.292978893117704,-0.838718,0.3359759,-1.1184943,10.621147,-61.753914,-23.72336
896749086000.0,-4.213567404064289,11.44850988233059,4.288606316830554,-0.73823065,0.34483343,-1.1658363,10.6749,-61.579285,-23.909727
896754026000.0,-4.197958031404504,11.320323778598745,4.284349216543105,-0.634689,0.31490102,-1.237613,10.738884,-61.415947,-24.100266
896759035000.0,-4.182130633094209,11.19034722119129,4.2800326547334215,-0.54825157,0.21746802,-1.3365731,10.828897,-61.24864,-24.303436
896763975000.0,-4.166521260434424,11.062161117459445,4.275775554445972,-0.46181414,0.04550946,-1.4294246,10.957919,-61.08201,-24.51305
896769007000.0,-4.150621186907292,10.931587742160122,4.271439172128877,-0.3848451,-0.12034045,-1.4941764,11.122057,-60.910473,-24.731487
896773984000.0,-4.13489490194216,10.802441540080483,4.267150186677331,-0.32925636,-0.28955013,-1.5198327,11.344628,-60.736137,-24.947771
896779027000.0,-4.118960070702627,10.671582730137224,4.262804324987127,-0.2828306,-0.48075095,-1.527774,11.628247,-60.560642,-25.159481
896784018000.0,-4.103189548648986,10.54207324760167,4.258503274878896,-0.23335053,-0.6765333,-1.4984524,11.962945,-60.396767,-25.352137
896789007000.0,-4.087425346179419,10.4126156622741,4.254203948293048,-0.17715092,-0.8356637,-1.4666874,12.343488,-60.239105,-25.532673
896793985000.0,-4.071695901422251,10.283443511590471,4.249914101080311,-0.14782938,-1.0057896,-1.4272866,12.781265,-60.093414,-25.686203
896799102000.0,-4.055527245572025,10.150664504951632,4.245504469061914,-0.13744467,-1.1548407,-1.3741413,13.253719,-59.963398,-25.81651
896804037000.0,-4.039933671872422,10.022608144239758,4.241251677580423,-0.13500121,-1.2098186,-1.3112222,13.740627,-59.84739,-25.92821
896808974000.0,-4.024333778588747,9.894499886319894,4.236997162576549,-0.17837265,-1.2104294,-1.2345587,14.245308,-59.741566,-26.015623
896813993000.0,-4.008474782358087,9.764263842872497,4.232671983154948,-0.24617869,-1.1988231,-1.1841623,14.754104,-59.640034,-26.09161
896819011000.0,-3.992618945919464,9.634053748029094,4.228347665494538,-0.29779682,-1.1624765,-1.144456,15.24381,-59.54938,-26.153637
896823994000.0,-3.9768737022021146,9.504751854325493,4.224053509475842,-0.3735441,-1.097114,-1.1093313,15.71114,-59.4557,-26.208527
896829020000.0,-3.9609925874272,9.374334170650137,4.219722297725898,-0.4373795,-1.054048,-1.1078042,16.167885,-59.356636,-26.265045
896834070000.0,-3.9450356376434126,9.243293720478915,4.215370403707351,-0.47952923,-0.96577793,-1.1117748,16.582685,-59.25639,-26.32424
896839019000.0,-3.929397826855301,9.11487407931112,4.211105547569175,-0.573297,-0.87689704,-1.1389582,16.980965,-59.133846,-26.394487
896844029000.0,-3.913567268752968,8.984871573299671,4.2067881239983,-0.64965516,-0.7849618,-1.1560625,17.346077,-59.00917,-26.471647
896848980000.0,-3.8979231383807833,8.856400034923887,4.202521544337741,-0.70738196,-0.70371675,-1.1591167,17.684359,-58.871124,-26.559269
896854048000.0,-3.881909312340341,8.724892509880771,4.198154138617742,-0.7742717,-0.64812803,-1.1404854,17.99836,-58.72318,-26.650963
896859012000.0,-3.854410516422296,8.596771790842853,4.18507943675452,-0.81122905,-0.6441574,-1.1166617,18.299965,-58.57336,-26.74401
896864000000.0,-3.7722911649745634,8.471205579946627,4.131367645911666,-0.82833326,-0.68569624,-1.0690142,18.591637,-58.42917,-26.825523
896868966000.0,-3.690534007939792,8.34619318954754,4.07789275550958,-0.83077675,-0.8026769,-1.0177015,19.054688,-58.11633,-27.003992
896874903000.0,-3.5927909065875085,8.196737176297562,4.013961941108213,-0.816116,-0.97066486,-0.9624182,19.53835,-57.82159,-27.156311
896878992000.0,-3.52547213592396,8.093802084807052,3.969930763731222,-0.78038037,-1.1872166,-0.9272934,20.066023,-57.542274,-27.282
896884010000.0,-3.442858883004008,7.967480664142005,3.9158959268327775,-0.72326446,-1.3997977,-0.8698721,20.63127,-57.29188,-27.368938
896889033000.0,-3.360163313172019,7.841033375182153,3.8618072489250697,-0.69058317,-1.6142114,-0.840856,21.256401,-57.048813,-27.43186
896894002000.0,-3.278356765990025,7.715945463806182,3.808300053917424,-0.6441574,-1.7736472,-0.82741696,21.917797,-56.82997,-27.467447
896899025000.0,-3.1956611961580363,7.589498174846331,3.754211376009714,-0.5907067,-1.8438967,-0.81092364,22.60524,-56.627884,-27.481977
896904028000.0,-3.1132948939741936,7.463554359065695,3.700338062139066,-0.55924714,-1.8344283,-0.79076505,23.305565,-56.4361,-27.484411
896909003000.0,-3.031389566497756,7.33831540573596,3.646766257920302,-0.5338962,-1.738217,-0.77824235,23.9902,-56.255833,-27.486927
896914023000.0,-2.948743386812989,7.211943637752991,3.592709884618152,-0.5006041,-1.5812247,-0.7629707,24.641535,-56.089035,-27.491587
896919010000.0,-2.866640498747664,7.086402600515727,3.539008861977152,-0.4605924,-1.3997977,-0.75625116,25.247244,-55.92993,-27.508802
896924007000.0,-2.784372976858265,6.960609826688854,3.485200157317621,-0.408058,-1.3225232,-0.7467828,25.827246,-55.78396,-27.527912
896928994000.0,-2.70227008879294,6.83506878945159,3.431499134676621,-0.35277468,-1.1603385,-0.74281216,26.320282,-55.646534,-27.575323
896934010000.0,-2.619689762637802,6.708797716104464,3.377485834181883,-0.3268129,-1.0375546,-0.7305948,26.793922,-55.518063,-27.623255
896939029000.0,-2.5370600463354425,6.582451121780457,3.3234402290815863,-0.25686884,-0.97402465,-0.7089091,27.22998,-55.40975,-27.679384
896945105000.0,-2.4370285348285408,6.429495969934934,3.25801263462265,-0.20066923,-0.91324353,-0.6621779,27.621187,-55.3128,-27.73892
896949042000.0,-2.3722121982909057,6.330387274606458,3.215618223927318,-0.10781772,-0.9077458,-0.64599,28.00705,-55.231434,-27.802504
896954036000.0,-2.2899940665487293,6.204670021756469,3.161841823873347,-0.086437434,-0.87995136,-0.6123924,28.35664,-55.162292,-27.858677
896959010000.0,-2.208105202454699,6.079456242085694,3.108280787856436,-0.03023783,-0.84604836,-0.55955255,28.694977,-55.121536,-27.907818
896964028000.0,-2.125491949534746,5.953134821420647,3.054245950957992,0.033292156,-0.75655663,-0.49418998,28.99933,-55.09517,-27.954721
896969014000.0,-2.0434055248518286,5.827618957842343,3.0005556965188447,0.087659165,-0.6814202,-0.43951756,29.289568,-55.084827,-27.993834
896974007000.0,-1.9612038564920595,5.701926878651315,2.946790064666726,0.13744467,-0.59895337,-0.40561453,29.542555,-55.092484,-28.032751
896979003000.0,-1.878952797985068,5.576159278483404,2.892992128209049,0.20066923,-0.516792,-0.36132678,29.762836,-55.123974,-28.063644
896984015000.0,-1.7964383253595595,5.449988899772121,2.839021900521723,0.26633725,-0.40653083,-0.29840767,29.941586,-55.173462,-28.093363
896989010000.0,-1.7142037302349755,5.3242464732631705,2.7852347322658986,0.3213151,-0.27916542,-0.21594086,30.08128,-55.243282,-28.117456
896994167000.0,-1.6293020671604048,5.194425914002578,2.7297031153098854,0.36651915,-0.18112154,-0.1441642,30.18939,-55.330776,-28.136845
896999018000.0,-1.5494381991024757,5.072308494383977,2.677466568120896,0.4166101,-0.07422013,-0.0580322,30.24459,-55.44671,-28.145048
897004044000.0,-1.4666932391232643,4.945785684447243,2.623345585607628,0.44776422,0.036651913,0.03970624,30.259342,-55.58225,-28.141754
897009005000.0,-1.3850183990005296,4.820899162342958,2.569924536214806,0.4877759,0.14049901,0.12614368,30.235874,-55.74019,-28.128763
897014067000.0,-1.3016807572546552,4.693470100683637,2.5154158984348296,0.51893,0.25228736,0.21838433,30.165752,-55.921352,-28.099955
897019007000.0,-1.220351648162474,4.569112225417529,2.462220981280921,0.5519168,0.34788775,0.2947425,30.062815,-56.12064,-28.060745
897024007000.0,-1.1380347361258534,4.443243930613774,2.4083799720158314,0.59131753,0.40042216,0.38240165,29.929884,-56.3451,-28.000143
897029072000.0,-1.0546477042327569,4.315739347977572,2.353839029630296,0.62796944,0.50793445,0.42241332,29.750656,-56.575256,-27.94582
897034011000.0,-0.973335058522983,4.191406646370424,2.3006548806782403,0.6542367,0.6053675,0.49174652,29.549084,-56.8321,-27.863462
897039012000.0,-0.8910016831039549,4.065513177907709,2.246803103211298,0.6973027,0.6963864,0.55955255,29.316328,-57.100105,-27.779257
897044085000.0,-0.8074829441515998,3.93780720599982,2.1921760152109377,0.75716746,0.7837401,0.6420194,29.050476,-57.388626,-27.679766
897049033000.0,-0.7260221280001597,3.813247941462025,2.138894952442205,0.8216137,0.8781188,0.7067711,28.754274,-57.68973,-27.57416
897054081000.0,-0.6429149736079878,3.686171311028155,2.084537069488171,0.8912524,0.9654725,0.77518797,28.430222,-58.014393,-27.450712
897059011000.0,-0.5839474563128902,3.5839232236650758,2.047001438384135,0.945314,1.0219775,0.84329945,28.086388,-58.354553,-27.313557
897063998000.0,-0.6435810975835475,3.597954660051414,2.092603679897172,1.0097603,1.0833695,0.9147707,27.71395,-58.715954,-27.162691
897069009000.0,-0.7035017265001836,3.612053622901212,2.1384253827690047,1.0555751,1.1578951,0.9602802,27.288055,-59.148098,-26.935429
897074002000.0,-0.8017265905977584,3.6414704819427146,2.1622146518057286,1.0955868,1.2315043,1.0167851,26.838766,-59.606174,-26.685417
897079024000.0,-0.9514610958281444,3.691381948941469,2.1572235051058533,1.1291844,1.2990049,1.0668762,26.368084,-60.076313,-26.424797
897083957000.0,-1.1103063497383143,3.74789654658004,2.1226860534199603,1.1566733,1.393689,1.1282681,25.896023,-60.55208,-26.15089
897089022000.0,-1.285388527413824,3.8135524203392888,2.0570301796607118,1.1710287,1.4850134,1.1820242,25.40461,-61.037834,-25.864805
897093959000.0,-1.4693933821447271,3.8972549180856633,1.9775278451984504,1.2089024,1.5830573,1.244027,24.904583,-61.528057,-25.575308
897098991000.0,-1.691446177955807,4.033514406199602,1.8564082006702276,1.2461652,1.670411,1.3161092,24.380095,-62.03212,-25.26844
897103932000.0,-1.984568974099424,4.2577287461095095,1.6698384229466858,1.278541,1.7415768,1.38025,23.862494,-62.535778,-24.96555
897109003000.0,-2.417551221658861,4.646975491066282,1.359315801882205,1.3133603,1.8005253,1.455081,23.32255,-63.059963,-24.639235
897114026000.0,-2.79353125366758,5.01475752290827,1.0806985866919232,1.368949,1.8371773,1.5265522,22.80256,-63.59287,-24.309078
897119006000.0,-2.893483257697888,5.287703471159117,0.9538363863533774,1.4285084,1.8597792,1.5937474,22.271717,-64.14083,-23.957253
897123959000.0,-2.99289335327261,5.559169591979687,0.8276619931251008,1.4880677,1.863139,1.6310102,21.810207,-64.70258,-23.607924
897128989000.0,-3.072507074428831,5.853755186798585,0.6897434052222541,1.5238034,1.858252,1.6951511,21.344395,-65.27948,-23.229465
897134008000.0,-3.141428773109645,6.157010689781092,0.5473052215514769,1.570229,1.8216002,1.7418822,20.892115,-65.854675,-22.84149
897139002000.0,-3.169923,6.433337005548832,0.4832119134326413,1.63437,1.7815884,1.7733418,20.408556,-66.44416,-22.43499
897144134000.0,-3.169923,6.698730685876548,0.4740603978232939,1.6771306,1.7150042,1.7959439,19.952726,-67.03129,-22.014473
897148976000.0,-3.175987544973026,6.969238101500736,0.5137367330024522,1.7125608,1.6242907,1.8069394,19.49552,-67.63446,-21.572456
897154034000.0,-3.1902414801373222,7.278072486905346,0.6182653163511524,1.738217,1.4929546,1.817935,19.082119,-68.22936,-21.121832
897158978000.0,-3.2142275804918543,7.608286418771402,0.8318009049600498,1.7492126,1.3494014,1.8026633,18.686771,-68.82568,-20.651447
897163987000.0,-3.2540492084569888,7.986592534149632,1.2200625962540208,1.7602082,1.2034045,1.7537941,18.34358,-69.399254,-20.18821
897169006000.0,-3.29125470685491,8.401993729710531,1.5848144913514473,1.7864754,0.999681,1.6862935,18.059752,-69.96267,-19.713598
897173996000.0,-3.325201372900018,8.856029008968212,1.9200367274551589,1.8206838,0.7910705,1.6019942,17.830984,-70.490715,-19.261827
897178960000.0,-3.3832107569802803,9.330369027567938,2.2872868889433926,1.844813,0.5635232,1.5018122,17.694363,-70.98832,-18.81437
897184015000.0,-3.5351918884921023,9.900298580692631,2.790724569949965,1.8637499,0.3023783,1.3814718,17.633923,-71.44227,-18.402975
897189013000.0,-3.746886035817836,10.43800145145702,3.28087463703324,1.8692477,0.043066,1.2571607,17.634909,-71.862045,-18.010593
897194023000.0,-4.238698272455704,10.859554912432271,3.7375574491580026,1.8548924,-0.20708331,1.1184943,17.710546,-72.230934,-17.664185
897199931000.0,-4.818663680451018,11.356668255235029,4.276096781300336,1.8096883,-0.43004912,0.9669997,17.872688,-72.531204,-17.37641
897204499000.0,-5.314627789299005,11.335148452780851,4.322683265402796,1.7342464,-0.57635134,0.81245077,18.082628,-72.781525,-17.135406
897209007000.0,-5.835664723423514,11.04423623634718,4.122952387760233,1.6417004,-0.6053675,0.64812803,18.319332,-72.97724,-16.94633
897213967000.0,-6.320849510159103,10.752170604311592,3.9867435375714577,1.5180001,-0.5412266,0.47311515,18.664684,-72.98408,-16.935265
897219009000.0,-6.706634082319719,10.489437919140435,3.9501606135959775,1.3805555,-0.46822822,0.29077184,19.00768,-72.94167,-16.970898
897224014000.0,-7.089587629258213,10.228633260417384,3.9138461482058,1.219287,-0.24251351,0.19883664,19.341581,-72.733734,-17.167955
897228987000.0,-7.435298285058373,10.069088247620916,4.224023861748258,1.1172725,0.027488936,0.027488936,19.63298,-72.45959,-17.430624
897234023000.0,-7.757044387363877,9.988651573825177,4.820200492141666,0.8744536,0.30024028,-0.12705997,19.848791,-72.165085,-17.706532
897238994000.0,-7.819253195695131,9.945959797282992,5.369320890084686,0.5525276,0.5534439,-0.2452624,20.070545,-71.69247,-18.15808
897244175000.0,-7.635420017678194,9.93720611935427,5.9033124284227245,0.20311269,0.7846564,-0.3277292,20.213188,-71.19393,-18.62849
897248943000.0,-7.323432706755794,9.928119697593582,6.309159459188948,-0.12797627,0.9279043,-0.37048978,20.3874,-70.58302,-19.192743
897254515000.0,-6.453090577629234,9.913851504010696,6.480374156907309,-0.4083634,0.9822713,-0.37323865,20.516943,-69.96712,-19.74866
897259295000.0,-5.679149616705662,9.894512782405242,6.59865720655124,-0.6227771,0.9630291,-0.30543262,20.641373,-69.37428,-20.262045
897264067000.0,-4.520062883116519,9.77475500982686,6.312093403575105,-0.7791586,0.9074403,-0.18417588,20.75789,-68.797356,-20.74218
897268993000.0,-3.323570584361254,9.651132464202153,6.016281732690688,-0.8848383,0.8338311,-0.029626964,20.79823,-68.40389,-21.022915
897274050000.0,-1.9883429442849525,8.902698935561284,5.300345950084437,-0.9447031,0.70921457,0.13744467,20.867535,-68.04066,-21.254332
897278997000.0,-0.6661307206310552,8.077368910070216,4.538179146724735,-0.92087936,0.53969944,0.2910773,20.967758,-67.71387,-21.434523
897284007000.0,-0.235513578260366,7.496645498162304,3.995671552258512,-0.8750645,0.3463606,0.43188173,20.941217,-67.66179,-21.33412
897289049000.0,-0.3697352855941626,7.071610114964096,3.5930063601806808,-0.80939645,0.17287487,0.5537493,20.954906,-67.63835,-21.19228
897294149000.0,-0.5233383719519825,6.646871787260499,3.180773840955658,-0.7162395,0.036651913,0.6453791,20.827415,-67.88295,-20.800486
897298998000.0,-0.9591366061546884,6.327286358629858,2.7086590540549,-0.5934556,-0.076358154,0.7272351,20.74068,-68.152336,-20.37664
897303951000.0,-1.404281719375147,6.000846550832877,2.2264184808399152,-0.4364632,-0.12034045,0.77854776,20.685936,-68.396835,-20.003515
897308983000.0,-1.9766003230058269,5.717383531685755,1.7638190308820574,-0.26633725,-0.10781772,0.81336707,20.644066,-68.66322,-19.614296
897314052000.0,-2.69350714954792,5.488168383001809,1.3297734039783,-0.08582657,-0.056505036,0.8347474,20.600588,-68.94893,-19.21909
897318962000.0,-3.307459107869249,5.429448434543987,0.944878759636804,0.09254608,-0.021991149,0.8399397,20.605307,-69.15835,-18.956121
897324052000.0,-3.85334281307506,5.552395145601292,0.5858740963196126,0.17348573,0.111177474,0.82863873,20.56378,-69.37425,-18.702652
897328980000.0,-4.336791560999425,5.884900902699598,0.4253345262952326,0.3222314,0.26267207,0.8213083,20.577728,-69.50621,-18.60369
897333974000.0,-4.780902014589317,6.438894463545855,0.4528052744246601,0.47433686,0.43279803,0.83169305,20.545408,-69.64628,-18.511984
897338990000.0,-5.191344877544731,7.232115868718432,0.6650727723174386,0.65393126,0.5696318,0.8384125,20.511091,-69.730675,-18.51733
897344007000.0,-5.54919746728876,8.375598660645492,1.150435923936307,0.8567385,0.61911196,0.850019,20.452326,-69.83469,-18.522144
897349119000.0,-6.020772653161964,9.73501036369563,1.631743534274006,1.0503827,0.5140431,0.8063421,20.431095,-69.893005,-18.592154
897353932000.0,-7.454610762205458,12.8130397396852,1.962299092241781,1.1481212,0.2941316,0.70280045,20.432425,-69.94316,-18.671919
897358882000.0,-8.929262463798082,15.978683914035578,2.302263773717053,1.1765264,0.09896017,0.57451874,20.484386,-69.9705,-18.761976
897363891000.0,-8.917706855604138,17.077637910312465,2.1756346633464863,1.2363913,-0.06811147,0.47555858,20.59585,-69.985664,-18.86185
897369134000.0,-8.743625,17.918205,2.0015526,1.3909402,-0.23304509,0.3417791,20.769495,-69.963104,-18.997261
897373898000.0,-8.743625,17.918205,2.0015526,1.5406022,-0.44532076,0.16432275,21.031603,-69.87553,-19.19238
897378873000.0,-8.658495766520787,17.859936930853394,1.9932876286827133,1.6398678,-0.7431176,-0.032986723,21.298758,-69.868164,-19.30832
897383890000.0,-7.792180625820569,17.266973638949672,1.9091793911597372,1.6297885,-1.0161743,-0.2669481,21.623636,-69.8008,-19.472757
897388899000.0,-6.927246892560175,16.674955873522975,1.8252052708183808,1.4853189,-1.1710287,-0.47158796,22.002243,-69.68218,-19.673334
897393905000.0,-6.024707512367889,15.40679224758264,1.871823193276366,1.2544118,-1.2195925,-0.6249151,22.427801,-69.50616,-19.9133
897399061000.0,-5.094714042977086,13.987928329543466,1.9598582677103376,0.95172805,-1.248914,-0.73884153,22.889742,-69.273315,-20.187622
897403994000.0,-4.309682186916215,13.153315552300157,2.1747090555973414,0.6478226,-1.1771374,-0.77488256,23.277905,-69.104996,-20.382383
897408924000.0,-3.525127747350009,12.31921034414903,2.389429182149729,0.36835176,-1.0320568,-0.76144356,23.640299,-68.93743,-20.555628
897414012000.0,-2.881240832036947,11.92804527637336,2.869494393023821,0.12614368,-0.979217,-0.7602218,24.006186,-68.74246,-20.739143
897418903000.0,-2.3119631469615944,11.692744267541729,3.408410587295414,-0.059864793,-0.9651671,-0.7510588,24.336115,-68.54283,-20.915707
897423922000.0,-1.612358276032813,11.917736987471413,3.8612425105896393,-0.1337795,-1.0629056,-0.7263188,24.663065,-68.402626,-21.015959
897429024000.0,-0.611529139142289,13.316954272944216,4.070153405011435,-0.2321288,-1.1542299,-0.6114761,24.979948,-68.277664,-21.086258
897433903000.0,0.1404481953922819,14.644733284715892,4.02628340082042,-0.30909783,-1.215011,-0.39278635,25.313889,-68.242516,-21.040268
897438957000.0,0.3757623667975286,15.99288791269118,3.3350480818900032,-0.3484986,-1.241889,-0.15241088,25.659779,-68.23767,-20.952997
897444236000.0,0.3817093429039223,16.83061333177402,2.5810985310633323,-0.3640757,-1.2140946,0.016187929,25.892899,-68.46779,-20.618122
897449003000.0,-0.0207698393882691,16.61705207484707,1.8459579589600577,-0.38881573,-1.0644327,0.11728613,26.09013,-68.727104,-20.24655
897453959000.0,-0.4226293582578762,16.282808163885356,1.094598257687645,-0.43157628,-0.9077458,0.13775012,26.17397,-69.12049,-19.762108
897459056000.0,-0.6600643552450796,14.748613071016988,0.4590030289979796,-0.43127087,-0.6621779,0.09712757,26.187206,-69.50406,-19.294914
897464079000.0,-0.8940521892389433,13.236691950460228,-0.1673644094380002,-0.4111123,-0.2611449,0.09040806,26.094082,-69.84936,-18.906813
897469056000.0,-0.9547775264789324,11.679866332667858,-0.7466407039718399,-0.398895,0.17989981,0.10048734,25.91935,-70.17251,-18.550823
897474029000.0,-0.7946414920773353,10.048480397289062,-1.2720870688116004,-0.36377025,0.5522222,0.13927728,25.648739,-70.493225,-18.213217
897479014000.0,-0.6524137734616509,8.965502989572165,-1.6446506041711335,-0.32742378,0.8258898,0.21899518,25.30967,-70.73073,-17.997519
897484058000.0,-0.5253066595468278,8.377044024169184,-1.8800341903323263,-0.28985557,1.0073168,0.31642818,24.889872,-70.984955,-17.77695
897489009000.0,-0.6281168567378668,8.290475761047691,-2.136926356831711,-0.20616703,1.1175779,0.44104472,24.429092,-71.25132,-17.56655
897494053000.0,-0.9900945130079136,8.757325708523005,-2.4278616910708037,-0.081855945,1.1392636,0.55955255,23.942516,-71.55005,-17.331629
897499020000.0,-1.3465463406632117,9.217048882414735,-2.714355704783248,0.06505715,1.1291844,0.6536258,23.434065,-71.88839,-17.071114
897504091000.0,-1.9393452364273205,9.647266038528896,-2.781131555166375,0.22418754,1.131017,0.7180721,22.918331,-72.262634,-16.784296
897509088000.0,-2.6610393194201207,10.047689193617437,-2.7112902393461766,0.37568212,1.0916162,0.7538077,22.421799,-72.6651,-16.475538
897514076000.0,-3.426708766909368,10.295759898935014,-2.488236997804825,0.5311473,1.0531317,0.7629707,21.925932,-73.06662,-16.193182
897519083000.0,-4.229193585220604,10.431244900673766,-2.149525799347968,0.6743952,0.9575313,0.75655663,21.466513,-73.47656,-15.902149
897524111000.0,-4.877855725488874,10.340361888064734,-1.7333503170600135,0.73426,0.88239485,0.7171558,21.06514,-73.785736,-15.7071
897529012000.0,-5.454576484925451,10.171565455383233,-1.3008097291226497,0.8200866,0.73792523,0.6017023,20.721958,-74.07105,-15.5321865
897534106000.0,-6.03782015196211,9.99933956292287,-0.8689364435723952,0.874759,0.5525276,0.47586402,20.48347,-74.21867,-15.474572
897539008000.0,-6.379881885448111,9.877174803892997,-0.6930190885187884,0.9211848,0.42302418,0.35033122,20.277832,-74.32606,-15.44768
897544038000.0,-6.665213221563024,9.782109348526658,-0.5125229320547946,0.94806284,0.36346483,0.21746802,20.19444,-74.242004,-15.589062
897549371000.0,-6.509180110998325,9.892842284714694,-0.3212567134246575,0.93279123,0.301462,0.12675454,20.152815,-74.12838,-15.74945
897554011000.0,-6.318105149757192,9.958389959581622,-0.1405440197101232,0.9114109,0.21197024,0.08032878,20.17329,-73.92686,-15.987034
897559813000.0,-5.492004165894659,9.713465584310796,0.2372207628703772,0.8933904,0.14752395,0.03970624,20.206009,-73.69852,-16.24374
897564072000.0,-4.88559877288009,9.533677077885692,0.5145217296077699,0.870483,0.07666359,-0.00580322,20.268234,-73.47825,-16.483578
897569053000.0,-4.26209130045973,9.323152212094422,0.7390803970347449,0.8576548,0.008857546,-0.04184427,20.349371,-73.24913,-16.727306
897573992000.0,-3.756098806736805,9.114064531075943,0.8310790465476086,0.8381071,-0.062002823,-0.0720821,20.452925,-73.00926,-16.977333
897579019000.0,-3.260025290051433,8.918815685709038,0.8990876631329905,0.81336707,-0.13408493,-0.09285152,20.561176,-72.89396,-17.097656
897584046000.0,-2.863848047964732,8.816234044085231,0.8318790148802352,0.8011498,-0.19853121,-0.10170906,20.688633,-72.7736,-17.221542
897589042000.0,-2.470113912005878,8.71428499265246,0.7650848221866275,0.7858781,-0.21471913,-0.1001819,20.806057,-72.730225,-17.267038
897594096000.0,-2.095212357089552,8.639423375,0.6490430542537313,0.7877107,-0.16829337,-0.07788532,20.92239,-72.68911,-17.30963
897599017000.0,-1.7581688948486731,8.600345850694444,0.4780789963536484,0.77671516,-0.07880162,-0.050701816,21.029053,-72.64869,-17.350906
897604009000.0,-1.5258949393438,8.585380162169784,0.3265135620720127,0.73884153,0.04550946,-0.010079277,21.0676,-72.68972,-17.310276
897608995000.0,-1.4002017558334117,8.594358430854564,0.1963312910933534,0.6795876,0.10751228,0.029321533,21.096666,-107.26351,-17.263231
897614011000.0,-1.3200856786142572,8.61511021385743,0.1315726263074617,0.6188065,0.26267207,0.052534413,21.031218,-107.156845,-17.155308
897619009000.0,-1.3160995988007995,8.654971011992005,0.1754195333910726,0.5852089,0.39553526,0.102319926,20.952812,-107.03357,-17.02992
897624449000.0,-1.3290767367470568,8.694843414447366,0.2270882056360727,0.50335294,0.5852089,0.18295415,20.79508,-106.8715,-16.864676
897628994000.0,-1.5653909181963652,8.682405834152474,0.3216138912029946,0.37812558,0.6429357,0.21533,20.637165,-106.71061,-16.700478
897634044000.0,-1.8279622309178192,8.668586300491485,0.4266424307217968,0.33628133,0.7281514,0.2556471,20.409336,-106.532074,-16.517065
897639020000.0,-2.086685964007315,8.6549692708881,0.5301319381763631,0.27458394,0.78984874,0.2968805,20.172888,-106.34446,-16.325537
897644016000.0,-2.375060886123164,8.686167396528704,0.6282422200100134,0.20830505,0.8127562,0.32620203,19.924532,-106.15007,-16.12731
897649061000.0,-2.6975908429405875,8.766799833110815,0.7209695725967957,0.16035213,0.82986045,0.35063666,19.661709,-105.94673,-15.920238
897654105000.0,-3.043588930204765,8.859520555682423,0.8154304254852706,0.10781772,0.81122905,0.37293324,19.444708,-105.82047,-15.792734
897659013000.0,-3.587430822326254,9.056305502473927,0.9227676569627768,0.070249505,0.79320854,0.3930918,19.2249,-105.68841,-15.659864
897664281000.0,-4.171163317781837,9.267524552942072,1.0379780350034251,0.046731193,0.75808376,0.40317106,19.05086,-105.61602,-15.588432
897669047000.0,-4.523090866855354,9.357289338006126,1.1035267546283962,0.019242255,0.69974613,0.40500367,18.891277,-105.54026,-15.514411
897674074000.0,-4.696219628702717,9.338052593167289,1.1291754687666489,-0.003970624,0.6264423,0.3924809,18.748484,-105.466324,-15.44262
897678974000.0,-4.864974538798615,9.319301837306872,1.154176204648375,-0.01038471,0.54183745,0.376293,18.691893,-105.503006,-15.483206
897683997000.0,-4.993695847883868,9.262582167143732,1.1530125480781026,0.013133603,0.45937067,0.3484986,18.6577,-105.54566,-15.529439
897689047000.0,-5.067856817010836,9.158756707115108,1.1184040441934164,0.035430185,0.3943135,0.3213151,18.644358,-105.591805,-15.578974
897693978000.0,-5.0933423722697055,9.040969233618233,1.116866701994302,0.05375614,0.3210097,0.28191432,18.679632,-105.69612,-15.686402
897699687000.0,-5.067381331813865,8.885202990883192,1.1532122128490028,0.07513642,0.23915374,0.24831672,18.737276,-105.80461,-15.797443
897703896000.0,-5.039794325880226,8.777408849164983,1.1795436031166897,0.08246681,0.19639318,0.20952678,18.805841,-105.944885,-15.939596
897708902000.0,-4.9938977566003615,8.660117965641954,1.2101412804701628,0.09712757,0.1133155,0.18997909,18.910913,-106.08666,-16.082954
897713875000.0,-4.9265077455748765,8.520236548922918,1.1999170002335844,0.10476339,0.059864793,0.15027285,19.025318,-106.24688,-16.244366
897718890000.0,-4.835097688865819,8.354036090838308,1.1459019489748248,0.09682214,0.02687807,0.12003502,19.158339,-106.40731,-16.405813
897723877000.0,-4.759673,8.2169,1.1013328,0.079107046,0.008552114,0.07971791,19.3037,-106.579445,-16.578695
897728872000.0,-4.759673,8.2169,1.1013328,0.071776666,0.016798794,0.045814894,19.450874,-106.7558,-16.755533
897733873000.0,-4.749903040827784,8.194103422930542,1.1338994212559468,0.065973446,0.032375857,0.018020526,19.59625,-106.93008,-16.930029
897738940000.0,-4.72220053208373,8.129464219790675,1.226241374196004,0.053450707,0.03268129,-0.008246681,19.743885,-72.88894,-17.111057
897743890000.0,-4.695804618076526,8.059757462833506,1.3313148640537746,0.03176499,0.030848695,-0.039095376,19.888973,-72.701256,-17.2986
897748919000.0,-4.670901810972079,7.970107814912099,1.4807308225749742,-0.0106901415,0.034513887,-0.07086037,20.032629,-72.5086,-17.490871
897753884000.0,-4.635386680140168,7.912967909314644,1.6433108724227856,-0.052534413,0.013744468,-0.10170906,20.190092,-72.3084,-17.69029
897759073000.0,-4.574641001059408,7.921067333192079,1.8457965962187275,-0.09560041,0.00061086525,-0.12797627,20.34465,-72.10313,-17.894281
897763867000.0,-4.518519439002526,7.928550208132997,2.0328685869448293,-0.15027285,-0.024740042,-0.14630222,20.512268,-71.885,-18.109974
897768916000.0,-4.515300654752978,7.878724169938245,2.06363810304367,-0.19058995,-0.035430185,-0.16462818,20.67999,-71.6618,-18.329794
897773928000.0,-4.520870804985513,7.822396691497652,2.0698264164252174,-0.24007004,-0.036957346,-0.17348573,20.85304,-71.43811,-18.54864
897778915000.0,-4.530414116325307,7.793766857128584,2.0889131387551205,-0.30390546,-0.02076942,-0.18142697,21.027565,-71.21256,-18.76655
897783979000.0,-4.541142606377905,7.767832191078879,2.104814025094377,-0.36865717,-0.011911872,-0.18997909,21.20676,-70.98068,-18.988562
897788906000.0,-4.564580363977747,7.781894943532684,2.0766886180806674,-0.4202753,-0.015577064,-0.19272798,21.385342,-70.74922,-19.207684
897794054000.0,-4.586470311278999,7.793881011141636,2.0524432414835165,-0.46120325,-0.026572637,-0.18234327,21.566315,-70.51583,-19.42554
897798897000.0,-4.575852115086996,7.7726444709249085,2.0913768369505497,-0.48258355,-0.050701816,-0.18509217,21.75293,-70.27894,-19.64414
897803948000.0,-4.564777882387057,7.750495851343102,2.131982575274725,-0.50976706,-0.06566802,-0.18203785,21.937105,-70.04341,-19.858837
897808988000.0,-4.52227852752275,7.720986376380182,2.176123629524773,-0.5320636,-0.10781772,-0.17470746,22.137056,-69.80969,-20.068872
897814175000.0,-4.43689195867543,7.680804486309404,2.226350992113246,-0.5564982,-0.14538592,-0.16065755,22.340103,-69.5797,-20.272285
897818999000.0,-4.316448396209295,7.6368985134158756,2.2335554904341923,-0.59895337,-0.18753563,-0.15851954,22.562778,-69.348145,-20.472076
897823976000.0,-4.146682596997965,7.584351911295793,2.197177132021709,-0.63132924,-0.22418754,-0.1459968,22.794556,-69.12421,-20.661098
897828987000.0,-3.9568436550879937,7.512360404849432,2.150308918803285,-0.6771441,-0.26725355,-0.12339478,23.03832,-68.91113,-20.832571
897834004000.0,-3.603585756386391,7.275602347516621,2.015018617145092,-0.7275405,-0.2919936,-0.11209377,23.286932,-68.69716,-21.000496
897838967000.0,-3.254130115314822,7.041392612905749,1.88118449971842,-0.7620544,-0.3145956,-0.10598512,23.528072,-68.516975,-21.130531
897844064000.0,-3.0032009073684214,6.856751526709297,1.8036919215740288,-0.79229224,-0.36071593,-0.10598512,23.782785,-68.33536,-21.256151
897849126000.0,-2.841051726315789,6.718448125430399,1.7750773543531726,-0.80756384,-0.42730024,-0.11056661,24.04942,-68.152534,-21.378414
897854059000.0,-2.723733416765701,6.602661722095256,1.6695773137124053,-0.82833326,-0.50671273,-0.13072516,24.285433,-68.01963,-21.448223
897859002000.0,-2.641511702075144,6.503129792211354,1.4964786411737818,-0.86284715,-0.5861252,-0.16646078,24.541002,-67.87766,-21.521301
897863973000.0,-2.572758178472106,6.407058509197521,1.3050753083933655,-0.88361657,-0.63285637,-0.19242255,24.798302,-67.74847,-21.577291
897869017000.0,-2.532294507404925,6.318038796213771,1.0744329790584688,-0.90408057,-0.659429,-0.22479841,25.073298,-67.603424,-21.642973
897874549000.0,-2.490199041515435,6.224007233938259,0.8260726082319925,-0.9236283,-0.6621779,-0.28802297,25.340126,-67.46011,-21.710184
897878993000.0,-2.494180266884939,6.208082332460243,0.7026545386342377,-0.93676186,-0.6221663,-0.33322698,25.600487,-67.31064,-21.781563
897884926000.0,-2.499495435678204,6.186821657287185,0.5378841950420954,-0.93126404,-0.55741453,-0.37201694,25.826952,-67.1612,-21.866257
897889012000.0,-2.452062270331248,6.218273580658394,0.5916995574710286,-0.9334021,-0.50518554,-0.3933972,26.043936,-67.00287,-21.959047
897894018000.0,-2.393063498000205,6.257606129771306,0.660531569756948,-0.91415983,-0.47769663,-0.3894266,26.247377,-66.84405,-22.055935
897899015000.0,-2.2843091561264823,6.386697314539808,0.6047853595369848,-0.88239485,-0.46273044,-0.37873647,26.425873,-66.692154,-22.156664
897903938000.0,-2.168949450592885,6.528678330208922,0.5293578462224732,-0.84635377,-0.47219884,-0.355829,26.601103,-66.54838,-22.25154
897909032000.0,-2.046530616332099,6.775298649678425,0.2779737551159618,-0.81183994,-0.4596761,-0.3378085,26.759941,-66.41556,-22.333372
897913944000.0,-1.92734588088092,7.050340350555447,-0.029155980654843,-0.7492262,-0.4382958,-0.28619036,26.914843,-66.30519,-22.398285
897919154000.0,-1.863979335549603,7.341690272075002,-0.2182097363072802,-0.6780604,-0.44623706,-0.22296582,27.043112,-66.24451,-22.421143
897924054000.0,-1.8325544584808189,7.615535723141682,-0.3349307832794412,-0.59406644,-0.49296826,-0.16279559,27.172539,-66.20458,-22.429436
897928993000.0,-1.915965303093901,7.868910707754458,-0.31148164720268,-0.5177083,-0.5546656,-0.10781772,27.242245,-66.25077,-22.376202
897934018000.0,-2.0819246298748646,8.110737037934772,-0.188197607001675,-0.4615087,-0.6059783,-0.05589417,27.318037,-66.31676,-22.306854
897939040000.0,-2.354412258104211,8.271345012882138,-0.0900009962584118,-0.40958515,-0.63407815,-0.009773844,27.36698,-66.43294,-22.191936
897944030000.0,-2.7081611870601807,8.367822503749279,-0.0119005787617765,-0.38759398,-0.6230826,0.025045475,27.415817,-66.5594,-22.068117
897949047000.0,-3.0916495202342817,8.367089360620481,0.0754111108538482,-0.3933972,-0.602924,0.044593163,27.480984,-66.67335,-21.949175
897954906000.0,-3.574342594481559,8.243847947103506,0.1883818534034959,-0.41386122,-0.5873469,0.047036625,27.541378,-66.78908,-21.829096
897959026000.0,-3.8367845807352072,8.111909985089444,0.2948816921142127,-0.45814893,-0.5702427,0.032070424,27.631458,-66.84016,-21.763523
897964033000.0,-3.987603649262827,7.85268976027128,0.4834056508079418,-0.5317582,-0.6102544,0.014660766,27.732521,-66.88409,-21.698738
897968986000.0,-4.060405842188233,7.582248439504552,0.6745362754565074,-0.61666846,-0.65118235,0.021991149,27.88603,-66.833885,-21.712692
897974006000.0,-3.9070260707703857,7.266466274542554,0.8820502581345595,-0.7076874,-0.7086037,0.04184427,28.0548,-66.77463,-21.72597
897979035000.0,-3.744376805462562,6.970104070878793,1.088183500351218,-0.81306165,-0.77182823,0.06841691,28.288342,-66.65327,-21.77465
897984014000.0,-3.523457622971156,6.809759397922583,1.2805969962785833,-0.8979719,-0.81092364,0.09743301,28.527466,-66.531395,-21.815134
897988987000.0,-3.3028046616275595,6.649607950119563,1.4727786221566284,-0.99296147,-0.8707884,0.11148291,28.815659,-66.386345,-21.848198
897994094000.0,-3.206925339288418,6.621292441332324,1.525322155336866,-1.031446,-0.9288206,0.1432479,29.108234,-66.25024,-21.86662
897999011000.0,-3.264850977166919,6.750511415357684,1.4094707399981077,-1.0403035,-0.90224797,0.183565,29.387037,-66.11259,-21.880268
898004033000.0,-3.349651171679088,6.909172734730381,1.3354561605085489,-1.0384709,-0.86345804,0.21868975,29.687012,-65.986916,-21.85276
898008986000.0,-3.4827407353792195,7.1171250802981145,1.3479332908198158,-1.0238101,-0.7883216,0.226631,29.961683,-65.86296,-21.826284
898014065000.0,-3.6169717607304346,7.334055224834783,1.3609925230086957,-1.0094548,-0.68294734,0.24953845,30.191345,-65.76058,-21.789038
898019044000.0,-3.71648395973913,7.599421031130435,1.3775778317826086,-0.9984592,-0.5384777,0.26419923,30.381584,-65.65823,-21.760094
898024773000.0,-3.830985945704348,7.904759593947826,1.3966614296869564,-0.9737192,-0.41080686,0.2773328,30.5468,-65.5581,-21.732565
898028983000.0,-3.8610513348509694,8.026437284846146,1.3878378686891095,-0.91415983,-0.3839288,0.28252518,30.694948,-65.46558,-21.707083
898034014000.0,-3.88893647855696,8.156567761358156,1.3738953453651008,-0.8857546,-0.37751472,0.2874121,30.807364,-65.37606,-21.68522
898038997000.0,-3.84763438536736,8.117544558036633,1.3360660685429102,-0.8542951,-0.36743546,0.28619036,30.908796,-65.29947,-21.655228
898044016000.0,-3.773443153447212,7.998838855525828,1.2866052644782875,-0.84513205,-0.3231477,0.27550024,30.995823,-65.22295,-21.630276
898048973000.0,-3.73067265656256,7.870812961391071,1.2904550088426905,-0.8390234,-0.27550024,0.26083946,31.070395,-65.154335,-21.599241
898054009000.0,-3.698329166085457,7.736818597336654,1.3135575502874113,-0.82253003,-0.2724459,0.25503623,31.1432,-65.08854,-21.56985
898059002000.0,-3.674509591195224,7.743560287420301,1.4252277554296124,-0.80909103,-0.26145032,0.23426682,31.206306,-65.02289,-21.538408
898064008000.0,-3.655102057220929,7.826042306811051,1.585339961380427,-0.7696902,-0.24953845,0.2098322,31.267117,-64.961464,-21.511118
898069006000.0,-3.709159122680616,8.040526404697987,1.6757785582214766,-0.71776664,-0.2489276,0.18325958,31.338352,-64.889946,-21.491589
898073996000.0,-3.7987739475917888,8.318804304026845,1.73237738204698,-0.6386596,-0.20861048,0.15454891,31.394403,-64.822525,-21.483768
898078974000.0,-3.925792383252521,8.774525053529867,1.7584974508921645,-0.5311473,-0.14110987,0.10995574,31.455847,-64.75235,-21.480621
898084018000.0,-4.07569265769007,9.33665126609775,1.7678662211016292,-0.44837508,-0.06658431,0.06566802,31.503744,-64.68437,-21.489336
898089003000.0,-4.2993050329462985,10.190396446298983,1.7565100261248183,-0.35735616,0.01740966,0.002443461,31.535275,-64.62234,-21.508852
898094484000.0,-4.604039484687954,11.361718562953556,1.727941208563135,-0.28955013,0.10293079,-0.05467244,31.5463,-64.56113,-21.544054
898099039000.0,-4.812548713123626,12.005873773042447,1.775139615694233,-0.23457226,0.14660765,-0.1386664,31.535513,-64.513115,-21.58472
898104028000.0,-4.974154049780146,12.220001686791814,1.9327051110772877,-0.20005837,0.20066923,-0.18967366,31.498426,-64.46745,-21.63749
898109235000.0,-5.142802851800554,12.430201895775625,2.095896554605263,-0.1826487,0.20555615,-0.3549127,31.435497,-64.433266,-21.701818
898114023000.0,-5.297607114958449,12.422263066828254,2.226884579605263,-0.16279559,0.20372356,-0.40561453,31.356102,-64.419846,-21.7506
898118936000.0,-5.456452842797784,12.414116979397509,2.361292300328947,-0.17562376,0.21594086,-0.48838675,31.30919,-64.335526,-21.864216
898123999000.0,-5.64872072,12.309128651597051,2.66146293012285,-0.22082779,0.23732115,-0.5653558,31.26512,-64.23977,-21.9879
898128966000.0,-5.849745144,12.164203551449631,3.026111952265356,-0.30298916,0.25961772,-0.6585127,31.226088,-64.11438,-22.136549
898134013000.0,-6.077350934668603,12.043436255210114,3.474017079560984,-0.43310347,0.2565634,-0.7467828,31.228552,-63.92252,-22.326303
898140796000.0,-6.399152201332422,11.899181056371711,4.128716491971302,-0.5488624,0.1872302,-0.90469146,31.257462,-63.685516,-22.55293
898144163000.0,-6.5533290070370365,11.913308469444445,4.511997480555556,-0.7275405,0.15607607,-0.97402465,31.347843,-63.36227,-22.810541
898149018000.0,-6.768585521646091,12.042461958641976,5.138632630246914,-0.7816021,0.10903945,-1.0961977,31.479967,-62.997276,-23.11304
898154006000.0,-7.012823799865688,12.262483802148983,5.76643667940903,-0.88697636,0.064751714,-1.2027937,31.712662,-62.509773,-23.467674
898158993000.0,-7.294081480132245,12.62269111788408,6.368427192581878,-1.0002918,0.007330383,-1.3298537,31.974924,-61.991333,-23.847134
898164070000.0,-7.4793595738145076,12.96954198145074,6.659269933309274,-1.1071932,-0.028099801,-1.4865406,32.31263,-61.371853,-24.281792
898169001000.0,-7.540710680765067,13.283114076506676,6.563834885961747,-1.1979067,-0.03940081,-1.6288722,32.669914,-60.726917,-24.73208
898174007000.0,-7.602994931706965,13.6014555706965,6.466948281414652,-1.2977833,0.0009162979,-1.7577647,33.0823,-59.997982,-25.226095
898179028000.0,-7.186291876643598,13.980610727854671,6.351063116955017,-1.3897184,0.10842858,-1.8710803,33.489124,-59.245647,-25.743813
898184024000.0,-6.544761826470588,14.386223261764703,6.226896094117647,-1.4471397,0.23335053,-1.9572122,33.88912,-58.478954,-26.27833
898188964000.0,-6.004031903088067,14.67215027563858,6.101245635036219,-1.4422529,0.31673363,-2.0253236,34.239975,-57.74064,-26.807518
898194029000.0,-5.6203068851696525,14.755367472550514,5.967173076801372,-1.4288138,0.3213151,-2.067168,34.585953,-57.000862,-27.340788
898198939000.0,-5.234907237160494,14.839403902469137,5.79374352308642,-1.402852,0.30879238,-2.074193,34.807495,-56.388866,-27.77195
898204043000.0,-4.793919359021842,14.93688545536562,5.482731113437797,-1.3848315,0.29993483,-2.0650299,35.033962,-55.786064,-28.199648
898209948000.0,-4.3818548189071045,14.944800654644808,5.277501006448087,-1.3228287,0.30757064,-2.000889,35.204067,-55.268185,-28.562218
898213985000.0,-4.260729318003643,14.77860537981785,5.39017577951184,-1.2116512,0.23518312,-1.8829921,35.39854,-54.78746,-28.890358
898219034000.0,-4.109239931315119,14.57074807424408,5.531095999774135,-1.0519099,0.09193522,-1.7672331,35.53748,-54.41725,-29.137703
898224028000.0,-4.062579171684084,14.280040388766077,5.700713367182476,-0.91629785,-0.06719518,-1.6649132,35.6948,-54.093018,-29.342745
898229025000.0,-4.158751437700965,13.871308182877812,5.912292231913184,-0.7974846,-0.24465153,-1.5693128,35.89074,-53.823055,-29.497885
898233973000.0,-4.305667724388186,13.436753104641353,5.986514210970465,-0.72082096,-0.36987892,-1.4865406,36.118183,-53.566753,-29.622314
898240109000.0,-4.575653853145804,12.847191956211908,5.84876633286451,-0.6966918,-0.4896085,-1.4092661,36.386616,-53.34669,-29.70188
898244053000.0,-4.716768138875878,12.491550537080409,5.709070075722091,-0.66614854,-0.5656612,-1.3811663,36.718037,-53.08919,-29.800991
898249052000.0,-4.8288862259953165,12.088755320756354,5.426698336889582,-0.62949663,-0.63713247,-1.3219124,37.068096,-52.866886,-29.856174
898254301000.0,-4.956923883179403,11.667022283122192,5.122414151091132,-0.5543602,-0.70096785,-1.2907583,37.46932,-52.603813,-29.955278
898258996000.0,-5.280320203122191,11.314226514017165,4.692444170788721,-0.45998153,-0.7425067,-1.2873985,37.877075,-52.362556,-30.037615
898263999000.0,-5.624931872701267,10.938286741315896,4.234267427135268,-0.35094208,-0.8078693,-1.2825116,38.30796,-52.120235,-30.139534
898268968000.0,-5.789175293694711,10.759547006399398,4.017474856352344,-0.24220806,-0.84116143,-1.2586879,38.73315,-51.903393,-30.232002
898274029000.0,-5.798297858121588,10.750424251458686,4.0083521966685485,-0.1459968,-0.8686504,-1.2082914,39.166092,-51.713932,-30.307314
898279670000.0,-5.59969298523755,10.669072467304291,3.95689866441418,-0.09437868,-0.91874135,-1.1346822,39.609154,-51.518425,-30.426771
898284015000.0,-5.275247196174238,10.547946388709844,3.8833578116228296,-0.05131268,-0.9859365,-1.0412198,40.04862,-51.355957,-30.521214
898288997000.0,-4.837641459160547,10.37331331746895,3.791617706173511,-0.027794369,-1.0531317,-0.9388999,40.46369,-51.212124,-30.597797
898294197000.0,-4.309445719880337,10.15210283791134,3.6877842985042153,-0.00061086525,-1.1151345,-0.82619524,40.87552,-51.101215,-30.639833
898299017000.0,-3.84591062645498,9.951885925619836,3.590311165924315,0.016493361,-1.135904,-0.77671516,41.25459,-51.01822,-30.647823
898304013000.0,-3.4296798498390606,9.756257429752068,3.486253504367116,0.025350908,-1.1636983,-0.6969972,41.625385,-50.97138,-30.61253
898309592000.0,-2.9746993512079416,9.535045735043486,3.373788064455768,0.022602014,-1.1328496,-0.57848936,41.927635,-50.97011,-30.529
898314143000.0,-2.683705100808223,9.332115433629095,3.312526079126768,0.015271631,-1.1291844,-0.54733527,42.23943,-50.96739,-30.443415
898318939000.0,-2.3770453721953797,9.118260516999031,3.2479660963454275,0.024740042,-1.0968086,-0.48808134,42.480114,-51.02492,-30.301167
898324063000.0,-2.156808043601992,8.850628009248908,3.167897447057628,0.019242255,-1.0461067,-0.44043383,42.704144,-51.082535,-30.15971
898329055000.0,-1.9867440640918792,8.573667140867975,3.0852948398007927,0.018020526,-1.0067059,-0.40133846,42.907753,-51.153206,-30.011164
898334023000.0,-1.8554842528956104,8.287608530062707,3.031760415344891,0.030848695,-0.95417154,-0.35430184,43.06748,-51.247932,-29.84112
898339028000.0,-1.7361406648284767,7.995879431021764,2.9875591206196974,0.056199603,-0.9086621,-0.3118467,43.206516,-51.351738,-29.669329
898344062000.0,-1.6348561374457344,7.706076806622917,2.929406433619384,0.09773844,-0.840856,-0.27885997,43.313606,-51.460903,-29.50121
898349751000.0,-1.5358470903584047,7.381547413932357,2.852399601211509,0.15607607,-0.7870999,-0.25625798,43.40152,-51.584034,-29.33153
898354014000.0,-1.4890149389025542,7.1945412336613055,2.799894209593188,0.226631,-0.7501425,-0.2312125,43.47446,-51.706917,-29.16971
898359011000.0,-1.4482678313623465,7.00438770269631,2.7410370663670767,0.3036,-0.70738196,-0.20005837,43.52147,-51.84704,-29.010029
898363979000.0,-1.4165948283450704,6.84795565092621,2.7067864821188,0.39645153,-0.65484756,-0.16371189,43.555317,-51.99101,-28.85795
898369009000.0,-1.394470798415493,6.726273582570422,2.699411818309859,0.45937067,-0.6105598,-0.13225232,43.571507,-52.148228,-28.705181
898374204000.0,-1.3716210299295777,6.600599955312308,2.69179524206981,0.54244834,-0.5757405,-0.09407325,43.567852,-52.320774,-28.559792
898379032000.0,-1.2942436719139525,6.250264332730197,2.6242028932046644,0.6252206,-0.54000485,-0.052534413,43.54308,-52.510696,-28.412428
898383935000.0,-1.2092827352935265,5.867940241154001,2.548682005890631,0.6973027,-0.5122105,-0.0030543262,43.50138,-52.721813,-28.25785
898389027000.0,-1.1652660421610703,5.661022078515527,2.502481676773542,0.7644979,-0.48533243,0.041233405,43.45263,-52.939247,-28.104998
898394024000.0,-1.129021160725406,5.487852038037532,2.462209633013549,0.82863873,-0.46670106,0.08979719,43.388607,-53.178356,-27.941933
898399018000.0,-1.0843188246599949,5.301092247840219,2.421631295218544,0.87872964,-0.4297437,0.113926366,43.332195,-53.40676,-27.7922
898404067000.0,-1.0305515740826277,5.098431105807887,2.38027194810538,0.90010995,-0.38728857,0.1591304,43.2572,-53.654064,-27.628517
898408979000.0,-0.9789764718899522,4.902316994617225,2.330096794497608,0.93615097,-0.3472769,0.21502456,43.183205,-53.9079,-27.463326
898413979000.0,-0.9305108388387928,4.708454508419212,2.2243536034781006,0.97219205,-0.3005457,0.27122417,43.087055,-54.172535,-27.293213
898419485000.0,-0.8770541934057409,4.49897432428239,2.110456388363072,1.0064005,-0.25228736,0.32498032,42.990406,-54.44336,-27.117573
898424008000.0,-0.8322485000086199,4.368291165589174,2.043247828773381,1.0433578,-0.19730948,0.37812558,42.86944,-54.73012,-26.934677
898428986000.0,-0.7829354905611585,4.224461679855184,1.9692782931471424,1.0687088,-0.15088372,0.44012842,42.73445,-55.028324,-26.747042
898434008000.0,-0.6631611845817895,4.007198084919196,1.7984080696413085,1.0885619,-0.10323623,0.4999932,42.575687,-55.33986,-26.553232
898439014000.0,-0.5082064274481671,3.753979174521088,1.5792037551911706,1.128879,-0.042760566,0.5696318,42.389988,-55.671787,-26.34797
898444018000.0,-0.3637289147236704,3.5245401396395057,1.3802656764486816,1.1462886,0.013133603,0.6435465,42.19284,-56.016476,-26.131517
898449000000.0,-0.2891017236704901,3.4534667109340087,1.316299520110234,1.1551461,0.06811147,0.71929383,41.96943,-56.37882,-25.903278
898454000000.0,-0.2142049040667362,3.3821364934455533,1.2521022536123938,1.1753048,0.14019357,0.8002335,41.692867,-56.773594,-25.659245
898459011000.0,-0.1375899524331753,3.334980896682464,1.179630731986213,1.1905763,0.20525073,0.88025683,41.393875,-57.18221,-25.40019
898463983000.0,-0.0596320227611374,3.318568583886256,1.097569724971995,1.2049317,0.2874121,0.95630956,41.06063,-57.60777,-25.129648
898468964000.0,0.0136351397286995,3.3062528419282518,1.0138960804260089,1.2110404,0.36865717,1.0354166,40.697212,-58.066868,-24.832659
898474726000.0,0.0548769619205281,3.3291650937634945,0.9039178984412888,1.2290609,0.46181414,1.1181889,40.29879,-58.544853,-24.522873
898479070000.0,0.0859693735139511,3.3464387525577144,0.8210048087950507,1.2565498,0.5699373,1.212873,39.844837,-59.061073,-24.184439
898483981000.0,0.1109679382742345,3.5925471156086632,0.6454095508349514,1.276403,0.70066243,1.3127494,39.350166,-59.595497,-23.83161
898489387000.0,0.1341668429401045,3.959863013965646,0.4172870053786408,1.2938126,0.8304713,1.425454,38.816242,-60.155155,-23.457542
898494088000.0,0.1475610597157954,4.2783283130534135,0.2225814268580405,1.3307699,0.90194255,1.5454891,38.225197,-60.75287,-23.0498
898498994000.0,0.0402001581933733,4.593701015138532,0.085025272439303,1.3518448,1.039998,1.602605,37.577435,-61.359135,-22.64259
898504006000.0,-0.0694804040631248,4.915887721793773,-0.0555029472807769,1.382999,1.1841623,1.7159204,36.880875,-62.13327,-22.118372
898508963000.0,-0.2193431021087465,5.283108384991345,-0.2134932696996232,1.4248432,1.3038919,1.8264871,36.15495,-62.919853,-21.584385
898514038000.0,-0.5162718852520111,5.827477968027695,-0.4411386809612055,1.4758505,1.4263704,1.9333885,35.3859,-63.732876,-21.027555
898518956000.0,-0.8238347463073853,6.342159409181637,-0.6116349176846307,1.5134187,1.5326608,2.0164661,34.58284,-64.62467,-20.426916
898524043000.0,-1.1989031098754872,6.83761996103032,-0.6440482411728924,1.5351044,1.5855007,2.0650299,33.76826,-65.53088,-19.80714
898529000000.0,-1.561672283752545,7.33813280239049,-0.6350931952814081,1.5393804,1.6349808,2.0964894,32.92962,-66.47999,-19.175756
898534226000.0,-1.92979605501412,7.959341419714979,-0.411589497754909,1.527774,1.6392568,2.0952678,32.10674,-67.42173,-18.538357
898539008000.0,-2.266644098292507,8.527772267025679,-0.207074633313325,1.5360206,1.6475036,2.0525072,31.304625,-68.33074,-17.945688
898543988000.0,-2.5999751928151222,9.10366372861414,0.0144026151642395,1.5378532,1.6444492,1.951409,30.528118,-69.20679,-17.370367
898549043000.0,-2.805402222133282,9.565874715208796,0.3038680390980808,1.5699236,1.6041322,1.8121318,29.783596,-70.053406,-16.817509
898554134000.0,-3.0081726253382763,10.03072674643188,0.603605088952734,1.5909985,1.5583172,1.6627752,29.09868,-70.78276,-16.359957
898558921000.0,-3.1483819476367008,10.45985223725672,0.98599393197405,1.6181821,1.4840971,1.5021176,28.458,-71.462875,-15.944244
898563866000.0,-3.293219026969416,10.903141468952734,1.3810039233549585,1.645671,1.3793337,1.3182472,27.882956,-72.050125,-15.593958
898568923000.0,-3.326473818402635,11.18041930671058,1.9954572463976945,1.6624697,1.2409728,1.1206323,27.359999,-72.57968,-15.290295
898573868000.0,-3.3410962790860435,11.424126984767394,2.629097718299712,1.6743816,1.0497719,0.9260717,26.90193,-73.05111,-15.03268
898578921000.0,-3.2544283918790757,11.365194229994072,3.274677577474808,1.674687,0.81000733,0.7296785,26.535347,-73.41874,-14.835823
898583842000.0,-3.161309478601067,11.281387003852991,3.903229974708556,1.6371188,0.68386364,0.5342017,26.206064,-73.72246,-14.691007
898588901000.0,-3.330360901507488,10.822922161360706,4.397697596568482,1.5509869,0.45814893,0.44776422,26.013046,-73.952354,-14.560076
898593849000.0,-3.527743898988396,10.32946429961321,4.862957747039571,1.5121969,0.21533,0.2452624,25.877003,-74.098015,-14.5122595
898598897000.0,-4.527215217914958,9.796337665767322,4.79927520898446,1.4019357,0.0290161,-0.016493361,25.847,-74.164246,-14.511305
898605259000.0,-5.931062953809627,9.119071662961364,4.621739397015973,1.2644911,-0.034208454,-0.3155119,25.859882,-74.15756,-14.574346
898608999000.0,-6.756336536369523,8.720930378696309,4.5173722268238725,1.0775663,0.003970624,-0.63621616,25.982094,-73.962,-14.798613
898613957000.0,-7.882307583090964,8.240076608263966,4.480505747557919,0.8872818,0.069027774,-0.9550878,26.124506,-73.676704,-15.100315
898618970000.0,-9.158233477083542,7.956002753785979,4.880135662200381,0.6921103,0.100792766,-1.325883,26.278685,-73.27888,-15.499957
898624000000.0,-10.264478689320388,7.814824674240859,5.331726628547821,0.45142943,0.10476339,-1.7369953,26.662254,-72.33516,-16.437283
898628964000.0,-10.676924436893204,8.237090753976451,5.974945259987606,0.1282817,0.1337795,-2.0604484,27.043116,-71.316315,-17.42441
898633941000.0,-10.819329447300772,8.688404606683806,6.346197719794344,-0.2773328,0.20586158,-2.2235496,27.5839,-69.956795,-18.723663
898639094000.0,-10.150865005339137,9.239765926339729,5.907060272384813,-0.6908886,0.3921755,-2.223855,28.085573,-68.56943,-20.023348
898644141000.0,-9.355394164946588,9.682611469129098,5.414809256744523,-1.0005972,0.6960809,-2.122146,28.599915,-67.119644,-21.34216
898648972000.0,-8.228702536900236,9.85433742454282,4.7823541202245154,-1.1786644,1.0250319,-1.9285016,29.046247,-65.725746,-22.585949
898654191000.0,-6.993507109193005,10.023560858575324,4.134452970736403,-1.2360858,1.2999213,-1.6969837,29.313782,-64.59237,-23.58418
898658961000.0,-5.644979743398043,9.979587205839884,3.973216103738168,-1.2373075,1.4489723,-1.4330899,29.512274,-63.550915,-24.487673
898664011000.0,-4.217293538520776,9.933032290470075,3.802514598844858,-1.2055426,1.459357,-1.1368202,29.504814,-62.88536,-25.05587
898668995000.0,-2.7954157944140743,9.613647040552628,3.7691012143325713,-1.1572843,1.3374895,-0.8350528,29.485117,-62.31594,-25.529335
898673940000.0,-1.3738962897425702,9.06763273282974,3.849120564397177,-1.0818423,1.1508701,-0.5708536,29.47376,-61.84044,-25.911045
898678995000.0,-0.3904807756369426,8.36310067160629,4.0215926583897295,-0.9624182,0.82619524,-0.37873647,29.313871,-61.662876,-26.003468
898684002000.0,0.1583223025477707,7.532738107324841,4.274519260191083,-0.8127562,0.4465425,-0.18997909,29.21761,-61.569263,-26.00622
898688972000.0,0.3228630093119855,6.657009269111094,4.241473770357224,-0.6918049,0.2770274,-0.113926366,29.039274,-61.630577,-25.846996
898694203000.0,0.1223417008337739,5.684670112076127,3.9274498596329583,-0.6533204,-0.022602014,0.009162978,29.006342,-61.758083,-25.592913
898698907000.0,-0.0579779770636658,4.810289803398534,3.645062462185636,-0.59131753,-0.24709499,0.11026118,29.013147,-61.890736,-25.317257
898704026000.0,-0.162040817428623,4.624179586104083,3.335405984640405,-0.5699373,-0.4456262,0.1863139,29.097721,-62.043762,-24.997997
898709029000.0,-0.2486197213335743,4.567903068485724,3.0323798616552224,-0.5571091,-0.6542367,0.28344148,29.24462,-62.228703,-24.631254
898714020000.0,-0.3336964057470858,4.610548984634405,2.701030044878135,-0.56291234,-0.8555168,0.39187005,29.491875,-62.314766,-24.355007
898719020000.0,-0.418267281762628,4.703577066584246,2.354289405528082,-0.58368176,-1.0283916,0.50854534,29.783438,-62.421745,-24.037857
898723986000.0,-0.5640981115713694,4.81192877881707,1.909086005148125,-0.6026186,-1.1255192,0.6414085,30.077404,-62.561832,-23.6949
898728976000.0,-0.8066530126175678,4.945581437093432,1.3051737620364618,-0.6105598,-1.1215485,0.7644979,30.380108,-62.720333,-23.319921
898733958000.0,-1.2538269359620355,5.162939152265951,0.6982474474031009,-0.5852089,-0.9932669,0.88606006,30.623314,-62.939148,-22.918514
898739013000.0,-1.956268947217253,5.4852927645199765,0.0775967026356588,-0.5458081,-0.77518797,0.96577793,30.826513,-63.171234,-22.50731
898743960000.0,-2.7015888637828107,5.816256352250545,-0.4189464855093338,-0.47158796,-0.4529566,1.0241156,30.907837,-63.480473,-22.126074
898749014000.0,-3.5363290645787933,6.174002111541742,-0.7858653194541836,-0.38423425,-0.040011674,1.0216721,30.890537,-63.794685,-21.77152
898753966000.0,-4.351218990889707,6.521036908761388,-1.0370591896103896,-0.30909783,0.3848451,0.9462303,30.746994,-64.07997,-21.531641
898759047000.0,-5.181236387526653,6.870021537953091,-1.0747872642857144,-0.20066923,0.7837401,0.8399397,30.492302,-64.37137,-21.332798
898763948000.0,-5.858752341436377,7.190982472175152,-0.94949767957558,-0.06811147,1.1282681,0.7247916,30.150265,-64.571945,-21.280787
898769065000.0,-6.219621787235727,7.4820061442869585,-0.3635698430659593,0.076358154,1.3332134,0.6017023,29.743444,-64.76049,-21.277483
898773962000.0,-6.564976033098424,7.760517561588407,0.1971666461635917,0.2574797,1.3286319,0.50946164,29.353424,-64.851524,-21.414486
898779075000.0,-6.848382902073396,8.457676767059281,1.2217182586352575,0.45662177,1.151481,0.4297437,28.964602,-64.93485,-21.57852
898784026000.0,-7.097618497566437,9.26538472880366,2.357125001695707,0.6356053,0.88789266,0.31948254,28.614664,-65.00445,-21.764587
898789005000.0,-7.451609503946146,10.887197467873722,2.886380158523677,0.7831292,0.73823065,0.23335053,28.373434,-64.982155,-22.018507
898794024000.0,-7.853275134168988,12.873211107706592,3.154157229805014,0.8445212,0.46395215,0.040927973,28.2663,-64.911896,-22.300348
898799045000.0,-8.007078677489046,14.125697333131892,3.340943259646472,0.95325524,0.2950479,-0.18509217,28.270327,-64.78952,-22.611935
898804010000.0,-7.956792806436018,14.765045911466988,3.459474214624566,1.0005972,0.15943582,-0.37965274,28.362066,-64.62283,-22.941093
898809075000.0,-7.905494128312434,15.41727160114821,3.580392500015108,0.9947941,-0.035430185,-0.5332854,28.470798,-64.50697,-23.206858
898814253000.0,-7.977229662930949,15.534515932240437,4.220184312955787,0.9477574,-0.23548855,-0.6762278,28.635592,-64.34207,-23.503654
898818938000.0,-8.053011411465473,15.59246656612022,4.844270486477893,0.7825184,-0.46517387,-0.8072584,28.877813,-64.12627,-23.81631
898824004000.0,-8.089595575816075,15.237675872148122,5.232038358064233,0.56321776,-0.6542367,-0.9642508,29.12822,-63.920044,-24.090517
898829014000.0,-8.119067353632854,14.82507318085293,5.573067202834328,0.34788775,-0.75777835,-1.0961977,29.426945,-63.67085,-24.379232
898834062000.0,-7.994041009764918,14.368507970550246,5.677406241539654,0.15790866,-0.7968737,-1.178359,29.817043,-63.328026,-24.701815
898839000000.0,-7.774143148643761,13.896134885042626,5.628539898992509,-0.014966198,-0.79290307,-1.2024882,30.22561,-62.955467,-25.031563
898843951000.0,-7.293190415027693,13.59425699895496,5.555164302121434,-0.13713925,-0.7370089,-1.1246029,30.679216,-62.519787,-25.388926
898849044000.0,-6.080067407545198,13.7573655265963,5.412444061009509,-0.22602014,-0.61666846,-0.88789266,31.098724,-62.11899,-25.69957
898853936000.0,-4.927846267415424,13.862240245089124,5.232681571962532,-0.3381139,-0.4978552,-0.550695,31.491228,-61.75202,-25.958328
898859030000.0,-3.7521616760549295,13.875550149963622,4.96648889460713,-0.45662177,-0.45204028,-0.25870144,31.85264,-61.43497,-26.157352
898864002000.0,-2.669618349637517,13.8527145,4.693002125577707,-0.56016344,-0.5348125,-0.0693332,32.10549,-61.323914,-26.13847
898869064000.0,-1.8971659800407796,13.6477035,4.345215469830841,-0.6267477,-0.7110472,0.06688975,32.35375,-61.26561,-26.05052
898874005000.0,-1.1431779993656548,13.447593,4.005742165594321,-0.66614854,-0.8503244,0.226631,32.488434,-61.40837,-25.753067
898878955000.0,-0.9890529547968964,13.272291689365586,3.362525769146508,-0.7076874,-0.9092729,0.35918877,32.641388,-61.56266,-25.426252
898884010000.0,-1.4132823055043358,13.117624378092197,2.412428713692378,-0.75777835,-0.89827734,0.4596761,32.801823,-61.733906,-25.067705
898889003000.0,-1.861006744744702,12.911324225216896,1.5318614248044375,-0.79504114,-0.7867944,0.49571714,32.852306,-62.02617,-24.598637
898894123000.0,-2.380559746024748,12.587039474825772,0.750788435812829,-0.8558222,-0.5897904,0.54000485,32.861507,-62.323055,-24.117243
898899072000.0,-2.882760488863604,12.273585328402788,-0.004197935773005,-0.88178396,-0.31978795,0.5198463,32.75718,-62.602654,-23.735538
898904013000.0,-3.370436591753728,11.88085756496602,-0.444208811203976,-0.82894415,-0.032070424,0.49388456,32.58276,-62.885,-23.369215
898908997000.0,-3.8497295059235217,11.411247381377422,-0.5991318129850898,-0.7312057,0.11362094,0.46181414,32.37128,-63.155823,-23.028498
898913995000.0,-4.251619168781512,11.037402511764704,-0.6485993207142857,-0.61544675,0.071776666,0.43096542,32.13112,-63.39098,-22.790356
898918998000.0,-4.587142736155462,10.74549708137255,-0.6083364870238096,-0.5009095,-0.09590584,0.4092797,31.891611,-63.630753,-22.563732
898923996000.0,-4.922330981155462,10.453883381372547,-0.5681138920238096,-0.39584067,-0.21410827,0.3924809,31.702961,-63.806355,-22.416231
898929814000.0,-5.227618419658319,10.3367340135736,-0.4888564358296279,-0.27977628,-0.2443461,0.38331795,31.542418,-63.993973,-22.269894
898934064000.0,-5.427648769139559,10.311333143770964,-0.422179628356346,-0.1328632,-0.1966986,0.36957347,31.398245,-64.19277,-22.129652
898939022000.0,-5.643750178806727,10.27933578931122,-0.347907904734393,0.032070424,-0.10781772,0.36743546,31.305214,-64.326584,-22.067532
898944009000.0,-5.742767919672886,10.230927195139367,-0.297298859135683,0.21471913,-0.004581489,0.3549127,31.196968,-64.475044,-22.017786
898949385000.0,-5.849509322299009,10.178742594724715,-0.2427421659055517,0.36987892,0.10476339,0.32650748,31.089775,-64.59264,-22.018515
898953896000.0,-5.939076001474315,10.134954512047916,-0.1969636608532596,0.50335294,0.17134771,0.28771752,30.968264,-64.722664,-22.029713
898958858000.0,-6.037597363049989,10.086788591799126,-0.1466083201151808,0.6267477,0.22693644,0.23182335,30.820246,-64.85444,-22.060274
898963958000.0,-5.729144302824268,10.187082995031382,-0.3160496638179916,0.75411314,0.34574974,0.19333886,30.63745,-64.99298,-22.103653
898968845000.0,-5.308123629707113,10.329055712552302,-0.5461424751966528,0.87995136,0.43463063,0.1853976,30.45172,-65.13396,-22.153742
898973888000.0,-4.988827849369477,10.6505403697746,-0.5318318302244067,0.9651671,0.45234573,0.18600847,30.28062,-65.23203,-22.245737
898978843000.0,-4.696692690249231,10.999217190845,-0.470577722682951,1.0476339,0.46273044,0.1957823,30.08846,-65.33731,-22.338821
898983915000.0,-4.71315254828631,11.21321491156978,-0.4786870979142208,1.0803152,0.48808134,0.19394971,29.848711,-65.50656,-22.370039
898988898000.0,-4.794480373414126,11.393942782806286,-0.5012780865366409,1.1410962,0.5002986,0.17928895,29.614197,-65.67738,-22.399235
898993924000.0,-4.991172944177334,11.473290698928087,-0.5474546765386616,1.2104294,0.52412236,0.13836098,29.348028,-65.88934,-22.378532
898998854000.0,-5.227020111520449,11.512598842335311,-0.601503001754605,1.258077,0.5674938,0.106595986,29.077139,-66.09281,-22.35823
899003972000.0,-5.361508556674198,11.422096322458202,-0.5741003523994578,1.3048081,0.6200282,0.08460484,28.801119,-66.28688,-22.343578
899008943000.0,-5.464766671839132,11.301628304292816,-0.5267736919475825,1.3417655,0.6554584,0.063224554,28.523514,-66.46447,-22.335724
899014011000.0,-5.402760847036638,11.107913282004311,-0.4068161335560345,1.3582588,0.6976081,0.06841691,28.241018,-66.6097,-22.353043
899018971000.0,-5.233845855657328,10.872455988900862,-0.2430197232112069,1.38025,0.72692966,0.08368854,27.957312,-66.74391,-22.370491
899023944000.0,-4.950005654001283,10.659386377761482,-0.0742977246878723,1.3927728,0.70616025,0.12217305,27.698643,-66.85233,-22.396975
899028974000.0,-4.62324054995875,10.451846429095244,0.0979162421101842,1.3906348,0.66523224,0.16615535,27.441637,-66.95687,-22.414156
899033977000.0,-4.243374712292292,10.215709149749747,0.2347362569049049,1.3741413,0.6188065,0.2171626,27.206257,-67.067085,-22.40625
899038925000.0,-3.825960194054054,9.95956817837838,0.3438332477837837,1.3497068,0.58123827,0.2828306,26.983807,-67.18475,-22.37826
899043935000.0,-3.4153874472530834,9.74124537753542,0.39264908,1.3338243,0.5739079,0.3463606,26.771658,-67.33861,-22.296041
899048977000.0,-3.011812580246662,9.554223202833557,0.39264908,1.3081679,0.5693264,0.40530908,26.57251,-67.50116,-22.194965
899054050000.0,-2.5427343461538463,9.372563144230767,0.3412658258653846,1.2815952,0.5879578,0.4633413,26.36381,-67.71586,-22.030779
899059051000.0,-2.040772435384615,9.197567094326924,0.2583730342759615,1.244027,0.63071835,0.5177083,26.150652,-67.938354,-21.85212
899064005000.0,-1.7443893242861752,9.104814873769962,0.2264190959832231,1.2027937,0.6743952,0.5662721,25.912218,-68.21185,-21.616106
899069706000.0,-1.603470104420068,9.078392453944184,0.2396302691095338,1.1499538,0.7244862,0.5983425,25.66025,-68.48814,-21.37209
899074046000.0,-1.4977842850949032,9.057184299354466,0.2509217430706233,1.1047498,0.7761043,0.6301075,25.369501,-68.843475,-21.045462
899078992000.0,-1.4019461591868196,9.016110912130264,0.2828678088669428,1.0467176,0.79717916,0.64934975,25.074224,-69.19595,-20.716635
899084016000.0,-1.3045966354176703,8.97438978446864,0.3153176743260429,1.0247264,0.8356637,0.65484756,24.749033,-69.56551,-20.368118
899089021000.0,-1.3329366935315985,8.938620991635688,0.3465255317249071,0.9654725,0.83658,0.6814202,24.43027,-69.937965,-20.011688
899095098000.0,-1.374424807417672,8.894382306610694,0.3806015566351483,0.91996306,0.7965683,0.6933321,24.114525,-70.30162,-19.66158
899099001000.0,-1.4658291351483534,8.848680333632213,0.3348993991327029,0.8323039,0.83016586,0.70341134,23.7734,-70.67562,-19.297766
899103936000.0,-1.581401863139876,8.790894210996086,0.2771130431822628,0.8045095,0.88178396,0.7141015,23.445679,-71.035255,-18.9473
899109063000.0,-1.7485240838973597,8.70393559538862,0.2699990020528077,0.7449502,0.93676186,0.6973027,23.108585,-71.38245,-18.606329
899114051000.0,-1.988346715805132,8.57514192023057,0.3499398638973596,0.691194,0.95172805,0.6762278,22.7701,-71.72577,-18.267702
899118939000.0,-2.295074477001538,8.428452832283655,0.4373056864729215,0.63163465,0.947452,0.6398814,22.431694,-72.02614,-17.970875
899123987000.0,-2.8899296037561726,8.197555113769935,0.5625383486084352,0.5662721,0.94225967,0.6072,22.092274,-72.316956,-17.682068
899129020000.0,-3.4830171340565044,7.967343501789039,0.6873988851631183,0.50701815,0.9242391,0.5534439,21.794724,-72.537025,-17.462872
899134063000.0,-3.79956268226601,7.830101067980296,0.792421777955665,0.4615087,0.93187493,0.48899764,21.4943,-107.25817,-17.258099
899139358000.0,-4.036440942755224,7.718122296449805,0.8957868652879225,0.40133846,0.9108001,0.43035457,21.211157,-107.0694,-17.06886
899144078000.0,-4.21758818916565,7.630818487650235,1.0144625786187076,0.36254853,0.90041536,0.3866777,20.998573,-107.03493,-17.033829
899149067000.0,-4.367390713551647,7.555917182006619,1.176748704637694,0.33933565,0.86406887,0.3539964,20.804272,-107.013016,-17.011385
899153972000.0,-4.509360551721506,7.481131920009161,1.3308523220551187,0.3145956,0.8142834,0.31123585,20.653852,-107.05981,-17.057755
899159012000.0,-4.601480508970151,7.392696868783877,1.434026497182991,0.2883284,0.74220127,0.2941316,20.52516,-107.106255,-17.10394
899164026000.0,-4.693125244217116,7.304718030124435,1.536668424582029,0.24862215,0.6759224,0.2660318,20.439396,-107.206535,-17.20434
899169004000.0,-4.7519592816287695,7.2432039057197235,1.5966137689772613,0.21930063,0.6377433,0.24709499,20.370493,-107.30625,-17.304296
899174103000.0,-4.776416911199039,7.208963224321346,1.611288346719423,0.18295415,0.57635134,0.226631,20.331682,-107.41168,-17.410234
899178992000.0,-4.805991498751321,7.211968472769186,1.60748781512823,0.13836098,0.5531385,0.21960606,20.316576,-107.54893,-17.547985
899184008000.0,-4.842904219143214,7.25349522900778,1.5844173949956777,0.124311075,0.51068336,0.19272798,20.32857,-107.694855,-17.694368
899189052000.0,-4.902021121404079,7.306566082439993,1.5811686309149973,0.07238753,0.47158796,0.1685988,20.354746,-107.846214,-17.84609
899194005000.0,-4.991906585020755,7.375050313300848,1.606850217487818,0.0076358155,0.4352415,0.13591751,20.395378,-71.995026,-18.004974
899198971000.0,-5.061252303140057,7.449024517893338,1.6371168014454227,-0.0580322,0.4147775,0.103847094,20.445137,-71.82697,-18.172829
899204071000.0,-5.032851259777372,7.550456985080578,1.689861638627679,-0.12003502,0.39920044,0.07696902,20.506502,-71.65387,-18.345234
899209101000.0,-5.00484003465692,7.650497241933876,1.7418825270642964,-0.172264,0.38759398,0.04337143,20.581228,-71.45643,-18.541332
899214036000.0,-4.883647610730298,7.63750582982963,1.8419327834412675,-0.2519819,0.36254853,0.011301007,20.666689,-71.25474,-18.740551
899218933000.0,-4.738801064162598,7.595453397309953,1.954072180651589,-0.3436117,0.31887165,-0.012217305,20.76324,-71.04878,-18.94264
899224085000.0,-4.550012101039604,7.525435676039604,1.9898233904950493,-0.44012842,0.28985557,-0.032986723,20.857004,-70.842186,-19.143806
899228950000.0,-4.360879542178218,7.4516279421782174,1.9990493572277228,-0.51893,0.24678956,-0.057726767,20.969856,-70.62996,-19.34831
899234182000.0,-4.201400314328136,7.391427312150458,1.9119320779510025,-0.5934556,0.19914207,-0.08277224,21.083563,-70.42604,-19.540918
899238998000.0,-4.068242979411037,7.34196890297781,1.8016017011135856,-0.6563747,0.17470746,-0.100792766,21.20446,-70.2176,-19.734764
899243997000.0,-3.9283261386810007,7.288048995244986,1.658721933925987,-0.72356987,0.15515977,-0.118202426,21.327055,-70.030334,-19.903238
899249073000.0,-3.782601073309903,7.227749011618772,1.4526968849286748,-0.782213,0.1459968,-0.13744467,21.45496,-69.836525,-20.074354
899254891000.0,-3.600451140406504,7.104231045528455,1.2926976789430895,-0.8356637,0.15515977,-0.15974127,21.556986,-69.6615,-20.224836
899258990000.0,-3.4608234959044712,6.976571356300813,1.236846596148374,-0.8781188,0.16310102,-0.17715092,21.663086,-69.48133,-20.37676
899264066000.0,-3.263854279537572,6.802062542003854,1.1652298792774565,-0.94225967,0.16340645,-0.1863139,21.74503,-69.32285,-20.506357
899269014000.0,-3.040162921849711,6.610327065317919,1.0921878178901734,-1.0277808,0.16187929,-0.2003638,21.826172,-69.15639,-20.639996
899273988000.0,-2.8167498225330814,6.406512428137996,1.0546499733081285,-1.0961977,0.16798794,-0.2134974,21.889626,-69.00569,-20.755373
899279016000.0,-2.5937387279395083,6.1789501381190925,1.0865086739508507,-1.1291844,0.15485434,-0.22113322,21.960281,-68.85089,-20.870777
899283994000.0,-2.381910700790961,5.961418906584489,1.1851915765793528,-1.187522,0.118507855,-0.22876903,22.012363,-68.71377,-20.963425
899288999000.0,-2.199734921694916,5.7693956935901385,1.5150773731895222,-1.2492194,0.064446285,-0.22907446,22.074522,-68.57472,-21.053776
899294020000.0,-2.0343871965901386,5.641686079240531,1.8196461346895283,-1.3356569,-0.015577064,-0.2321288,22.135525,-68.44017,-21.128654
899299050000.0,-1.9130606048048049,5.679017615615615,2.0576330102102105,-1.4004086,-0.080634214,-0.23457226,22.208792,-68.3023,-21.201101
899303972000.0,-1.8076683228047568,5.769389370069376,2.2121541094350845,-1.4669929,-0.12339478,-0.21899518,22.30669,-68.14971,-21.26344
899309058000.0,-1.7497404966204162,6.068683079881071,2.07216188382557,-1.5048665,-0.13927728,-0.17837265,22.415558,-67.997246,-21.316952
899314017000.0,-1.7216073059515635,6.387158421413864,1.9180835043631728,-1.5012014,-0.13775012,-0.13652839,22.535406,-67.84733,-21.348778
899319052000.0,-1.806708383263065,6.817391741592313,1.691147232375723,-1.4761559,-0.16249016,-0.099265605,22.666508,-67.70085,-21.367785
899324849000.0,-1.925641182040415,7.287978354877772,1.4348256463747824,-1.426065,-0.23945917,-0.055283304,22.777586,-67.60447,-21.338537
899328984000.0,-2.048520438454553,7.5786925138499965,1.2609964333837886,-1.3530666,-0.33628133,-0.011301007,22.89945,-67.51829,-21.296644
899334006000.0,-2.1977585583364867,7.931767847914933,1.0498790675698175,-1.2819008,-0.42363504,0.029932396,23.003784,-67.48109,-21.221897
899339008000.0,-2.622150395841872,8.152629023138662,0.7623831446063866,-1.2003502,-0.49571714,0.07391469,23.12855,-67.46119,-21.13221
899344091000.0,-3.3162571780054644,8.252380728142077,0.3966263272814206,-1.0952814,-0.5140431,0.1020145,23.259638,-67.45433,-21.035955
899348992000.0,-3.922615501161125,8.306568116044636,0.1034971039781346,-1.0030408,-0.4905248,0.100792766,23.365885,-67.485535,-20.93485
899354015000.0,-4.238160603543693,8.157863267149212,0.0926162376735278,-0.93554014,-0.43860126,0.07391469,23.465954,-67.52236,-20.83738
899358985000.0,-4.55037624336877,8.010727472004826,0.0818501804300686,-0.8707884,-0.35979962,0.035124753,23.582903,-67.48611,-20.861336
899363970000.0,-4.790714554953429,7.806419195258256,0.1390866982726503,-0.8142834,-0.24465153,0.01740966,23.672146,-67.45313,-20.891212
899369094000.0,-4.967305502921253,7.541532529254868,0.263739260442845,-0.7797695,-0.16890424,0.005497787,23.750275,-67.41485,-20.93196
899374075000.0,-4.978940992898431,7.369993317795211,0.4446038485404624,-0.77304995,-0.16401732,-0.0015271631,23.853584,-67.28205,-21.05195
899379012000.0,-4.904109227360308,7.246358158959538,0.6560850711464354,-0.7791586,-0.19914207,0.004886922,23.945906,-67.15457,-21.170248
899383991000.0,-4.8286408537297,7.1216712122625925,0.8693654048217726,-0.8005389,-0.25809056,0.01740966,24.082306,-66.97306,-21.325785
899389897000.0,-4.6517624601227,7.002623830265849,1.1521153036809817,-0.82711154,-0.33017266,0.03848451,24.231762,-66.79784,-21.471828
899394066000.0,-4.507906992404324,6.924864205764924,1.3581784507011392,-0.8335256,-0.41691554,0.06872234,24.401356,-66.63152,-21.60564
899398990000.0,-4.58404668982478,6.798599277479321,1.4877159806546296,-0.8481864,-0.45051312,0.096516706,24.60231,-66.4543,-21.73465
899403968000.0,-4.779099146233212,6.654430012816864,1.5640408125500311,-0.8604037,-0.45875978,0.094989546,24.820004,-66.27906,-21.858925
899408991000.0,-4.917217658576052,6.584132038754046,1.5764074461974111,-0.8472701,-0.42730024,0.09101892,25.04458,-66.11324,-21.95907
899413978000.0,-4.973031531355628,6.618479171880619,1.4991266544408486,-0.8524625,-0.40408736,0.084910266,25.271713,-65.944565,-22.05888
899418964000.0,-5.022535962384597,6.644159342681291,1.4493888170125464,-0.83260936,-0.3747658,0.065973446,25.51462,-65.72032,-22.212284
899424116000.0,-5.045895666195849,6.632479348488913,1.5194680910597334,-0.8390234,-0.32895094,0.06536258,25.74304,-65.49873,-22.362255
899430987000.0,-5.069230086189562,6.618609684169638,1.6133080779362032,-0.8359691,-0.39522982,0.032375857,25.990612,-65.26444,-22.523594
899434120000.0,-5.000671220756786,6.629579250397587,1.6599281545379765,-0.81306165,-0.40775254,0.027794369,26.205061,-65.04264,-22.679605
899439000000.0,-4.893883074152272,6.646665584005119,1.7325441691618684,-0.8038987,-0.44929138,0.0027488936,26.466581,-64.79293,-22.84358
899444133000.0,-4.749598724025974,6.650781638311688,1.7589608623376625,-0.7703011,-0.4746423,-0.007330383,26.724304,-64.5551,-23.002445
899448987000.0,-4.581351095646157,6.64088467644241,1.7342185868426656,-0.7257079,-0.47616947,-0.015882496,26.986555,-64.3171,-23.164648
899454069000.0,-4.418312123780254,6.608738158922398,1.6790426853342295,-0.70096785,-0.46792278,-0.032375857,27.240744,-64.08471,-23.31152
899459005000.0,-4.268490206915097,6.563337435833653,1.6064017085382252,-0.68019843,-0.46883908,-0.055283304,27.49685,-63.856453,-23.460217
899464519000.0,-4.164792081360647,6.558371117475974,1.545721783383915,-0.7012733,-0.48991394,-0.05100725,27.746655,-63.65529,-23.57183
899469053000.0,-4.120865525855674,6.583994791814196,1.5091164415022762,-0.7489208,-0.5235115,-0.047647487,27.999514,-63.4496,-23.688118
899474058000.0,-4.0797195,6.701902274495075,1.464528863929227,-0.7699956,-0.5320636,-0.047647487,28.233662,-63.268314,-23.776083
899479139000.0,-4.0797195,7.33136829060257,1.3954907022199965,-0.7852673,-0.56016344,-0.057726767,28.481297,-63.082016,-23.862217
899483937000.0,-4.0797195,7.925774499081956,1.3302978071440492,-0.78954333,-0.58123827,-0.06291912,28.716932,-62.909615,-23.929914
899488999000.0,-4.228886660306705,8.504991648314906,1.3437602323377318,-0.7623598,-0.59223384,-0.08368854,28.956352,-62.73474,-24.003479
899493993000.0,-4.429301187767475,9.05932987825428,1.386401538739301,-0.6908886,-0.589485,-0.112399206,29.195429,-62.563908,-24.080122
899499111000.0,-4.656029259614446,9.597928435090289,1.4892097436310394,-0.625526,-0.5742133,-0.14905111,29.370506,-62.452908,-24.107347
899504061000.0,-4.895098838677403,10.091491429233772,1.6434482648609077,-0.569021,-0.5164866,-0.20922135,29.53242,-62.338512,-24.152653
899509113000.0,-5.134070462228024,10.59443222345518,1.7982205398825066,-0.5522222,-0.43493605,-0.33414328,29.673296,-62.215042,-24.209955
899514067000.0,-5.2957940581085,11.076162014722948,1.9117711566362052,-0.5644395,-0.36987892,-0.49480084,29.806686,-62.072845,-24.296587
899519058000.0,-5.4587255209747605,11.56148970713664,2.0261698502610965,-0.58184916,-0.3136793,-0.66706485,29.940895,-61.895645,-24.41656
899524028000.0,-5.62053252363227,12.064237487354596,2.345215992675422,-0.600786,-0.21563543,-0.80848014,30.051384,-61.687897,-24.577444
899529056000.0,-5.783147778896811,12.62074294206379,3.172746986026266,-0.6743952,-0.12583824,-0.9443977,30.1598,-61.433437,-24.783949
899533985000.0,-5.942561182476548,13.166290950469044,3.983984111369606,-0.79320854,-0.1001819,-1.0650436,30.261995,-61.15837,-25.001682
899538999000.0,-6.134308653436645,13.481439418049224,4.705145558979034,-0.9492846,-0.15210545,-1.1737776,30.371634,-60.843937,-25.248348
899544024000.0,-6.344876216791249,13.648138868824066,5.363169079945305,-1.1294898,-0.28710666,-1.294118,30.511303,-60.484734,-25.520073
899549253000.0,-6.502511822450895,13.843479552725078,5.867802762861165,-1.3014483,-0.43951756,-1.395827,30.758898,-60.045315,-25.791323
899554064000.0,-6.5797292271234165,14.04733313984045,6.133430176959174,-1.4822645,-0.5198463,-1.4880677,31.034872,-59.562977,-26.08023
899558983000.0,-6.658680050982101,14.255762945498423,6.405020542776698,-1.6814066,-0.5833763,-1.5705346,31.431076,-58.974125,-26.39955
899564064000.0,-6.742219359428308,14.587122282003996,6.633677447287536,-1.8622227,-0.7360926,-1.6798794,31.888002,-58.346252,-26.726336
899569061000.0,-6.826795254702628,15.054129062010142,6.795475000806824,-1.9938642,-0.8023715,-1.7760907,32.342865,-57.693855,-27.062233
899575127000.0,-6.897490674561786,15.600961199529085,6.960045045783553,-2.0879374,-0.799928,-1.8442022,32.85309,-56.995354,-27.395088
899579904000.0,-6.502523173881573,15.748574957007063,6.640879624313246,-2.147802,-0.71868294,-1.8579466,33.361027,-56.287384,-27.72826
899584084000.0,-6.15691627565187,15.877740857416937,6.361601528909043,-2.172237,-0.5158757,-1.8716911,33.812813,-55.592045,-28.05208
899588996000.0,-5.77632144803798,15.945383,6.134494872008526,-2.1804836,-0.3118467,-1.8579466,34.236313,-54.90821,-28.370754
899594041000.0,-5.40650432440655,15.945383,5.984695374866777,-2.140472,-0.18295415,-1.7928895,34.61623,-54.252396,-28.682756
899599181000.0,-5.140810548789451,15.790069422106932,5.857118683095547,-2.0815234,-0.19517145,-1.6814066,34.891434,-53.70517,-28.916882
899604068000.0,-4.992425868439256,15.496672647787866,5.759319523562473,-2.0073032,-0.26419923,-1.5769486,35.140297,-53.192013,-29.13726
899608974000.0,-4.8434642883700825,15.202135186193976,5.661140134025075,-1.9233092,-0.3830125,-1.4853189,35.36394,-52.75848,-29.282114
899614043000.0,-4.730074988872342,14.66798774460164,5.526474916166129,-1.8344283,-0.46395215,-1.387275,35.58376,-52.37161,-29.391947
899619065000.0,-4.63457779691404,14.04327786820551,5.379250459427484,-1.7479908,-0.552833,-1.2938126,35.829834,-52.025036,-29.46299
899624035000.0,-4.668115979277653,13.3165049503386,5.265475505778781,-1.6539177,-0.6588182,-1.2198979,36.106865,-51.70469,-29.502893
899629009000.0,-5.005038022046652,12.332023474040632,5.227243123626787,-1.557401,-0.7281514,-1.1276573,36.380417,-51.4307,-29.50753
899634067000.0,-5.347649942498119,11.330916255079009,5.188365080015049,-1.4682146,-0.7492262,-1.0500773,36.689922,-51.141823,-29.520796
899639002000.0,-5.681930256343115,10.354153873589166,5.150432469255079,-1.3643675,-0.7324274,-0.99296147,36.991974,-50.894638,-29.51192
899644032000.0,-5.949588014401623,9.59577575321163,5.087490632606491,-1.2797627,-0.72509706,-0.9660834,37.289463,-50.675583,-29.487953
899650158000.0,-6.073547562271806,9.328023162947938,4.94369784908722,-1.2205088,-0.70157874,-0.9443977,37.56307,-50.486496,-29.456442
899654417000.0,-6.1554061762167125,9.144809658585858,4.846104379559228,-1.1194105,-0.6569856,-0.89858276,37.9922,-50.127903,-29.57605
899659014000.0,-6.030083682460973,9.092255268686868,4.858232354655647,-0.99265605,-0.6059783,-0.852157,38.402534,-49.79751,-29.691792
899663971000.0,-5.89494694077135,9.035585242424242,4.871310095041323,-0.8790351,-0.5925393,-0.8362745,38.80216,-49.463074,-29.828363
899669067000.0,-5.677420437887168,9.089346573746312,4.843997141814159,-0.7779369,-0.59437186,-0.8445212,39.182884,-49.16113,-29.961967
899673998000.0,-5.442348922234513,9.176409997050149,4.804818601327434,-0.72143185,-0.6032294,-0.84635377,39.553345,-48.882523,-30.088907
899679034000.0,-5.248665153932473,9.30808119224333,4.822000985480854,-0.59773165,-0.6178902,-0.8622363,39.918476,-48.630215,-30.207508
899684177000.0,-5.083824131735407,9.472922467565706,4.880180065557633,-0.46578476,-0.6215554,-0.90194255,40.282448,-48.38926,-30.33118
899689009000.0,-4.863581237911353,9.571812489967003,4.908083959083207,-0.34025195,-0.64476824,-0.89919364,40.618534,-48.20038,-30.411776
899693988000.0,-4.587170851788104,9.631346907607242,4.916588932979577,-0.23945917,-0.7031059,-0.8970556,40.967335,-48.026073,-30.495657
899698979000.0,-4.290611006900385,9.65176542862437,4.899478633582864,-0.13652839,-0.7593055,-0.8857546,41.290215,-47.89478,-30.548786
