timestamp,acc_x,acc_y,acc_z,gyro_x,gyro_y,gyro_z,ori_azimuth,ori_pitch,ori_roll
2290723880000.0,0.2880158633928491,9.893642840363,0.7421800224319755,7.3386297,-0.29840767,-4.2620068,126.949165,-86.43005,-1.4235888
2290728928000.0,0.2824533038234838,9.893884695654132,0.740728919221926,7.3386297,0.75686204,0.031154128,127.12169,-86.787964,-0.4015603
2290733861000.0,0.2770174665897914,9.894121041167438,0.7393108740287457,-1.1899655,0.763887,0.03481932,127.11761,-85.93658,-1.6213037
2290739928000.0,0.2703320369330285,9.894411717881248,0.7375668480431335,-1.1869112,0.7443393,0.03726278,126.71722,-87.51457,-1.635617
2290743893000.0,0.2659628711856962,9.894601685438566,0.7364270651136869,-1.1753048,0.7290677,0.034208454,126.32994,-87.056465,-1.6576533
2290748873000.0,0.2604752430843809,9.894840282774114,0.7349955092527428,-1.1597277,0.73945236,0.032070424,125.956116,-86.589165,-1.6809202
2290753843000.0,0.2549986343166026,9.895078400998546,0.7335668280019612,-1.1643091,0.7657196,0.028710667,125.59645,-86.12036,-1.7072618
2290758950000.0,0.2493710606793702,9.895323083045264,0.7320987645919527,-1.1893547,0.7877107,0.039095376,125.24832,-85.65921,-1.7318993
2290763863000.0,0.2439572621127514,9.895558470336336,0.7306864686190975,-1.2290609,0.7189884,0.0421497,124.9317,-85.20255,-1.7594705
2290768883000.0,0.2384255566772891,9.895798984116343,0.7292434143175031,-1.2177598,0.73975784,0.03359759,124.59576,-84.76553,-1.7908374
2290773873000.0,0.2329269092424371,9.89603806056301,0.7278089838463964,-1.1658363,0.763887,0.048563786,124.289444,-84.34496,-1.8141332
2290779045000.0,0.2272277099372158,9.896285856831977,0.7263222354703314,-1.2208142,0.7690793,0.044898596,123.99435,-83.90968,-1.8459542
2290783930000.0,0.2218447655044999,9.896519902611926,0.7249179884059312,-1.2394456,0.7632761,0.052534413,123.70532,-83.51412,-1.8712631
2290788895000.0,0.2163736664034899,9.8967577812808,0.7234907444602309,-1.244638,0.7470882,0.06078109,123.42807,-83.120544,-1.8978058
2290793881000.0,0.2108794267020526,9.896996666083018,0.7220574638331891,-1.2385293,0.73456544,0.06261369,123.16114,-82.73845,-1.9243542
2290798835000.0,0.205420448867933,9.897234017729664,0.7206333819586676,-1.241889,0.7128797,0.07513642,122.910034,-82.36668,-1.9450103
2290804000000.0,0.1997289630961874,9.89748147862085,0.7191486458097164,-1.2391402,0.69913524,0.08674286,122.66894,-82.01084,-1.9654531
2290809684000.0,0.193465573913883,9.897753805378931,0.7175147173933294,-1.2544118,0.6478226,0.09132435,122.45274,-81.66142,-1.982279
2290813891000.0,0.1888297402949607,9.897955367425247,0.7163053688979494,-1.2119566,0.5833763,0.087659165,122.25192,-81.34055,-1.9971193
2290818874000.0,0.1833388063935845,9.898194108494131,0.7148729506539564,-1.1181889,0.5039638,0.07971791,122.077194,-81.04088,-2.00909
2290823834000.0,0.1778732169593428,9.898431747607448,0.7134471440133373,-0.98624194,0.42485678,0.0693332,121.92744,-80.773636,-2.0197995
2290829000000.0,0.1721806292542435,9.898679256409745,0.7119621204033699,-0.8561276,0.35277468,0.06352998,121.803856,-80.54095,-2.0279016
2290833881000.0,0.1668020925549424,9.898913110545248,0.7105590231830348,-0.7254025,0.29901853,0.057421334,121.70245,-80.35228,-2.035828
2290838898000.0,0.1612736929195411,9.899153480591924,0.7091168312644892,-0.59803706,0.10048734,0.01863139,121.66774,-80.20295,-2.044012
2290843874000.0,0.1557904725516406,9.899391886283023,0.7076864252476099,-0.21471913,-0.061086524,-0.020463986,121.64082,-80.16643,-2.0526714
2290848831000.0,0.15032818891746,9.899629381663008,0.7062614809900396,0.06811147,-0.049480084,-0.016493361,121.62201,-80.141014,-2.0582879
2290854012000.0,0.1446190722120555,9.89987760913198,0.7047721454648284,0.03390302,-0.028405234,-0.01740966,121.647385,-80.13136,-2.068552
2290858875000.0,0.1392603703131206,9.900110600867476,0.7033742225427858,0.0012217305,-0.026267206,-0.016493361,121.67295,-80.19924,-2.0768254
2290863881000.0,0.1337440919446098,9.900350443891922,0.701935192695419,-0.0070249503,-0.03390302,-0.020158553,121.694275,-80.26198,-2.0871198
2290868871000.0,0.1282454445097578,9.900589520338588,0.7005007622243122,0.0067195175,-0.03970624,-0.01985312,121.71307,-80.320305,-2.0960991
2290873835000.0,0.1227754473421014,9.900827351096348,0.6990738057396282,0.012217305,-0.030848695,-0.015577064,121.72875,-80.372475,-2.1051364
2290879844000.0,0.1161539298198518,9.901115248965688,0.6973464524929587,0.008246681,-0.034513887,-0.007941248,121.74829,-80.424416,-2.1121237
2290884129000.0,0.1114321453993426,9.901320548078704,0.696114682038311,0.014049901,-0.02565634,-0.004276057,121.760735,-80.47903,-2.1199117
2290889007000.0,0.1060569145001025,9.901554258480871,0.6947124472010245,0.015577064,-0.03176499,-0.0033597588,121.77724,-80.5301,-2.1253967
2290893848000.0,0.1007224551349485,9.901786196171914,0.6933208484213397,0.013439035,-0.03481932,-0.00030543262,121.78921,-80.580605,-2.1297746
2290898865000.0,0.0951940554995472,9.90202656621859,0.691878656502794,0.026572637,-0.036957346,0.0018325958,121.80176,-80.63429,-2.1339028
2290903879000.0,0.089668961664207,9.90226679253193,0.6904373269672972,0.02687807,-0.02565634,0.0027488936,121.81043,-80.68249,-2.1379886
2290908833000.0,0.0842099838300874,9.90250414417858,0.6890132450927756,0.024129177,-0.027794369,0.004886922,121.822525,-80.7322,-2.1404524
2290913900000.0,0.0786264875270022,9.90274690978083,0.6875566801234173,0.02076942,-0.030543262,0.009468411,121.83067,-80.78061,-2.1424875
2290918878000.0,0.0731410632923943,9.902985411294155,0.6861256991845056,0.018020526,-0.036651913,0.0033597588,121.90726,-80.854645,-2.1805332
2290923873000.0,0.0676369061907739,9.903224727296378,0.6846898314083175,0.018325957,-0.032070424,0.0030543262,121.98012,-80.92696,-2.2151346
2290929016000.0,0.0619696629528092,9.903471134143109,0.683211419401724,0.023518313,-0.024740042,0.0030543262,122.05312,-80.9972,-2.250318
2290933850000.0,0.056642917121131,9.903702736456369,0.6818218328491529,0.02076942,-0.026572637,0.009773844,122.12608,-81.06358,-2.2825837
2290938895000.0,0.0510836633518267,9.903944448014167,0.6803715920221521,0.01740966,-0.03145956,0.005192355,122.19726,-81.12821,-2.31735
2290943874000.0,0.0455971371838652,9.904182997438603,0.6789403236222241,0.02107485,-0.032986723,0.0033597588,122.26656,-81.19269,-2.348598
2290949399000.0,0.0395089554047956,9.90444770632995,0.6773521015074215,0.011301007,-0.03390302,0.004276057,122.33607,-81.25043,-2.379254
2290953970000.0,0.0344720180451346,9.904666708020873,0.6760381172021251,0.01863139,-0.030543262,0.00061086525,122.40396,-81.311455,-2.4109023
2290958827000.0,0.0291199277463217,9.904899412289698,0.6746419190461802,0.031154128,-0.035430185,0.0030543262,122.47306,-81.36996,-2.4392507
2290963902000.0,0.0235276159764071,9.905142561180844,0.6731830543886919,0.019242255,-0.040011674,0.002443461,122.54029,-81.4214,-2.46874
2290968875000.0,0.0180477014085676,9.90538082313861,0.6717535107548614,0.024129177,-0.036651913,0.0021380284,122.60541,-81.47925,-2.4966843
2290973887000.0,0.0125248114399347,9.905620953629729,0.6703127561413971,0.02107485,-0.03634648,0.005497787,122.67142,-81.530174,-2.5225635
2290978970000.0,0.0069236842031907,9.905864485809769,0.6688515917957787,0.028710667,-0.038789943,0.0018325958,122.73642,-81.58302,-2.549678
2290983835000.0,0.0015627784375484,9.906097573367486,0.6674530939517037,0.030543262,-0.043066,0.010079277,122.80011,-81.63315,-2.5715587
2290988883000.0,-0.0039997811318168,9.90633942865862,0.6660019907416542,0.019547688,-0.03176499,0.012217305,122.85933,-81.67935,-2.595899
2290993876000.0,-0.0095017343667298,9.906578648838618,0.6645666978874987,0.024129177,-0.016798794,0.0018325958,122.91775,-81.72825,-2.6206667
2290998880000.0,-0.0150158088685333,9.906818396040842,0.6631282429621644,0.02565634,-0.025350908,0.0021380284,122.97808,-81.77301,-2.640579
2291003937000.0,-0.0205882858380817,9.90706068253198,0.6616745526029687,0.022296581,-0.023518313,0.0018325958,123.03061,-81.81525,-2.6638057
2291008845000.0,-0.0259965747379321,9.907295830267495,0.6602636939351947,0.02565634,-0.015882496,0.010995574,123.08248,-81.85922,-2.683368
2291013893000.0,-0.0315591343072974,9.90753768555863,0.6588125907251452,0.028099801,-0.014966198,0.007330383,123.13521,-81.89946,-2.705699
2291019064000.0,-0.0372572316791651,9.907785433916484,0.6573261298100965,0.033292156,-0.0076358155,0.013439035,123.18225,-81.941826,-2.7225146
2291023873000.0,-0.0425564291770014,9.908015838451956,0.6559437297829317,0.0290161,-0.00580322,0.01038471,123.23011,-81.97977,-2.7421129
2291028960000.0,-0.0481619641471601,9.90825956227644,0.6544814155932484,0.03390302,0.0030543262,0.011301007,123.27258,-82.02125,-2.7587714
2291033854000.0,-0.0535548259800591,9.908494039256396,0.653074581379702,0.018325957,0.0012217305,0.018936822,123.316536,-82.05526,-2.773422
2291038898000.0,-0.0591129778160097,9.908735702903082,0.6516246280137175,0.018020526,-0.01160644,0.009773844,123.36082,-82.09188,-2.791908
2291043889000.0,-0.0646127271842153,9.908974827260858,0.6501899100815945,0.027488936,-0.015882496,0.008552114,123.40179,-82.12746,-2.8056736
2291048879000.0,-0.0701113746190674,9.90921390370752,0.6487554796104877,0.015882496,-0.021380283,0.0106901415,123.4461,-82.15572,-2.8199608
2291053963000.0,-0.0757136037891651,9.90945748379867,0.6472940278038531,0.0067195175,-0.023823744,0.012217305,123.48992,-82.185936,-2.834132
2291058845000.0,-0.0810932424218198,9.909691385845283,0.6458906431225018,0.006414085,-0.027183503,0.007330383,123.53484,-82.21401,-2.8487103
2291064934000.0,-0.0878029146123637,9.909983116603549,0.644140292994532,0.0030543262,-0.026267206,0.0106901415,123.57803,-82.23903,-2.860014
2291068896000.0,-0.092168774559635,9.910172940427532,0.6430013724481343,0.0067195175,-0.020158553,0.007330383,123.62025,-82.263794,-2.8741
2291073877000.0,-0.0976575045943038,9.910411585674192,0.6415695291261738,0.004886922,-0.025350908,0.005497787,123.6644,-82.285965,-2.885882
2291078998000.0,-0.1033005052984876,9.91065693847647,0.6400974412619378,0.004886922,-0.021685716,0.009162978,123.70341,-82.3091,-2.8970275
2291083853000.0,-0.1086503917305931,9.910889546923071,0.6387018180280253,0.0143553335,-0.025045475,0.01160644,123.745186,-82.33321,-2.9080553
2291088862000.0,-0.114169975899165,9.911129533680857,0.6372619257976098,0.003970624,-0.0143553335,0.006414085,123.78126,-82.35096,-2.9203284
2291093853000.0,-0.1196697252673707,9.911368658038633,0.6358272078654867,0.021685716,-0.016493361,0.005497787,123.82092,-82.37863,-2.9296548
2291098874000.0,-0.1252025326361867,9.911609219729751,0.6343838661028761,0.017104227,-0.0143553335,-0.00061086525,123.855965,-82.395905,-2.9419532
2291103956000.0,-0.130802557939577,9.911852703998678,0.632922989218274,0.016493361,-0.021991149,0.00061086525,123.89339,-82.4189,-2.9515338
2291109139000.0,-0.1343966745493052,9.911566503136388,0.6337832279691568,0.018325957,-0.01282817,0.0076358155,123.924706,-82.44066,-2.9613328
2291113853000.0,-0.1350812473579021,9.910653744792482,0.6374342837425887,0.013439035,-0.020463986,-0.0018325958,123.96275,-82.45813,-2.9741292
2291118884000.0,-0.1358118552917271,9.909679606644795,0.6413308602373142,0.012217305,-0.019547688,0.0030543262,124.05389,-82.478424,-3.0312328
2291123877000.0,-0.1365369448193733,9.90871282632848,0.6451980052260171,0.010995574,-0.019547688,0.010995574,124.14675,-82.49547,-3.0881906
2291129007000.0,-0.1372819296535061,9.907719519093808,0.6491712585390647,0.012217305,-0.023518313,0.004276057,124.239876,-82.510445,-3.1462302
2291134655000.0,-0.1381021390771283,9.906625912999964,0.6535457097499988,0.01863139,-0.020463986,0.0061086523,124.329475,-82.527275,-3.198288
2291138848000.0,-0.1387110516325901,9.905814034396656,0.6567932440855949,0.0143553335,-0.021991149,0.009162978,124.420715,-82.53993,-3.2500458
2291143883000.0,-0.139442240451276,9.904839121740403,0.6606929186335859,0.011911872,-0.031154128,0.014049901,124.512146,-82.554146,-3.2990773
2291148833000.0,-0.1401610854666673,9.90388066739116,0.6645267595496844,0.003970624,-0.028710667,0.0030543262,124.60011,-82.56325,-3.350599
2291153874000.0,-0.1408931456126446,9.902904592972062,0.6684310811775738,0.008552114,-0.026267206,0.007941248,124.68897,-82.5767,-3.3944664
2291158903000.0,-0.1416234631040391,9.90193084207866,0.6723261086456664,0.005192355,-0.025350908,0.009162978,124.776985,-82.58344,-3.4410257
2291163908000.0,-0.1423502952862681,9.900961738236646,0.676202547794166,0.008552114,-0.025350908,0.009162978,124.8634,-82.5928,-3.4851508
2291168853000.0,-0.1430684141955832,9.900004252023107,0.6800325161436825,0.00580322,-0.03848451,0.0067195175,124.95229,-82.59889,-3.5278234
2291173851000.0,-0.1437942298293056,9.899036503571084,0.6839035336989674,0.015271631,-0.036651913,0.0036651916,125.03588,-82.608154,-3.5697749
2291178882000.0,-0.1445248377631306,9.8980623654234,0.6878001101936929,0.0027488936,-0.034208454,0.003970624,125.1219,-82.61075,-3.609675
2291184076000.0,-0.1452791167550381,9.897056666051688,0.691822932358989,0.011911872,-0.03848451,0.008857546,125.20815,-82.62073,-3.6476207
2291188885000.0,-0.1459774855790819,9.896125513129364,0.6955475668974773,0.008552114,-0.04428773,0.004276057,125.293335,-82.62267,-3.6868515
2291193844000.0,-0.1466976375854103,9.895165316135849,0.6993883784334232,0.013133603,-0.037873644,0.010079277,125.37465,-82.63053,-3.7207127
2291198830000.0,-0.1474217105645499,9.89419989120952,0.7032501018289115,0.016493361,-0.045814894,0.0033597588,125.46113,-82.6343,-3.7575207
2291203971000.0,-0.1481682928320503,9.893204454076294,0.7072318747884391,0.016798794,-0.052839845,0.002443461,125.544044,-82.63967,-3.790035
2291208730000.0,-0.1488594005953325,9.89228298251103,0.7109177836611082,0.01038471,-0.04337143,0.00580322,125.62345,-82.64341,-3.8222764
2291213752000.0,-0.1495887015382204,9.891310587007617,0.7148073895359863,0.027183503,-0.05589417,0.009162978,125.71001,-82.652336,-3.8526576
2291218733000.0,-0.1503120484112839,9.890346130216994,0.7186652403648927,0.015882496,-0.044898596,0.005497787,125.78613,-82.65194,-3.883943
2291223728000.0,-0.1510374283813605,9.889378962646392,0.7225339343802284,0.023518313,-0.040317107,0.012217305,125.86607,-82.66186,-3.9096196
2291228748000.0,-0.151766438881818,9.88840695439726,0.7264219912284737,0.016493361,-0.05222898,0.007941248,125.94694,-82.662895,-3.938197
2291233736000.0,-0.1524908023033881,9.88744114221665,0.7302852636505948,0.026572637,-0.050396383,0.01038471,126.02106,-82.6716,-3.962497
2291238738000.0,-0.1532171988219713,9.88647261925606,0.7341593792591451,0.017104227,-0.04917465,0.016493361,126.097664,-82.67352,-3.9855378
2291243732000.0,-0.1539424335708328,9.885505645312602,0.7380272987611645,0.018020526,-0.055588737,0.009468411,126.17514,-82.67834,-4.010465
2291248730000.0,-0.1546682492045552,9.88453789686058,0.7418983163164492,0.02443461,-0.060170226,0.016798794,126.25005,-82.685135,-4.028728
2291253877000.0,-0.1554157027993469,9.883541297964506,0.7458847363558753,0.021380283,-0.06994407,0.01863139,126.32757,-82.687675,-4.049249
2291258812000.0,-0.1561323694965097,9.88258574802238,0.749706959572228,0.018020526,-0.061391957,0.016493361,126.39994,-82.69191,-4.0683603
2291263793000.0,-0.1568557163695732,9.881621291231758,0.7535648104011343,0.028099801,-0.064751714,0.009468411,126.47749,-82.69783,-4.086847
2291268791000.0,-0.1575815320032956,9.880653542779736,0.7574358279564192,0.025961773,-0.07452556,0.0106901415,126.553185,-82.70083,-4.1028237
2291274148000.0,-0.1583594820532857,9.879616282183996,0.7615848957922857,0.02107485,-0.08093964,0.006414085,126.62814,-82.70329,-4.121512
2291278925000.0,-0.1590532037984421,9.878691325330191,0.7652847459046498,0.02443461,-0.08674286,0.01740966,126.70409,-82.709656,-4.1343937
2291283794000.0,-0.1597602858953997,9.87774855477939,0.7690558512421212,0.025350908,-0.0852157,0.010079277,126.779335,-82.71044,-4.1528907
2291288796000.0,-0.160486682413983,9.876780031818802,0.7729299668506715,0.023823744,-0.086437434,0.015882496,126.85514,-82.71517,-4.1635165
2291293788000.0,-0.161211626720414,9.875813445129625,0.776796337326058,0.017715093,-0.092240654,0.011301007,126.93125,-82.71595,-4.1783295
2291298798000.0,-0.1619391850087192,9.874843373151906,0.7806766490411395,0.027794369,-0.09040806,0.017715093,127.00392,-82.72277,-4.187826
2291303848000.0,-0.1626725521456335,9.873865556088536,0.7845879412888763,0.02687807,-0.0870483,0.011911872,127.077194,-82.722694,-4.2012515
2291308842000.0,-0.1570071255950872,9.871175265484842,0.7889706130625631,0.02687807,-0.09437868,0.01160644,127.151566,-82.72696,-4.210372
2291313843000.0,-0.1498943537974495,9.868093051771252,0.7934753684601296,0.032070424,-0.0870483,0.013133603,127.21982,-82.73142,-4.2204742
2291318823000.0,-0.1428114496678283,9.865023780766718,0.7979612076682641,0.01985312,-0.08674286,0.016798794,127.36707,-82.71416,-4.2588944
2291323834000.0,-0.1356844551711352,9.86193540385834,0.8024749707750837,0.01740966,-0.09101892,0.0076358155,127.512566,-82.698456,-4.2991924
2291329058000.0,-0.1282545171845606,9.858715750900972,0.8071805980889982,0.023823744,-0.10140363,-0.0021380284,127.65831,-82.68253,-4.3370576
2291333842000.0,-0.1214503779564265,9.855767278514286,0.8114898861957685,0.03726278,-0.10170906,0.0030543262,127.80088,-82.66881,-4.3719864
2291338900000.0,-0.1142565367741727,9.852649934590405,0.8160459855360785,0.027488936,-0.0983493,0.0036651916,127.94435,-82.64892,-4.4093194
2291344164000.0,-0.1067697079913763,9.849405628853884,0.8207876436870062,0.040011674,-0.0983493,0.0018325958,128.08739,-82.63776,-4.444334
2291348875000.0,-0.1000693944663471,9.846502147789153,0.8250311755162274,0.03848451,-0.108123146,0.00061086525,128.23076,-82.62149,-4.4774156
2291354043000.0,-0.0927191035944832,9.8433170087226,0.8296863596583236,0.043982297,-0.10903945,0.0061086523,128.37004,-82.61063,-4.507986
2291358854000.0,-0.0858765630788994,9.840351895709986,0.8340199685800777,0.05100725,-0.116980694,0.0076358155,128.51279,-82.59896,-4.538177
2291363897000.0,-0.0787040559452287,9.837243796578283,0.8385625563565078,0.047036625,-0.118202426,0.010995574,128.65216,-82.58742,-4.5651565
2291368885000.0,-0.0716097736563632,9.83416959501792,0.843055601732045,0.058643065,-0.12522738,0.008857546,128.79407,-82.58031,-4.591597
2291373877000.0,-0.0645098022878754,9.83109292817964,0.8475522501912833,0.061391957,-0.13316862,0.012217305,128.9348,-82.57195,-4.6142383
2291378964000.0,-0.0572747152783608,9.827957710990871,0.852134471888428,0.06658431,-0.13927728,0.009773844,129.07571,-82.56534,-4.637795
2291383842000.0,-0.0503368826791053,9.824951304573176,0.8565284324621789,0.061391957,-0.15088372,0.0143553335,129.21857,-82.558876,-4.656853
2291390116000.0,-0.041413561291707,9.821084516163046,0.8621798692476882,0.071776666,-0.16646078,0.016187929,129.36285,-82.5561,-4.6759543
2291393891000.0,-0.0360444923982693,9.818757910130492,0.8655802794908022,0.07574729,-0.18784106,0.023518313,129.51021,-82.55257,-4.690585
2291398873000.0,-0.028958743728837,9.815687406487,0.8700679202407873,0.074830994,-0.20769419,0.015271631,129.66031,-82.54772,-4.7076683
2291403958000.0,-0.0217265012591334,9.812553421937189,0.8746483403960813,0.079107046,-0.22174409,0.0125227375,129.81271,-82.5471,-4.719669
2291408857000.0,-0.0147588009918615,9.80953407281044,0.8790612171592642,0.06994407,-0.23732115,0.0070249503,129.96976,-82.541275,-4.7331376
2291414141000.0,-0.0072435268109542,9.806277440684342,0.8838208907286984,0.058643065,-0.25625798,-0.00061086525,130.13005,-82.53496,-4.746464
2291418883000.0,-0.000499122918853,9.803354853715769,0.8880923464566048,0.03970624,-0.24617869,-0.013133603,130.28485,-82.52309,-4.7620587
2291423871000.0,0.0065951593700125,9.800280652155402,0.8925853918321419,0.015271631,-0.24556783,-0.032070424,130.44621,-82.50511,-4.779702
2291429032000.0,0.0139354943525376,9.7970998273252,0.8972342705777608,0.004276057,-0.24862215,-0.056505036,130.60434,-82.48298,-4.8014436
2291433842000.0,0.0207766125982158,9.794135330632066,0.9015669787285896,-0.021685716,-0.25167647,-0.076052725,130.76074,-82.45021,-4.825844
2291438916000.0,0.0279932100989584,9.791008125596523,0.9061374904037048,-0.029321533,-0.25289822,-0.08857546,130.91606,-82.416664,-4.8536463
2291443884000.0,0.0350590469897131,9.787946250425732,0.9106125203607354,-0.041233405,-0.25778514,-0.106901415,131.07205,-82.37287,-4.886806
2291448867000.0,0.0421462179290509,9.784875130462762,0.915101061881646,-0.034208454,-0.2593123,-0.11453723,131.22551,-82.33235,-4.9188323
2291454047000.0,0.0495135760397814,9.781682595562463,0.919767055274846,-0.028405234,-0.27580565,-0.11484267,131.38298,-82.28824,-4.9515676
2291459716000.0,0.057576424134324,9.77818868043702,0.9248735256505316,-0.03634648,-0.27458394,-0.112704635,131.53398,-82.24294,-4.9844317
2291463848000.0,0.0634532433840419,9.775642048350528,0.928595511113988,-0.04520403,-0.28588495,-0.10415252,131.69102,-82.20103,-5.0129166
2291468877000.0,0.0706058387390348,9.77254257769153,0.9331254880974634,-0.064751714,-0.2941316,-0.09773844,131.84486,-82.15624,-5.039794
2291473872000.0,0.0777100769172393,9.769464061894814,0.9376248388694778,-0.08307768,-0.2846632,-0.08032878,131.99428,-82.114586,-5.0596633
2291478950000.0,0.084932363497604,9.766334391581356,0.9421989536282944,-0.103847094,-0.27672195,-0.057421334,132.14413,-82.071556,-5.074272
2291483851000.0,0.091902908304687,9.763313809815646,0.946613631933328,-0.12003502,-0.258396,-0.037873644,132.28603,-82.02931,-5.0840774
2291488894000.0,0.0990754154383576,9.760205710683946,0.9511562197097584,-0.13683382,-0.23823744,-0.029932396,132.423,-81.98563,-5.0897527
2291493885000.0,0.1061739645369398,9.757129660165145,0.9556519673980712,-0.1591304,-0.20738874,-0.005192355,132.54898,-81.94486,-5.0849533
2291498861000.0,0.1132511795869389,9.754062854438525,0.9601342035225044,-0.16584991,-0.18173242,-0.0070249503,132.66977,-81.901566,-5.085002
2291503911000.0,0.1204336426099483,9.750950441070474,0.964683096695412,-0.17989981,-0.16493362,-0.016798794,132.78247,-81.855804,-5.0802364
2291508869000.0,0.1251023904474161,9.7502961521515,0.9624262960002804,-0.1872302,-0.13775012,-0.02687807,132.88377,-81.81074,-5.0765486
2291513853000.0,0.1265356475092836,9.752923793257729,0.950960238507612,-0.17867808,-0.122478485,-0.06811147,132.98392,-81.76005,-5.083939
2291518825000.0,0.1279654537114516,9.755545107780234,0.9395217878949425,-0.15851954,-0.100792766,-0.09773844,133.15361,-81.70148,-5.0916677
2291523805000.0,0.1293975604867527,9.758170640025224,0.928064932695607,-0.13041973,-0.07360926,-0.14385876,133.31793,-81.638,-5.1152864
2291529919000.0,0.1311557735036584,9.76139403443202,0.9139992273364228,-0.096516706,-0.061086524,-0.17501289,133.47943,-81.57941,-5.1419554
2291533845000.0,0.1322847797686848,9.763463881740018,0.90496717643028,-0.06963864,-0.049480084,-0.19914207,133.6334,-81.52032,-5.179024
2291538846000.0,0.13372292554846,9.76610048550652,0.8934620091909475,-0.047647487,-0.05009095,-0.20433442,133.78632,-81.46714,-5.2178535
2291543819000.0,0.1351530193222697,9.768722327244337,0.8820212580049446,-0.01740966,-0.048258353,-0.20647246,133.93452,-81.41964,-5.2612925
2291548810000.0,0.1365882893856286,9.771353658857738,0.870539096498944,-0.011301007,-0.059864793,-0.20586158,134.0854,-81.372505,-5.303129
2291553871000.0,0.1380436894639014,9.774021895542852,0.8588958948596195,-0.020158553,-0.06780604,-0.19608775,134.23303,-81.33115,-5.3413796
2291558843000.0,0.1394734956660694,9.77664321006536,0.8474574442469497,-0.01985312,-0.087659165,-0.1740966,134.38542,-81.29653,-5.3734417
2291563854000.0,0.1409145171622609,9.779285085984965,0.8359292712742851,-0.025350908,-0.10293079,-0.1469131,134.53679,-81.26233,-5.399483
2291568821000.0,0.1423428855062208,9.78190376443092,0.8245023235282813,-0.045814894,-0.12614368,-0.12705997,134.69408,-81.22837,-5.4189334
2291573804000.0,0.1437758549964467,9.78453087832184,0.8130385666089464,-0.064751714,-0.15485434,-0.11056661,134.85497,-81.19861,-5.4296165
2291578983000.0,0.1452651885284314,9.787261326413564,0.8011238973163042,-0.06261369,-0.1704314,-0.101098195,135.01675,-81.1721,-5.435179
2291583847000.0,0.1466639369933037,9.789825701682563,0.78993390862362,-0.05009095,-0.17623462,-0.08582657,135.18163,-81.14848,-5.4327054
2291588900000.0,0.1481170364984435,9.7924897206452,0.778309111570961,-0.018936822,-0.17501289,-0.08582657,135.34752,-81.12931,-5.430651
2291593875000.0,0.1495477054155364,9.795112616813636,0.7668637592382916,-0.005192355,-0.1695151,-0.0729984,135.51126,-81.1146,-5.4197474
2291599569000.0,0.1511851383429589,9.798114580790134,0.7537642946790515,0.0143553335,-0.15515977,-0.069027774,135.67082,-81.10709,-5.4109926
2291604011000.0,0.1524625315750648,9.800456471198212,0.7435451479329777,0.03726278,-0.14752395,-0.070554934,135.82889,-81.105,-5.3995104
2291608844000.0,0.1538523653190467,9.803004502792596,0.7324264770136226,0.055283304,-0.11911872,-0.050396383,135.97447,-81.11081,-5.3814626
2291613899000.0,0.1553060399674697,9.805669576185853,0.7207970788142973,0.06505715,-0.11209377,-0.03726278,136.12277,-81.11844,-5.364864
2291618879000.0,0.1567381467427707,9.80829510843084,0.709340223614962,0.08277224,-0.08735373,-0.02443461,136.25578,-81.135185,-5.3439746
2291623876000.0,0.1581751422359794,9.810929603336104,0.6978442586689622,0.08857546,-0.07574729,-0.013133603,136.38878,-81.15308,-5.319391
2291628969000.0,0.1596397446067843,9.813614710911146,0.6861274386829752,0.09560041,-0.06780604,-0.0036651916,136.51411,-81.1767,-5.292386
2291633853000.0,0.1610442445044891,9.81618963048635,0.674891438523627,0.101098195,-0.057421334,0.004276057,136.63391,-81.20236,-5.2631555
2291638889000.0,0.1624924552917213,9.818844686788712,0.6633057512176324,0.11453723,-0.06414085,0.013439035,136.75478,-81.232605,-5.230703
2291643888000.0,0.1639300259282132,9.821480236124597,0.6518051851249662,0.124005646,-0.0711658,0.025961773,136.87129,-81.264404,-5.195588
2291648889000.0,0.1653681717079884,9.824116839891095,0.6403000178856337,0.14630222,-0.07422013,0.025961773,136.98758,-81.30081,-5.161617
2291653934000.0,0.1668189706399952,9.826776641131252,0.6286936254196402,0.15393804,-0.08124508,0.031154128,137.1053,-81.338104,-5.1225834
2291658913000.0,0.1682507898436546,9.829401646160928,0.6172390707936382,0.15699236,-0.086437434,0.03634648,137.22221,-81.378395,-5.0839033
2291663896000.0,0.1696837593338805,9.832028760051848,0.6057753138743032,0.15302174,-0.0842994,0.039095376,137.3378,-81.418175,-5.0448637
2291669227000.0,0.1712168037553925,9.83483934487073,0.5935109574350146,0.16035213,-0.0852157,0.042760566,137.45438,-81.46117,-5.004243
2291673820000.0,0.172537620305384,9.837260844790654,0.5829444241156276,0.1554652,-0.07452556,0.049785517,137.56567,-81.500336,-4.9628143
2291678963000.0,0.1740166012582702,9.839972313131211,0.5711125754629807,0.15118915,-0.08093964,0.043676864,137.68132,-81.538605,-4.92393
2291683858000.0,0.1754242644440329,9.842553032074829,0.5598512689969672,0.15271631,-0.06658431,0.05375614,137.78607,-81.57985,-4.8800497
2291688896000.0,0.1768730503745483,9.84520914280781,0.5482609805443062,0.1554652,-0.062002823,0.062002823,137.89464,-81.61802,-4.838319
2291693890000.0,0.1783091831528321,9.847842056067142,0.5367719173183061,0.16218472,-0.047036625,0.05955936,137.99513,-81.65631,-4.7981296
2291698816000.0,0.1797257610594853,9.850439118685376,0.5254392930789635,0.16310102,-0.043066,0.06536258,138.0959,-81.69551,-4.7536077
2291703970000.0,0.1812079053004294,9.853156386394346,0.5135821381196513,0.17256944,-0.049785517,0.06658431,138.19475,-81.73602,-4.711799
2291708923000.0,0.1734473359564089,9.855093999200347,0.5061147411435026,0.1881465,-0.064446285,0.08093964,138.29315,-81.780174,-4.6650653
2291713896000.0,0.1553575298116319,9.856284117159037,0.5030204324625788,0.19853121,-0.06872234,0.09010262,138.3897,-81.82354,-4.6201816
2291718898000.0,0.137162233142383,9.857481175278751,0.4999080793513821,0.21685717,-0.08155051,0.09010262,138.53603,-81.89675,-4.5967083
2291723830000.0,0.1192215687735835,9.85866148128564,0.4968392817615337,0.23365596,-0.09040806,0.11209377,138.68077,-81.97529,-4.5644794
2291728997000.0,0.1004260673961326,9.85989802652846,0.493624262064302,0.2434298,-0.10415252,0.10751228,138.83076,-82.050186,-4.539361
2291733908000.0,0.0825617927174679,9.861073306901496,0.4905685311308581,0.26083946,-0.12308934,0.10781772,138.98318,-82.13315,-4.5064187
2291738961000.0,0.0641809782293202,9.862282570131992,0.4874244447112506,0.2660318,-0.122478485,0.105374254,139.13339,-82.212265,-4.4759994
2291743891000.0,0.0462475890691049,9.863462397507083,0.4843568915648693,0.2724459,-0.12767084,0.099265605,139.28993,-82.29312,-4.4459586
2291748873000.0,0.0281250444856987,9.86465466930885,0.4812569828883435,0.27488935,-0.13255776,0.09285152,139.44539,-82.37173,-4.416957
2291753887000.0,0.0098860965649442,9.86585459921934,0.4781371631163444,0.26725355,-0.14080444,0.09437868,139.6023,-82.447754,-4.3873396
2291758920000.0,-0.0084219658373607,9.867059076131882,0.4750055211314078,0.26725355,-0.14813483,0.07971791,139.76003,-82.52039,-4.3641634
2291763841000.0,-0.0263226165589468,9.868236749663897,0.4719435679806284,0.24495697,-0.160963,0.06719518,139.92052,-82.584785,-4.339645
2291768882000.0,-0.0446597797955888,9.86944314110362,0.4688069482218235,0.22724187,-0.18295415,0.05100725,140.08516,-82.64539,-4.3198743
2291773834000.0,-0.0626731962502311,9.87062823342846,0.4657257061973042,0.21105394,-0.20433442,0.040927973,140.25227,-82.69857,-4.301474
2291778878000.0,-0.0810212722997495,9.871835342815874,0.4625872197732986,0.20586158,-0.22418754,0.03940081,140.42416,-82.74758,-4.284416
2291785171000.0,-0.103912716110142,9.873341357759374,0.4586715784040942,0.19547687,-0.23365596,0.032375857,140.59824,-82.78789,-4.271143
2291788898000.0,-0.1174700673069214,9.874233288109671,0.4563525580031686,0.18051068,-0.23823744,0.025350908,140.77518,-82.82462,-4.257523
2291793875000.0,-0.135574423868867,9.87542436333195,0.4532557604353107,0.18051068,-0.25870144,0.023518313,140.95789,-82.861176,-4.2432942
2291798877000.0,-0.1537697205381159,9.876621421451668,0.450143407324114,0.17928895,-0.27550024,0.021380283,141.13951,-82.89199,-4.2306666
2291803890000.0,-0.1720050308545782,9.87782111204626,0.4470242097738484,0.17104226,-0.28405234,0.022296581,141.32297,-82.92066,-4.2168612
2291808873000.0,-0.1901312130422765,9.879013623163925,0.4439236788755891,0.1777618,-0.29779682,0.029321533,141.51094,-82.952484,-4.200805
2291813909000.0,-0.2084501882574579,9.88021881802416,0.4407901702254519,0.16371189,-0.29718593,0.040011674,141.69542,-82.977806,-4.1831126
2291818876000.0,-0.2265181687764822,9.881407500087462,0.4376995948749294,0.17348573,-0.31031954,0.04062254,141.88611,-83.00897,-4.165078
2291823876000.0,-0.2447061902371468,9.882604079575383,0.4345884862071998,0.16890424,-0.30604348,0.046731193,142.0695,-83.035774,-4.1425676
2291828868000.0,-0.2628651108634743,9.883798744536128,0.4314823553133387,0.15851954,-0.31856623,0.055283304,142.25961,-83.063354,-4.117989
2291833860000.0,-0.2810240314898019,9.88499340949687,0.4283762244194775,0.16065755,-0.33414328,0.05589417,142.44772,-83.091835,-4.0936637
2291838904000.0,-0.2993721075393203,9.886200518884284,0.425237737995472,0.16737708,-0.3454443,0.049785517,142.63641,-83.11872,-4.0683193
2291843880000.0,-0.3174728264969737,9.887391354790669,0.4221415626493475,0.17104226,-0.35063666,0.04520403,142.82599,-83.14517,-4.041843
2291848875000.0,-0.3356426599361777,9.888586737699102,0.4190335650902857,0.16890424,-0.36560285,0.048258353,143.01971,-83.17151,-4.0140533
2291854858000.0,-0.357406446416009,9.89001856471435,0.4153108124584805,0.183565,-0.38881573,0.052534413,143.21555,-83.20145,-3.9865375
2291858872000.0,-0.3720077900446306,9.890979178727257,0.4128132144200273,0.19272798,-0.39003745,0.05100725,143.40756,-83.2286,-3.959702
2291863908000.0,-0.3903267652598119,9.89218437358749,0.4096797057698901,0.18784106,-0.40469822,0.05131268,143.60797,-83.25627,-3.9298544
2291868879000.0,-0.4084092961960047,9.893374012914382,0.4065866415324334,0.19242255,-0.41874814,0.058337633,143.80644,-83.28847,-3.8982604
2291873876000.0,-0.4265864048437929,9.894569874454612,0.4034773995299044,0.20677789,-0.41722095,0.05467244,144.00298,-83.31942,-3.8694
2291878891000.0,-0.4448289903688395,9.895770043681,0.4003569575361718,0.22113322,-0.42180246,0.0580322,144.20288,-83.35311,-3.8357701
2291883938000.0,-0.4631879792312343,9.896977871016109,0.3972166044469656,0.22815818,-0.43463063,0.058337633,144.4029,-83.38659,-3.8036752
2291888898000.0,-0.4812304965202136,9.898164877868128,0.3941303846485778,0.23273966,-0.4361578,0.050396383,144.59909,-83.421234,-3.772998
2291893876000.0,-0.4993384906864513,9.899356192406303,0.3910329648589863,0.23304509,-0.43279803,0.03940081,144.79561,-83.45523,-3.7427425
2291898862000.0,-0.5174755856870261,9.90054942147166,0.3879305672955264,0.23426682,-0.40378192,0.026572637,144.98344,-83.488106,-3.7157218
2291903831000.0,-0.5355508414146346,9.901738582166756,0.3848387475015368,0.24373524,-0.3912592,0.014049901,145.17325,-83.520485,-3.6911395
2291908868000.0,-0.5553817331758143,9.898510918576712,0.3848674101021867,0.25045475,-0.364992,0.01282817,145.3489,-83.55159,-3.667819
2291913849000.0,-0.5769186280569476,9.88965688192093,0.3889354913847126,0.2452624,-0.3109304,0.0033597588,145.51164,-83.57804,-3.651123
2291918875000.0,-0.5986500943634274,9.880722854972134,0.3930403250578657,0.24923302,-0.28710666,-0.0009162979,145.73215,-83.5737,-3.7279618
2291923817000.0,-0.6200183606759272,9.871938143236967,0.3970765542685147,0.2519819,-0.267559,0.0018325958,145.93582,-83.56623,-3.8042243
2291928887000.0,-0.6419400745983014,9.862925903557224,0.4012173236125032,0.2443461,-0.23304509,-0.01160644,146.12631,-83.552666,-3.884792
2291933888000.0,-0.6635634456684776,9.8540363156601,0.4053017392908634,0.24373524,-0.2171626,-0.0070249503,146.31349,-83.54386,-3.957008
2291938837000.0,-0.6849619786471424,9.845239160990465,0.4093436855400544,0.2144137,-0.21319197,-0.02076942,146.49258,-83.52045,-4.0364003
2291943821000.0,-0.7065118449566321,9.836379791648485,0.4134142169819555,0.21471913,-0.19333886,-0.022907447,146.65982,-83.50574,-4.109606
2291948829000.0,-0.7281654826929733,9.827477760816892,0.4175043496988577,0.19822577,-0.15668693,-0.034208454,146.81935,-83.47634,-4.1874146
2291953910000.0,-0.7501347585193212,9.81844596795441,0.421654102960555,0.18753563,-0.10842858,-0.055588737,146.96793,-83.44581,-4.267112
2291958904000.0,-0.7717278629233324,9.80956882299176,0.4257328016003732,0.18600847,-0.06719518,-0.07452556,147.10608,-83.411964,-4.347683
2291963894000.0,-0.793303672089535,9.800698788277376,0.4298082333610246,0.17134771,-0.01985312,-0.09865474,147.22728,-83.36808,-4.434744
2291968881000.0,-0.8148665098273812,9.79183408624919,0.4338812149623007,0.19792034,0.029321533,-0.11575896,147.33453,-83.330475,-4.5237985
2291973889000.0,-0.8365201475637225,9.782932055417602,0.437971347679203,0.19853121,0.08399397,-0.13744467,147.42555,-83.279015,-4.619791
2291978861000.0,-0.8580181281597865,9.774094016820424,0.4420320784836035,0.19761491,0.13500121,-0.14874569,147.50203,-83.2316,-4.71627
2291984174000.0,-0.880990527779032,9.764649829558396,0.4463713107369783,0.19456059,0.17287487,-0.16737708,147.56581,-83.178215,-4.8194575
2291988898000.0,-0.901416203630964,9.756252626353836,0.4502294950330338,0.20250183,0.23273966,-0.17745635,147.60739,-83.12646,-4.9226356
2291994308000.0,-0.9248080127670676,9.746636015571308,0.4546479491062049,0.19700404,0.28221974,-0.18753563,147.64029,-83.06784,-5.029201
2291998872000.0,-0.9445418791066564,9.73852322229747,0.4583754582355862,0.17745635,0.3295618,-0.19547687,147.65578,-83.006645,-5.1368623
2292003949000.0,-0.9664938596951956,9.729498539683256,0.4625219446181167,0.1459968,0.36193767,-0.19547687,147.66054,-82.942055,-5.2434397
2292008874000.0,-0.9877886212470088,9.720744046503228,0.4665442895923066,0.112704635,0.3894266,-0.1881465,147.65239,-82.87394,-5.3487186
2292013835000.0,-1.0092390399390994,9.711925561088789,0.4705960364789983,0.07971791,0.40408736,-0.18478674,147.63815,-82.80005,-5.4532013
2292018831000.0,-1.0308407919620148,9.703044861002002,0.4746763685583999,0.058337633,0.42210788,-0.16676621,147.61407,-82.728134,-5.5498543
2292023810000.0,-1.052369039224244,9.694194379470355,0.4787428164013424,0.027488936,0.44318274,-0.15790866,147.58469,-82.64864,-5.6463957
2292028872000.0,-1.074256162671001,9.685196360287144,0.4828770519869971,0.011301007,0.4569272,-0.14813483,147.55151,-82.57371,-5.7357736
2292034018000.0,-1.0965064861117382,9.676049025890308,0.4870798920351558,-0.005497787,0.47067168,-0.13622294,147.5119,-82.49726,-5.8206186
2292038902000.0,-1.1176239714760134,9.667367412755029,0.4910687514978855,-0.014049901,0.4801401,-0.1282817,147.4694,-82.42248,-5.902258
2292043887000.0,-1.1391781615949554,9.65850626585098,0.4951400996595783,-0.023823744,0.4700608,-0.12522738,147.42845,-82.347824,-5.9801116
2292048871000.0,-1.1607280279044452,9.649646896508996,0.4992106311014793,-0.03573562,0.45234573,-0.12095132,147.38686,-82.27512,-6.0538406
2292053869000.0,-1.182338427546265,9.640762641298076,0.5032925966204644,-0.029321533,0.43982297,-0.11759156,147.34671,-82.20622,-6.125319
2292059054000.0,-1.2047573795556357,9.631545981980626,0.5075272887404999,-0.029321533,0.42760566,-0.12064589,147.31169,-82.1354,-6.1955266
2292064053000.0,-1.226372103006908,9.62265994920764,0.5116100709792767,-0.032986723,0.41599923,-0.12492194,147.28008,-82.067276,-6.263403
2292068887000.0,-1.2472733978985755,9.614067214175709,0.5155580944524207,-0.024740042,0.41233405,-0.12980886,147.2498,-82.00211,-6.3307843
2292073875000.0,-1.268840559445874,9.60520073458546,0.5196318927734886,-0.043676864,0.42058071,-0.13255776,147.21948,-81.93279,-6.3973455
2292078874000.0,-1.290455282897146,9.59631470181247,0.5237146750122654,-0.042455133,0.42730024,-0.1414153,147.19089,-81.86759,-6.4654613
2292083855000.0,-1.3119921777782797,9.58746066515669,0.5277827562947913,-0.04428773,0.43554693,-0.15515977,147.15967,-81.798546,-6.5345755
2292088909000.0,-1.3338447107494191,9.578476866470018,0.5319104581221124,-0.052534413,0.44593164,-0.1563815,147.12584,-81.73116,-6.6014075
2292093882000.0,-1.3553470151549356,9.569637050310773,0.5359720056463045,-0.057421334,0.45142943,-0.17134771,147.09177,-81.659515,-6.6746583
2292098867000.0,-1.3769012052738774,9.560775903406723,0.5400433538079973,-0.06352998,0.4615087,-0.18051068,147.05334,-81.58903,-6.745508
2292103884000.0,-1.398593757295288,9.551857874516532,0.544140837003025,-0.062002823,0.4615087,-0.18203785,147.01651,-81.51915,-6.8167863
2292109971000.0,-1.3887175746616474,9.532025518418928,0.5479552499775925,-0.061086524,0.47036624,-0.1863139,146.97462,-81.44721,-6.890385
2292113910000.0,-1.3697457936243314,9.516059158331093,0.5500214842356069,-0.076052725,0.4709771,-0.19242255,146.93529,-81.37387,-6.9631996
2292118889000.0,-1.3457649614880542,9.495877257626004,0.552633258891777,-0.09040806,0.4792238,-0.19425514,146.9782,-81.206024,-7.1535254
2292123838000.0,-1.321928621210401,9.475816959054104,0.5552292968056924,-0.0870483,0.48380527,-0.19242255,147.01929,-81.041664,-7.3399262
2292128873000.0,-1.297678070938026,9.455408067700397,0.5578704467140708,-0.0852157,0.4981606,-0.19700404,147.0528,-80.876396,-7.5247035
2292134136000.0,-1.2723293825401094,9.434075000134444,0.5606311958635833,-0.081855945,0.5180137,-0.21044308,147.0811,-80.713844,-7.7074175
2292138896000.0,-1.2494033409717864,9.414780795001642,0.5631280923012957,-0.09132435,0.52687126,-0.20861048,147.10583,-80.55562,-7.8829417
2292143875000.0,-1.2254225088355093,9.394598894296555,0.5657398669574657,-0.09712757,0.54000485,-0.22174409,147.12218,-80.39526,-8.062981
2292148836000.0,-1.2015283718144063,9.37448995487138,0.568342199568283,-0.10476339,0.5448918,-0.22418754,147.13597,-80.23968,-8.235375
2292153871000.0,-1.1772778215420314,9.354081063517672,0.5709833494766614,-0.12797627,0.56016344,-0.23487769,147.14159,-80.07925,-8.410417
2292159169000.0,-1.1517605593090536,9.33260612679633,0.5737624581588041,-0.16035213,0.56596667,-0.24312437,147.14668,-79.91988,-8.581357
2292163894000.0,-1.1290030915757918,9.313453790818915,0.5762409950638862,-0.20189096,0.56688297,-0.23823744,147.14699,-79.76003,-8.747937
2292168876000.0,-1.1050078102536522,9.29325972990051,0.5788543433942817,-0.2507602,0.5522222,-0.23426682,147.14868,-79.59601,-8.912972
2292173834000.0,-1.081128122418412,9.273162950688656,0.5814551023308735,-0.2919936,0.5345071,-0.2406809,147.14957,-79.42974,-9.075735
2292179999000.0,-1.0514350454712038,9.248173712318126,0.584689002864171,-0.33567044,0.49877146,-0.2434298,147.15819,-79.26207,-9.231766
2292183947000.0,-1.0324199168763009,9.23217087159033,0.5867599581448617,-0.37568212,0.46211955,-0.25289822,147.17099,-79.09011,-9.387364
2292188896000.0,-1.0085835765986475,9.212110573018434,0.5893559960587773,-0.39920044,0.4297437,-0.27091873,147.19162,-78.915955,-9.541674
2292193878000.0,-0.984588295276508,9.191916512100024,0.5919693443891727,-0.410196,0.40561453,-0.27672195,147.21869,-78.74317,-9.690741
2292198871000.0,-0.9605400336062064,9.171677863732784,0.5945884628583948,-0.41325033,0.38026363,-0.29016098,147.25446,-78.5666,-9.842419
2292203865000.0,-0.9364869555406172,9.1514351619611,0.5972081058856921,-0.42852196,0.38240165,-0.29779682,147.28745,-78.39145,-9.990477
2292209128000.0,-0.9111382671427006,9.130102094395149,0.5999688550352046,-0.44165558,0.38728857,-0.3042109,147.3255,-78.21791,-10.137618
2292213896000.0,-0.888173694412078,9.11077546202683,0.6024699479375181,-0.46211955,0.38453966,-0.29932398,147.36325,-78.04677,-10.279835
2292218879000.0,-0.8641735966946511,9.090577347703984,0.6050838208259887,-0.48808134,0.40194935,-0.29840767,147.39236,-77.87507,-10.422119
2292223872000.0,-0.8401253350243494,9.07033869933674,0.6077029392952108,-0.5140431,0.42638394,-0.2938262,147.41832,-77.70713,-10.558581
2292228960000.0,-0.8156195158017387,9.049714977547728,0.6103718907815722,-0.537256,0.4364632,-0.28496864,147.44173,-77.54168,-10.690243
2292233868000.0,-0.7919806477308715,9.029820868557856,0.6129464218144065,-0.56382865,0.44684792,-0.28130344,147.45667,-77.3763,-10.819583
2292238892000.0,-0.7677830778066584,9.009456564652982,0.6155818015839583,-0.5729916,0.4636467,-0.2733622,147.46515,-77.21772,-10.942585
2292243880000.0,-0.7437588981127942,8.989238183307938,0.6181982972628046,-0.58276546,0.4804455,-0.26267207,147.46931,-77.06107,-11.0611
2292249119000.0,-0.7185258032017766,8.968002397448537,0.6209464570185136,-0.61117065,0.50426924,-0.26328292,147.4657,-76.90371,-11.178499
2292253924000.0,-0.695383023845518,8.948525789115951,0.6234669585696075,-0.63132924,0.52595496,-0.26450464,147.45665,-76.75264,-11.290824
2292258875000.0,-0.6715370507772898,8.928457383735173,0.6260640455996733,-0.65057147,0.5546656,-0.26358834,147.4379,-76.60189,-11.401157
2292263833000.0,-0.6476573629420493,8.908360604523319,0.6286648045362653,-0.6740898,0.5717699,-0.25381452,147.41536,-76.453316,-11.507145
2292268823000.0,-0.6236235504576101,8.888134116369393,0.6312823493312619,-0.6976081,0.5751296,-0.24281894,147.38795,-76.306305,-11.610585
2292273824000.0,-0.5995367576250087,8.867863040766633,0.6339056642650852,-0.72784597,0.5510005,-0.22296582,147.36256,-76.16307,-11.706029
2292278873000.0,-0.5752187778186091,8.847397401750769,0.6365541579865157,-0.7458665,0.50854534,-0.18936823,147.34033,-76.027824,-11.791668
2292284097000.0,-0.5500579288369035,8.826222416957963,0.6392944493710975,-0.74189585,0.4633413,-0.15699236,147.32494,-75.89942,-11.868952
2292288904000.0,-0.52690551669007,8.806737701816498,0.6418160000383417,-0.7244862,0.4166101,-0.13439035,147.32109,-75.77944,-11.935983
2292293883000.0,-0.5029246845537928,8.78655580111141,0.6444277746945117,-0.691194,0.38698313,-0.1151481,147.32394,-75.672615,-11.992086
2292298824000.0,-0.4791268754384392,8.766527929775028,0.6470196161438261,-0.6612616,0.37598756,-0.09987647,147.33377,-75.5753,-12.040367
2292303869000.0,-0.4548281612131895,8.746078504376923,0.649666011632956,-0.61941737,0.3930918,-0.08460484,147.34282,-75.49224,-12.081842
2292308874000.0,-0.4631791351447091,8.747655055061207,0.6665794390059439,-0.5870415,0.42852196,-0.06780604,147.34862,-75.418755,-12.117708
2292313899000.0,-0.5190438021069885,8.781221796191577,0.7044619174079407,-0.5729916,0.47952923,-0.056505036,147.34422,-75.35331,-12.151138
2292319443000.0,-0.5806783719853721,8.818255430584964,0.7462570338777259,-0.559858,0.51068336,-0.037873644,147.45927,-75.3212,-12.130395
2292323821000.0,-0.629350115659175,8.84750024504641,0.7792619075979135,-0.5647449,0.5155703,-0.01740966,147.56572,-75.29262,-12.106548
2292328870000.0,-0.6854815989412744,8.881227304940387,0.8173253172400393,-0.573297,0.5119051,0.007330383,147.6639,-75.27184,-12.076917
2292334164000.0,-0.7443368321548678,8.91659095221286,0.8572357332918147,-0.5647449,0.45478916,0.021991149,147.77507,-75.25622,-12.042196
2292338978000.0,-0.7978557389720645,8.94874822421318,0.8935275245410113,-0.56016344,0.42180246,0.031154128,147.87889,-75.24367,-12.00293
2292343888000.0,-0.8524419110685406,8.98154677126793,0.9305430407507236,-0.5687156,0.3680463,0.070554934,148.00261,-75.24126,-11.947735
2292348838000.0,-0.9074727770313832,9.014612516262028,0.9678601090273176,-0.5543602,0.30268374,0.09682214,148.13855,-75.24283,-11.891879
2292353860000.0,-0.963304091953685,9.048159217546944,1.0057199710242983,-0.53969944,0.24373524,0.10476339,148.2864,-75.24809,-11.828334
2292359201000.0,-1.0226818404602591,9.083836822398151,1.0459847107546596,-0.539394,0.2003638,0.09987647,148.44705,-75.256386,-11.759281
2292363940000.0,-1.0753669462780189,9.115493098262196,1.0817110918784534,-0.5488624,0.17928895,0.0842994,148.61725,-75.264755,-11.689878
2292368894000.0,-1.1304422816274975,9.148585563050226,1.1190583153617353,-0.5503896,0.16432275,0.059253927,148.79753,-75.27121,-11.623308
2292373830000.0,-1.185317504737112,9.18155778876555,1.1562698404149208,-0.55771995,0.16737708,0.043676864,148.97755,-75.2737,-11.558651
2292378873000.0,-1.2413822839392563,9.215244768968626,1.1942880172470145,-0.5479461,0.17501289,0.03481932,149.15984,-75.275055,-11.498866
2292384096000.0,-1.2994481855400497,9.25013413989876,1.233663178380075,-0.537256,0.15790866,0.022602014,149.3477,-75.27145,-11.443501
2292389213000.0,-1.3563356483949718,9.284315436289628,1.2722392265358995,-0.50762904,0.14355333,0.007330383,149.53156,-75.270775,-11.391997
2292393881000.0,-1.408231422599931,9.315497435811332,1.3074303527409783,-0.4981606,0.11056661,0.0061086523,149.72398,-75.269295,-11.338275
2292398853000.0,-1.463506870189275,9.348710139672068,1.344913274654357,-0.4642576,0.09682214,0.025350908,149.91301,-75.279205,-11.283197
2292403878000.0,-1.5193715371515544,9.38227688080244,1.382795753056354,-0.43188173,0.09010262,0.048563786,150.10756,-75.29162,-11.226026
2292409145000.0,-1.5779266020053506,9.417460169465857,1.4225026214629843,-0.42302418,0.076358154,0.06414085,150.30574,-75.30864,-11.164643
2292414133000.0,-1.6333799271412413,9.45077975250233,1.460106164203116,-0.4269948,0.084910266,0.065973446,150.49725,-75.3312,-11.101572
2292418883000.0,-1.6861873237722516,9.482509507799694,1.495915472145302,-0.43004912,0.110872045,0.08277224,150.68454,-75.36195,-11.030399
2292423830000.0,-1.741184837695117,9.51555521294834,1.5332099240168795,-0.41996986,0.14935656,0.0842994,150.86476,-75.39126,-10.964413
2292428941000.0,-1.7980055964700838,9.549696429648304,1.571740739362672,-0.41599923,0.15943582,0.07696902,151.04376,-75.42019,-10.8965645
2292434945000.0,-1.864754145811681,9.589802840344174,1.6170037046015953,-0.4147775,0.18600847,0.07513642,151.20526,-75.4516,-10.82992
2292438881000.0,-1.9085120222621352,9.616095117575842,1.6466764279827415,-0.41325033,0.2049453,0.06872234,151.3653,-75.48086,-10.767262
2292443871000.0,-1.963987582091344,9.649428060509283,1.684295048326217,-0.4147775,0.21135938,0.077579886,151.51936,-75.5122,-10.701991
2292448838000.0,-2.0192074429473923,9.682607364627604,1.7217402762312355,-0.4098906,0.19242255,0.086132,151.67441,-75.54323,-10.638777
2292453944000.0,-2.075972614989064,9.71671518158515,1.7602333975686677,-0.41599923,0.1591304,0.11301007,151.82921,-75.57711,-10.568033
2292459015000.0,-2.1323486798976647,9.750589200345768,1.7984626608475782,-0.41386122,0.1133155,0.14538592,151.99115,-75.615944,-10.492355
2292463890000.0,-2.18654574486107,9.783153949203587,1.8352143189987693,-0.4184427,0.06658431,0.17654006,152.16042,-75.65696,-10.408482
2292468877000.0,-2.2419879526503013,9.81646685229158,1.8728103229372288,-0.43799037,-0.0070249503,0.20799962,152.34761,-75.70136,-10.312713
2292473837000.0,-2.2971299920797352,9.849599396770513,1.910202779230543,-0.4605924,-0.077579886,0.24281894,152.54425,-75.75029,-10.206102
2292478871000.0,-2.3530947151619475,9.883226257437236,1.9481531068475884,-0.49754974,-0.15424347,0.25686884,152.76167,-75.79343,-10.093716
2292484095000.0,-2.4111717341093994,9.918122308315857,1.987535806782321,-0.52778757,-0.20952678,0.269697,152.9898,-75.83888,-9.970732
2292489075000.0,-2.466536120472017,9.95138845176446,2.025079039109076,-0.5720753,-0.25228736,0.26511553,153.23456,-75.872,-9.846792
2292493877000.0,-2.519921619129304,9.983465564382977,2.0612803647382085,-0.63713247,-0.27550024,0.23304509,153.48817,-75.89043,-9.726487
2292498811000.0,-2.5747746075456,10.016424430201331,2.098476812188049,-0.68477994,-0.26053402,0.18661933,153.74184,-75.89849,-9.612473
2292505099000.0,-2.6446804833383983,10.05842794626656,2.145880797101832,-0.72509706,-0.22693644,0.12644911,153.99673,-75.88505,-9.512015
2292508939000.0,-2.723487962553393,10.190544841599433,2.194872813834836,-0.7431176,-0.17501289,0.03604105,154.24367,-75.85156,-9.435412
2292513899000.0,-2.9076002435215944,10.603857969269104,2.3038371713732,-0.7284568,-0.13927728,-0.06169739,154.48668,-75.80438,-9.378859
2292518786000.0,-3.0890028074513527,11.011088060987186,2.411197819617149,-0.71593404,-0.10934488,-0.18448131,154.79373,-75.5033,-9.62297
2292523817000.0,-3.1972042137947727,11.299084289609551,2.520501795918038,-0.72143185,-0.09101892,-0.32253686,155.0925,-75.19064,-9.889752
2292528889000.0,-3.2755739787512104,11.538112314133592,2.630219434123911,-0.7516697,-0.05589417,-0.39522982,155.37364,-74.875,-10.16439
2292534000000.0,-3.2401535849864675,11.711358521413787,2.8114232526190097,-0.7715228,-0.017715093,-0.5384777,155.76573,-74.4746,-10.571345
2292538899000.0,-2.9189592023722337,11.707623628641937,3.162496114432415,-0.84116143,0.05222898,-0.66889745,156.1321,-74.05865,-10.981891
2292543790000.0,-2.5982893257920714,11.703894834898902,3.512995679063843,-0.9437868,0.16279559,-0.79351395,156.58757,-73.57232,-11.474347
2292548870000.0,-2.4162497648472505,11.795731474541752,3.857151598778004,-1.0751228,0.2828306,-0.9071349,157.01434,-73.05777,-11.983584
2292553932000.0,-2.289871852228106,11.922109304684318,4.192843025824847,-1.2275337,0.37384954,-1.0125091,157.41214,-72.51123,-12.509295
2292558848000.0,-2.187964643797195,12.122913867706188,4.542092475218201,-1.4052955,0.46517387,-1.1157454,157.85426,-71.91559,-12.972281
2292563894000.0,-2.135834619201726,12.525737032460528,4.959133117348239,-1.5952746,0.5320636,-1.1795808,158.27238,-71.29198,-13.442731
2292568788000.0,-2.0870271310103243,12.954073366150444,5.351651920188053,-1.8246545,0.56199604,-1.2030991,158.7364,-70.603386,-13.886553
2292574157000.0,-2.039628581434366,13.556033886615044,5.7403192645188055,-2.044566,0.569021,-1.2195925,159.18323,-69.88646,-14.336299
2292578889000.0,-2.002814316549628,14.103104496279215,6.0575885969395245,-2.2574525,0.5589417,-1.2394456,159.69814,-69.10633,-14.766244
2292583880000.0,-2.0178434986479403,14.859574479404674,6.117705691510324,-2.403144,0.559858,-1.284955,160.20094,-68.307396,-15.197761
2292588845000.0,-2.046790060525539,15.59653010894597,6.098291542604074,-2.4541512,0.5671884,-1.3594806,160.80325,-67.46979,-15.621702
2292593825000.0,-2.145357400354296,16.258339320637734,5.685247372542072,-2.3961189,0.59223384,-1.4630222,161.39278,-66.63254,-16.056372
2292598840000.0,-2.223132393958665,16.825220785771066,5.292285817925277,-2.243097,0.605062,-1.5519031,162.13496,-65.79377,-16.541166
2292603855000.0,-2.161093495310016,16.744093294217013,5.048902296810414,-2.0503693,0.59712076,-1.611768,162.86275,-64.98727,-17.029507
2292608873000.0,-2.0526586272753344,16.5624110999044,4.808876403441682,-1.9031507,0.5403103,-1.6584991,163.74664,-64.21464,-17.608011
2292613841000.0,-1.629645728537285,15.698190453632886,4.595095669216061,-1.8127426,0.4792238,-1.6771306,164.60712,-63.491608,-18.165195
2292619002000.0,-1.1974218523452371,14.80547263654112,4.367821629618482,-1.7821994,0.42577308,-1.6578883,165.47932,-62.813404,-18.71257
2292623822000.0,-0.9007768794826324,14.046962728463352,4.078686677857317,-1.7290541,0.42332962,-1.6395624,166.3257,-62.177544,-19.238104
2292628908000.0,-0.5877610429724234,13.246593144960547,3.773595315895225,-1.6798794,0.4251622,-1.5778649,167.11163,-61.587357,-19.676134
2292633899000.0,-0.5017887211621884,12.449975849142117,3.4593044382000646,-1.5409076,0.41722095,-1.4752395,167.87004,-61.056263,-20.08038
2292638874000.0,-0.5737672112075105,11.647930367864465,3.1354012303118592,-1.3445144,0.45906523,-1.385137,168.5849,-60.573414,-20.46178
2292644474000.0,-0.9987617209394726,11.143881009468997,2.977924557092462,-1.1438452,0.54519725,-1.2721269,169.24161,-60.1536,-20.794567
2292648809000.0,-1.4149953901838097,10.854829632287412,2.908552282909395,-0.8741482,0.5696318,-1.2425,169.8838,-59.800774,-21.112906
2292653942000.0,-2.0800929530562344,10.743828758353708,2.873042,-0.77946407,0.6301075,-1.1985176,170.481,-59.437717,-21.477373
2292658858000.0,-2.8426901574572128,10.80617922371638,2.873042,-0.6282749,0.7122689,-1.1676689,171.04396,-59.152252,-21.831629
2292663846000.0,-3.560624550509819,11.127223716012084,3.111897977907855,-0.49632803,0.77274454,-1.1304061,171.66547,-58.78207,-22.326319
2292668822000.0,-4.239984554286254,11.61762279758308,3.507816480929003,-0.3912592,0.82711154,-1.1123856,172.23755,-58.448025,-22.809683
2292673813000.0,-4.541162044150588,11.943800062682351,3.7929310145882353,-0.31337386,0.86437434,-1.1206323,172.73007,-58.06064,-23.38879
2292678928000.0,-4.421292103397647,12.09133254927059,3.9589049416470585,-0.26267207,0.82711154,-1.1246029,173.20508,-57.70032,-23.940989
2292683884000.0,-4.252773166012397,12.194814765777611,4.103195745586025,-0.24404067,0.73853606,-1.1154399,173.65822,-57.286488,-24.53437
2292688837000.0,-3.994399,12.230452363636363,4.219018636363636,-0.2180789,0.61086524,-1.0998629,174.11652,-56.89388,-25.097061
2292693796000.0,-3.734297249351396,12.230107652052546,4.3249472181855495,-0.18906279,0.46181414,-1.0751228,174.62218,-56.52534,-25.594683
2292698804000.0,-3.4665367172003285,12.100165265188837,4.39582501457307,-0.14813483,0.3023783,-1.0296134,175.14803,-56.182762,-26.048712
2292703863000.0,-3.196049390492611,11.96889958325123,4.467424609605912,-0.13897185,0.13958271,-0.9737192,175.74165,-55.871468,-26.420067
2292708879000.0,-2.9420933305680426,11.67290856702084,4.614678426542706,-0.11911872,-0.03023783,-0.90469146,176.36098,-55.59385,-26.742332
2292714211000.0,-2.67602870956273,11.31293918941561,4.792054858704536,-0.11636983,-0.22968534,-0.8353582,177.01407,-55.338993,-27.014414
2292718819000.0,-2.46235635652058,10.98527132073962,4.7405576001422345,-0.12583824,-0.32284227,-0.7693848,177.71416,-55.112194,-27.222874
2292723812000.0,-2.232814400124456,10.628205907280648,4.659792751400124,-0.13469578,-0.4728097,-0.74464476,178.4685,-54.903793,-27.384605
2292728924000.0,-2.0320395155055406,10.222988671849498,4.556538553260029,-0.14538592,-0.57940567,-0.6771441,179.15503,-54.748302,-27.445686
2292733907000.0,-1.8598642592560777,9.80074951602096,4.4417551204363885,-0.1160644,-0.65576386,-0.6261369,179.86267,-54.608032,-27.485666
2292738829000.0,-1.7221685578229888,9.37952976308995,4.343717279334917,-0.06078109,-0.70829827,-0.55955255,180.56454,-54.496952,-27.472122
2292743889000.0,-1.6771279734999485,8.934128527935556,4.288667844655582,0.008857546,-0.7440339,-0.48563787,181.26434,-54.413567,-27.432638
2292748789000.0,-1.6610084069743494,8.544455560878113,4.245203553716532,0.055283304,-0.77182823,-0.42485678,181.94669,-54.344738,-27.369038
2292753887000.0,-1.70671387166261,8.233658296002622,4.222350845234975,0.09682214,-0.8026769,-0.36835176,182.62122,-54.30825,-27.280167
2292758907000.0,-1.7607169987082063,7.940937399658055,4.158808604787234,0.10598512,-0.8304713,-0.31306845,183.27432,-54.267776,-27.186062
2292763906000.0,-1.8516639272644375,7.704475468981763,3.92598443425532,0.105068825,-0.86345804,-0.27275133,183.92365,-54.246445,-27.075058
2292768880000.0,-1.9421560302127656,7.469196084468085,3.6943246174468087,0.09040806,-0.890947,-0.2321288,184.56503,-54.20635,-26.974024
2292773870000.0,-1.977570624246824,7.318694855553539,3.477835694174229,0.0720821,-0.929126,-0.19547687,185.20541,-54.17767,-26.856678
2292778883000.0,-1.9688576481306717,7.235921627940108,3.273080618974592,0.056199603,-0.97219205,-0.16493362,185.84157,-54.158474,-26.725088
2292784113000.0,-1.964669642051282,7.159817352820513,3.087071457435897,0.03970624,-1.0149527,-0.14110987,186.51863,-54.093307,-26.660555
2292788900000.0,-1.968076861791156,7.105301659093274,2.957597000587142,0.041233405,-1.0503827,-0.116980694,187.18965,-54.041782,-26.580498
2292793790000.0,-1.9715573933407653,7.049612972582683,2.8253366926718693,0.038179077,-1.0940597,-0.10934488,187.92354,-53.964973,-26.537992
2292798812000.0,-1.9232952011718385,6.974022390269054,2.6723933001781197,0.050396383,-1.1148291,-0.087659165,188.63908,-53.908646,-26.478765
2292803971000.0,-1.8445556674416423,6.886019532764601,2.5056507638511296,0.08582657,-1.1178834,-0.053450707,189.34291,-53.869305,-26.406136
2292808861000.0,-1.7492293650156046,6.799293866898219,2.3717218650156044,0.10170906,-1.1050552,-0.040011674,190.07133,-53.813305,-26.360462
2292813922000.0,-1.6321209941910804,6.706583103050438,2.25461349419108,0.13439035,-1.0720685,-0.014049901,190.77036,-53.78703,-26.298733
2292818882000.0,-1.5243660233658538,6.579210308243902,2.197592231804878,0.18845193,-1.0494665,0.01740966,191.45615,-53.78415,-26.229015
2292823836000.0,-1.422536094214634,6.421836614409756,2.1883349699121952,0.24678956,-0.9841039,0.0290161,192.10374,-53.798145,-26.161695
2292829819000.0,-1.2358542511375947,6.307069170097508,2.2339381068255686,0.27550024,-0.90194255,0.056505036,192.73845,-53.8349,-26.081743
2292833927000.0,-1.0744937151214984,6.26749032905123,2.294828890728989,0.34147367,-0.8081747,0.0852157,193.33588,-53.899803,-26.003109
2292838812000.0,-0.8826129414022598,6.220425421916112,2.3672367484135584,0.39584067,-0.7305948,0.11759156,193.92262,-53.966267,-25.92297
2292843816000.0,-0.7709740631552369,6.2369999313806685,2.4703171864256137,0.44257188,-0.6020077,0.15088372,194.4524,-54.056026,-25.84882
2292848814000.0,-0.669452774982325,6.261171553681447,2.5766728697303303,0.48808134,-0.50701815,0.18997909,194.95424,-54.169003,-25.766073
2292853930000.0,-0.5716905994520548,6.331124346339159,2.5984678164383563,0.5308419,-0.41599923,0.2302962,195.38434,-54.335888,-25.618002
2292858810000.0,-0.4789715353424657,6.4017673369863015,2.6117133397260277,0.56382865,-0.35094208,0.27275133,195.78468,-54.519917,-25.466862
2292863853000.0,-0.38239685506111,6.53625988625526,2.656977662011621,0.58246,-0.26633725,0.3100141,196.12788,-54.73693,-25.279995
2292868791000.0,-0.2876457620997796,6.683124178541375,2.7090906783009414,0.5992588,-0.20769419,0.35185838,196.45203,-54.969284,-25.086517
2292873815000.0,-0.233514391315647,6.824177366702761,2.7232766903086083,0.59620446,-0.17867808,0.39095375,196.7537,-55.22867,-24.86233
2292878910000.0,-0.189484580126331,6.965072506885039,2.727679759700415,0.5891795,-0.16249016,0.4334089,197.03624,-55.49812,-24.63371
2292883888000.0,-0.1540266338517256,7.111578558521517,2.720212031369834,0.58032197,-0.15302174,0.4792238,197.3054,-55.79962,-24.363398
2292888851000.0,-0.1236497539071154,7.263463169706007,2.705023549105241,0.573297,-0.16371189,0.52381694,197.57085,-56.105804,-24.084724
2292893831000.0,-0.1183032977585692,7.395025569915549,2.697277885772479,0.55955255,-0.17654006,0.5693264,197.8338,-56.43413,-23.777472
2292898901000.0,-0.1231273838688524,7.520451677814208,2.6924538046994533,0.5546656,-0.20616703,0.6169739,198.09935,-56.768806,-23.458569
2292903938000.0,-0.1526572752624693,7.592706856713001,2.679819192951758,0.5500842,-0.21960606,0.6563747,198.3759,-57.116066,-23.127846
2292908869000.0,-0.1912698920948487,7.642903307784137,2.6643741558953398,0.54061574,-0.26053402,0.70402217,198.6622,-57.468708,-22.780375
2292913796000.0,-0.253094749079816,7.687633633326666,2.6551203696139227,0.5479461,-0.28099802,0.754724,198.95341,-57.83384,-22.425722
2292918879000.0,-0.3894229647029406,7.716846902280456,2.664858092038408,0.53786683,-0.31398472,0.77182823,199.25839,-58.191864,-22.066406
2292923785000.0,-0.5214896512496325,7.728936556306968,2.668507808615113,0.54428095,-0.33750305,0.8164214,199.57549,-58.55613,-21.70659
2292928952000.0,-0.6621362470988925,7.690137516338332,2.6539581686268745,0.54153204,-0.3622431,0.86193085,199.89986,-58.915768,-21.343292
2292934876000.0,-0.8250599692844285,7.640296411071107,2.641688063928893,0.5381723,-0.35796702,0.91904676,200.24393,-59.249237,-21.01117
2292938920000.0,-0.9383524836858684,7.599627214671467,2.6387831603285328,0.54061574,-0.3585779,0.93218035,200.59474,-59.58015,-20.679838
2292943870000.0,-1.0770265554680467,7.549846670117012,2.635227454882988,0.5494733,-0.33750305,0.9462303,200.96317,-59.876534,-20.38871
2292948813000.0,-1.239799522607385,7.490726290881688,2.638507802373776,0.5497787,-0.32711834,0.9584476,201.33032,-60.171955,-20.096453
2292953928000.0,-1.4289856223624715,7.421511899397136,2.64773633972306,0.5696318,-0.29626966,0.95081174,201.68365,-60.46997,-19.813509
2292958843000.0,-1.679171640304327,7.389515994179743,2.6527755,0.5656612,-0.26145032,0.9398162,202.05582,-60.716496,-19.593962
2292963872000.0,-2.0272738071707086,7.4032568578602,2.6527755,0.58246,-0.22785273,0.9193522,202.41669,-60.967834,-19.382702
2292968854000.0,-2.295075747406192,7.448986369940537,2.62894637762969,0.6001751,-0.19883664,0.88361657,202.77272,-61.171696,-19.228737
2292973811000.0,-2.4021486244720114,7.560926244474062,2.5559420762764,0.6203337,-0.17806722,0.8585711,203.11703,-61.378395,-19.078812
2292978858000.0,-2.475468756020806,7.666834542262679,2.5013688732986563,0.63804877,-0.14813483,0.80664754,203.4255,-61.539692,-19.007977
2292983877000.0,-2.4879696556827047,7.758507980494148,2.480534040528825,0.6618725,-0.105374254,0.7486154,203.72305,-61.701035,-18.94583
2292988990000.0,-2.494244575876912,7.854824521018408,2.4673569181884787,0.677755,-0.06536258,0.6973027,204.00398,-61.86339,-18.904078
2292993821000.0,-2.439161574933602,7.973464749061269,2.530914366507922,0.68875057,-0.019242255,0.6579019,204.27223,-62.020626,-18.875488
2292998789000.0,-2.3825165017217698,8.09546943813536,2.5962742098635405,0.68416905,0.0018325958,0.6087272,204.53625,-62.17714,-18.853464
2293004396000.0,-2.2862385396663263,8.184217211780728,2.6654434836567926,0.6740898,0.011301007,0.55680364,204.79182,-62.32585,-18.841814
2293008941000.0,-2.204728057797072,8.250907387980932,2.7210187594484165,0.6591236,0.0070249503,0.51068336,205.04665,-62.463493,-18.837973
2293013835000.0,-2.0762417614447344,8.305966600522193,2.7681249837539887,0.6264423,0.005192355,0.47861293,205.29047,-62.607464,-18.815365
2293018816000.0,-1.9101770710762984,8.34748360400348,2.805028264336137,0.6178902,-0.009162978,0.46609017,205.53867,-62.74744,-18.794306
2293023810000.0,-1.74853055602426,8.376051807730606,2.846871638544401,0.58551437,-0.021991149,0.45265114,205.78627,-62.889175,-18.755339
2293028857000.0,-1.5910190633384629,8.389177571286323,2.895000199692224,0.58123827,-0.028710667,0.4474588,206.03339,-63.033337,-18.713785
2293033930000.0,-1.4257705207876117,8.382949216490617,2.9503912371038865,0.56291234,-0.060170226,0.4578435,206.2823,-63.19865,-18.627878
2293038830000.0,-1.2477093147574607,8.325198965234335,3.022578171777253,0.55741453,-0.08552113,0.4700608,206.52881,-63.363792,-18.541494
2293043818000.0,-1.080186720658212,8.26602613876952,3.0860956520804947,0.56596667,-0.12370021,0.50854534,206.77367,-63.56213,-18.404142
2293048803000.0,-0.9450865851378264,8.205981994025782,3.1261253431506133,0.569021,-0.17623462,0.54305923,207.0264,-63.75799,-18.26124
2293053871000.0,-0.8718281207066223,8.159100427524972,3.115356922878284,0.58551437,-0.21655174,0.6017023,207.25081,-63.999405,-18.059036
2293059131000.0,-0.8979189855974843,8.133009426415095,3.0221752542138365,0.589485,-0.26175576,0.64751714,207.48828,-64.239685,-17.848558
2293063859000.0,-0.9213710025564188,8.109557287014429,2.938418043292638,0.61544675,-0.31490102,0.7122689,207.71313,-64.51972,-17.586548
2293068898000.0,-1.0232677146513725,8.061556372640753,2.7934525087557605,0.6273586,-0.34788775,0.7770206,207.94011,-64.8022,-17.314356
2293073975000.0,-1.1596532936986574,8.003105617271089,2.622970592165899,0.6417139,-0.37048978,0.82558435,208.174,-65.095215,-17.03001
2293078857000.0,-1.344705831734151,7.9478962643971505,2.4948276964469294,0.66156703,-0.35460728,0.8536842,208.40793,-65.397545,-16.749659
2293084242000.0,-1.5725878722698168,7.887437851059609,2.3692599274866986,0.6899723,-0.33322698,0.86254174,208.64339,-65.70546,-16.464869
2293088879000.0,-1.7861987644664583,7.845082622526112,2.3076009377193927,0.71776664,-0.28680122,0.8588765,208.88643,-65.99861,-16.223108
2293093886000.0,-2.0340346433939915,7.808940029460536,2.2869480196941963,0.7535023,-0.23671028,0.83016586,209.12273,-66.292114,-15.991355
2293098813000.0,-2.21287635119892,7.790559460655184,2.3164907938872004,0.7837401,-0.18692477,0.7690793,209.3172,-66.56954,-15.805974
2293103875000.0,-2.3561321906281663,7.7823732441742655,2.377886178064843,0.8023715,-0.15271631,0.6963864,209.50565,-66.83964,-15.63671
2293108863000.0,-2.4678529400693843,7.768430659540329,2.430868481895057,0.82711154,-0.14905111,0.60903263,209.66466,-67.07766,-15.519682
2293113906000.0,-2.4940323646140503,7.737015459431917,2.462283846021249,0.8323039,-0.14996742,0.5225952,209.82184,-67.29709,-15.425244
2293118814000.0,-2.471033065831843,7.678911576565295,2.47848847039356,0.82802784,-0.13500121,0.47739118,209.952,-67.48609,-15.368606
2293123835000.0,-2.375455321824687,7.578554750745378,2.473709538282648,0.8323039,-0.12767084,0.3921755,210.09486,-67.649284,-15.344589
2293128865000.0,-2.275627370525568,7.517793,2.4857050595170453,0.8258898,-0.12614368,0.31429017,210.2274,-67.79442,-15.332401
2293134093000.0,-2.165393468167613,7.517793,2.5248203762784094,0.82650065,-0.103847094,0.24862215,210.35704,-67.92422,-15.340423
2293138902000.0,-2.063994302819602,7.517793,2.5608007814630684,0.820392,-0.09682214,0.19700404,210.49287,-68.04419,-15.349003
2293143865000.0,-1.8699118122511484,7.551935217457887,2.604612848851455,0.8249735,-0.099265605,0.16310102,210.62756,-68.15425,-15.369203
2293148827000.0,-1.6127840624196017,7.610152977947933,2.653127480398162,0.83077675,-0.09712757,0.14721853,210.76009,-68.2543,-15.396658
2293153916000.0,-1.3784788700592152,7.677600549037749,2.730841335510733,0.8347474,-0.116980694,0.15943582,210.89693,-68.37124,-15.395318
2293158882000.0,-1.1672646162102147,7.748005361584012,2.823247577313101,0.8359691,-0.19028452,0.172264,211.0483,-68.48353,-15.391999
2293163824000.0,-0.9574989606168446,7.785944,2.856660308185053,0.82436264,-0.26083946,0.18020524,211.20328,-68.63454,-15.335546
2293168822000.0,-0.7458673201768575,7.785944,2.820528050598512,0.8167268,-0.33353242,0.1994475,211.3768,-68.78919,-15.266182
2293173806000.0,-0.612196037469537,7.728082449228269,2.692595825792039,0.80848014,-0.39706242,0.24312437,211.55258,-68.98579,-15.136392
2293178870000.0,-0.5294636182916328,7.629591392721365,2.499553636417547,0.7858781,-0.45723262,0.29718593,211.74501,-69.18137,-14.994571
2293183817000.0,-0.45968673,7.5465236,2.336741,0.77457714,-0.52748215,0.34788775,211.94675,-69.42502,-14.798458
2293189593000.0,-0.45968673,7.5465236,2.336741,0.77274454,-0.59681535,0.3912592,212.16121,-69.67213,-14.588041
2293193828000.0,-0.4901368371591355,7.535776511277014,2.2659892671119843,0.763887,-0.6637051,0.42424592,212.39267,-69.95759,-14.348428
2293198817000.0,-0.6177969922994107,7.490720019143419,1.969367086121808,0.77091193,-0.7125743,0.45020768,212.63556,-70.24934,-14.098769
2293205807000.0,-0.8174086360294117,7.4130117235294115,1.5674979191176472,0.7651087,-0.73273283,0.45814893,212.8758,-70.54486,-13.846597
2293209004000.0,-1.0486184556150635,7.279153358942766,1.476230907223768,0.7654142,-0.7119634,0.47036624,213.11531,-70.84503,-13.589464
2293213864000.0,-1.400097881072138,7.075665197575517,1.3374890624304452,0.77213365,-0.6921103,0.464563,213.3592,-71.1601,-13.362959
2293218887000.0,-1.578664261474715,6.975897824992937,1.317832350974668,0.784351,-0.6160576,0.4288274,213.58215,-71.46817,-13.149611
2293223886000.0,-1.673340209021565,6.926305758385912,1.353899342744138,0.81031275,-0.53969944,0.3753767,213.80078,-71.770966,-12.947099
2293228881000.0,-1.7212579253012048,6.946934827409638,1.4816358780120482,0.8402451,-0.46609017,0.29993483,213.9571,-72.02759,-12.821384
2293233880000.0,-1.7336179312908775,7.021094820327022,1.679396102908778,0.8753699,-0.39950588,0.22510384,214.09766,-72.274506,-12.715898
2293238834000.0,-1.725908825027251,7.130908503684325,1.9023271446915195,0.90377516,-0.3268129,0.14172074,214.20453,-72.48678,-12.656287
2293243811000.0,-1.653171440233268,7.359511759537824,2.214058832559407,0.91813046,-0.267559,0.08155051,214.29997,-72.68706,-12.613964
2293248789000.0,-1.480092594947578,7.617542102030524,2.5536451379163903,0.93615097,-0.20372356,0.02565634,214.36833,-72.85053,-12.604405
2293253886000.0,-1.1432279551055076,7.928494412368945,2.9455742009024557,0.9407325,-0.14446963,-0.03268129,214.42511,-72.99583,-12.614178
2293260089000.0,-0.7332669268652953,8.306920384711347,3.42254810274718,0.9324858,-0.063224554,-0.08368854,214.4503,-73.12132,-12.628775
2293263824000.0,-0.61291564,8.418014,3.5625722,0.890947,0.03359759,-0.118202426,214.45695,-73.22792,-12.657547
2293268889000.0,-0.61291564,8.418014,3.5625722,0.8338311,0.15577064,-0.15454891,214.43674,-73.31429,-12.704933
2293273811000.0,-0.3893497763072043,8.79445932729195,3.738465889873131,0.75625116,0.2706133,-0.17470746,214.41614,-73.413124,-12.672325
2293280451000.0,0.2637418800589035,9.894150032623472,4.252295234685093,0.68477994,0.3827071,-0.18051068,214.36316,-73.49531,-12.652095
2293285096000.0,0.6997451405054527,10.698060802146443,4.588337995620565,0.63285637,0.49327368,-0.20250183,214.27393,-73.56125,-12.649338
2293288934000.0,0.823812626138134,11.754224987709884,4.601062855720962,0.6160576,0.61575216,-0.2284636,214.1509,-73.61637,-12.655467
2293293930000.0,0.9853137095724424,13.129054657088451,4.617627056101783,0.625526,0.70066243,-0.2507602,214.05908,-73.75684,-12.53258
2293298822000.0,1.30905396118428,14.518644906332314,4.40216359191866,0.6123924,0.72418076,-0.25992316,213.94997,-73.882805,-12.419498
2293303793000.0,1.8006162535665369,15.973267610262354,3.9557447988831527,0.5384777,0.70738196,-0.27458394,213.82954,-73.98892,-12.319306
2293308732000.0,2.3672544425667223,16.759433328815682,3.274049830212677,0.40439278,0.63316184,-0.26633725,213.749,-74.19131,-12.127453
2293313738000.0,2.997011382329024,17.08930639178482,2.414381746017515,0.31764993,0.589485,-0.2510656,213.6627,-74.3763,-11.947977
2293318734000.0,3.521307450114485,17.00387612284719,1.6801533456844202,0.16401732,0.6123924,-0.20952678,213.6133,-74.69924,-11.647813
2293323732000.0,3.9930468520657048,16.708442825286212,1.0082819330014934,0.04886922,0.6569856,-0.13561209,213.56262,-75.00171,-11.352034
2293328771000.0,4.218543817108363,16.195598045053003,0.5486557458663133,-0.04886922,0.6377433,-0.035124753,213.53772,-75.444496,-10.949232
2293333763000.0,4.312394348085983,15.57618580477032,0.2061015768015311,-0.112399206,0.5714644,0.086437434,213.50517,-75.86474,-10.542327
2293338737000.0,4.087513984613102,14.850585802691471,0.003480664455373,-0.15485434,0.48808134,0.23335053,213.48639,-76.37989,-10.056147
2293343723000.0,3.66699678716604,14.056800393627547,-0.114642132651692,-0.1731803,0.42943826,0.3924809,213.47198,-76.88819,-9.551861
2293348765000.0,2.987533344382993,13.411905027652956,-0.0756486672727272,-0.18203785,0.43218717,0.5170974,213.45232,-77.41522,-9.031562
2293353830000.0,2.1324235581749047,12.871173821292777,0.07106136,-0.1685988,0.42058071,0.593761,213.45009,-77.94226,-8.4942665
2293358793000.0,1.1849904916725549,12.460912361057838,0.2318617684304027,-0.12034045,0.45478916,0.59406644,213.41106,-78.413605,-8.035544
2293363785000.0,-0.0310658479660845,12.335445719693146,0.4345378149591198,-0.08093964,0.5540548,0.5381723,213.36087,-78.87352,-7.5853424
2293368775000.0,-1.2286266963374028,12.345459772475028,0.6802615209766926,-0.04795292,0.6954701,0.45478916,213.26445,-79.19643,-7.3214293
2293373805000.0,-2.3951205928160637,12.661385490364244,1.0253493122187467,-0.0290161,0.8668178,0.3323107,213.14256,-79.49695,-7.0954676
2293378815000.0,-3.38925075064574,13.020313558026906,1.3979131877399102,-0.009773844,1.0198395,0.19822577,212.951,-79.63753,-7.0793724
2293383804000.0,-4.044868574475336,13.46596235910314,1.826421619336323,-0.01863139,1.0931433,0.048563786,212.7457,-79.742325,-7.105532
2293388781000.0,-4.638690731295543,13.917764547837608,2.24520884184726,-0.035430185,1.1129965,-0.0711658,212.4625,-79.68966,-7.3097315
2293393758000.0,-4.674775841724236,14.43648645008044,2.5835057100406926,-0.08002335,1.0864239,-0.13988814,212.18062,-79.60392,-7.5365124
2293399078000.0,-4.672229940475169,14.977025945278326,2.9388033369499955,-0.13805555,1.0213667,-0.18142697,211.87605,-79.38745,-7.8711777
2293403817000.0,-3.800274670297624,15.163873590273608,3.12175820581525,-0.19486602,0.93767816,-0.21135938,211.59029,-79.15015,-8.209861
2293408873000.0,-2.8699927867741657,15.363219801097864,3.3169512459044515,-0.23365596,0.70280045,-0.21471913,211.35336,-78.89565,-8.528909
2293413761000.0,-2.1338007136892125,14.722611122940046,3.0293683522899606,-0.29016098,0.45265114,-0.21013765,211.14888,-78.62707,-8.840229
2293418772000.0,-1.4642492942068546,13.6309512714589,2.485964082893539,-0.36926803,0.17989981,-0.20311269,211.02002,-78.352936,-9.132729
2293423754000.0,-1.008785865068746,12.52647528670296,1.879899594468026,-0.4541783,-0.058948494,-0.16035213,210.9756,-78.19187,-9.253153
2293428818000.0,-0.6507757145473839,11.394267783519425,1.231006265280982,-0.49754974,-0.22693644,-0.079107046,210.98672,-78.03887,-9.349874
2293433856000.0,-0.4158238483398211,10.524936777064704,0.5780340893119411,-0.49602258,-0.32925636,0.043676864,211.05203,-77.98513,-9.353556
2293438795000.0,-0.2963923434665965,9.907874069437138,-0.0688865179168858,-0.45142943,-0.37873647,0.15363261,211.14528,-77.94853,-9.332993
2293443775000.0,-0.3221774075022592,9.68390684691849,-0.51640329949756,-0.36651915,-0.37018433,0.22143865,211.24411,-78.00745,-9.268204
2293448773000.0,-0.4432886083752033,9.718510296222664,-0.8321575093547804,-0.21533,-0.35277468,0.27947086,211.34955,-78.10904,-9.174143
2293453867000.0,-0.6247553006506777,9.787287217935347,-1.0519607793326382,-0.06261369,-0.28802297,0.31581733,211.43367,-78.28714,-9.060959
2293458921000.0,-0.8905664552589503,9.905051390684742,-1.119254762982273,0.09621128,-0.2180789,0.3304781,211.51154,-78.50002,-8.938948
2293464045000.0,-1.1600592048063956,10.024446646159197,-1.1874807962669447,0.25503623,-0.1142318,0.30024028,211.54813,-78.75743,-8.830567
2293468789000.0,-1.4458252322580647,10.208912161290325,-1.2162545,0.39614612,0.06566802,0.2180789,211.54825,-79.024956,-8.738008
2293473869000.0,-1.7843147622119817,10.472670287250384,-1.2162545,0.54153204,0.24953845,0.12308934,211.52359,-79.302155,-8.660875
2293479002000.0,-1.994238563653172,10.74547570130698,-1.0842948294935288,0.6704246,0.4092797,0.031154128,211.43718,-79.54369,-8.652212
2293483830000.0,-1.9470731744788012,11.013729046541282,-0.7158151943256614,0.7791586,0.49021935,-0.05589417,211.32916,-79.767456,-8.669753
2293488904000.0,-1.897504577819573,11.295650644246097,-0.3285604990394645,0.88147855,0.52687126,-0.1282817,211.17499,-79.937645,-8.744685
2293493821000.0,-1.8153760844850788,11.509777209609751,0.0246792472342278,0.93676186,0.49968776,-0.15424347,211.023,-80.084045,-8.827105
2293498877000.0,-1.5662411541914034,11.444618725005936,0.2814798803747328,0.9718866,0.4098906,-0.1441642,210.88535,-80.208694,-8.914363
2293504008000.0,-1.3134105910314255,11.37849368851421,0.542089858350194,0.958753,0.35796702,-0.12767084,210.74902,-80.29278,-8.989715
2293508889000.0,-1.1413589198788376,11.153779207824211,0.7392431437139336,0.9575313,0.27763826,-0.08399397,210.65085,-80.37555,-9.048127
2293514728000.0,-0.9748479548310915,10.792048391415957,0.9459464236944244,0.89766645,0.23151793,-0.044593163,210.56186,-80.44003,-9.099164
2293518818000.0,-0.9843067963953592,10.535828325391906,0.955423677663626,0.8231409,0.19639318,-0.0018325958,210.49475,-80.53212,-9.094519
2293523813000.0,-1.0224367710211673,10.222315210521655,0.938477019816668,0.74372846,0.19211712,0.037873644,210.4352,-80.61988,-9.077908
2293528957000.0,-1.07761132290368,9.9201099018701,0.9087066586064748,0.67011917,0.16798794,0.06994407,210.38684,-80.71366,-9.03632
2293533885000.0,-1.1487874287552786,9.654385859239897,0.8660010000502715,0.61850107,0.14263703,0.093462385,210.34302,-80.806564,-8.98592
2293538804000.0,-1.169055715124521,9.456415907183908,0.7381048676072797,0.57543504,0.11728613,0.1151481,210.30002,-80.88658,-8.940685
2293543884000.0,-1.1271158871551723,9.335256447413792,0.5004459527413794,0.5626069,0.13103059,0.14294247,210.25558,-80.969604,-8.88745
2293548913000.0,-0.9927024979880976,9.190687988481471,0.1458417738817431,0.53878313,0.1563815,0.16157386,210.2041,-81.03667,-8.846194
2293553853000.0,-0.7111528170128624,9.009043173737762,-0.3945519435496256,0.5308419,0.17379116,0.1966986,210.15337,-81.11282,-8.792767
2293558814000.0,-0.4745890307408509,8.860549507438263,-0.8195991454805118,0.54336464,0.20250183,0.22235495,210.0989,-81.19561,-8.7346115
2293563913000.0,-0.3535136272042051,8.797590283844094,-0.9455175572696618,0.55924714,0.21502456,0.23823744,210.04726,-81.28068,-8.669894
2293568796000.0,-0.2632756148088134,8.770263968530777,-0.9916389986661396,0.59437186,0.20799962,0.25625798,210.01563,-81.42306,-8.550966
2293573871000.0,-0.2440671133761486,8.83749380377433,-0.8235646863452228,0.63438356,0.1957823,0.26297748,209.98682,-81.55833,-8.43183
2293578874000.0,-0.2439275224584717,8.915445251384273,-0.6524531082945736,0.68508536,0.14874569,0.2687807,209.97923,-81.70351,-8.295689
2293584715000.0,-0.3100043039202658,9.047598469324472,-0.4335737529922481,0.7199047,0.09315695,0.26542094,209.98285,-98.163284,-8.161406
2293588897000.0,-0.3573135146843854,9.14221664385382,-0.2768619803720931,0.7452556,0.04734206,0.27030787,209.9981,-98.03847,-8.025636
2293593822000.0,-0.459551280499168,9.26230166888519,-0.0385781137853577,0.73884153,0.01863139,0.26450464,210.02855,-97.92829,-7.895097
2293598869000.0,-0.6053177519717138,9.392989367096504,0.2529547819228369,0.71593404,0.019547688,0.25167647,210.06737,-97.82916,-7.766306
2293603864000.0,-0.7357219678331213,9.437380300672604,0.4977084441447009,0.67164636,0.02321288,0.24617869,210.10364,-97.74843,-7.652815
2293608927000.0,-0.8591219164470096,9.42856583948373,0.7180655284402837,0.6417139,0.028405234,0.2302962,210.14168,-97.68106,-7.547081
2293613874000.0,-0.9603666130567228,9.40891717710084,0.8888363281092437,0.5946773,0.027488936,0.20097467,210.16586,-97.63313,-7.467773
2293618881000.0,-1.0359197974107144,9.373659376785714,0.9996476546428572,0.5448918,0.025961773,0.1704314,210.19025,-97.59153,-7.394468
2293623809000.0,-1.0668787835327909,9.3775274343386,1.0210149454619435,0.5012149,0.043676864,0.14996742,210.18907,-97.57738,-7.354876
2293628862000.0,-1.055296310962183,9.419996177916069,0.9553808777884156,0.44532076,0.0693332,0.1301143,210.1867,-97.56834,-7.324256
2293634139000.0,-1.0401416729066564,9.467746947583326,0.882649504168645,0.39064834,0.10140363,0.111177474,210.16356,-97.568634,-7.3092713
2293638890000.0,-0.9796543554306334,9.562798527680185,0.7530338599544203,0.34513888,0.14660765,0.11453723,210.13008,-97.565025,-7.2935624
2293644910000.0,-0.9006557909768356,9.675818537923863,0.5930185042643407,0.2919936,0.1966986,0.11209377,210.08757,-97.56728,-7.2834864
2293648921000.0,-0.8318677503541101,9.700227225752412,0.5153545893755416,0.25473082,0.23182335,0.113926366,210.03752,-97.565346,-7.2713614
2293654585000.0,-0.7347310108659234,9.73469514095084,0.4056840797943504,0.20708331,0.23365596,0.113926366,209.9797,-97.55376,-7.2452917
2293658853000.0,-0.6615354592883138,9.760667786089767,0.3230439429842297,0.18387043,0.22021692,0.12308934,209.91817,-97.53885,-7.2168255
2293663870000.0,-0.6025941518204911,9.739583035986453,0.2725740953739768,0.16249016,0.1853976,0.1423316,209.86409,-97.518196,-7.1867065
2293668887000.0,-0.5788622974682472,9.651436130186283,0.2827448911078182,0.16401732,0.14752395,0.15790866,209.81642,-97.49686,-7.1562567
2293673813000.0,-0.5555608993141405,9.564888062023709,0.2927312055955405,0.14355333,0.101098195,0.16279559,209.78966,-97.45656,-7.0997777
2293678873000.0,-0.6078440109583998,9.52007071800221,0.3216674243833599,0.13622294,0.057726767,0.183565,209.77487,-97.41032,-7.036116
2293684042000.0,-0.7141507851515523,9.5048840450362,0.3641901340606209,0.12522738,0.024740042,0.19486602,209.7716,-97.36458,-6.975587
2293688896000.0,-0.8139792010798871,9.490622851270096,0.4041215004319548,0.11301007,0.0021380284,0.18997909,209.7743,-97.316574,-6.9124103
2293693900000.0,-0.944178936885246,9.500323467213116,0.4730314579234972,0.10720685,-0.01740966,0.18692477,209.78656,-97.266106,-6.847294
2293698907000.0,-1.1255827678751578,9.555752472572513,0.5939673452501051,0.10567969,-0.018020526,0.17715092,209.80032,-97.21942,-6.78689
2293703764000.0,-1.2927238945691906,9.592655091383811,0.7339634950913838,0.086437434,-0.017104227,0.1740966,209.81284,-97.19619,-6.758019
2293708765000.0,-1.4527860311436032,9.607660702872064,0.909031504302872,0.07360926,-0.0076358155,0.15302174,209.82281,-97.18138,-6.7375736
2293713760000.0,-1.5589222102194926,9.610271754430125,1.080729927919855,0.06078109,0.01282817,0.13561209,209.81664,-97.187515,-6.74712
2293718755000.0,-1.611902252053967,9.60063933044704,1.2493027791582765,0.041233405,0.029932396,0.112399206,209.80824,-97.198944,-6.764202
2293723723000.0,-1.6223573801255042,9.604690394352309,1.3944646622680412,0.016187929,0.037873644,0.103847094,209.7792,-97.224846,-6.806813
2293728823000.0,-1.5917081860421336,9.62220412810399,1.5214399406185568,0.0018325958,0.03390302,0.09101892,209.74837,-97.25745,-6.8566427
2293733742000.0,-1.5557432184316085,9.653171875852388,1.6183554661251505,-0.004886922,0.0421497,0.093767814,209.6972,-97.283,-6.908648
2293738727000.0,-1.5030813325010028,9.720195930705977,1.6518675935318894,-0.022907447,0.047036625,0.086437434,209.64816,-97.31349,-6.9667
2293743711000.0,-1.4652514,9.767010010813491,1.6639445339384922,-0.016187929,0.053145275,0.093767814,209.58943,-97.32952,-7.0119343
2293748720000.0,-1.4652514,9.762250963888889,1.6211139563888888,-0.035430185,0.05100725,0.090713486,209.53203,-97.34844,-7.061845
2293753761000.0,-1.4704424566127123,9.73151292568101,1.565092353987367,-0.03359759,0.049480084,0.08674286,209.47325,-97.36251,-7.1018243
2293758716000.0,-1.489176386340308,9.633159696802212,1.4761060899723648,-0.027794369,0.042455133,0.08674286,209.41733,-97.37673,-7.141314
2293763704000.0,-1.517090901621084,9.528333015116855,1.3841089927697665,-0.0106901415,0.027183503,0.084910266,209.36438,-97.39645,-7.1817803
2293768771000.0,-1.575003209318747,9.402856356837392,1.2827625424863252,-0.032070424,-0.004276057,0.07238753,209.3186,-97.41807,-7.2251463
2293773703000.0,-1.6305999407629022,9.27936691473448,1.1874882643979057,-0.027183503,-0.042455133,0.06261369,209.2741,-97.4511,-7.2716565
2293778735000.0,-1.684665572251309,9.148708513089003,1.1018843282722512,-0.032375857,-0.06994407,0.053450707,209.2358,-97.48582,-7.3211493
2293783724000.0,-1.7452940022140222,9.018122210015814,1.0224313783342118,-0.045814894,-0.083383106,0.04337143,209.1977,-97.537796,-7.3836145
2293788747000.0,-1.87715609298893,8.876116677807065,0.9970733043226148,-0.04520403,-0.102319926,0.030543262,209.16896,-97.593315,-7.448832
2293793714000.0,-2.0125057102982336,8.743297248914198,0.9750633175851752,-0.063224554,-0.11636983,0.018020526,209.13129,-97.66847,-7.5298977
2293798733000.0,-2.170235959762571,8.641236821252775,0.9657850704661712,-0.07452556,-0.13072516,-0.020463986,209.09871,-97.75383,-7.6208854
2293803719000.0,-2.3238118802862653,8.539213618820424,0.9688003323824992,-0.087659165,-0.13408493,-0.046731193,209.0568,-97.85825,-7.731737
2293808706000.0,-2.454713011328799,8.432553276723175,1.060915958115927,-0.112399206,-0.15454891,-0.09285152,209.02295,-97.976234,-7.85745
2293813713000.0,-2.572244810423485,8.330784948130516,1.1728971531786174,-0.1469131,-0.16768251,-0.14721853,208.97466,-98.13139,-8.020908
2293818717000.0,-2.610267220301498,8.259492712486363,1.3962780854011705,-0.183565,-0.18325958,-0.20097467,208.93156,-98.295616,-8.19443
2293823711000.0,-2.6269661877518766,8.197121692414067,1.5785120114184117,-0.23945917,-0.2012801,-0.2489276,208.88013,-98.48956,-8.402147
2293828751000.0,-2.5030088214934807,8.19235425266693,1.4926954077044643,-0.30879238,-0.22327125,-0.2938262,208.8327,-98.69376,-8.620737
2293833712000.0,-2.370177441586323,8.186124859556704,1.3979435518934498,-0.38240165,-0.25228736,-0.34238997,208.79797,-98.914085,-8.86152
2293838716000.0,-2.1463080011728457,8.167072008945434,1.216942739369844,-0.45753807,-0.28191432,-0.37843102,208.76848,-99.14198,-9.107736
2293843705000.0,-1.923779654795553,8.143937638307897,1.0314439775014133,-0.50518554,-0.32345316,-0.41355577,208.75456,-99.36446,-9.343614
2293848733000.0,-1.7060195991709064,8.080424438760128,0.7955372663651781,-0.54611355,-0.3475823,-0.4382958,208.74258,-99.593025,-9.582838
2293854237000.0,-1.466684776426567,8.00769734443405,0.5400459056688495,-0.55771995,-0.3472769,-0.45051312,208.74043,-99.78867,-9.78414
2293858735000.0,-1.2607272424903857,7.913673389044797,0.3609523483005925,-0.5681047,-0.3475823,-0.46181414,208.74321,-99.98952,-9.988467
2293863869000.0,-1.0341403324501182,7.81034922579669,0.1594069657758865,-0.56169057,-0.33108896,-0.46609017,208.73367,-100.14714,-10.146977
2293868729000.0,-0.9153064020671394,7.757534284520095,0.0009617559035461,-0.559858,-0.2968805,-0.4569272,208.71713,-79.69833,-10.301624
2293873705000.0,-0.7936361062676123,7.703458739706856,-0.1612652737929078,-0.53969944,-0.24923302,-0.4465425,208.68802,-79.58444,-10.415392
2293878754000.0,-0.6916317453389991,7.691237699527856,-0.2362459842870632,-0.537256,-0.1872302,-0.4447099,208.6441,-79.47308,-10.526542
2293883734000.0,-0.5925538365004721,7.682230436071766,-0.3037990964683664,-0.5348125,-0.12186762,-0.44135013,208.58508,-79.36737,-10.632053
2293888735000.0,-0.5365997597066228,7.711005975735864,-0.2628225156516266,-0.5384777,-0.090713486,-0.43157628,208.52338,-79.291626,-10.707888
2293893709000.0,-0.4904775404289311,7.747903828214563,-0.1982513990307901,-0.5354234,-0.021380283,-0.42943826,208.43277,-79.21623,-10.783418
2293898757000.0,-0.4435735260589992,7.8277470835847645,-0.1195641805824496,-0.5290093,0.016493361,-0.42271876,208.35905,-79.16256,-10.837245
2293903741000.0,-0.3972329379962659,7.920428043823748,-0.0375769871479462,-0.5308419,0.059253927,-0.408058,208.26563,-79.11281,-10.887113
2293909099000.0,-0.3392680223739556,8.034302216460194,0.0602328075901277,-0.51923543,0.09437868,-0.3827071,208.17708,-79.07795,-10.922005
2293913725000.0,-0.245668595718813,8.208737912225104,0.1963774194155383,-0.49205196,0.121256754,-0.3576616,208.08043,-79.04769,-10.952299
2293918992000.0,-0.1370178002852485,8.406860183374084,0.3515944666503667,-0.47586402,0.11209377,-0.32498032,208.00887,-79.04359,-10.9563465
2293923694000.0,0.0016243208648012,8.574046237707146,0.4943143071393643,-0.44837508,0.06047566,-0.31215215,207.94322,-79.040695,-10.959183
2293928763000.0,0.1510877219940233,8.7542814800326,0.6481737013202934,-0.4343252,-0.016493361,-0.27214047,207.91104,-79.079285,-10.920232
2293933708000.0,0.3384152927472758,8.951875922045264,0.7855610616827327,-0.42485678,-0.11881329,-0.21777347,207.90164,-79.12468,-10.87429
2293938704000.0,0.5389422270431685,9.15741546605197,0.9209167254505448,-0.41080686,-0.20769419,-0.14049901,207.91078,-79.187065,-10.81121
2293943719000.0,0.6602354397910684,9.26694331597188,0.9716414251113972,-0.39370266,-0.28955013,-0.06047566,207.97859,-79.29579,-10.7006445
2293948699000.0,0.7688528790028716,9.361393683334985,1.0094213994652934,-0.38056904,-0.36926803,0.023823744,208.07022,-79.42544,-10.56849
2293953743000.0,0.6703075459796082,9.34694619712115,1.0931708708516592,-0.3827071,-0.44837508,0.10934488,208.21016,-79.611626,-10.377913
2293958690000.0,0.5377064697491003,9.31379575869652,1.183150194302279,-0.38545597,-0.52656585,0.19853121,208.37032,-79.81877,-10.165213
2293963718000.0,0.2413164742703777,9.239698110735583,1.2336078857952286,-0.4016439,-0.58062744,0.25442538,208.55807,-80.05921,-9.91671
2293968678000.0,-0.0797635740795228,9.159427955666004,1.2761036965308152,-0.42271876,-0.5852089,0.2950479,208.75067,-80.31436,-9.651583
2293973713000.0,-0.4330186546202036,9.106515375097883,1.2950924696162882,-0.45112398,-0.5876524,0.3323107,208.94554,-80.54756,-9.404281
2293978853000.0,-0.7992171395458105,9.058331397024276,1.3095477636648394,-0.4792238,-0.5882632,0.34880406,209.1378,-80.779045,-9.155635
2293983723000.0,-1.1240512363094055,9.110867813282958,1.380406550686021,-0.514654,-0.56291234,0.3475823,209.29572,-80.94339,-8.969289
2293988682000.0,-1.4498521128653807,9.186415895506064,1.465398032252933,-0.5516113,-0.55863625,0.34483343,209.45691,-81.10424,-8.782054
2293993716000.0,-1.732770447307458,9.24914221443812,1.5111397055984557,-0.57635134,-0.54428095,0.33658674,209.58173,-81.182274,-8.673883
2293998678000.0,-1.9983268863239176,9.307082210881934,1.5449378225868726,-0.6197228,-0.5186246,0.3115413,209.69951,-81.24678,-8.57358
2294003738000.0,-2.183318081978999,9.210384148708732,1.3729341479708637,-0.6713409,-0.46211955,0.27397305,209.78493,-81.2307,-8.546705
2294008747000.0,-2.346682842815249,9.078784294721409,1.1551145774193547,-0.72326446,-0.3857614,0.21899518,209.85486,-81.1962,-8.533004
2294013777000.0,-2.232747826503363,8.927143943680353,0.9474780017367734,-0.7632761,-0.2770274,0.16523905,209.88629,-81.09323,-8.581504
2294018774000.0,-2.0069472372051,8.768603445939162,0.7456987805441221,-0.78954333,-0.16584991,0.11881329,209.89279,-80.97274,-8.643496
2294023756000.0,-1.7202716148900503,8.7109062197022,0.6149233657282319,-0.7867944,-0.05009095,0.09315695,209.84831,-80.816925,-8.756621
2294028780000.0,-1.4071352712553002,8.691928370574894,0.5105445762597377,-0.7663304,0.056199603,0.09468412,209.77289,-80.65756,-8.873898
2294033784000.0,-1.1755537853165543,8.751149094917569,0.4755910850756024,-0.7098254,0.15118915,0.11209377,209.69493,-80.545975,-8.951561
2294038786000.0,-0.9792866746073554,8.844609544824896,0.4709180479416642,-0.6441574,0.1994475,0.14660765,209.59923,-80.44344,-9.023656
2294043791000.0,-0.90979666,8.950034786103542,0.487347257438692,-0.552833,0.21013765,0.19333886,209.52315,-80.41626,-9.026979
2294048901000.0,-0.90979666,9.064330010899182,0.5159211282833788,-0.45998153,0.1872302,0.24556783,209.44344,-80.405655,-9.019975
2294053816000.0,-1.0137467065777197,9.179508640371338,0.5800321240436649,-0.36071593,0.13897185,0.28863382,209.39418,-80.447105,-8.967485
2294058868000.0,-1.1897961988038814,9.301389436601978,0.6703139282235492,-0.24801129,0.109650314,0.33964106,209.34688,-80.51328,-8.899764
2294063936000.0,-1.4412665532028093,9.390421127101511,0.834918620663971,-0.15790866,0.084910266,0.3924809,209.32278,-80.595436,-8.817099
2294068825000.0,-1.7650978280910832,9.440241015109596,1.0740555397105769,-0.07391469,0.077579886,0.4071417,209.30362,-80.68919,-8.732846
2294073780000.0,-2.114337974751704,9.409086712171373,1.3152229310516066,-0.0027488936,0.061086524,0.39828414,209.29254,-80.75425,-8.677002
2294078823000.0,-2.485844392580331,9.31503451665044,1.5597587867185978,0.03268129,0.02687807,0.38087448,209.28998,-80.8239,-8.620358
2294083852000.0,-2.8051537678589167,9.170137517039244,1.771142161132638,0.028099801,0.002443461,0.33933565,209.26907,-80.8156,-8.6323805
2294088840000.0,-3.075679298310978,8.980295178638848,1.9514924817287629,0.016187929,-0.013133603,0.28955013,209.25653,-80.80351,-8.650596
2294093801000.0,-3.2170180297393363,8.836747284451329,2.1013740916970467,-0.019242255,-0.044898596,0.27214047,209.22774,-80.69978,-8.74324
2294098782000.0,-3.234408447630332,8.73675184815895,2.223107380113015,-0.10934488,-0.080634214,0.23335053,209.20534,-80.5739,-8.852497
2294103860000.0,-3.223136232673195,8.713812357925281,2.3336401720928546,-0.21960606,-0.12980886,0.19975294,209.1691,-80.379555,-9.013711
2294109079000.0,-3.146994903322452,8.866095092346754,2.417033128734132,-0.3417791,-0.19547687,0.17837265,209.1473,-80.172615,-9.177151
2294113941000.0,-3.0760619385201307,9.00796109249184,2.4947216811751907,-0.4636467,-0.25045475,0.13469578,209.13206,-79.92997,-9.353386
2294118949000.0,-2.9632470678153653,9.439034368215829,2.595779896195595,-0.569021,-0.2724459,0.09743301,209.12479,-79.67582,-9.529359
2294123817000.0,-2.8256818202655705,10.058077853936137,2.708779930129624,-0.655153,-0.2666427,0.05589417,209.12405,-79.40142,-9.714452
2294128849000.0,-2.717172572410829,10.620130241168887,2.778594213794585,-0.7312057,-0.2574797,-0.010079277,209.13501,-79.12094,-9.886539
2294134018000.0,-2.623570801031371,11.156213073227333,2.8253950994843144,-0.77488256,-0.24709499,-0.103847094,209.14374,-78.81913,-10.074759
2294138847000.0,-2.511206370996979,11.61012821752266,2.8589228474320243,-0.81336707,-0.23823744,-0.19486602,209.16902,-78.532295,-10.230371
2294143881000.0,-2.3454685681425147,11.99182698031045,2.8739899728617564,-0.8231409,-0.22632557,-0.28771752,209.19136,-78.22334,-10.409143
2294148805000.0,-2.1515401599189534,12.266233503960214,2.8952201730981764,-0.8417723,-0.20799962,-0.36774087,209.22687,-77.92941,-10.568267
2294153863000.0,-1.9061752662737157,12.404530534352553,2.9264483619911585,-0.8857546,-0.18478674,-0.43554693,209.25839,-77.616425,-10.745676
2294158842000.0,-1.6808872003127688,12.559383652357496,3.0565446979826416,-0.9624182,-0.19700404,-0.49663344,209.31131,-77.3239,-10.892555
2294164785000.0,-1.4717228297052154,12.81305063265306,3.5772304034013604,-1.0656544,-0.23579398,-0.5458081,209.36525,-77.01309,-11.050514
2294168842000.0,-1.3289363832043164,12.986216868402533,3.9326774683321606,-1.1997393,-0.2660318,-0.6093381,209.44092,-76.71606,-11.172986
2294173812000.0,-1.279288685840178,13.209241337953456,4.145383161507529,-1.3448198,-0.312763,-0.6814202,209.5325,-76.39162,-11.3064575
2294178886000.0,-1.2876036989989734,13.44206101180698,4.257635470148871,-1.5314392,-0.35613444,-0.7519751,209.63179,-76.02912,-11.452625
2294184009000.0,-1.3155610360798098,13.695385300010338,4.273877546614287,-1.7122552,-0.34697145,-0.83108217,209.75679,-75.61692,-11.575875
2294188882000.0,-1.3734554297012302,13.965559472759226,4.133965671353251,-1.892766,-0.31703907,-0.8622363,209.88773,-75.17016,-11.700465
2294193848000.0,-1.4018462793103448,14.195139344827586,3.9796583517241375,-1.96271,-0.24831672,-0.89949906,210.01137,-74.69357,-11.834188
2294198842000.0,-1.3875469353199124,14.361965273569862,3.808066223838948,-2.081218,-0.17684549,-0.9230174,210.12437,-74.17575,-11.970431
2294203871000.0,-1.3007997811886085,14.512686167125995,3.640541410797823,-2.179567,-0.11209377,-0.9584476,210.21342,-73.66456,-12.116789
2294209045000.0,-1.1047131518761926,14.642243295314818,3.4759686498622004,-2.2638667,-0.053145275,-0.97158116,210.28072,-73.13942,-12.264115
2294213961000.0,-0.9184043251077664,14.765340095116953,3.3196022616210867,-2.3154848,0.01985312,-0.97005403,210.3197,-72.63295,-12.406452
2294218886000.0,-0.7005513044507816,14.77680556801859,3.096130568029151,-2.3359487,0.10170906,-0.9783007,210.3372,-72.1186,-12.557868
2294223818000.0,-0.4610947136523025,14.711952997676384,2.826741946356147,-2.3261747,0.21655174,-1.0210613,210.32343,-71.601234,-12.724125
2294228860000.0,-0.2413332727452996,14.529754742361929,2.478038119359577,-2.2696698,0.36865717,-1.0958922,210.28297,-71.15093,-12.854295
2294235143000.0,0.0179232212638073,14.235144675479829,2.000770500097924,-2.1691825,0.5644395,-1.1551461,210.19666,-70.71301,-13.004559
2294238936000.0,0.3254363920226693,13.99260171091596,1.7793537230777086,-2.008525,0.82924956,-1.1759156,210.05586,-70.342995,-13.145914
2294243847000.0,0.7528663190994588,13.666026479424078,1.5056065192688657,-1.7928895,1.0445796,-1.1679744,209.87445,-70.005394,-13.308344
2294248874000.0,1.0472469273489844,13.267851539171724,1.6899742266684252,-1.5387696,1.1328496,-1.1499538,209.65044,-69.76058,-13.459931
2294253860000.0,1.2739678572566604,12.843799100237405,2.084636578343445,-1.3060299,1.0983357,-1.1420126,209.40265,-69.557945,-13.6202755
2294259062000.0,1.325666635768515,12.355180619501304,2.5655690225679195,-1.1322387,1.0345002,-1.1187997,209.16824,-69.44347,-13.722709
2294263898000.0,1.1498583102158542,11.844991438407146,3.0964413455154447,-1.0097603,0.93462384,-1.0937542,208.9562,-69.36736,-13.818237
2294268913000.0,0.9675426045403795,11.31591808373651,3.646963409117976,-0.88239485,0.83169305,-1.0512991,208.82373,-69.27132,-13.873221
2294273869000.0,0.6468507622222223,11.048786040357433,3.868823602380429,-0.7706065,0.69058317,-1.0042624,208.72777,-69.2043,-13.909917
2294278869000.0,0.27157854,10.873425313777192,3.97404007495056,-0.6478226,0.5656612,-0.95417154,208.65231,-69.17542,-13.927975
2294283902000.0,-0.1064064521188223,10.696877601559764,4.079636420601122,-0.52412236,0.5174029,-0.90224797,208.61543,-69.03976,-13.983974
2294288893000.0,-0.5880706743953732,10.508400000175255,4.041941031528216,-0.4120286,0.43463063,-0.883922,208.62096,-68.93336,-14.021883
2294293788000.0,-1.0604702672712931,10.323547694269193,4.00497069902734,-0.36835176,0.37048978,-0.8530733,208.60988,-68.7733,-14.120611
2294298872000.0,-1.6985928519189413,10.164560754673284,3.9482948526716295,-0.2779437,0.3359759,-0.8127562,208.61029,-68.65532,-14.205223
2294303843000.0,-2.38374561745244,10.022805432588916,3.8852923411083538,-0.21838433,0.3115413,-0.7742717,208.62227,-68.54846,-14.275554
2294308892000.0,-2.907601324188821,9.909551287732889,3.82827895049194,-0.17867808,0.3155119,-0.7266242,208.61018,-68.39989,-14.418021
2294313844000.0,-3.021769285084781,9.869840435733725,3.788568305819552,-0.16890424,0.31948254,-0.6826419,208.60088,-68.26744,-14.545725
2294318858000.0,-3.0339569298073257,9.839720160053416,3.763685,-0.17837265,0.31764993,-0.6398814,208.55896,-68.05542,-14.790216
2294323883000.0,-2.8778906581075927,9.825949819534529,3.763685,-0.18112154,0.31490102,-0.61483586,208.51207,-67.85597,-15.021637
2294328861000.0,-2.705933509556876,9.788776609850382,3.752900902068867,-0.21410827,0.29993483,-0.5897904,208.47514,-67.63921,-15.25038
2294333882000.0,-2.4890702329730114,9.69239310709428,3.715035898074308,-0.23457226,0.23701571,-0.5439755,208.44664,-67.43794,-15.456841
2294338850000.0,-2.274496092748228,9.597026996420643,3.67757058442265,-0.2733622,0.15363261,-0.49938235,208.4465,-67.24249,-15.628011
2294343814000.0,-1.9884860810764544,9.431561327881322,3.6385545821985543,-0.30543262,0.06352998,-0.47616947,208.46149,-67.05364,-15.782724
2294348811000.0,-1.6244289238018257,9.190372921262837,3.597598189425637,-0.31245756,-0.028710667,-0.44959682,208.49384,-66.87617,-15.913778
2294353869000.0,-1.2574388576332844,8.87496426113318,3.553900393393268,-0.29810223,-0.112704635,-0.4251622,208.57724,-66.721306,-15.994508
2294359083000.0,-0.8816067899937277,8.433013717123144,3.5051813791344344,-0.2846632,-0.21868975,-0.41508293,208.68808,-66.57195,-16.06023
2294363809000.0,-0.5409504126127255,8.032427167259042,3.4610221805561365,-0.258396,-0.31978795,-0.4034765,208.84587,-66.4571,-16.064713
2294368815000.0,-0.3212455747170177,7.712826817881759,3.388288321871663,-0.23365596,-0.4034765,-0.3866777,209.02306,-66.35174,-16.056479
2294374283000.0,-0.2297410922357052,7.473898414814096,3.281533066653723,-0.19517145,-0.44165558,-0.38087448,209.21126,-66.25881,-16.04243
2294378856000.0,-0.1834405657881136,7.325567682355112,3.214697831173865,-0.15149458,-0.45753807,-0.36987892,209.43839,-66.199036,-15.971262
2294384088000.0,-0.1649444994315245,7.214591438722776,3.163833723532669,-0.112704635,-0.45051312,-0.37568212,209.6672,-66.146706,-15.900996
2294388786000.0,-0.1797957061057554,7.149358351551016,3.1113745202157106,-0.08155051,-0.44104472,-0.37598756,209.90915,-66.10312,-15.821021
2294393878000.0,-0.2775400166335783,7.167976350176577,3.036902622916865,-0.07941248,-0.40530908,-0.36774087,210.13795,-66.06448,-15.7424755
2294398816000.0,-0.3784230818606315,7.1938431896770725,2.9663463033187223,-0.05222898,-0.36193767,-0.35185838,210.37033,-66.03328,-15.669133
2294403867000.0,-0.5082355168852313,7.254422251319438,2.901440162617408,-0.067500606,-0.31764993,-0.3381139,210.5885,-65.996956,-15.596683
2294409351000.0,-0.6463714297514034,7.322305906014435,2.8313596893424218,-0.067500606,-0.27550024,-0.321926,210.79683,-65.965675,-15.543601
2294413898000.0,-0.7197042935044107,7.409606847473937,2.7789790150761826,-0.07269296,-0.2284636,-0.2941316,210.98561,-65.937256,-15.4874735
2294418831000.0,-0.7992624674418605,7.504318865116279,2.7221516858139534,-0.07269296,-0.18692477,-0.27397305,211.16867,-65.900406,-15.460728
2294423875000.0,-0.8689745014803517,7.588365690902566,2.6709169458281,-0.07238753,-0.17165314,-0.24190263,211.33862,-65.87272,-15.424359
2294428860000.0,-0.9246559138704468,7.656896783850709,2.6280851245469226,-0.069027774,-0.1600467,-0.22327125,211.49416,-65.84945,-15.389097
2294434026000.0,-0.9537701625,7.733191793333334,2.6005021333333334,-0.052839845,-0.14294247,-0.19150625,211.65224,-65.83155,-15.363313
2294438882000.0,-0.9053274769230768,7.818898014358974,2.6191339205128203,-0.035430185,-0.13316862,-0.15118915,211.80304,-65.82241,-15.329778
2294443853000.0,-0.8557375695913462,7.906633933782051,2.638206946474359,-0.017104227,-0.13225232,-0.111177474,211.95546,-65.82119,-15.304338
2294448883000.0,-0.8511466662960934,7.937983637101699,2.659974032592187,0.003970624,-0.12858713,-0.062002823,212.09654,-65.83575,-15.265828
2294453858000.0,-0.8623369692789478,7.949173901135207,2.682354638557896,0.005192355,-0.14294247,-0.01740966,212.23633,-65.85831,-15.215659
2294459057000.0,-0.8838824543149284,7.956555864989776,2.712167336809816,0.03023783,-0.14019357,0.01160644,212.37766,-65.90566,-15.148574
2294463893000.0,-0.9369203398609408,7.948979029848671,2.7614168047852763,0.048563786,-0.14935656,0.04917465,212.51915,-65.96249,-15.065194
2294468792000.0,-0.990649165603272,7.941303489038855,2.8113078601226995,0.0580322,-0.14172074,0.08124508,212.65497,-66.022285,-14.984904
2294473871000.0,-1.0719427475974397,7.907426736196419,2.8453600262782595,0.076052725,-0.13041973,0.1020145,212.78804,-66.09319,-14.897827
2294478896000.0,-1.16163075221619,7.8645325527834045,2.8726563914431567,0.08857546,-0.11759156,0.13408493,212.9129,-66.17296,-14.800924
2294484036000.0,-1.2411601540024206,7.785286591199862,2.903692330497925,0.12644911,-0.07727446,0.16371189,213.03435,-66.242516,-14.722043
2294488865000.0,-1.2891336057053944,7.633370542531121,2.9396723879668047,0.13897185,-0.03023783,0.17715092,213.14725,-66.31217,-14.641654
2294494280000.0,-1.3402500055480056,7.468064690510832,2.9790575575185865,0.14752395,0.015271631,0.22479841,213.24876,-66.37278,-14.574176
2294498881000.0,-1.3296825284994804,7.429317348229275,2.9931474901351027,0.18967366,0.046731193,0.23487769,213.342,-66.4394,-14.516785
2294503849000.0,-1.3182721338076584,7.387479313790071,3.0083613100087936,0.20616703,0.09132435,0.27366763,213.40382,-66.49317,-14.464056
2294508970000.0,-1.3120226,7.3599328473551635,3.028273002518892,0.24251351,0.12736541,0.29871312,213.45898,-66.55969,-14.414919
2294513897000.0,-1.3120226,7.350424655738036,3.0520437297733,0.2706133,0.17654006,0.33261612,213.49327,-66.63578,-14.358881
2294518875000.0,-1.3187481190321628,7.370071189633127,3.0713035892593687,0.29443705,0.20952678,0.37904188,213.52411,-66.71686,-14.296918
2294523893000.0,-1.3329282259663615,7.422064816347005,3.085483844260844,0.31031954,0.24556783,0.41691554,213.53842,-66.805504,-14.23382
2294528868000.0,-1.345029891990013,7.474991380821917,3.0990112226533504,0.32375857,0.28710666,0.4560109,213.54094,-66.90074,-14.165072
2294534075000.0,-1.355124985640057,7.532197052054794,3.112471347520076,0.34972036,0.31887165,0.49968776,213.53322,-67.0078,-14.088582
2294538901000.0,-1.364481413901073,7.585216942465753,3.1249465852014304,0.37201694,0.3390302,0.54000485,213.51912,-67.11813,-14.005973
2294543871000.0,-1.3718430198969072,7.651315912577319,3.145773767216495,0.39064834,0.3475823,0.5852089,213.49655,-67.239395,-13.913853
2294548873000.0,-1.376781437773196,7.730331423670103,3.175404583876289,0.40133846,0.3408628,0.6221663,213.47157,-67.36658,-13.815534
2294553860000.0,-1.4097993151219512,7.7733774156097555,3.239576824390244,0.41783184,0.31887165,0.6600399,213.44606,-67.50743,-13.708085
2294560083000.0,-1.4812028745485666,7.788678273444587,3.356882637783483,0.42271876,0.28038713,0.68630713,213.42699,-67.64907,-13.594168
2294563816000.0,-1.52649880310291,7.785498425869824,3.405167150702286,0.42913285,0.25320363,0.72112644,213.40668,-67.803185,-13.467545
2294568879000.0,-1.5977187082713669,7.732083380795006,3.3829110058661525,0.42119157,0.1966986,0.752586,213.40544,-67.95544,-13.331652
2294574163000.0,-1.6723865115912837,7.675285375389123,3.358271114136605,0.4251622,0.16126843,0.7852673,213.39117,-68.10111,-13.19863
2294578873000.0,-1.7425947927668926,7.613336930049441,3.321101917560886,0.43096542,0.14294247,0.806953,213.38791,-68.24534,-13.059877
2294584870000.0,-1.8327373980719797,7.535396001542416,3.2734066034704368,0.4364632,0.087964594,0.83108217,213.39957,-68.38339,-12.925774
2294588892000.0,-1.90865101101114,7.502390097857755,3.2337995535132817,0.4437936,0.0711658,0.8405506,213.40659,-68.521,-12.794608
2294594068000.0,-2.006345904241645,7.459914076606684,3.1828283723650386,0.45845437,0.036957346,0.8555168,213.42674,-68.6574,-12.672274
2294598812000.0,-2.087778363792616,7.429509703211203,3.150344105290706,0.4596761,0.016187929,0.86009824,213.44917,-68.78915,-12.552609
2294603852000.0,-2.166300301831942,7.405611590323949,3.1298601307539964,0.46181414,-0.01282817,0.85154617,213.48444,-68.92169,-12.431588
2294608906000.0,-2.2450403563658226,7.381647093789787,3.109319256288018,0.45906523,-0.04734206,0.82558435,213.52919,-69.03676,-12.337712
2294613890000.0,-2.3775736288039364,7.423453247255867,3.068983309897805,0.46609017,-0.086132,0.8060367,213.58379,-69.15187,-12.243426
2294618880000.0,-2.53584294333838,7.495804941994701,3.019241490253596,0.46273044,-0.10445796,0.7828238,213.64484,-69.256874,-12.157655
2294623873000.0,-2.636742846961025,7.529820152811848,2.965689153038975,0.47128254,-0.119729586,0.7583892,213.71143,-69.352356,-12.099291
2294629435000.0,-2.699653781548106,7.534659552648314,2.902778218451894,0.46731192,-0.1282817,0.7254025,213.78313,-69.4374,-12.049
2294633855000.0,-2.7380299601047757,7.540402947954866,2.864402039895225,0.47739118,-0.13652839,0.689056,213.8487,-69.51742,-12.025989
2294638910000.0,-2.762415777150917,7.550157172919605,2.840016222849083,0.48655418,-0.13591751,0.6435465,213.91669,-69.58802,-12.013729
2294643857000.0,-2.744966057717546,7.550999148758916,2.831959686077033,0.50793445,-0.15149458,0.59559363,213.97769,-69.66414,-12.008167
2294648880000.0,-2.658044368330956,7.537274679029958,2.85025902681883,0.535118,-0.15607607,0.5580254,214.03757,-69.73633,-12.011963
2294653875000.0,-2.567580403622713,7.535977222975435,2.870159785676799,0.5647449,-0.14049901,0.52839845,214.088,-69.811844,-12.022058
2294658977000.0,-2.464295454632261,7.568031275253299,2.895090636715504,0.5852089,-0.1151481,0.5112942,214.13829,-69.88563,-12.037759
2294663835000.0,-2.365950044558641,7.5985523622713025,2.918829185195714,0.59803706,-0.09254608,0.48991394,214.17384,-69.972435,-12.0355425
2294668889000.0,-2.2613450780093656,7.646369509374713,2.9586239987604444,0.6188065,-0.08399397,0.47250426,214.20728,-70.06125,-12.036827
2294673846000.0,-2.156732806711964,7.707393451877697,3.0109301116518226,0.6404922,-0.074830994,0.45814893,214.23569,-70.14778,-12.043837
2294678868000.0,-2.052014156263906,7.784990806520267,3.0762820822966046,0.6753115,-0.07238753,0.44806966,214.25693,-70.26467,-12.026749
2294683864000.0,-1.9501851207216796,7.891448089677856,3.164225311705524,0.68752885,-0.07849618,0.43310347,214.2802,-70.374954,-12.014452
2294688844000.0,-1.8543324703228397,7.994634312612793,3.2501055296771604,0.7293731,-0.09896017,0.41874814,214.3058,-70.50979,-11.976744
2294693813000.0,-1.773223434499699,8.090056649087629,3.3312145655003005,0.7706065,-0.13072516,0.40469822,214.33835,-70.64138,-11.9417925
2294699418000.0,-1.7058451819575369,8.17960679349837,3.3952315308254777,0.8002335,-0.18112154,0.39858958,214.37294,-70.79417,-11.880315
2294703884000.0,-1.687005437089243,8.22482233856048,3.406535377746454,0.83169305,-0.2275473,0.4092797,214.41629,-70.953354,-11.816663
2294709074000.0,-1.6671070395822454,8.272380612271542,3.411493601592689,0.8622363,-0.27030787,0.4266894,214.4747,-71.122314,-11.732233
2294713841000.0,-1.6790267799477807,8.240594389033943,3.292296156449086,0.8912524,-0.31245756,0.4428773,214.54616,-71.296005,-11.643023
2294718817000.0,-1.691469118537859,8.207414559617058,3.167872727241079,0.9309586,-0.3539964,0.46822822,214.6199,-71.49127,-11.534951
2294723817000.0,-1.732786225007919,8.16813141534685,3.0427717524707,0.9440922,-0.39187005,0.4605924,214.70654,-71.680016,-11.430472
2294728905000.0,-1.786807061751663,8.125686624722837,2.915436816518847,0.9651671,-0.40469822,0.46944994,214.79543,-71.88274,-11.315088
2294733852000.0,-1.8497341023355431,8.073706971055584,2.7950170171851094,0.9810496,-0.4111123,0.4718934,214.89162,-72.097855,-11.200064
2294738917000.0,-1.9585707500152985,7.974764662692504,2.6861804728199896,0.99173975,-0.40866885,0.4447099,214.99106,-72.30819,-11.092287
2294743794000.0,-2.060486013200705,7.884581765371465,2.597292354502124,0.9963212,-0.40042216,0.40469822,215.07985,-72.5294,-10.990796
2294748881000.0,-2.1563960191897213,7.808863422816288,2.561957022557248,0.98899084,-0.4025602,0.3555236,215.17426,-72.73869,-10.900213
2294753851000.0,-2.2329102940395305,7.743904273255096,2.524544373255096,0.98715824,-0.39767328,0.29871312,215.252,-72.93807,-10.836154
2294758944000.0,-2.270568255335083,7.698714672513898,2.4793547725138976,0.97524637,-0.37965274,0.24037547,215.33066,-73.11946,-10.787276
2294763911000.0,-2.307294564731316,7.654643055219271,2.4352831552192717,0.9599747,-0.3381139,0.17104226,215.386,-73.28165,-10.771723
2294769098000.0,-2.29837172726023,7.646135154805964,2.469048994575447,0.9636399,-0.32406402,0.105374254,215.4479,-73.43045,-10.770067
2294773780000.0,-2.27466517253886,7.650876564766839,2.525944725906736,0.97005403,-0.31581733,0.07147124,215.5023,-73.56506,-10.77994
2294778871000.0,-2.2063426171861766,7.701890461290869,2.5912099950194816,0.97310835,-0.30940324,0.00580322,215.54488,-73.682625,-10.81968
2294783865000.0,-2.129372962315772,7.762656011688971,2.656026666711841,0.960891,-0.31031954,-0.038789943,215.58806,-73.79123,-10.86115
2294788898000.0,-1.9927094453139595,7.853468840166061,2.725851476709912,0.9285152,-0.32986724,-0.09162979,215.62846,-73.880585,-10.915346
2294793879000.0,-1.789721830866632,7.977241649714582,2.8001153175298388,0.9025534,-0.3387248,-0.12370021,215.66739,-73.960106,-10.974397
2294798868000.0,-1.5789647982097186,8.073650899545326,2.873444950071043,0.8582657,-0.35705075,-0.12736541,215.71124,-74.03249,-11.017917
2294803879000.0,-1.360769283034953,8.146382548072369,2.946176693530359,0.80970186,-0.37812558,-0.1160644,215.75906,-74.092674,-11.063186
2294808869000.0,-1.1452252608388285,8.213655955925136,3.0154106509600465,0.7464773,-0.4129449,-0.09682214,215.81491,-74.170166,-11.066065
2294813878000.0,-0.9312385998448408,8.274130450349109,3.08053702583398,0.6737844,-0.4538729,-0.06688975,215.87709,-74.2385,-11.060135
2294818866000.0,-0.7400980733573043,8.298531926443395,3.118505027737826,0.61941737,-0.4981606,-0.047036625,215.9613,-74.326065,-11.018965
2294823824000.0,-0.5888821192623793,8.259508177727554,3.1087492178960345,0.55771995,-0.54092115,-0.022296581,216.05426,-74.40342,-10.965785
2294828904000.0,-0.4496494922175481,8.199794714242788,3.0167719017427888,0.51343226,-0.5561928,0.00061086525,216.16716,-74.49955,-10.879614
2294834093000.0,-0.3301926391541466,8.110202216721754,2.803989301096755,0.48747048,-0.5626069,0.017104227,216.28761,-74.58977,-10.787062
2294838878000.0,-0.220036338921274,8.027585122746395,2.6077733164963943,0.44990227,-0.57604593,0.03359759,216.42165,-74.692314,-10.672226
2294843874000.0,-0.1535176894487659,7.9785603877844995,2.463689299385384,0.4260785,-0.5864306,0.04153884,216.55493,-74.79287,-10.556061
2294848982000.0,-0.1018417463046192,7.940978104868914,2.336848334207241,0.4129449,-0.5876524,0.054367006,216.68697,-74.89118,-10.43485
2294853857000.0,-0.1275650539247079,7.904771798528776,2.2956752489917784,0.41386122,-0.6065892,0.063224554,216.833,-75.03965,-10.282683
2294858964000.0,-0.1910554281955863,7.866677688879273,2.291442560320208,0.41691554,-0.6780604,0.06078109,216.99321,-75.18445,-10.1291275
2294863832000.0,-0.2350763241221214,7.853870888173387,2.210362229061165,0.419359,-0.7333437,0.053450707,217.15617,-75.35193,-9.968001
2294868839000.0,-0.2500657127716995,7.883849550692925,1.9855213732312185,0.43493605,-0.7309003,0.07788532,217.32027,-75.52661,-9.800064
2294873810000.0,-0.2841881216681622,7.904524751884423,1.8469229297200287,0.46273044,-0.7089091,0.09285152,217.48329,-75.692345,-9.649451
2294878899000.0,-0.3454147236593682,7.91327131080402,1.82068297896626,0.47433686,-0.6939429,0.13225232,217.6438,-75.8656,-9.486931
2294884694000.0,-0.4474093445827619,7.927572153676548,1.7909982628336325,0.5140431,-0.6759224,0.16065755,217.77933,-76.08994,-9.31563
2294888877000.0,-0.5699680319822766,7.944476830952633,1.7698674272708093,0.5363397,-0.63041294,0.17073683,217.90204,-76.31362,-9.143638
2294893799000.0,-0.7191452579479769,7.979016063005781,1.7702896980078449,0.5558874,-0.5552765,0.16462818,218.00273,-76.54312,-8.986335
2294898852000.0,-0.8839803976878613,8.048946078034682,1.8302297630470683,0.5662721,-0.47800204,0.1685988,218.0899,-76.77499,-8.828691
2294903726000.0,-1.0181469277610138,8.122467005431503,1.93763014019312,0.59650993,-0.408058,0.15760323,218.14532,-76.99828,-8.710301
2294908841000.0,-1.1117621290283646,8.211155044809898,2.1445688815932407,0.61483586,-0.36346483,0.1554652,218.18753,-77.2185,-8.593077
2294913735000.0,-1.1549637069082783,8.310031937621455,2.350143841051302,0.6374379,-0.35430184,0.14172074,218.2173,-77.4094,-8.52241
2294918822000.0,-1.11709565779246,8.437836634279051,2.5773520863194714,0.67347896,-0.35063666,0.13500121,218.23788,-77.60252,-8.453288
2294923710000.0,-1.0633632688282888,8.581563086005394,2.783336194266307,0.698219,-0.36132678,0.14508049,218.25522,-77.756485,-8.405486
2294928743000.0,-0.967069053203476,8.778966184297273,2.9662952210468485,0.7125743,-0.35124752,0.12614368,218.26843,-77.904495,-8.369317
2294933732000.0,-0.870786294145864,9.01552058100832,3.129750258002937,0.7348709,-0.34116822,0.1151481,218.29695,-78.03058,-8.328928
2294938734000.0,-0.7723068985589818,9.34847505070974,3.2516771296622613,0.76144356,-0.2855795,0.09560041,218.31114,-78.152054,-8.299009
2294943738000.0,-0.678497772113397,9.765683125406044,3.381099341322965,0.7770206,-0.23304509,0.0729984,218.3333,-78.264404,-8.259601
2294948719000.0,-0.5986734595137316,10.423059413623388,3.5313568276602028,0.8045095,-0.121256754,0.03023783,218.32462,-78.373886,-8.236524
2294954341000.0,-0.483604391658715,11.700816555184478,3.5512743095896946,0.840856,0.010995574,-0.0061086523,218.30566,-78.492386,-8.200366
2294958882000.0,-0.345282884908556,13.706477967954834,3.2953795352814885,0.8756753,0.13744467,-0.052534413,218.2592,-78.60233,-8.1836815
2294963848000.0,-0.1940156304444975,15.899852681854329,3.015535128936069,0.88178396,0.2180789,-0.12156218,218.2029,-78.715355,-8.161437
2294968792000.0,0.2530242109537572,16.86187766618497,2.3912815970375725,0.8191703,0.24098633,-0.16432275,218.12898,-78.81384,-8.148023
2294973776000.0,0.8146790111849711,17.374265585260115,1.632554899349711,0.7675522,0.2864958,-0.23090707,218.03064,-78.892746,-8.164765
2294978808000.0,1.3236971389262648,17.321694266953713,1.228743461428956,0.6065892,0.41050145,-0.2507602,217.94589,-79.110916,-8.078972
2294983840000.0,1.8164954830597413,17.10987721923215,0.9261480007400432,0.45631635,0.593761,-0.22815818,217.83237,-79.3026,-8.010066
2294988840000.0,2.24869187613342,16.59281665220207,0.8269082769009067,0.3359759,0.7611381,-0.17684549,217.73332,-79.617645,-7.849906
2294993792000.0,2.632632506098877,15.84541210470639,0.8832195782048791,0.23884831,0.84482664,-0.11911872,217.6065,-79.89483,-7.6963925
2294998753000.0,2.712336071675302,15.103815319334606,1.1808278753295154,0.1600467,0.84757555,-0.036651913,217.48279,-80.24085,-7.460317
2295003850000.0,2.659090468048359,14.345064251431689,1.5934819590382694,0.1133155,0.75747293,0.06627888,217.36151,-80.572815,-7.2149167
2295008929000.0,2.324211177059808,13.482320465809286,1.928378753805939,0.09437868,0.58551437,0.17806722,217.27107,-80.91862,-6.914269
2295013872000.0,1.7451056496863235,12.546842210790466,2.185758861856964,0.03726278,0.38728857,0.28527406,217.21236,-81.25502,-6.594149
2295018816000.0,1.020536528498345,11.767791439963888,2.2005875669274757,-0.02443461,0.21166481,0.36835176,217.17612,-81.5293,-6.278622
2295023787000.0,0.1943863968402046,11.089680021968102,2.0525491524526034,-0.12889257,0.116980694,0.3912592,217.17189,-81.7821,-5.9551497
2295028849000.0,-0.5706978912200578,10.74734738847982,1.8108867807064963,-0.23640485,0.11484267,0.3643811,217.15831,-81.91595,-5.718112
2295033902000.0,-1.2833340811259204,10.639099026190696,1.5086929846397612,-0.31795537,0.17379116,0.31856623,217.15413,-82.02619,-5.4843802
2295038884000.0,-1.8190160667087407,11.181911958977595,1.3503298,-0.32986724,0.28069258,0.24373524,217.10837,-82.029045,-5.403374
2295043823000.0,-2.162309295960871,12.45060427148417,1.3503298,-0.26419923,0.4120286,0.19364429,217.03978,-82.025536,-5.3337083
2295048817000.0,-2.366682436989209,13.819333582345656,1.5373596156730938,-0.1151481,0.5152648,0.18051068,216.93079,-81.98578,-5.396298
2295053883000.0,-2.4567972837962144,15.278335309216343,1.8806541976295768,0.076358154,0.5207626,0.23304509,216.81277,-81.97179,-5.4543343
2295058849000.0,-2.4968229047463493,16.513016494043043,2.157494196425826,0.22907446,0.35796702,0.30604348,216.70444,-81.97685,-5.5329604
2295063849000.0,-2.423211884377402,17.29513457628747,2.2955150457724827,0.33475417,0.23365596,0.36010507,216.5861,-82.01527,-5.6000824
2295068854000.0,-2.386790349609456,17.58457959640288,2.422965675796505,0.3359759,0.003970624,0.35918877,216.53557,-82.05869,-5.640497
2295073873000.0,-2.485589803062693,16.082826191366905,2.511885281911613,0.29993483,-0.16218472,0.29077184,216.5062,-82.109726,-5.6800857
2295078890000.0,-2.5300603181305164,14.61424692497468,2.527079103769353,0.13927728,-0.29993483,0.21746802,216.52795,-82.15389,-5.6905313
2295083922000.0,-2.432438134712777,13.226617406236436,2.349267293090725,-0.105374254,-0.30298916,0.17684549,216.56046,-82.16555,-5.707673
2295088887000.0,-2.3361157697149477,11.857463876718276,2.173823008508175,-0.36957347,-0.32925636,0.16615535,216.62411,-82.08515,-5.764193
2295094137000.0,-1.966210843323864,10.474795555397728,1.8416581296875,-0.57696223,-0.3481932,0.1469131,216.68562,-81.96089,-5.831832
2295098867000.0,-1.4238814538149351,9.27983275405844,1.4280169901785715,-0.6658431,-0.35796702,0.16523905,216.74818,-81.81787,-5.888735
