timestamp,acc_x,acc_y,acc_z,gyro_x,gyro_y,gyro_z,ori_azimuth,ori_pitch,ori_roll
857373057000.0,-1.6526144715377953,9.733798380770342,0.7531446700900956,-1.1765264,0.7476991,0.034513887,337.84375,-81.72567,5.0611215
857377590000.0,-1.6519662077263089,9.734878820456151,0.7466620270112196,-1.1765264,0.75900006,0.035430185,337.73965,-81.70303,5.0631294
857382613000.0,-1.6512478690708716,9.736076051548547,0.7394786349562465,-1.1878275,0.75900006,0.03848451,337.62866,-81.53536,4.774466
857387639000.0,-1.650529101385778,9.73727399769037,0.7322909526014196,-1.1908818,0.7498371,0.03604105,337.5203,-81.35085,4.492641
857392573000.0,-1.6498234906101603,9.738450015649732,0.725234839442105,-1.1823297,0.73914695,0.030543262,337.41544,-81.15063,4.2188573
857397594000.0,-1.6491054379744945,9.739646770042508,0.7180543075870343,-1.1737776,0.7302894,0.033292156,337.3154,-80.93632,3.9547548
857402583000.0,-1.6483919616551683,9.740835897241386,0.7109195389304026,-1.1585059,0.7440339,0.024129177,337.2156,-80.718346,3.6927636
857407602000.0,-1.6476741950392737,9.742032174934543,0.7037418672752342,-1.1588113,0.77549344,0.03634648,337.11517,-80.488464,3.4444294
857412588000.0,-1.6469611477496042,9.743220587083991,0.6966113889184562,-1.2046263,0.7870999,0.042455133,337.02002,-80.24669,3.1991227
857417599000.0,-1.6462445252127944,9.744414957978677,0.6894451580628976,-1.235475,0.7141015,0.045814894,336.9425,-80.00419,2.9659925
857422585000.0,-1.6455314779231252,9.745603370128125,0.6823146797061196,-1.1597277,0.74189585,0.06078109,336.8352,-79.77531,2.7395227
857427560000.0,-1.6448200037421974,9.746789160429673,0.6751999324488049,-1.2186762,0.7275405,0.063224554,336.7634,-79.50159,2.5222316
857432605000.0,-1.644098518869277,9.747991635217872,0.6679850781949049,-1.2205088,0.70371675,0.07147124,336.688,-79.26383,2.3162253
857437646000.0,-1.6433776060358989,9.749193156606834,0.6607759443408098,-1.2125676,0.6927212,0.07727446,336.61545,-79.01454,2.1162925
857442723000.0,-1.6426515448466386,9.750403258588936,0.6535153268884708,-1.210124,0.6737844,0.07971791,336.55386,-78.7658,1.9251264
857447705000.0,-1.6419390695965117,9.751590717339148,0.6463905689314976,-1.1988231,0.65209866,0.10048734,336.49698,-78.52425,1.7470223
857452487000.0,-1.6412551963235074,9.752730506127488,0.6395518309647682,-1.1872166,0.6249151,0.11362094,336.44925,-78.28789,1.5741048
857457470000.0,-1.6405425780634948,9.753918203227508,0.6324256429078439,-1.169807,0.56382865,0.11453723,336.41852,-78.060524,1.4117362
857462450000.0,-1.6398303888331391,9.7551051852781,0.625303745150773,-1.0742066,0.5335908,0.116980694,336.38763,-77.86303,1.2579683
857467490000.0,-1.6391096190096466,9.756306468317256,0.6180960413966292,-1.0118983,0.47861293,0.1142318,336.38248,-77.666145,1.1123517
857472460000.0,-1.6383988598781472,9.757491066869754,0.6109884446390706,-0.8668178,0.40530908,0.10354166,336.39264,-77.524666,0.972207
857477428000.0,-1.6376883867664187,9.758675188722634,0.6038837080814144,-0.7180721,0.3463606,0.10048734,336.41507,-77.40596,0.83958995
857482476000.0,-1.6369664728638411,9.759878378560265,0.5966645635276608,-0.5705481,0.29168814,0.09773844,336.45853,-77.33158,0.71155405
857487508000.0,-1.6362468471194338,9.761077754800944,0.5894683005731267,-0.43127087,0.09407325,0.06414085,336.56155,-77.299675,0.58941394
857492509000.0,-1.6355316546814802,9.762269742197534,0.5823163707170803,-0.028405234,-0.046731193,0.028099801,336.73483,-77.5166,0.5710234
857497472000.0,-1.63482189661918,9.763452672301366,0.5752187846591803,0.23548855,-0.03268129,0.042760566,336.9163,-77.72815,0.5571857
857502532000.0,-1.634098266597975,9.764658722336709,0.5679824789060121,0.19761491,-0.022602014,0.044898596,337.13824,-77.96049,0.53478855
857507526000.0,-1.6333840752292208,9.765849041284632,0.5608405597496242,0.15515977,-0.019547688,0.03573562,337.3554,-78.25588,0.50869864
857512533000.0,-1.6326680247319536,9.767042458780075,0.5536800492938706,0.15271631,-0.03023783,0.042455133,337.56992,-78.54146,0.4840561
857517500000.0,-1.6319576946301109,9.768226342283148,0.5465767428361656,0.1518,-0.035124753,0.04550946,337.78012,-78.806145,0.45190287
857522517000.0,-1.6312402140339874,9.769422143276689,0.5394019313808998,0.1386664,-0.03390302,0.051618114,337.98843,-79.0576,0.41949943
857527510000.0,-1.6305261656751189,9.7706122238748,0.5322614423244632,0.12675454,-0.04337143,0.05009095,338.19876,-79.30065,0.38356066
857532501000.0,-1.6298124033360213,9.771801827773295,0.525123813467929,0.12095132,-0.029321533,0.04428773,338.39944,-79.53359,0.34392425
857537479000.0,-1.6291005001254368,9.772988333124273,0.5180047759107607,0.1020145,-0.01985312,0.042760566,338.60132,-79.75168,0.30310896
857542531000.0,-1.6283780141833168,9.774192476361138,0.5107799109572022,0.098043874,-0.022602014,0.040927973,338.8005,-79.965096,0.25806338
857547506000.0,-1.6276665400023893,9.775378266662685,0.5036651636998876,0.09285152,-0.027794369,0.03726278,338.99542,-80.16583,0.20955318
857552623000.0,-1.6269347584177043,9.77659790263716,0.4963473422494998,0.087659165,-0.018936822,0.043066,339.1844,-80.358734,0.16066249
857558060000.0,-1.6261572136696234,9.777893810550626,0.4885718888147219,0.07727446,-0.017715093,0.043066,339.37503,-80.542305,0.10789145
857562529000.0,-1.6255181024908163,9.778958995848638,0.4821807721327241,0.081855945,-0.017104227,0.038179077,339.56097,-80.7225,0.053288285
857567580000.0,-1.624795759558582,9.780162900735696,0.4749573372791168,0.07513642,-0.020463986,0.03726278,339.7452,-80.89057,-0.0016144856
857572530000.0,-1.6240878606247946,9.781342732292009,0.4678783425205826,0.07666359,-0.004276057,0.022907447,339.9223,-81.05654,-0.064003155
857577529000.0,-1.6233729542066124,9.782534242988978,0.4607292728644386,0.0720821,0.008857546,0.029321533,340.09808,-81.2133,-0.12174991
857582553000.0,-1.6226544725412897,9.783731712431184,0.4535444507095143,0.07727446,0.02321288,0.029626964,340.26776,-81.367775,-0.18704076
857587591000.0,-1.6219339887375683,9.784932518770718,0.4463396071552729,0.06841691,0.027794369,0.028710667,340.43423,-81.5116,-0.2518939
857592593000.0,-1.621218653289729,9.786124744517116,0.4391862471992752,0.07544186,0.048258353,0.03390302,340.58997,-81.65627,-0.31694454
857597579000.0,-1.6205056060000598,9.787313156666569,0.4320557688424972,0.08032878,0.064751714,0.033292156,340.74393,-81.792694,-0.38452888
857602928000.0,-1.6197406461219126,9.788588089796812,0.4244061642034266,0.07788532,0.07666359,0.034513887,340.8914,-81.9241,-0.4512769
857607637000.0,-1.6190672125705583,9.789710479049068,0.4176718235331362,0.093462385,0.08307768,0.031154128,341.0343,-82.05703,-0.5203053
857612652000.0,-1.618350017994206,9.790905803342987,0.4104998722777728,0.08552113,0.102319926,0.029932396,341.1685,-82.17775,-0.5896205
857617642000.0,-1.6176363986649942,9.792095168891676,0.4033636735211898,0.09407325,0.10262536,0.027183503,341.305,-82.30265,-0.66000456
857622664000.0,-1.616918203019443,9.79329216163426,0.3961817115661679,0.10598512,0.11911872,0.027183503,341.43,-82.42155,-0.7313419
857627554000.0,-1.6162188846787922,9.794457692202013,0.3891885228047068,0.11178834,0.12858713,0.025961773,341.5557,-82.53631,-0.80351704
857632655000.0,-1.6154893912522772,9.795673514579535,0.3818935829535386,0.113926366,0.13164146,0.026267206,341.67728,-82.6487,-0.8755175
857637627000.0,-1.6147783461010066,9.796858589831656,0.3747831259960776,0.10903945,0.12461651,0.023518313,341.79803,-82.75589,-0.94852775
857642646000.0,-1.614060579485112,9.798054867524812,0.3676054543409093,0.11453723,0.13469578,0.026267206,341.91168,-82.86221,-1.0203842
857647653000.0,-1.6133445289878443,9.799248285020258,0.3604449438851556,0.11026118,0.14446963,0.02565634,342.02652,-82.95966,-1.093454
857652644000.0,-1.6126307666487472,9.800437888918754,0.3533073150286215,0.11148291,0.16371189,0.028099801,342.1345,-83.05606,-1.1652527
857657653000.0,-1.6119144301317088,9.801631783113818,0.3461439443729653,0.1133155,0.16401732,0.02687807,342.24417,-83.14691,-1.2375857
857662647000.0,-1.6112002387629545,9.802822102061745,0.3390020252165776,0.10995574,0.16982053,0.022296581,342.3459,-83.23235,-1.3105775
857667598000.0,-1.6104921968192816,9.804002171967864,0.3319216003580921,0.10445796,0.18081611,0.023823744,342.44498,-83.31385,-1.3818872
857672608000.0,-1.6097757172923577,9.805196304512735,0.3247567996024848,0.09437868,0.17592919,0.021380283,342.54636,-83.38863,-1.4547603
857677576000.0,-1.609065244180629,9.806380426365616,0.3176520630448287,0.093767814,0.16279559,0.023518313,342.6459,-83.461044,-1.5254092
857682687000.0,-1.6125263215849004,9.805124611078597,0.3133651736585975,0.08735373,0.16982053,0.01985312,342.74054,-83.52483,-1.5982902
857687611000.0,-1.6170084254753652,9.80323742136779,0.3100625722050635,0.07513642,0.17073683,0.027183503,342.83936,-83.584274,-1.6662804
857692594000.0,-1.6215442345099276,9.80132761910765,0.3067203985570212,0.05589417,0.17837265,0.022296581,342.9876,-83.674774,-1.7040435
857697698000.0,-1.6261901846027245,9.799371441958188,0.3032970683744791,0.06047566,0.17256944,0.009773844,343.13712,-83.7643,-1.7423793
857702588000.0,-1.630641339766082,9.79749728320802,0.3000172712364244,0.03940081,0.16798794,0.0012217305,343.28186,-83.83755,-1.7819856
857707576000.0,-1.6351817000840425,9.795585564630136,0.2966717440125763,0.032375857,0.15882497,0.024740042,343.42682,-83.913864,-1.8163303
857712593000.0,-1.6397484578457122,9.79366273140936,0.2933067660490547,0.040011674,0.15241088,0.023518313,343.5711,-83.98219,-1.8606205
857717576000.0,-1.6442842668802746,9.79175292914922,0.2899645924010125,0.043982297,0.14966199,0.021380283,343.71414,-84.046326,-1.898976
857722580000.0,-1.648839191305109,9.78983507835457,0.2866083337345859,0.03634648,0.13836098,0.02687807,343.8591,-84.1068,-1.9357315
857727702000.0,-1.6535015260181392,9.787872002461242,0.2831729306791429,0.03604105,0.14049901,0.019547688,343.9993,-84.16575,-1.9776481
857732650000.0,-1.658005476068915,9.785975614425285,0.2798542320617411,0.03970624,0.12370021,0.015577064,344.14572,-84.221535,-2.016845
857737598000.0,-1.6625094261196904,9.784079226389329,0.2765355334443394,0.044898596,0.118507855,0.01160644,344.28638,-84.27399,-2.0590374
857742596000.0,-1.667058889004447,9.782163675175964,0.2731832990688798,0.054061573,0.11178834,0.009468411,344.4302,-84.32535,-2.1018715
857747623000.0,-1.6716347493329131,9.780237009319706,0.2698116139537466,0.059253927,0.113926366,-0.004581489,344.57132,-84.3724,-2.149812
857752587000.0,-1.6761532634905627,9.778334489066978,0.2664821838937663,0.06994407,0.1133155,-0.005497787,344.71283,-84.42155,-2.194825
857757603000.0,-1.6807191109955528,9.77641203910975,0.2631178766454059,0.062308256,0.110872045,-0.015882496,344.85284,-84.46162,-2.2468722
857762595000.0,-1.685263112340232,9.774498787477675,0.2597696665609132,0.06383542,0.124311075,-0.0106901415,344.9862,-84.505554,-2.2954051
857767729000.0,-1.6899363701334174,9.772531112421772,0.2563262149235363,0.06627888,0.118202426,-0.018020526,345.1245,-84.542114,-2.3500998
857772657000.0,-1.6944221150506007,9.770642389656777,0.2530209306093577,0.08002335,0.11178834,-0.027488936,345.2572,-84.57945,-2.4043896
857777581000.0,-1.6989042189410652,9.768755199945971,0.2497183291558237,0.07391469,0.11575896,-0.04428773,345.38724,-84.60758,-2.4630506
857782684000.0,-1.7035492587771826,9.76679940606006,0.2462956696884426,0.073303826,0.09743301,-0.034513887,345.52332,-84.63997,-2.5161645
857787669000.0,-1.708086888325104,9.764888837272824,0.242952154610078,0.090713486,0.090713486,-0.045814894,345.65417,-84.66745,-2.5803246
857792583000.0,-1.7125598896487726,9.7630054801975,0.2396562603081556,0.08674286,0.06291912,-0.052839845,345.79422,-84.68852,-2.6395361
857797583000.0,-1.7171111730468889,9.76108916245704,0.2363026845023736,0.08460484,0.054061573,-0.05131268,345.92908,-84.711174,-2.699739
857802722000.0,-1.7217889821234724,9.759119571083398,0.232855879289191,0.08674286,0.040317107,-0.046120327,346.07156,-84.73067,-2.7600973
857807608000.0,-1.726236496260111,9.75724694538742,0.2295787650117809,0.08827003,0.04153884,-0.050701816,346.21063,-84.74557,-2.82291
857812587000.0,-1.7307686642679554,9.755338676181472,0.2262392742243833,0.08032878,0.02565634,-0.04550946,346.3563,-84.75842,-2.8807921
857817610000.0,-1.7353408835697026,9.753413543379407,0.2228702719698947,0.07544186,0.021685716,-0.043982297,346.49655,-84.76859,-2.9412918
857822575000.0,-1.739860307984032,9.751510639863133,0.2195401711947533,0.0711658,0.027183503,-0.03573562,346.63647,-84.776634,-2.9982755
857827544000.0,-1.7443833734250798,9.749606203292664,0.2162073875589673,0.06261369,0.028405234,-0.03573562,346.777,-84.77927,-3.0570252
857832666000.0,-1.7490457081381097,9.747643127399336,0.2127719845035242,0.04795292,0.037873644,-0.03481932,346.91156,-84.779,-3.1134868
857837647000.0,-1.753579696659313,9.745734091666291,0.2094311522858043,0.038179077,0.03176499,-0.028405234,347.0483,-84.77703,-3.1680734
857842603000.0,-1.7580909287635256,9.743834637521948,0.2061070879471133,0.03848451,0.0290161,-0.015882496,347.17947,-84.77369,-3.2208588
857847615000.0,-1.7626531352417971,9.741913720618912,0.2027454635593975,0.03726278,0.036651913,-0.007941248,347.30762,-84.76675,-3.2731793
857852587000.0,-1.7671789314528836,9.7400081342578,0.1994106677781279,0.035430185,0.03940081,-0.0018325958,347.43594,-84.76031,-3.322343
857857613000.0,-1.77175388152467,9.738081851665092,0.196039653378156,0.03268129,0.042455133,-0.002443461,347.56024,-84.75235,-3.3713834
857862600000.0,-1.776293331585951,9.736170516350755,0.192694796869469,0.02565634,0.042760566,0.0015271631,347.68265,-84.743805,-3.4174478
857867640000.0,-1.780881025251252,9.734238868068374,0.1893143924572409,0.029321533,0.053450707,-0.006414085,347.79977,-84.73352,-3.4673934
857872627000.0,-1.785420475312533,9.73232753275404,0.185969535948554,0.01740966,0.05375614,0.008246681,347.91766,-84.72239,-3.5095832
857877537000.0,-1.7898898356094828,9.73044570873291,0.1826763245072761,0.026267206,0.03970624,0.002443461,348.0356,-84.71012,-3.559749
857882591000.0,-1.7869665550082892,9.729664912144065,0.1728678610004424,0.03023783,0.035124753,0.0009162979,348.14886,-84.697044,-3.6047049
857887560000.0,-1.782108101240708,9.729202193058452,0.1615314721776565,0.03940081,0.031154128,0.00030543262,348.26447,-84.68507,-3.6507983
857892661000.0,-1.777120584100754,9.728727181978618,0.1498939355737059,0.03756821,0.029626964,-0.0015271631,348.4272,-84.70212,-3.684948
857897593000.0,-1.7722983071875502,9.72826790837624,0.1386419593865496,0.037873644,0.02443461,-0.0012217305,348.58966,-84.71905,-3.719493
857902592000.0,-1.7674105208353388,9.727802395655576,0.1272371278862263,0.039095376,0.024129177,-0.0012217305,348.74884,-84.73271,-3.75562
857907592000.0,-1.7625217567303064,9.727336789813748,0.1158300149633184,0.042455133,0.02443461,-0.005192355,348.9071,-84.7435,-3.7935858
857912590000.0,-1.757634948130916,9.726871370214257,0.1044274648855796,0.038179077,0.028405234,-0.01160644,349.06213,-84.75,-3.833134
857917563000.0,-1.7527725833520509,9.726408278643971,0.0930819503724555,0.048258353,0.028405234,-0.012217305,349.21597,-84.757904,-3.8728333
857922620000.0,-1.7478280873362213,9.725937364895548,0.0815447963622264,0.04184427,0.026572637,-0.02107485,349.36728,-84.75638,-3.9173932
857927597000.0,-1.742961811546072,9.725473900840589,0.0701901561587639,0.047647487,0.027794369,-0.022602014,349.51547,-84.75823,-3.9606738
857932620000.0,-1.7380505591261566,9.725006153211888,0.0587305705164107,0.0421497,0.032375857,-0.023518313,349.66132,-84.752846,-4.006818
857937560000.0,-1.7332204601903844,9.72454613464016,0.0474603429485777,0.017715093,0.027488936,-0.032375857,349.80765,-84.740906,-4.055965
857942710000.0,-1.7281850331622013,9.724066560623076,0.0357110166379825,0.032986723,0.023823744,-0.033292156,349.95026,-84.7348,-4.103568
857947596000.0,-1.7234077328787636,9.72361157059444,0.024563985889717,0.032986723,0.027183503,-0.034208454,350.09045,-84.71795,-4.153999
857953596000.0,-1.7175412159527248,9.723052843584249,0.0108754503822275,0.022907447,0.02443461,-0.042760566,350.2317,-84.69847,-4.2069654
857957606000.0,-1.713620427140489,9.7226794276991,0.0017269458180554,0.022296581,0.026267206,-0.061391957,350.36893,-84.67654,-4.2634077
857962588000.0,-1.7087492625862346,9.7222154980383,-0.00963910149833,0.014660766,0.02443461,-0.056199603,350.50595,-84.653786,-4.31549
857967594000.0,-1.7038546319642762,9.72174933346946,-0.0210599029567453,0.008552114,0.014660766,-0.040317107,350.6431,-84.62822,-4.369689
857972605000.0,-1.6989551125782127,9.72128270329478,-0.0324921115280836,0.016187929,0.00061086525,-0.04153884,350.78043,-84.59977,-4.427164
857977604000.0,-1.694067326226001,9.72081719057412,-0.0438969430284069,0.03573562,-0.017715093,-0.043066,350.91974,-84.5748,-4.4800515
857982631000.0,-1.6891521627948018,9.720349070460744,-0.0553656543610985,0.027183503,-0.011911872,-0.03634648,351.05423,-84.54711,-4.5311913
857987571000.0,-1.68432206385903,9.719889051889018,-0.0666358819289315,0.012217305,-0.019547688,-0.035430185,351.19604,-84.51862,-4.5840964
857992607000.0,-1.6793981006524412,9.719420093685128,-0.0781251260648843,0.016493361,-0.029321533,-0.03145956,351.3348,-84.49305,-4.634411
857997594000.0,-1.674522047334082,9.718955698418489,-0.0895025804941926,0.012217305,-0.038789943,-0.03634648,351.47394,-84.46098,-4.68703
858002581000.0,-1.669645994015723,9.718491303151843,-0.1008800349235009,0.008857546,-0.032375857,-0.026572637,351.60916,-84.43332,-4.734588
858007665000.0,-1.6646750986737258,9.718017875131874,-0.1124787873435137,0.013133603,-0.027183503,-0.03359759,351.74585,-84.40005,-4.788336
858012650000.0,-1.659801000861009,9.71755366610757,-0.1238516789276528,0.01038471,-0.029321533,-0.031154128,351.88068,-84.36913,-4.836733
858017582000.0,-1.6549787239478049,9.71709439250519,-0.1351036551148092,0.013744468,-0.015577064,-0.027794369,352.00775,-84.3375,-4.8872614
858023229000.0,-1.6494573537675812,9.716568537267428,-0.1479868484499414,0.008246681,-0.01863139,-0.032375857,352.13858,-84.30216,-4.9391646
858027573000.0,-1.645209995513129,9.716164018912046,-0.1578973481573637,0.01038471,-0.015577064,-0.030543262,352.26187,-84.27016,-4.988593
858032611000.0,-1.6402840768008984,9.71569487446582,-0.1693911551384857,0.016798794,-0.015271631,-0.035124753,352.38535,-84.234665,-5.0410743
858037565000.0,-1.6354402893256323,9.715233552197736,-0.1806933226225029,0.02443461,-0.010995574,-0.041233405,352.5052,-84.19915,-5.093541
858042650000.0,-1.6304684162308145,9.714760031056596,-0.1922943564651002,0.027488936,-0.01740966,-0.043066,352.62643,-84.16326,-5.1458807
858047626000.0,-1.6256031181934862,9.714296660122807,-0.2036467152459781,0.025350908,-0.03390302,-0.03848451,352.74783,-84.12727,-5.1979184
858052578000.0,-1.6207612862238625,9.71383552409706,-0.214944319884826,0.030543262,-0.04550946,-0.04153884,352.86832,-84.08975,-5.252505
858057606000.0,-1.6158451450398417,9.713367310862516,-0.2264153126401022,0.034513887,-0.060170226,-0.03726278,352.99265,-84.05428,-5.303349
858062592000.0,-1.6109700694743034,9.712903008717044,-0.237790485646826,0.03390302,-0.06566802,-0.030848695,353.11606,-84.01814,-5.354361
858067586000.0,-1.606087171886197,9.712437961602223,-0.2491839100342263,0.027488936,-0.08277224,-0.03176499,353.24542,-83.98044,-5.4058967
858072610000.0,-1.6011749417134606,9.711970120852357,-0.2606457770991642,0.03145956,-0.07360926,-0.027183503,353.36697,-83.94645,-5.454347
858077836000.0,-1.5960652054708808,9.711483469626474,-0.2725684915261875,0.029932396,-0.06566802,-0.01863139,353.492,-83.91126,-5.5017467
858082911000.0,-1.591103109904273,9.711010879697016,-0.2841467111429391,0.02076942,-0.043676864,-0.019242255,353.60873,-83.87396,-5.5508165
858087596000.0,-1.5923507240888524,9.710882,-0.2977075072184286,0.013744468,-0.030848695,-0.02107485,353.7241,-83.83816,-5.5978417
858092604000.0,-1.5962964759934184,9.710882,-0.3134905313171534,0.01863139,-0.026572637,-0.02443461,353.83414,-83.801796,-5.645616
858097615000.0,-1.5895111735703813,9.715789776026392,-0.3149779537463343,0.016798794,-0.010079277,-0.021380283,353.96997,-83.81906,-5.6481743
858102623000.0,-1.5473170479398828,9.736886893914956,-0.2692676540395894,0.0009162979,0.0009162979,-0.026267206,354.10373,-83.830086,-5.6552978
858107642000.0,-1.5050302435190617,9.758030351319649,-0.2234569523167155,0.0070249503,0.006414085,-0.0290161,354.26862,-83.872734,-5.6382885
858112575000.0,-1.4786122986612575,9.77027394077079,-0.1740803156064908,-0.0033597588,0.009468411,-0.016187929,354.4277,-83.91123,-5.6205535
858117590000.0,-1.4669219979716024,9.774170789046654,-0.119525542434077,0.0033597588,0.0027488936,-0.014966198,354.58508,-83.94531,-5.608974
858122897000.0,-1.456052683184536,9.778676142681627,-0.0647691491951838,0.004886922,0.003970624,-0.013744468,354.7773,-84.020226,-5.554383
858127618000.0,-1.4597558589401265,9.786082262183635,-0.0425500780343189,0.0009162979,0.0021380284,-0.012217305,354.96817,-84.09104,-5.503023
858132676000.0,-1.4637233791629127,9.79401705405848,-0.0187449388833647,-0.002443461,0.009773844,-0.011301007,355.19003,-84.19218,-5.4249105
858137572000.0,-1.4738161911012235,9.799927989988875,0.0046978549710789,-0.011301007,0.016187929,-0.01282817,355.4078,-84.28604,-5.3520494
858142568000.0,-1.4883310134695116,9.8047663651532,0.0288892427619577,-0.017104227,0.028405234,-0.0033597588,355.61682,-84.37735,-5.2806716
858147590000.0,-1.521521844662513,9.785230181827622,0.0566672472958463,-0.02107485,0.028099801,0.0070249503,355.85492,-84.48498,-5.1937985
858152540000.0,-1.5658257839148495,9.750771910799584,0.0862031915481827,-0.025045475,0.05222898,0.010995574,356.0772,-84.58646,-5.1118317
858157466000.0,-1.601829274166383,9.74231979210616,0.120131246793297,-0.025350908,0.043676864,0.014049901,356.3477,-84.71234,-5.0072117
858162495000.0,-1.634603544368833,9.746416228308949,0.1570022808792106,-0.03023783,0.04795292,0.015882496,356.60132,-84.83063,-4.908606
858167459000.0,-1.6666760553778268,9.750837110314396,0.195143944054054,-0.028099801,0.05467244,0.011301007,356.89203,-84.96094,-4.801223
858172509000.0,-1.6986867602868174,9.756172339216768,0.2378249062162162,-0.027183503,0.054367006,0.0070249503,357.17676,-85.08299,-4.7001915
858177502000.0,-1.7231054350368953,9.760980305001366,0.263002294454769,-0.028710667,0.055588737,0.007941248,357.46686,-85.19764,-4.605566
858182472000.0,-1.740449589541769,9.76531643418056,0.2716743852901521,-0.022907447,0.06291912,0.01160644,357.7502,-85.30572,-4.5170145
858187484000.0,-1.7590119805461495,9.763500794647731,0.2890260432026215,-0.0290161,0.062308256,0.004276057,358.03458,-85.397896,-4.4412265
858192476000.0,-1.779900024412889,9.747835020753689,0.3255800463571819,-0.019242255,0.070554934,0.007330383,358.31067,-85.49021,-4.3658447
858197473000.0,-1.808168118548864,9.726153305262269,0.3620702705954895,-0.02565634,0.07147124,0.005497787,358.58893,-85.57196,-4.299717
858202519000.0,-1.8449043965453165,9.697580474110987,0.3988065741650477,-0.018020526,0.0720821,0.00580322,358.8623,-85.65213,-4.235649
858207511000.0,-1.880285013549395,9.66988257672784,0.4363411521671222,-0.02443461,0.07819075,0.011911872,359.12415,-85.71754,-4.1830654
858212514000.0,-1.9083479657848497,9.646496823896916,0.4831127066673174,-0.024129177,0.07147124,0.005497787,359.38806,-85.77694,-4.136418
858217536000.0,-1.9370005816793892,9.624691,0.525481607538168,-0.011301007,0.07452556,0.011911872,359.65286,-85.83153,-4.093497
858222549000.0,-1.971903161395856,9.624691,0.5080302949018539,-0.015271631,0.061391957,0.0070249503,359.92334,-85.877335,-4.057568
858232483000.0,-2.020302988772555,9.633864780351972,0.4700699628759189,-0.009468411,0.061391957,0.006414085,0.195373,-85.91974,-4.024275
858237524000.0,-2.032509619214933,9.644481155091958,0.4482014032775185,-0.0067195175,0.05589417,0.00580322,0.47202882,-85.95793,-3.9940577
858242512000.0,-2.0631056981242564,9.653222592002928,0.4219762482038612,0.004276057,0.0580322,0.0076358155,0.7488612,-85.9891,-3.9713078
858247518000.0,-2.093812187903742,9.661995573794492,0.3956564554414859,0.0125227375,0.05100725,0.0030543262,1.033521,-86.01742,-3.95102
858252546000.0,-2.101780898327759,9.667458191471573,0.3569682654347826,0.004886922,0.057726767,0.004276057,1.3122002,-86.04476,-3.9305344
858257932000.0,-2.1074083626666664,9.67359652,0.3155238573333333,0.009468411,0.05009095,0.0143553335,1.5955276,-86.070984,-3.91072
858262559000.0,-2.1160335409829685,9.690846786569344,0.3068986790170316,0.007330383,0.050396383,0.014049901,1.8805168,-86.088295,-3.898461
858267530000.0,-2.125299968778589,9.70937954540146,0.2976322512214112,0.011911872,0.055283304,0.014966198,2.1682866,-86.10861,-3.8828952
858272515000.0,-2.138332447579065,9.714975834686072,0.260037247340237,0.02107485,0.052839845,0.018020526,2.4559119,-86.126236,-3.8689258
858277856000.0,-2.152648061572908,9.71974780567217,0.2170903704795223,0.014049901,0.053145275,0.009162978,2.7391741,-86.137405,-3.86022
858282531000.0,-2.1547816,9.708519459610027,0.218649558569745,0.017104227,0.05131268,0.0143553335,3.0209959,-86.14865,-3.8506389
858287498000.0,-2.1547816,9.693231061281338,0.2288419713477608,0.013439035,0.06078109,0.016493361,3.2973294,-86.15358,-3.8463786
858292556000.0,-2.164345146361716,9.68216525391507,0.2234676590968023,0.018936822,0.04734206,0.0125227375,3.5714266,-93.85037,-3.8501024
858297591000.0,-2.174881788797436,9.67162839143419,0.216443227138903,0.01282817,0.052839845,0.007330383,3.8353648,-93.85656,-3.855187
858302622000.0,-2.181618559651226,9.661104618964576,0.2163700759891008,0.013744468,0.0421497,0.0033597588,4.1088724,-93.864914,-3.8617525
858307567000.0,-2.171295447716621,9.65078183040872,0.2473394387411444,0.022602014,0.05100725,0.0012217305,4.3729954,-93.87647,-3.8708458
858312487000.0,-2.1598938238785634,9.649797737082809,0.2800561425396516,0.011301007,0.03848451,-0.008552114,4.640634,-93.89813,-3.889884
858317549000.0,-2.145742487418507,9.668666087184976,0.3177930594687165,0.013133603,0.03848451,-0.008552114,4.9000797,-93.91975,-3.9079995
858322507000.0,-2.132378064494344,9.686485224717204,0.3545148533040689,0.013133603,0.032986723,-0.0030543262,5.1679063,-93.93977,-3.9243374
858327604000.0,-2.1200161829478303,9.702967647391525,0.391600523759919,0.0143553335,0.034208454,-0.01160644,5.4314513,-93.9657,-3.9461856
858332603000.0,-2.1078919832517307,9.719133162586528,0.427973148168158,0.01282817,0.03726278,-0.004276057,5.6952934,-93.98354,-3.9603057
858337585000.0,-2.102200128741551,9.72515656935951,0.4779310616350177,0.016493361,0.03573562,-0.007941248,5.9576283,-94.00883,-3.9815907
858342712000.0,-2.097011289876881,9.730036,0.5295099924008208,0.016187929,0.030543262,-0.011301007,6.2177315,-94.03339,-4.002243
858348377000.0,-2.092372732079343,9.730036,0.5712570319528043,0.025045475,0.029321533,-0.006414085,6.46534,-94.060875,-4.0259333
858352694000.0,-2.0888379299589603,9.730036,0.6030702658002736,0.015271631,0.025961773,-0.010995574,6.7105856,-94.09314,-4.056211
858357597000.0,-2.087744,9.738236360886614,0.6347835906137473,0.018325957,0.020463986,-0.01740966,6.9549775,-94.12637,-4.0867333
858362528000.0,-2.087744,9.74957249195807,0.6650137180251261,0.029626964,0.018325957,-0.021685716,7.1975245,-94.161224,-4.1190104
858367541000.0,-2.087744,9.759765699197034,0.6875307433600989,0.02687807,0.021380283,-0.02443461,7.4358845,-94.19839,-4.155338
858372558000.0,-2.087744,9.764711942660078,0.6776384630224419,0.027183503,0.009773844,-0.032375857,7.6773653,-94.23951,-4.1952415
858377577000.0,-2.090363966171803,9.76703298955667,0.683476330859015,0.042455133,-0.0012217305,-0.040317107,7.9135504,-94.28392,-4.2390656
858382595000.0,-2.1002045277362544,9.762112606020272,0.7326791386812737,0.04642576,0.0290161,-0.05589417,8.139577,-94.33283,-4.287889
858387526000.0,-2.111131025276645,9.761588342457776,0.7604999329644729,0.03481932,0.003970624,-0.06047566,8.3832445,-94.380974,-4.3361087
858392562000.0,-2.125175511240536,9.770951528635216,0.7417739516792856,0.05131268,-0.01160644,-0.061391957,8.613863,-94.43412,-4.3880577
858397641000.0,-2.137500590098428,9.77792,0.7240921198031438,0.058948494,-0.023823744,-0.0842994,8.850524,-94.49609,-4.4510455
858402589000.0,-2.14446195434112,9.77792,0.7101693913177611,0.06841691,-0.042455133,-0.08979719,9.091874,-94.554436,-4.5097637
858407607000.0,-2.151521801909799,9.77792,0.6960496961804026,0.06658431,-0.050396383,-0.10170906,9.336847,-94.62148,-4.5768013
858412583000.0,-2.131810473148241,9.788129312719256,0.6869777584945375,0.07452556,-0.07269296,-0.103847094,9.589441,-94.688255,-4.6430306
858417678000.0,-2.0877947186128094,9.807691722762351,0.6820871304500351,0.08582657,-0.07971791,-0.106595986,9.838009,-94.75874,-4.713049
858422559000.0,-2.051511948138209,9.79487918517276,0.6991663333445153,0.086132,-0.086437434,-0.10598512,10.090811,-94.830864,-4.78453
858427555000.0,-2.0194115168735323,9.754753646091917,0.7352793185172761,0.08552113,-0.09437868,-0.10140363,10.344001,-94.903076,-4.8558755
858432575000.0,-1.984752479923204,9.711922384530991,0.7602345164563906,0.099571034,-0.08857546,-0.09407325,10.588045,-94.96837,-4.9192796
858437563000.0,-1.936712585865789,9.655148200585115,0.7209291859023588,0.0870483,-0.07544186,-0.086437434,10.830311,-95.031364,-4.981619
858442957000.0,-1.8857713186175629,9.594757578884057,0.6789218010844823,0.086437434,-0.0693332,-0.08307768,11.0617,-95.0932,-5.042612
858447738000.0,-1.864587511455538,9.565100071897843,0.6535012015221615,0.070249505,-0.06383542,-0.07238753,11.287969,-95.14977,-5.0995016
858452544000.0,-1.843292933496808,9.535287484870915,0.6279476768418617,0.079107046,-0.05681047,-0.07238753,11.503991,-95.201935,-5.1502185
858457563000.0,-1.8086436154766592,9.52591261182398,0.6164717825253877,0.06383542,-0.03390302,-0.06383542,11.712358,-95.247345,-5.195774
858462521000.0,-1.771265182051484,9.522174694324177,0.6089961075493978,0.055588737,-0.01038471,-0.057726767,11.91695,-95.29437,-5.242407
858467626000.0,-1.7442522555675677,9.523166446486488,0.5918777265945946,0.049785517,0.013744468,-0.02443461,12.113205,-95.325806,-5.273437
858472671000.0,-1.749000654191646,9.53741193985258,0.5491420893955774,0.03604105,0.04886922,-0.007941248,12.297935,-95.36003,-5.307901
858477792000.0,-1.7564147568248256,9.552900933438272,0.5190771194198336,0.021991149,0.07391469,0.010079277,12.471358,-95.37679,-5.3251066
858482590000.0,-1.770191716977738,9.570122088674012,0.5259656030927217,0.0143553335,0.09437868,0.017104227,12.6346,-95.39241,-5.34139
858487693000.0,-1.784844453046998,9.588437960947456,0.5332919749524024,0.013744468,0.106595986,0.032070424,12.79361,-95.40025,-5.3490906
858492598000.0,-1.8101193289191124,9.610403120615606,0.533894146385111,0.018325957,0.11056661,0.044898596,12.947679,-95.40743,-5.356222
858497843000.0,-1.846075174302076,9.63736962920544,0.5293996657122405,0.011911872,0.116675265,0.04520403,13.096207,-95.41432,-5.3635225
858502706000.0,-1.9066789121790653,9.640876565315526,0.5251563276535315,0.015577064,0.11209377,0.047647487,13.245101,-95.42256,-5.371807
858507596000.0,-2.0167856804476627,9.605642627574532,0.5207520348481143,0.017715093,0.112399206,0.04550946,13.389487,-95.43248,-5.3821
858512584000.0,-2.112258976749468,9.574126325621007,0.5151370244187367,0.037873644,0.11453723,0.048563786,13.541151,-95.44558,-5.3946366
858517581000.0,-2.139430173115685,9.560540798367636,0.5049478293278921,0.052534413,0.12736541,0.03756821,13.688123,-95.46383,-5.4125257
858522602000.0,-2.1667318695244853,9.546890021433642,0.4947096967381121,0.051618114,0.12308934,0.040927973,13.855163,-95.49553,-5.4441695
858527589000.0,-2.1936618774205536,9.541883186489502,0.490108796236759,0.053145275,0.124311075,0.036957346,14.015136,-95.53342,-5.481412
858533499000.0,-2.225216730421854,9.552401141330607,0.4953679384036424,0.070554934,0.122783914,0.03023783,14.175422,-95.57204,-5.5189195
858537657000.0,-2.249913902243162,9.5609043716335,0.4923041642219253,0.07971791,0.12492194,0.032070424,14.340839,-95.613884,-5.5595803
858542572000.0,-2.2863227817171787,9.574144215526337,0.4691349039905773,0.07238753,0.12095132,0.027183503,14.506574,-95.659744,-5.6044035
858547757000.0,-2.3247317420575206,9.588111375360382,0.4446928664932142,0.07971791,0.12003502,0.01985312,14.673681,-95.71044,-5.653476
858552575000.0,-2.341129214891397,9.59250190714218,0.4240382551474912,0.09315695,0.09865474,0.014660766,14.845936,-95.76192,-5.7036004
858557577000.0,-2.3274982785924307,9.5834145213886,0.4058638537019823,0.096516706,0.09682214,0.0070249503,15.010959,-95.81602,-5.7565446
858562519000.0,-2.316339573148333,9.584292187163108,0.39264908,0.109650314,0.09315695,0.004276057,15.186871,-95.87795,-5.8161774
858567593000.0,-2.311489035795568,9.61339551257736,0.39264908,0.106595986,0.08979719,-0.004581489,15.361229,-95.94296,-5.8796077
858572533000.0,-2.2964533028986627,9.632341791914664,0.3936121639298137,0.112704635,0.08674286,-0.0125227375,15.531441,-96.007935,-5.9415393
858577587000.0,-2.251557789178326,9.62485904351859,0.3973534599953621,0.116980694,0.1151481,-0.027488936,15.69165,-96.07684,-6.007687
858582592000.0,-2.20709755052176,9.61744884254464,0.4010584831073664,0.10629055,0.105374254,-0.022907447,15.859359,-96.14133,-6.070095
858587568000.0,-2.1590455431831144,9.608924510838564,0.4115104110496292,0.118507855,0.110872045,-0.021685716,16.012774,-96.21157,-6.1370935
858592573000.0,-2.1089171229511314,9.59981053812512,0.4251818079026431,0.12889257,0.11056661,-0.020463986,16.169048,-96.279396,-6.202433
858597762000.0,-2.068436518029831,9.588720561957055,0.4333697289460744,0.12736541,0.110872045,-0.022296581,16.310455,-96.34164,-6.261999
858603927000.0,-2.0297273712506145,9.574204366661204,0.4382083596623504,0.13041973,0.12308934,-0.021991149,16.447168,-96.40308,-6.3201833
858607578000.0,-2.00606188199063,9.562669244374472,0.440026348199063,0.12492194,0.1328632,-0.021380283,16.57486,-96.457115,-6.371933
858612648000.0,-1.968772598525459,9.52910896713002,0.4362974198525459,0.12156218,0.1337795,-0.018020526,16.700476,-96.51005,-6.4224596
858617550000.0,-1.932718936287536,9.496660746409647,0.4326920536287535,0.113926366,0.13744467,-0.009468411,16.815903,-96.55587,-6.466153
858622611000.0,-1.913264704142012,9.48523247928994,0.4267629039053254,0.10751228,0.14202617,-0.014966198,16.929777,-96.604225,-6.5126414
858627530000.0,-1.909446249152955,9.492869548755776,0.4191259859528248,0.10995574,0.15515977,-0.010079277,17.039263,-96.64696,-6.553432
858632715000.0,-1.9072962163237772,9.501704608431703,0.4110468718381113,0.1001819,0.14905111,-0.005192355,17.149902,-96.6825,-6.5873337
858637569000.0,-1.9229743907588528,9.517382701011805,0.4032077846205733,0.10262536,0.14477506,-0.011911872,17.25535,-96.72044,-6.6229916
858642663000.0,-1.9394277530522763,9.533835977403037,0.3949811034738617,0.098043874,0.13988814,-0.0036651916,17.363314,-96.75012,-6.6506953
858647866000.0,-1.9711843239510816,9.5385,0.3723296728918156,0.09896017,0.15057829,-0.0012217305,17.467045,-96.78358,-6.6819
858652560000.0,-2.005015743857008,9.5385,0.3469560902991533,0.082161374,0.1572978,-0.003970624,17.57242,-96.81499,-6.712315
858657613000.0,-2.045055008165233,9.54292690894479,0.3418288160604356,0.08155051,0.1554652,-0.008857546,17.677988,-96.84925,-6.7448716
858662650000.0,-2.087699287277988,9.550680156634252,0.3534590600160733,0.08032878,0.1554652,-0.008246681,17.780201,-96.88172,-6.7765384
858667571000.0,-2.132441176962457,9.558404778156996,0.363542778771331,0.08277224,0.15699236,-0.01038471,17.883194,-96.92427,-6.817172
858673346000.0,-2.226819992712307,9.569508406946396,0.3579910803172054,0.082161374,0.14477506,-0.013439035,17.98923,-96.96635,-6.8577485
858677613000.0,-2.295587380974882,9.576059131808009,0.3577071981447401,0.09712757,0.14172074,-0.025045475,18.097548,-97.020386,-6.910025
858682710000.0,-2.368424495473763,9.56796595946282,0.394125730042278,0.09407325,0.15057829,-0.033292156,18.204952,-97.07288,-6.9618163
858687606000.0,-2.438389281148968,9.560191941059438,0.4291080985277294,0.07880162,0.12980886,-0.03359759,18.329607,-97.138664,-7.027376
858692640000.0,-2.4696426484332425,9.554852117847412,0.4321297457169618,0.099571034,0.11453723,-0.032375857,18.44901,-97.20708,-7.09398
858697746000.0,-2.482133913964577,9.550688710490462,0.4196384714901226,0.10903945,0.099265605,-0.046120327,18.573193,-97.277596,-7.164343
858702914000.0,-2.48415915697818,9.546140111877316,0.417613227066694,0.102319926,0.09773844,-0.046120327,18.703968,-97.361115,-7.248436
858707630000.0,-2.470213853725813,9.541491580382877,0.43155854002676,0.07696902,0.083383106,-0.05009095,18.841599,-97.447914,-7.3366385
858712588000.0,-2.4612393,9.529939905921726,0.4508052218322952,0.090713486,0.07666359,-0.056505036,18.979502,-97.53818,-7.425865
858717629000.0,-2.4612393,9.507500262526726,0.4777328173375477,0.086437434,0.06261369,-0.07269296,19.122402,-97.62895,-7.5180206
858722614000.0,-2.4585410241096755,9.490616,0.4934968059848724,0.0870483,0.03848451,-0.07544186,19.261742,-97.720215,-7.609639
858727647000.0,-2.4471480521667197,9.490616,0.4745084453907973,0.083383106,0.037873644,-0.0852157,19.397205,-97.8162,-7.706512
858732621000.0,-2.435888635825717,9.490616,0.4557426783343838,0.0729984,0.018020526,-0.092240654,19.542692,-97.914,-7.806091
858737703000.0,-2.415623985655335,9.500746867557476,0.4399789108145018,0.07238753,0.012217305,-0.09743301,19.683323,-98.01287,-7.906449
858742570000.0,-2.392726419532325,9.514485215955984,0.4262403567950482,0.065973446,0.005192355,-0.1020145,19.829021,-98.11138,-8.007383
858747761000.0,-2.3940594715638017,9.525635779060964,0.4213795,0.061391957,-0.0036651916,-0.113926366,19.972725,-98.21029,-8.10798
858752652000.0,-2.4073612877697843,9.53450384172662,0.4213795,0.065973446,-0.019547688,-0.12064589,20.119493,-98.307755,-8.207138
858757663000.0,-2.417029571748787,9.599123757124309,0.4324020248376956,0.06566802,-0.042455133,-0.1160644,20.265455,-98.40017,-8.301208
858762649000.0,-2.423555906034306,9.706808136540696,0.4519810447310873,0.07727446,-0.05375614,-0.11301007,20.411572,-98.494255,-8.396334
858767541000.0,-2.42995920072439,9.81246236520194,0.4711909455169822,0.08674286,-0.08307768,-0.129198,20.569002,-98.593994,-8.497482
858772660000.0,-2.417729930114853,9.872268945590813,0.549779931745182,0.09743301,-0.12522738,-0.13103059,20.732382,-98.68804,-8.592564
858777651000.0,-2.3944683918629552,9.900182888650964,0.6614353882226981,0.11026118,-0.1704314,-0.13316862,20.903801,-98.78589,-8.691311
858782585000.0,-2.3475765387791308,9.91417436408354,0.7348355365067334,0.10415252,-0.21288654,-0.1441642,21.084696,-98.88358,-8.791068
858787627000.0,-2.281382937972744,9.918068181840171,0.7815603981888557,0.087659165,-0.26816985,-0.16401732,21.2808,-98.983315,-8.893208
858792580000.0,-2.219929101888225,9.9238401058924,0.8228493207552898,0.08552113,-0.30176744,-0.16707164,21.478243,-99.08111,-8.995209
858797762000.0,-2.1963846585824083,9.952093290350128,0.8134315434329632,0.07696902,-0.30176744,-0.16615535,21.680363,-99.18138,-9.100582
858803162000.0,-2.17526825570887,9.983031663646702,0.7947871005428354,0.06566802,-0.30604348,-0.172264,21.881273,-99.27428,-9.199308
858807613000.0,-2.188195120545868,10.021812224412434,0.7010672764821835,0.054367006,-0.30970868,-0.18417588,22.080622,-99.367424,-9.2983
858812588000.0,-2.2026438180439727,10.06515827918878,0.5963141592721759,0.026267206,-0.3109304,-0.19517145,22.27351,-99.45719,-9.394147
858817539000.0,-2.201041111846513,10.082752728555477,0.4435147673657496,-0.005497787,-0.2910773,-0.21197024,22.459923,-99.55073,-9.493815
858822600000.0,-2.1666002130951174,10.048311881179576,0.1876678956999289,-0.027488936,-0.2742785,-0.2171626,22.64626,-99.64275,-9.592103
858827585000.0,-2.1131874156174337,10.005571550544795,0.0378782413801452,-0.032070424,-0.25045475,-0.22204952,22.812237,-99.74064,-9.694061
858832632000.0,-2.0254135215496367,9.947055548426151,0.0629564893462469,-0.028710667,-0.21471913,-0.22937989,22.968596,-99.839096,-9.796596
858837743000.0,-1.934388246479619,9.893723158814188,0.0892787536739015,-0.03634648,-0.20861048,-0.23671028,23.111742,-99.9273,-9.885738
858842588000.0,-1.8263107365802007,9.903548582848067,0.1236670452832186,-0.058948494,-0.22571471,-0.23854288,23.25002,-100.01438,-9.9740505
858847830000.0,-1.7286930301628367,9.905716406330846,0.1461654503271952,-0.07238753,-0.258396,-0.23732115,23.384193,-100.08727,-10.048165
858852756000.0,-1.707155067843555,9.87699927316999,0.1138584843585451,-0.09621128,-0.28893927,-0.24007004,23.521564,-100.16006,-10.123054
858857557000.0,-1.6861636433419571,9.84901085329478,0.08237132568711,-0.13927728,-0.27580565,-0.23762658,23.644873,-100.213974,-10.17971
858862605000.0,-1.7333817518668206,9.800416993071591,0.0595454015078906,-0.19303341,-0.24404067,-0.24007004,23.770447,-100.26891,-10.238075
858867583000.0,-1.838894322786759,9.736191595842955,0.0457828874880677,-0.2415972,-0.20586158,-0.22907446,23.889294,-100.31822,-10.291277
858872662000.0,-1.913947914706647,9.661882346390502,0.0205670207321258,-0.27091873,-0.15271631,-0.23365596,23.98757,-100.36831,-10.344923
858877595000.0,-1.950795274347864,9.579999419967068,-0.0162803213813155,-0.31215215,-0.112704635,-0.23090707,24.077795,-100.41189,-10.392698
858882601000.0,-1.977782598196237,9.503421495723838,-0.0548086400080858,-0.37782016,-0.07788532,-0.22968534,24.16587,-100.47517,-10.460379
858887616000.0,-1.9479100110402736,9.462347000310992,-0.0996175550539573,-0.44226643,-0.0421497,-0.21624629,24.24146,-100.53319,-10.522562
858892757000.0,-1.9172868863007309,9.420240523557768,-0.1455522773372725,-0.4978552,0.004581489,-0.19517145,24.305893,-100.59747,-10.590502
858897880000.0,-1.927451399397537,9.290673907238416,-0.1790558280322494,-0.52198434,0.03390302,-0.17531833,24.364603,-100.6576,-10.653666
858902798000.0,-1.9608340182688049,9.115414548152742,-0.2040928052573757,-0.550695,0.052839845,-0.15057829,24.412514,-100.70972,-10.70817
858907642000.0,-2.0093501982274,8.987374828310966,-0.2606933318629189,-0.57787853,0.07086037,-0.12614368,24.445753,-100.74943,-10.749133
858912649000.0,-2.090300797822233,8.942851960496329,-0.3821191847649194,-0.60139686,0.093767814,-0.112704635,24.47187,-79.21453,-10.785437
858918048000.0,-2.1832669537351204,8.896041547942637,-0.5152795802999344,-0.62796944,0.15607607,-0.12522738,24.487486,-79.16654,-10.832638
858922639000.0,-2.3728336855844034,8.879557581591527,-0.6718781901096635,-0.655153,0.2125811,-0.12034045,24.497976,-79.12694,-10.8703375
858928833000.0,-2.6312450642215133,8.85759638561902,-0.8768706263844592,-0.64965516,0.28710666,-0.13072516,24.474558,-79.06328,-10.931576
858932640000.0,-2.8179969396346767,8.847025678167585,-0.9367721727167296,-0.61575216,0.3203988,-0.14813483,24.447134,-78.99979,-10.992062
858937538000.0,-3.058267674011791,8.833425645307818,-1.013840145907026,-0.56688297,0.39645153,-0.15943582,24.385633,-78.90503,-11.084052
858942568000.0,-3.207889197217974,8.86363564459981,-0.9510464222634912,-0.5369505,0.44837508,-0.19394971,24.322042,-78.800865,-11.185462
858947789000.0,-3.328056457184473,8.910974080110698,-0.8345205921127377,-0.5006041,0.4352415,-0.23487769,24.256102,-78.69477,-11.289519
858952927000.0,-3.4384095622146007,8.959017463988241,-0.7191022771582558,-0.46395215,0.4007276,-0.2666427,24.193626,-78.54377,-11.43904
858957609000.0,-3.442803347378736,9.020530364527191,-0.6048637940715336,-0.42638394,0.37110063,-0.2959642,24.134089,-78.38594,-11.596031
858963013000.0,-3.4443715758006754,9.09190202854804,-0.47181428752379,-0.37873647,0.36835176,-0.32528573,24.101017,-78.19455,-11.786068
858967624000.0,-3.3811135909342065,9.159678491456052,-0.3362612579095467,-0.34697145,0.35521814,-0.34972036,24.079924,-78.00086,-11.978696
858972863000.0,-3.30779565658889,9.237569386282487,-0.1870129318719588,-0.32498032,0.3323107,-0.364992,24.075695,-77.805664,-12.172704
858977650000.0,-3.2202413749148886,9.321317440504858,-0.1184922057993855,-0.31764993,0.312763,-0.37048978,24.074837,-77.611176,-12.366296
858982645000.0,-3.1288827709955997,9.40870443253342,-0.046994184756456,-0.33567044,0.3295618,-0.35521814,24.077982,-77.43298,-12.542605
858987611000.0,-3.0819529296732413,9.465443303503092,-0.0390261219546658,-0.3359759,0.34513888,-0.3475823,24.087862,-77.25575,-12.718321
858992681000.0,-3.0628950827494847,9.50355859935237,-0.0723772028319105,-0.3313944,0.3631594,-0.33567044,24.092634,-77.088005,-12.884408
858997938000.0,-3.046387636866097,9.513603737796773,-0.0660926988962962,-0.33383787,0.37507126,-0.32345316,24.09043,-76.9445,-13.025765
859002565000.0,-3.033763177150997,9.50518769496676,-0.0366356060148148,-0.3213151,0.40225476,-0.30543262,24.079172,-76.80996,-13.158693
859007550000.0,-3.0283922351009105,9.481100806885635,-0.0297602974788286,-0.32803464,0.40194935,-0.29138273,24.064295,-76.68503,-13.281399
859012784000.0,-3.0333511756628413,9.436469927582111,-0.0545550189295607,-0.30390546,0.42363504,-0.26175576,24.035677,-76.57372,-13.391576
859017567000.0,-3.044313868112602,9.391988994732078,-0.0619579768907729,-0.28160888,0.4447099,-0.23640485,24.005947,-76.4667,-13.4968815
859022583000.0,-3.064084026051527,9.3405866584081,-0.0500959469485554,-0.25961772,0.45142943,-0.20677789,23.974812,-76.37262,-13.589788
859027999000.0,-3.0899748979245443,9.284646414334931,-0.0337984590059658,-0.24281894,0.45478916,-0.17562376,23.932436,-76.28475,-13.676571
859032593000.0,-3.156517526846484,9.232891053440888,0.0142601956682631,-0.20861048,0.46517387,-0.15851954,23.886902,-76.20456,-13.7566185
859037776000.0,-3.231591633442568,9.174500100999916,0.0684804845617175,-0.20372356,0.45845437,-0.12095132,23.846006,-76.13202,-13.828019
859042588000.0,-3.317543639982862,9.119593244644388,0.1220250928628963,-0.19181168,0.44990227,-0.106595986,23.803583,-76.060745,-13.899106
859047742000.0,-3.419052884507284,9.060379658526136,0.181238807058269,-0.17928895,0.4334089,-0.08552113,23.766115,-76.00404,-13.955651
859052878000.0,-3.4997483866059413,9.029971219128456,0.2288857781285581,-0.15332718,0.42332962,-0.06811147,23.738256,-75.931046,-14.027956
859057659000.0,-3.537663136900942,9.053667876203292,0.2525824599472104,-0.1328632,0.419359,-0.048258353,23.714018,-75.86674,-14.091688
859062634000.0,-3.583134757502439,9.07609015004878,0.2955673612292683,-0.10445796,0.4166101,-0.03145956,23.704576,-75.78307,-14.174092
859068169000.0,-3.645192421502439,9.09677593004878,0.3783109672292683,-0.09468412,0.3979787,-0.023518313,23.701424,-75.70447,-14.251386
859072671000.0,-3.71441630597884,9.075713276388091,0.4468432975018453,-0.065973446,0.38759398,-0.020463986,23.69698,-75.62365,-14.331492
859077586000.0,-3.8263682596407778,8.979203041007136,0.5240515422406299,-0.050701816,0.37018433,-0.022907447,23.700487,-75.545235,-14.409001
859082623000.0,-3.941099081735422,8.880297231116215,0.6031762479881899,-0.036651913,0.35918877,-0.030543262,23.714388,-75.456474,-14.496446
859087571000.0,-3.981185946544164,8.759936556065984,0.6302254981415745,-0.025961773,0.31306845,-0.04337143,23.744087,-75.367645,-14.5839615
859092998000.0,-4.013538972017189,8.624275285642062,0.654793625338726,-0.02687807,0.29626966,-0.04795292,23.768557,-75.280876,-14.669607
859097620000.0,-4.035917077460398,8.508654405628581,0.7480359559352883,-0.024740042,0.28771752,-0.058643065,23.818295,-75.15525,-14.792565
859102847000.0,-4.061224381041456,8.377899247724974,0.8534833081698686,-0.035124753,0.25473082,-0.0852157,23.883568,-75.01317,-14.9309025
859107604000.0,-4.090882946656761,8.284118519316493,0.940419682295691,-0.04153884,0.21960606,-0.09590584,23.952017,-74.8752,-15.0651865
859112590000.0,-4.126358373699851,8.202525185289748,1.0255607590594351,-0.07086037,0.18845193,-0.1160644,24.029272,-74.72863,-15.207031
859117562000.0,-4.1617341906389305,8.12116095408618,1.1104627714279347,-0.09315695,0.16737708,-0.13133603,24.12744,-74.56543,-15.363541
859122576000.0,-4.181986933567163,8.011079851644705,1.19684759668215,-0.12461651,0.14446963,-0.16157386,24.235538,-74.39374,-15.527132
859127522000.0,-4.199947866755143,7.898825484406105,1.282161009555408,-0.15332718,0.12858713,-0.18112154,24.347643,-74.22274,-15.689148
859133291000.0,-4.196601814181818,7.765501844155844,1.3176791307012987,-0.16676621,0.10170906,-0.19486602,24.482473,-74.02707,-15.8727865
859138066000.0,-4.188683417212121,7.654643294372295,1.333516090008658,-0.1826487,0.06841691,-0.21899518,24.624086,-73.824715,-16.061558
859142562000.0,-4.1556165870554205,7.545088282638943,1.4187044302196514,-0.20738874,0.059864793,-0.22785273,24.777641,-73.61128,-16.258419
859147621000.0,-4.09123477154694,7.416324888892363,1.589126334057688,-0.22296582,0.04795292,-0.2415972,24.942291,-73.39215,-16.459827
859153502000.0,-4.01795647276271,7.27442940377619,1.7688409818418065,-0.24862215,0.009468411,-0.25992316,25.114964,-73.16024,-16.67108
859157577000.0,-3.979926139808348,7.239568298327107,1.7434874265388989,-0.2947425,0.0012217305,-0.26542094,25.282255,-72.92943,-16.879293
859162568000.0,-3.93334714796167,7.196870929665422,1.7124347653077796,-0.3145956,-0.0033597588,-0.2733622,25.477827,-72.690216,-17.09043
859167574000.0,-3.8932062572432793,7.166972360596561,1.7072070366486178,-0.33536503,-0.009468411,-0.27183503,25.676527,-72.45226,-17.297047
859172601000.0,-3.8611935266267694,7.153252571150375,1.7346465200341978,-0.33444872,-0.034208454,-0.267559,25.882458,-72.215225,-17.501526
859177567000.0,-3.836823566108997,7.146615368026136,1.7676184256264809,-0.35796702,-0.05467244,-0.28191432,26.077969,-71.97876,-17.702234
859183723000.0,-3.824124180570116,7.155081669253967,1.8226491404968763,-0.37720928,-0.09315695,-0.29138273,26.286196,-71.74724,-17.896585
859187575000.0,-3.816177781431752,7.160379296338049,1.857083564421627,-0.39064834,-0.12980886,-0.30085114,26.493328,-71.511566,-18.092258
859192569000.0,-3.81936240923833,7.176440382063882,1.931606591793612,-0.42210788,-0.17745635,-0.31764993,26.715578,-71.271194,-18.28869
859197636000.0,-3.833669724894349,7.200285908157248,2.0317578511842758,-0.4456262,-0.24220806,-0.33383787,26.953924,-71.03016,-18.483454
859202470000.0,-3.825385416871998,7.191450191710169,2.103023937272917,-0.4633413,-0.28038713,-0.35063666,27.197582,-70.78097,-18.68206
859207494000.0,-3.795245088619753,7.151263227249948,2.1532577477552723,-0.48441613,-0.3173445,-0.3640757,27.460102,-70.52861,-18.879707
859212476000.0,-3.763472329909785,7.137487881124219,2.251400309249529,-0.4914411,-0.33750305,-0.37568212,27.72876,-70.26097,-19.087795
859217481000.0,-3.730209398612075,7.142239678834143,2.3844520840586894,-0.5143485,-0.36926803,-0.3811799,28.011545,-69.99112,-19.293175
859222480000.0,-3.6275952451106153,7.197221489775052,2.3589202724577056,-0.54458636,-0.3726278,-0.3817908,28.290068,-69.71669,-19.498875
859227481000.0,-3.471778579550102,7.290711554192229,2.212007413701432,-0.5833763,-0.3817908,-0.37415496,28.578995,-69.44296,-19.699207
859232460000.0,-3.308237870004207,7.380564500862432,2.140526188725284,-0.58184916,-0.39522982,-0.3549127,28.878336,-69.17096,-19.890635
859237490000.0,-3.1309137585191418,7.466693146424064,2.175990968700042,-0.5891795,-0.42210788,-0.32711834,29.18291,-68.90169,-20.07318
859242479000.0,-2.9938849478560723,7.57448164097951,2.1341864034382807,-0.593761,-0.4560109,-0.30879238,29.45138,-68.67861,-20.215088
859247480000.0,-2.89335869970015,7.703729874262868,2.0192991627186405,-0.59742624,-0.50335294,-0.2611449,29.728407,-68.47219,-20.336872
859252959000.0,-2.8187120455238466,7.817989560447615,1.8181809091086785,-0.5879578,-0.56779927,-0.22785273,29.995178,-68.29266,-20.427158
859257528000.0,-2.7802241148553555,7.894965198514464,1.6000829627834243,-0.56321776,-0.59498274,-0.18295415,30.260538,-68.1311,-20.49861
859262504000.0,-2.769273317231135,7.994937856030897,1.4034488664289957,-0.52778757,-0.6047566,-0.14660765,30.507349,-68.0109,-20.534273
859267511000.0,-2.7930161562091502,8.113652199673203,1.2514946473856208,-0.49480084,-0.59131753,-0.10262536,30.750437,-67.907135,-20.55456
859272542000.0,-2.8808534633671083,8.242749572486359,1.1298766458300855,-0.45020768,-0.5708536,-0.069027774,30.95367,-67.84588,-20.551271
859277515000.0,-3.043255247583788,8.381951420206546,1.046355731001559,-0.4034765,-0.54092115,-0.03970624,31.145475,-67.79851,-20.53859
859282484000.0,-3.2323166751738794,8.515104801584235,0.9886979865533232,-0.36682457,-0.49327368,-0.024740042,31.300053,-67.775826,-20.517632
859287521000.0,-3.4653072655042503,8.64091934959428,0.9700587510046368,-0.3313944,-0.44684792,-0.009773844,31.4422,-67.76491,-20.491156
859292452000.0,-3.659435195119139,8.724471,0.9868675038624136,-0.31031954,-0.39736784,-0.0021380284,31.560661,-67.74707,-20.484417
859297575000.0,-3.786709750980015,8.724471,1.0811449289488857,-0.29840767,-0.3387248,-0.004581489,31.660479,-67.73265,-20.479801
859302587000.0,-3.8763080178427782,8.693437512888481,1.171055254497258,-0.30634892,-0.29749137,-0.009468411,31.759233,-67.69096,-20.504007
859307555000.0,-3.8676101124680073,8.576016062797073,1.253685446380256,-0.3295618,-0.27885997,-0.00061086525,31.845652,-67.65203,-20.526554
859312581000.0,-3.852718906619056,8.457327038146664,1.3339311387824422,-0.3399465,-0.25961772,0.003970624,31.938023,-67.582115,-20.57528
859317546000.0,-3.7616132754572376,8.341373834871973,1.3712016321198397,-0.3811799,-0.2602286,0.0143553335,32.02921,-67.511154,-20.619017
859322820000.0,-3.6648376261626896,8.218204208674447,1.410791678819021,-0.40225476,-0.25534168,0.026572637,32.12767,-67.42909,-20.669243
859327560000.0,-3.552527089503797,8.120757015915947,1.4558619518464575,-0.43493605,-0.25350907,0.035124753,32.225883,-67.34424,-20.716583
859332534000.0,-3.428645255029647,8.021651631124518,1.5054145924997395,-0.4529566,-0.26419923,0.058643065,32.32403,-67.26712,-20.755154
859337565000.0,-3.3456573913333334,7.984981559666666,1.5173811146666667,-0.48075095,-0.27122417,0.08307768,32.419003,-67.19015,-20.784473
859342521000.0,-3.271496943083333,7.960261599541667,1.5223251376666669,-0.5039638,-0.2678644,0.09987647,32.512028,-67.11679,-20.809055
859347560000.0,-3.228585287904032,7.988010985913029,1.4373690621792736,-0.49846604,-0.24098633,0.1282817,32.60001,-67.06211,-20.809721
859352548000.0,-3.188790987337554,8.019846551024658,1.3458421708763746,-0.50243664,-0.2144137,0.15790866,32.6846,-67.00878,-20.805895
859357551000.0,-3.138689280342635,8.05948169154009,1.3269865381314023,-0.5009095,-0.1881465,0.18325958,32.753998,-66.971375,-20.786537
859362585000.0,-3.079087102649241,8.10631180572236,1.373816741222183,-0.48655418,-0.16615535,0.21533,32.81335,-66.94456,-20.758924
859367543000.0,-3.044740222893708,8.208090891308212,1.460033982047636,-0.4654793,-0.13194689,0.23976462,32.839764,-66.94099,-20.71657
859372584000.0,-3.0790642718272307,8.469811394818699,1.66168742232492,-0.4456262,-0.096516706,0.2779437,32.85568,-66.95054,-20.663792
859377827000.0,-3.118376028500249,8.73576085118751,1.85709408285999,-0.4279111,-0.06872234,0.3145956,32.860622,-66.97737,-20.591385
859382640000.0,-3.2025854227952166,8.896524323866467,1.8456109890881915,-0.41263947,-0.04734206,0.35185838,32.853886,-67.0155,-20.511309
859387631000.0,-3.2899091474838067,9.063233339478492,1.833703214100648,-0.3933972,-0.04886922,0.3933972,32.85194,-67.06035,-20.412468
859393195000.0,-3.38816848174912,9.188462589772096,1.790160177005744,-0.376293,-0.044898596,0.42821655,32.839344,-67.11338,-20.308626
859397627000.0,-3.466812872336483,9.263174678710394,1.742973501593478,-0.35430184,-0.015271631,0.46700647,32.816116,-67.1796,-20.19568
859402581000.0,-3.5825259405651777,9.306467636584625,1.7011184937101185,-0.34238997,0.014049901,0.48716503,32.785538,-67.24814,-20.084301
859407590000.0,-3.733146616226071,9.301608810189403,1.671966144150714,-0.3268129,0.02107485,0.5186246,32.749428,-67.3309,-19.961876
859412590000.0,-3.9023870321313954,9.245020793468,1.635164294808382,-0.32253686,0.049785517,0.54519725,32.69572,-67.41377,-19.84833
859417624000.0,-4.093514526675476,9.13125448423636,1.5896577235982632,-0.3136793,0.090713486,0.5516113,32.63557,-67.500206,-19.735285
859422563000.0,-4.256319603349715,9.01883541630729,1.5355047379901714,-0.3051272,0.1133155,0.55680364,32.58464,-67.57321,-19.6373
859427622000.0,-4.377794458429445,8.902219656905023,1.4626198249423328,-0.30573806,0.13561209,0.5534439,32.521927,-67.64411,-19.544212
859432593000.0,-4.479616843928894,8.784052767098522,1.4050466211208197,-0.29840767,0.14172074,0.56138515,32.475796,-67.68539,-19.481606
859437563000.0,-4.551320212413377,8.65976682856282,1.371584999246761,-0.2770274,0.14446963,0.55833083,32.425114,-67.72436,-19.425188
859442565000.0,-4.629362948746491,8.568846948407705,1.393087527664311,-0.23823744,0.13775012,0.56046885,32.389458,-67.75128,-19.383047
859447616000.0,-4.71832611249637,8.536071429387281,1.510144049307908,-0.19211712,0.13408493,0.5726862,32.351707,-67.78366,-19.340076
859452546000.0,-4.796274695604108,8.52499853420961,1.613429317957869,-0.1563815,0.14630222,0.57696223,32.320225,-67.80086,-19.3156
859457570000.0,-4.854909297553969,8.562692091312675,1.693004833556755,-0.12797627,0.15149458,0.59803706,32.290188,-67.83036,-19.283108
859462872000.0,-4.913162478730703,8.60257781450625,1.7680624569713306,-0.09254608,0.14935656,0.60903263,32.280403,-67.83913,-19.269953
859467568000.0,-4.916835776386507,8.639311174630402,1.716635714440905,-0.05589417,0.13469578,0.63255095,32.27067,-67.860275,-19.247435
859472598000.0,-4.920770334991424,8.678657171526586,1.6615512777015438,-0.004886922,0.12614368,0.6575964,32.273445,-67.878105,-19.228733
859477608000.0,-4.98854619440279,8.738212798779426,1.6470721240453357,0.041233405,0.12339478,0.6872234,32.276833,-67.90707,-19.202175
859482612000.0,-5.105531948823017,8.813417639930254,1.6637843933740193,0.09682214,0.13316862,0.69974613,32.278286,-67.94575,-19.174318
859487525000.0,-5.22120639061553,8.859204683143485,1.6708450360434737,0.13255776,0.15332718,0.70554936,32.27119,-68.001396,-19.133863
859492602000.0,-5.343153659786812,8.823636501933327,1.6505204292820566,0.15363261,0.15485434,0.70249504,32.26641,-68.06222,-19.092985
859497558000.0,-5.439081574718001,8.774722337093316,1.6391846505919645,0.18661933,0.14844026,0.6985244,32.266113,-68.113655,-19.065582
859502589000.0,-5.492980107709518,8.69836623053976,1.643676202824648,0.20250183,0.13255776,0.6774496,32.269135,-68.15941,-19.044079
859507581000.0,-5.548358570626228,8.618833240756341,1.6638793535430123,0.2098322,0.11026118,0.6563747,32.288513,-68.190384,-19.039436
859512600000.0,-5.611349064307778,8.524347970045868,1.7448667418609003,0.20891592,0.07147124,0.63041294,32.318497,-68.214966,-19.040623
859517673000.0,-5.679371618518518,8.42891560097466,1.8224812745808967,0.19792034,0.0290161,0.6017023,32.363964,-68.21686,-19.05948
859522579000.0,-5.789275103703703,8.33732880545809,1.854536485653021,0.17837265,0.0061086523,0.58062744,32.415264,-68.212395,-19.082426
859527814000.0,-5.902876714188231,8.256321174051754,1.894306606850408,0.16768251,-0.027794369,0.5186246,32.50377,-68.167274,-19.136436
859532598000.0,-5.955659403589153,8.414669708613967,2.007992617910316,0.11636983,-0.044898596,0.49357912,32.591652,-68.11834,-19.185213
859537583000.0,-6.010659760333216,8.579671264799716,2.126455152428217,0.099571034,-0.0870483,0.43004912,32.7199,-68.023735,-19.279064
859543516000.0,-6.056925428033549,8.8964569951682,2.163060132008387,0.056199603,-0.13683382,0.37568212,32.85435,-67.915955,-19.37478
859547683000.0,-6.086030378785669,9.140211109672713,2.1703363696964173,0.021991149,-0.20891592,0.30909783,33.010227,-67.78967,-19.486755
859552646000.0,-6.029588329970263,9.423108018479184,2.2329664290144438,-0.023823744,-0.2751948,0.23396139,33.189827,-67.6369,-19.610455
859557575000.0,-5.909272204237468,9.698833116716228,2.333230015441801,-0.09773844,-0.36713,0.14844026,33.40046,-67.45919,-19.747894
859562600000.0,-5.666336773786689,9.924724441635185,2.445254907120024,-0.15515977,-0.4343252,0.040927973,33.616,-67.272285,-19.89228
859567618000.0,-5.368399112176692,10.124900982950692,2.56163677884336,-0.22052236,-0.4999932,-0.06566802,33.860382,-67.05701,-20.051939
859572608000.0,-4.935165764211567,10.314689509144834,2.643354951557093,-0.29352075,-0.54458636,-0.17654006,34.10998,-66.836464,-20.203068
859577744000.0,-4.405128533168561,10.504336118734551,2.706570403460208,-0.36835176,-0.6203337,-0.29779682,34.3926,-66.582146,-20.377453
859582622000.0,-3.898406132253006,10.63839588238369,2.72939,-0.47708577,-0.70738196,-0.4147775,34.675694,-66.339066,-20.514023
859587572000.0,-3.3821445927862,10.745778279142709,2.72939,-0.57818395,-0.7831292,-0.5149594,34.982082,-66.0652,-20.672407
859592554000.0,-2.8983427769960235,10.865091205873355,2.761142766044662,-0.6817256,-0.8335256,-0.61483586,35.273205,-65.83011,-20.769308
859597626000.0,-2.492201096971552,11.01367954970939,2.870107603242582,-0.8051204,-0.8344419,-0.7134906,35.576344,-65.55654,-20.89061
859602611000.0,-2.1861259365349546,11.176162708814587,3.01552979993921,-0.93523467,-0.8176431,-0.8136725,35.844772,-65.33111,-20.947098
859607596000.0,-2.055529138865248,11.3696392964539,3.233191112553192,-1.0833695,-0.78038037,-0.89827734,36.11149,-65.06639,-21.027418
859612607000.0,-1.965896646728425,11.563154957191614,3.419514909058996,-1.2538009,-0.7467828,-0.98349303,36.351276,-64.80551,-21.076221
859617582000.0,-1.94731270523647,11.753640454509997,3.5496025965285227,-1.4413365,-0.7147123,-1.0409144,36.584076,-64.507286,-21.142454
859622542000.0,-1.9311061954830224,11.945039284322066,3.66077571900379,-1.5344934,-0.634689,-1.0644327,36.79979,-64.200066,-21.198769
859627586000.0,-1.9198975840204195,12.143058320906489,3.731763669626421,-1.7095064,-0.516792,-1.0998629,37.000618,-63.83569,-21.278254
859633289000.0,-1.9072245643591923,12.366948599582336,3.812026215701137,-1.8747455,-0.29932398,-1.1172725,37.15231,-63.463867,-21.356369
859637664000.0,-1.943951224827452,12.58669088976378,3.637252153504423,-2.0821342,-0.22785273,-1.1139128,37.3148,-63.0551,-21.435188
859642557000.0,-1.9940583606688052,12.841781858267716,3.395826719937786,-2.150551,-0.07452556,-1.1249083,37.39355,-62.638634,-21.54518
859647805000.0,-2.017110307010813,12.85392766236484,3.208909302406697,-2.2770002,0.06811147,-1.1227703,37.44668,-62.195522,-21.640453
859652572000.0,-2.025072044994768,12.7544059375654,3.0695787214161143,-2.3270912,0.16920967,-1.1407908,37.472507,-61.7514,-21.752686
859657622000.0,-2.0154144787272075,12.723962250804432,2.9783869,-2.3472497,0.25350907,-1.1624765,37.428776,-61.332756,-21.865482
859662653000.0,-1.9766561727565248,12.814398388005005,2.9783869,-2.309376,0.3115413,-1.1661417,37.36686,-60.92206,-21.984169
859667576000.0,-1.9575614569869657,12.922035688996669,2.9790603821461046,-2.2770002,0.3631594,-1.1643091,37.28225,-60.516865,-22.118286
859672777000.0,-2.058216178235829,13.1585742471456,2.98409311295342,-2.2510383,0.4813618,-1.1484267,37.164143,-60.12761,-22.259903
859677572000.0,-2.159983120928654,13.361156990791004,2.9695128412369134,-2.2327125,0.60903263,-1.1429288,37.020634,-59.75594,-22.397524
859682567000.0,-2.3130068052539743,13.490995517836373,2.8535857474990305,-2.179567,0.7770206,-1.1658363,36.83684,-59.40092,-22.552692
859687738000.0,-2.4516625,13.603564871095037,2.777996663556396,-2.0821342,1.0076222,-1.2275337,36.595757,-59.065224,-22.733484
859692614000.0,-2.4516625,13.565175791187109,3.0006534472788555,-1.9172006,1.2049317,-1.2895365,36.323753,-58.755814,-22.931559
859697904000.0,-2.4516625,13.523527261098325,3.24221505226077,-1.7406605,1.3454307,-1.3869696,36.012817,-58.465984,-23.176247
859702650000.0,-2.443068455461518,13.489957368421052,3.713648075112405,-1.5662584,1.3649784,-1.4682146,35.692135,-58.205406,-23.43422
859707569000.0,-2.430609243824385,13.45673254385965,4.307537770272415,-1.4300356,1.2623531,-1.5464053,35.38415,-57.958397,-23.710646
859712596000.0,-2.478003020961653,13.426765020464932,4.920351586886548,-1.3695599,1.0192287,-1.6316211,35.14162,-57.676353,-23.99727
859717628000.0,-2.616839130319889,13.402827777468708,5.542720204728791,-1.350623,0.86406887,-1.7119498,34.917892,-57.403484,-24.293
859722640000.0,-2.8969426731631924,13.326943874613615,5.803094083664897,-1.3558154,0.5561928,-1.7327193,34.867996,-57.05781,-24.554966
859727643000.0,-3.3944121338194497,13.17124735824681,5.510688460957439,-1.3603969,0.3371976,-1.7498235,34.85046,-56.70765,-24.822714
859732643000.0,-3.8915832917809303,13.015644203772688,5.218458176420703,-1.3478742,0.24556783,-1.7256943,34.94766,-56.29502,-25.081015
859737631000.0,-4.235662827011494,12.670414528376435,5.065136800431035,-1.3222178,0.2125811,-1.679574,35.09224,-55.89428,-25.314451
859742590000.0,-4.555513339511494,12.299387723688938,4.932931891056034,-1.2641857,0.14966199,-1.6200147,35.268127,-55.51881,-25.51895
859747818000.0,-4.769504251327434,11.943064568394435,4.947271865233881,-1.2030991,0.09407325,-1.5497651,35.453384,-55.138325,-25.76914
859753173000.0,-4.920783791150443,11.597282763084705,5.046684179393173,-1.1609493,0.03970624,-1.4657712,35.64706,-54.789505,-25.987339
859757532000.0,-5.042596605028386,11.322084619626926,5.163405662611517,-1.153619,-0.03756821,-1.4046847,35.885033,-54.41195,-26.237305
859762567000.0,-5.179471970667748,11.022262552176263,5.40130805143282,-1.1664472,-0.13927728,-1.3600914,36.136017,-54.061234,-26.454605
859767619000.0,-5.316809477561503,10.72142817585834,5.640013685658285,-1.1652255,-0.23976462,-1.3252722,36.43815,-53.66475,-26.684565
859772589000.0,-5.401400079583216,10.493629075471697,5.81575397578147,-1.1768318,-0.34238997,-1.325883,36.766644,-53.274532,-26.89397
859777658000.0,-5.369501590124847,10.420718364779871,5.856766101849244,-1.1817188,-0.42943826,-1.3121386,37.1095,-52.90501,-27.075418
859782561000.0,-5.31369524192454,10.349061552688394,5.898703375346972,-1.176221,-0.5009095,-1.310306,37.53276,-52.44157,-27.296455
859787567000.0,-5.131333203125321,10.270202256502518,5.952919173640383,-1.1847731,-0.58093286,-1.2990049,37.97571,-51.99,-27.493471
859792523000.0,-4.938987094170316,10.19005138214112,5.976256433868613,-1.1847731,-0.66248333,-1.2724323,38.430744,-51.5369,-27.675274
859797645000.0,-4.695515229391727,10.099346120924574,5.88555142189781,-1.1801916,-0.77488256,-1.2391402,38.909077,-51.09717,-27.832441
859802598000.0,-4.453717630048433,9.99178893674014,5.798417425145794,-1.1695015,-0.8940013,-1.2024882,39.385815,-50.662617,-27.95977
859807621000.0,-4.177939389878422,9.787332679203322,5.71283100626668,-1.1395692,-1.0015136,-1.1667526,39.87904,-50.249226,-28.060759
859812575000.0,-3.921600580943508,9.57347717277886,5.623146355094436,-1.10139,-1.0613784,-1.1200215,40.343967,-49.863132,-28.126884
859817574000.0,-3.755355696485136,9.285589898534768,5.501503711272973,-1.0882565,-1.1594223,-1.0919216,40.839016,-49.490017,-28.165142
859822637000.0,-3.586982451833658,8.994016930041502,5.378303730143136,-1.0528263,-1.2379184,-1.0332786,41.306404,-49.14808,-28.166386
859827569000.0,-3.4294256714,8.654320949,5.256077173,-1.033584,-1.3069462,-0.99021256,41.787197,-48.8156,-28.149796
859833071000.0,-3.2555434344800003,8.2591337468,5.1190790236,-1.0088439,-1.3613132,-0.89644474,42.25755,-48.520542,-28.096088
859837557000.0,-3.1505076542102826,7.985206057619269,5.069856836127837,-0.9822713,-1.3686435,-0.86498517,42.71657,-48.21409,-28.050884
859842594000.0,-3.0387930600741084,7.685810883742474,5.025171017137564,-0.9611965,-1.3588698,-0.8011498,43.15411,-47.94317,-27.969622
859847762000.0,-2.9202114219771595,7.439928048574666,4.972767198326214,-0.9257663,-1.3344351,-0.7351763,43.576828,-47.66937,-27.88917
859852735000.0,-2.803960664719728,7.236489125830355,4.918793609231976,-0.9007208,-1.2944235,-0.6750061,43.972973,-47.41488,-27.799358
859857529000.0,-2.712987223100196,7.040379349492792,4.843164522067983,-0.86498517,-1.2391402,-0.61453044,44.348732,-47.16075,-27.708372
859862595000.0,-2.661181445185976,6.833156418152696,4.713649964584445,-0.84329945,-1.1936307,-0.55680364,44.69745,-46.925167,-27.609587
859867579000.0,-2.610087924220529,6.6231505762978085,4.568707449352077,-0.79290307,-1.1023064,-0.5131268,45.00711,-46.698692,-27.51628
859872585000.0,-2.5573759983743027,6.344530290112306,4.229845164391738,-0.7440339,-1.0213667,-0.4718934,45.28975,-46.491756,-27.417156
859877645000.0,-2.504095466056703,6.062904511427001,3.8873275531453695,-0.67103547,-0.93126404,-0.44501534,45.529453,-46.296265,-27.340004
859882579000.0,-2.4589471139200594,5.835156272298989,3.6420224021051655,-0.6072,-0.8729264,-0.4071417,45.740868,-46.12332,-27.260132
859887571000.0,-2.4190448167485856,5.644511871000649,3.4691124014003525,-0.54336464,-0.8170323,-0.38453966,45.922363,-45.971947,-27.193468
859892740000.0,-2.377104143911066,5.468825252710604,3.32726401757742,-0.46486846,-0.7538077,-0.36682457,46.044315,-45.8427,-27.160337
859897878000.0,-2.334480292875189,5.326745848162853,3.2420163896845446,-0.38362336,-0.70463306,-0.34208453,46.147583,-45.736553,-27.12819
859902636000.0,-2.295008848105104,5.195174457186169,3.163073568837075,-0.3005457,-0.64965516,-0.3155119,46.211945,-45.641872,-27.118795
859907599000.0,-2.248184367937084,5.03835254412432,3.091635755248034,-0.23396139,-0.61575216,-0.2751948,46.26142,-45.570835,-27.10531
859912595000.0,-2.1975310331518454,4.868302100839383,3.0265099635359958,-0.15882497,-0.6010914,-0.23976462,46.297558,-45.525578,-27.09279
859918214000.0,-2.128129650686132,4.684951673002433,2.9541107605547445,-0.11362094,-0.56291234,-0.22876903,46.31132,-45.475437,-27.093105
859922573000.0,-1.965617476321168,4.611821101206813,2.9053571591532847,0.023518313,-0.5546656,-0.22449298,46.324333,-45.46818,-27.083954
859927610000.0,-1.7778281158540146,4.527315781148419,2.849020409839416,0.07086037,-0.559858,-0.19517145,46.332527,-45.437237,-27.07371
859932602000.0,-1.6102393150503125,4.231655866351492,2.840514415501388,0.16523905,-0.56138515,-0.16157386,46.337196,-45.44837,-27.063208
859937572000.0,-1.4450875687803608,3.91786757861728,2.8363856681904926,0.25961772,-0.5488624,-0.119729586,46.333336,-45.47685,-27.04541
859942818000.0,-1.3230172166829903,3.7338251128958535,2.8245453050522364,0.3417791,-0.5326745,-0.086437434,46.332623,-45.534428,-26.9902
859947857000.0,-1.23636484201763,3.643233993927522,2.8087902044564155,0.41905355,-0.5152648,-0.0571159,46.320625,-45.61766,-26.929373
859952560000.0,-1.1555797890691868,3.554881551595934,2.7913112142920826,0.5012149,-0.47494772,-0.007941248,46.337734,-45.70616,-26.8472
859957634000.0,-1.068930834111983,3.4379055393099143,2.756651623261412,0.57910025,-0.41050145,0.05222898,46.3349,-45.81663,-26.764181
859962579000.0,-0.9844848186875892,3.323903493437946,2.7228732082738945,0.63529986,-0.34025195,0.098043874,46.326054,-45.944088,-26.668112
859967638000.0,-0.8996890075518146,3.250456411045819,2.649680982529977,0.7079928,-0.25809056,0.16157386,46.281265,-46.104504,-26.568329
859972798000.0,-0.813358556666402,3.179822390875884,2.5711988289525927,0.75441855,-0.17440203,0.21105394,46.210934,-46.274982,-26.474337
859977641000.0,-0.7368024944987682,3.104515169187038,2.5117721092192533,0.78893244,-0.09132435,0.25595254,46.114418,-46.45969,-26.371708
859982602000.0,-0.6647759287928747,3.014481903297328,2.471257134868296,0.84391034,-0.00030543262,0.2938262,45.98577,-46.66424,-26.275074
859987591000.0,-0.5937142410738755,2.923380900580876,2.420863106963062,0.8881981,0.092240654,0.32895094,45.823265,-46.884438,-26.169073
859992546000.0,-0.5265703231635389,2.831499746648793,2.3466514284182307,0.94959,0.17562376,0.36774087,45.63189,-47.125355,-26.066635
859999707000.0,-0.4286171497942203,2.6993999556231545,2.240702898237452,0.9950995,0.2660318,0.40744713,45.414513,-47.37565,-25.96138
860002571000.0,-0.3648140432289523,2.665044383287108,2.233341006352331,1.0516045,0.3567453,0.45478916,45.16737,-47.647472,-25.85781
860008541000.0,-0.2318166458146193,2.593430288717903,2.2179951632817394,1.0995574,0.46028697,0.5158757,44.891014,-47.941902,-25.746506
860012639000.0,-0.178646850725244,2.5682402906555093,2.2188673550906555,1.1508701,0.51923543,0.5317582,44.603115,-48.24678,-25.640085
860017613000.0,-0.1697886400195258,2.5726695324407256,2.2365837672524407,1.16492,0.63041294,0.5992588,44.255466,-48.571774,-25.529552
860022570000.0,-0.1746215101302567,2.5924078008262006,2.253503537893561,1.1899655,0.7443393,0.6597345,43.89952,-48.92454,-25.401512
860027559000.0,-0.23152206704131,2.6706460155191665,2.267728630703387,1.2092078,0.86009824,0.72692966,43.502075,-49.289955,-25.270168
860032599000.0,-0.2890042892966133,2.749684019538519,2.2820991393747674,1.212262,0.9627236,0.7993172,43.07548,-49.67097,-25.12724
860037569000.0,-0.3980426794895018,2.835542978715521,2.283731199794154,1.2082914,1.0522153,0.8729264,42.61207,-50.064518,-24.979315
860042778000.0,-0.5623426725205847,2.933096086342116,2.2734624572663646,1.1948525,1.1337659,0.9309586,42.11639,-50.464485,-24.827375
860047702000.0,-0.707159226232158,3.039820865771812,2.253316018810852,1.1759156,1.2027937,0.97402465,41.589336,-50.870434,-24.670572
860052593000.0,-0.8444165349399755,3.1549399060402683,2.226750154012666,1.1847731,1.2596041,1.0231993,41.036846,-51.2887,-24.50322
860057590000.0,-1.0506153425079618,3.3455018443630573,2.173224527802548,1.183246,1.320996,1.0616838,40.465572,-51.692715,-24.352217
860062595000.0,-1.3330167492157643,3.6202708452388537,2.0892673264490447,1.2040154,1.3701707,1.0980303,39.87979,-52.109375,-24.190498
860068013000.0,-1.634879912925113,3.917798843952086,2.001249364081086,1.239751,1.423316,1.1468995,39.269733,-52.52158,-24.027695
860072584000.0,-1.799890907002848,4.170815640274753,1.993915547227341,1.2959507,1.461495,1.1838568,38.65351,-52.944485,-23.857718
860078202000.0,-2.002698118713352,4.481786622935165,1.9849018996481824,1.3524556,1.484708,1.2092078,38.020477,-53.388493,-23.71189
860082633000.0,-2.203475407365868,4.848726344164898,2.0240707658078207,1.4083499,1.4837917,1.2339478,37.386997,-53.846615,-23.552042
860087592000.0,-2.453000692816005,5.333381184086087,2.0960492703849654,1.4468343,1.4672983,1.2534955,36.757427,-54.31187,-23.381523
860092587000.0,-2.7344635121546963,5.842421344650929,2.1654858745956806,1.5054774,1.4239268,1.2547172,36.136887,-54.822815,-23.2163
860097602000.0,-3.0384057607734807,6.368289559618282,2.233028529342039,1.5387696,1.35551,1.2464706,35.535595,-55.330982,-23.037409
860102576000.0,-3.3362859768562823,6.88087691210349,2.320448556175793,1.5589281,1.2800682,1.2287555,34.94588,-55.869194,-22.858067
860107571000.0,-3.632983710109871,7.389501660907318,2.4221734616781854,1.5839735,1.2318097,1.180497,34.382816,-56.397858,-22.679434
860112532000.0,-3.9182863179944927,7.891737084892223,2.5701126003133608,1.5858061,1.1307116,1.151481,33.85789,-56.939293,-22.494064
860117585000.0,-4.189400568255627,8.397204542588547,2.8182511268350585,1.5897768,1.0177015,1.0769554,33.372566,-57.455982,-22.32371
860122545000.0,-4.440030741250845,8.873573955795772,3.0658093162725604,1.563815,0.8881981,0.979217,32.93142,-57.9529,-22.170448
860127598000.0,-4.640864545236946,9.289253311842486,3.332030822758421,1.5195273,0.73456544,0.88697636,32.54746,-58.42023,-22.019192
860132577000.0,-4.82142532528824,9.671250188701,3.58766603132206,1.4669929,0.60903263,0.7877107,32.22075,-58.835278,-21.89661
860137608000.0,-4.910306273727902,9.908265973866255,3.809868518431976,1.395827,0.4718934,0.7141015,31.956438,-59.212646,-21.774082
860142566000.0,-4.99789755624904,10.141842651037663,4.02884683906226,1.3283265,0.33414328,0.62125,31.757006,-59.53186,-21.676394
860147820000.0,-5.248703075755779,10.110121910491998,4.310352016893895,1.2538009,0.2180789,0.54458636,31.601702,-59.814816,-21.582867
860152592000.0,-5.582810870025686,9.893403713297769,4.599310241750643,1.1917981,0.11453723,0.46273044,31.49666,-60.058872,-21.503508
860157560000.0,-5.829880999999999,9.5217405,4.6878470000000005,1.1395692,0.06169739,0.39003745,31.428818,-60.25374,-21.437384
860162597000.0,-5.990004478376328,9.013919752465856,4.587197765364189,1.0955868,0.051618114,0.31245756,31.388632,-60.41535,-21.389166
860167585000.0,-6.111725120521968,8.499879916841907,4.48985995569846,1.0543534,0.055588737,0.2507602,31.445269,-60.43948,-21.448359
860172636000.0,-6.184383935711604,7.964022778895982,4.394495681599699,1.0290025,0.11453723,0.19486602,31.494137,-60.445465,-21.526772
860177518000.0,-6.181356711022901,7.48130483248855,4.2891988901374045,0.98746365,0.20097467,0.1563815,31.588034,-60.372585,-21.700705
860182614000.0,-5.987633295409669,7.0690217829618325,4.145147911124682,0.9443977,0.30604348,0.14202617,31.66038,-60.291885,-21.882935
860187561000.0,-5.754783746423953,6.744112655346663,4.111027700009948,0.890947,0.44593164,0.13652839,31.743765,-60.146103,-22.14333
860192596000.0,-5.423825177887197,6.571438499820949,4.298091347627574,0.8258898,0.5888741,0.14782938,31.793991,-59.995197,-22.40437
860197930000.0,-5.035319606143345,6.507391126962457,4.538502060978384,0.75594574,0.68569624,0.1600467,31.81329,-59.836346,-22.672972
860202595000.0,-4.637184809641638,6.634455457593857,4.813807955887372,0.68233645,0.7079928,0.17379116,31.81221,-59.671993,-22.935762
860207578000.0,-4.210860530357143,6.810901885,5.118454204571429,0.6197228,0.73975784,0.18600847,31.766182,-59.505802,-23.159208
860212590000.0,-3.778012799107143,7.1451803575,5.4655896205714285,0.5907067,0.7156286,0.2312125,31.728615,-59.34971,-23.358381
860217933000.0,-3.3176351728212707,7.5018226425406205,5.828922819202363,0.5369505,0.6395759,0.29932398,31.662203,-59.26609,-23.466015
860222654000.0,-2.936579097897298,7.823952441654358,5.98605939061604,0.46028697,0.5183192,0.3136793,31.619064,-59.174374,-23.56492
860227628000.0,-2.5351020979668086,8.163345286558346,6.151616964479972,0.41630468,0.37995818,0.38789943,31.540674,-59.199505,-23.512632
860232625000.0,-2.202408376967005,8.516687735406093,6.151161996087141,0.34605515,0.2312125,0.4636467,31.499716,-59.209694,-23.442833
860237558000.0,-1.9076430030139595,8.87140517925127,6.07122543338621,0.28099802,0.07147124,0.535118,31.494757,-59.227917,-23.340134
860242561000.0,-1.876084329957806,9.019654510548524,5.847185916455696,0.24373524,-0.06811147,0.5907067,31.45238,-59.34854,-23.104229
860247694000.0,-1.9258643372236288,9.106769534092829,5.57339598478481,0.22479841,-0.183565,0.6218608,31.443474,-59.466454,-22.847004
860252589000.0,-2.0797443128258823,9.10459004470736,5.253727238006491,0.24740042,-0.23823744,0.6389651,31.386591,-59.67462,-22.50312
860257632000.0,-2.3932550720866925,8.978174479845043,4.839083815652812,0.2724459,-0.23548855,0.6414085,31.343937,-59.875458,-22.157454
860263358000.0,-2.793304144077726,8.767268820330047,4.413584577492433,0.31978795,-0.2171626,0.6377433,31.281897,-60.111618,-21.819227
860267619000.0,-3.116060643589493,8.572021320769457,4.122705400781173,0.34513888,-0.17531833,0.6160576,31.21396,-60.337208,-21.496618
860272563000.0,-3.480906910958904,8.331625438356165,3.884903829452055,0.37934732,-0.07941248,0.5946773,31.13428,-60.548214,-21.25328
860277595000.0,-3.840102708219178,8.069509328767124,3.768407859589041,0.398895,0.011301007,0.56046885,31.048124,-60.748177,-21.029385
860282646000.0,-4.143528818857876,7.842475268764178,3.73973218431798,0.40286562,0.087964594,0.50243664,30.970963,-60.891502,-20.922615
860287579000.0,-4.376502454640497,7.660755790038466,3.809624313975737,0.4129449,0.15302174,0.44684792,30.875315,-61.02977,-20.834541
860292516000.0,-4.516139501070586,7.517855759390311,3.904511581854473,0.40133846,0.20311269,0.39614612,30.811245,-61.087288,-20.857553
860297744000.0,-4.529766974160769,7.422463115732172,4.040786739647976,0.40408736,0.24740042,0.35277468,30.736673,-61.138386,-20.897064
860302547000.0,-4.503888211248562,7.357017184484081,4.156461606914077,0.4184427,0.26206118,0.30665436,30.707983,-61.124012,-21.010757
860307572000.0,-4.342369300863061,7.366246742884542,4.244143568220176,0.43982297,0.28160888,0.29565877,30.667488,-61.110363,-21.12675
860312598000.0,-4.172603779192334,7.508950492813142,4.354333611567419,0.48197266,0.2764165,0.27183503,30.661331,-61.071114,-21.262094
860317579000.0,-3.956295501386037,8.43132148690965,4.595129462140657,0.51923543,0.20769419,0.24801129,30.670212,-61.033318,-21.391638
860322591000.0,-3.738640996594798,9.359432995123203,4.837423941777892,0.58551437,0.14355333,0.23457226,30.677711,-61.02997,-21.488194
860327593000.0,-3.748818441684246,10.415624765842546,4.730919128892077,0.625526,0.06658431,0.23518312,30.71053,-61.026012,-21.576778
860333390000.0,-3.823771484718589,11.67577154839254,4.510744656695638,0.6404922,-0.019547688,0.23457226,30.766718,-61.02555,-21.659924
860337557000.0,-3.847812699518459,12.618203520866777,4.163716564526485,0.59620446,-0.09132435,0.23518312,30.757362,-61.135746,-21.61007
860342622000.0,-3.842946478410915,13.805562893860351,3.5262411929374,0.5748242,-0.13347405,0.23701571,30.764784,-61.249695,-21.555983
860347627000.0,-3.776348299371508,14.72413515293296,3.002693442685056,0.5323691,-0.12095132,0.24465153,30.662516,-61.472652,-21.424145
860352584000.0,-3.635456478386872,15.324996592527931,2.61316917205831,0.5158757,-0.09773844,0.28069258,30.568983,-61.695065,-21.285908
860357573000.0,-3.495138975262502,15.840668626445987,2.281802446520733,0.49296826,-0.070249505,0.3155119,30.324879,-62.05207,-21.079992
860362596000.0,-3.362443365456487,15.844949216497598,2.2989244044580888,0.47433686,-0.059253927,0.32620203,30.08709,-62.39304,-20.880085
860367564000.0,-3.2312007237052858,15.84918293566471,2.315858883262146,0.42852196,-0.0870483,0.30634892,29.782751,-62.831005,-20.60183
860372586000.0,-3.186511101646612,15.521007311589614,2.595338805509816,0.36102137,-0.15454891,0.2519819,29.504265,-63.234936,-20.341312
860377594000.0,-3.1517979545915136,15.156518429295216,2.90341865959468,0.28771752,-0.23182335,0.20708331,29.25093,-63.608105,-20.092873
860382628000.0,-3.1566155822502067,14.860088412997518,3.1579385720286792,0.21105394,-0.23945917,0.16462818,29.004951,-63.960037,-19.85041
860387592000.0,-3.178464665438,14.597899414744,3.385169174069308,0.13622294,-0.19120082,0.1386664,28.77755,-64.277016,-19.625021
860392583000.0,-3.6544505541224255,15.20055326793463,3.687159010839258,0.09315695,-0.13103059,0.109650314,28.592026,-64.51467,-19.450834
860397634000.0,-4.565537118917921,16.629708791708982,4.062312464075339,0.07696902,-0.13683382,0.07971791,28.418741,-64.728714,-19.288996
860402684000.0,-5.575825515038728,17.7080087167287,3.9970082282868926,0.076358154,-0.18203785,0.01740966,28.287817,-64.882645,-19.167753
860407576000.0,-6.7210308553465445,18.1651481795594,3.1958356790866107,0.00580322,-0.34422258,-0.03756821,28.197227,-65.01082,-19.046755
860412541000.0,-7.591952310102545,17.84904868344094,2.4278423791872386,-0.064446285,-0.5015204,-0.15790866,28.15782,-65.075905,-19.00571
860417585000.0,-7.940529012343335,16.092404803076338,1.7306886873528295,-0.20830505,-0.5271767,-0.28130344,28.134836,-65.09707,-18.981617
860422576000.0,-7.944082419491526,14.427114033898304,1.2849153362288137,-0.34422258,-0.4016439,-0.4202753,28.157501,-65.05052,-19.084621
860427517000.0,-6.956413584745763,12.990167016949153,1.5522543368644068,-0.46089783,-0.26145032,-0.45540005,28.18601,-64.97567,-19.190815
860432606000.0,-5.939160660232266,11.51017847834275,1.8276010630806656,-0.5458081,-0.24923302,-0.35369098,28.294254,-64.786224,-19.417023
860437577000.0,-4.814361047841401,10.043299268894032,2.1402596613263563,-0.6105598,-0.3145956,-0.28863382,28.38616,-64.56908,-19.660961
860442635000.0,-3.615194811874812,8.541904222401126,2.4766110113515145,-0.634689,-0.40866885,-0.23457226,28.471506,-64.36983,-19.872477
860447650000.0,-2.71887002482594,7.787978444698627,1.9596389551740605,-0.59773165,-0.61850107,-0.19730948,28.621305,-64.17685,-20.002024
860452653000.0,-1.9325555709767257,7.306658893176845,1.1304346790232742,-0.49113566,-0.77274454,-0.13408493,28.773989,-64.01395,-20.104197
860457602000.0,-1.5412184572632386,7.336264369003159,0.1166879751393278,-0.28405234,-0.8222246,-0.02107485,28.951641,-63.90825,-20.114183
860462670000.0,-1.2948938084458488,7.568646218471703,-0.998744494656708,-0.04062254,-0.766025,0.11453723,29.133276,-63.848778,-20.098
860467589000.0,-1.2802351392411588,7.848022021961027,-1.75680631631096,0.17195857,-0.6084218,0.2443461,29.221918,-63.948597,-19.9815
860472830000.0,-1.404434410846479,8.179219827404888,-2.3622779342509537,0.38606682,-0.40103304,0.3576616,29.26526,-64.11755,-19.84408
860477572000.0,-1.6349399336439523,8.507296000776549,-2.361224761580276,0.60903263,-0.2125811,0.45051312,29.18938,-64.46647,-19.625933
860482645000.0,-1.932041247214133,8.870419784702,-2.125430076868569,0.8558222,0.0076358155,0.5027421,29.038776,-64.87287,-19.408836
860487699000.0,-2.3631438524026867,9.31753242301068,-1.7536739443076128,1.0705414,0.20922135,0.5198463,28.804098,-65.36825,-19.185337
860492744000.0,-2.870759179004478,9.812665371684464,-1.3043095988460214,1.1945469,0.37048978,0.49113566,28.521042,-65.88771,-18.974253
860497590000.0,-3.306237669082719,10.3890506998362,-0.9675319886977888,1.2684617,0.43493605,0.4709771,28.2262,-66.405396,-18.787188
860502589000.0,-3.6346149063779687,11.217345798013923,-0.840102012960688,1.3090842,0.59528816,0.46181414,27.862734,-66.92485,-18.622425
860507524000.0,-3.88776867744837,11.860879477283158,-0.7521955106287287,1.3271047,0.7464773,0.4550946,27.527075,-67.36418,-18.520924
860512620000.0,-4.004233723212483,12.169960413492428,-0.7387572253235429,1.3570372,0.8958339,0.43249258,27.151722,-67.7927,-18.434458
860517601000.0,-4.094515543062757,12.357624347055635,-0.6350853749052078,1.3603969,1.0317514,0.39706242,26.740885,-68.20001,-18.364037
860522703000.0,-4.068049179617736,11.971969919291183,-0.0717278489127911,1.3322971,1.1246029,0.3286455,26.308676,-68.57768,-18.311707
860527590000.0,-4.0426981176507,11.60256709912559,0.4678896010136963,1.2733486,1.1313224,0.2556471,25.87131,-68.92994,-18.267693
860532582000.0,-3.9527054373313057,11.19634291360958,0.8204398142558449,1.2073752,1.0897835,0.17134771,25.43205,-69.24171,-18.243885
860537565000.0,-3.81664415348793,10.77001771226953,1.0290671129918263,1.1441506,1.0320568,0.11148291,25.004578,-69.51912,-18.228502
860542685000.0,-3.6544486531390135,10.376182904492929,1.1375926658157984,1.0906999,0.9764681,0.08399397,24.644772,-69.695854,-18.242598
860547592000.0,-3.4761364147982063,10.043873509917212,1.1335401168678854,1.0381655,0.93584555,0.07696902,24.304817,-69.847755,-18.26073
860552741000.0,-3.264802548123716,9.688746678057749,1.1183933096247431,0.99296147,0.9104946,0.103847094,23.99792,-69.97102,-18.271423
860557591000.0,-2.96342359008327,9.3270920333081,1.058117518016654,0.95111716,0.8885035,0.15057829,23.70649,-70.08845,-18.272663
860562584000.0,-2.6731353673411227,8.989638514486558,1.0332953137646053,0.9254609,0.8552113,0.21166481,23.43017,-70.2201,-18.24459
860567594000.0,-2.427015012539185,8.729844766980147,1.0925465235109717,0.91446525,0.82558435,0.28069258,23.161457,-70.36048,-18.197506
860572572000.0,-2.2068383024079967,8.500967156746933,1.1483074248977738,0.9068295,0.7816021,0.33964106,22.900106,-70.534584,-18.105097
860577567000.0,-2.083679969604725,8.388675728986824,1.191775082894139,0.8765916,0.7089091,0.40439278,22.656765,-70.722244,-17.988325
860582640000.0,-1.958598443616538,8.274630801453885,1.235921515129487,0.8549059,0.63346726,0.44318274,22.426458,-70.93554,-17.832874
860588442000.0,-1.8113617058302869,8.16240428785838,1.2444449726573024,0.8304713,0.5375614,0.48716503,22.223318,-71.16103,-17.65541
860592600000.0,-1.7040911063883009,8.089613485376178,1.2329517070040408,0.8035932,0.46181414,0.5177083,22.037203,-71.38748,-17.470654
860597685000.0,-1.615754309661264,8.057645199371699,1.1733201826625388,0.77640975,0.43218717,0.5546656,21.860695,-71.633484,-17.2554
860602573000.0,-1.573128786514296,8.083220406437807,1.07101873126935,0.75900006,0.38423425,0.5702427,21.711542,-71.876175,-17.038034
860607526000.0,-1.6168218655327045,8.120210561002011,0.977755387651152,0.7510588,0.36468655,0.58184916,21.556196,-72.13995,-16.796452
860612602000.0,-1.8949475771145816,8.187862958404207,0.9101031707777948,0.7360926,0.3472769,0.59131753,21.412783,-72.400345,-16.554098
860617557000.0,-2.1664434204731715,8.253902680454617,0.8440636249528375,0.72295904,0.34483343,0.58276546,21.256638,-72.668434,-16.313906
860622749000.0,-2.4870997418671354,8.339169550055514,0.8560094962999629,0.70005155,0.3827071,0.5516113,21.093376,-72.92579,-16.082264
860627547000.0,-2.7974545629441154,8.424198651276832,0.8985238648991488,0.6618725,0.42852196,0.5213735,20.928167,-73.173775,-15.856917
860632588000.0,-3.08713786443418,8.525349242494226,0.9528148684757506,0.627664,0.46486846,0.47952923,20.773933,-73.35897,-15.706871
860637567000.0,-3.3417954959512124,8.635471168230369,1.014758626880052,0.59773165,0.5323691,0.43463063,20.599148,-73.528694,-15.5703535
860642592000.0,-3.59880585915127,8.74661048874134,1.077274671463626,0.54367006,0.573297,0.38026363,20.451878,-73.625534,-15.506048
860647705000.0,-3.831729153994005,8.865718106154116,1.1917880834861576,0.4810564,0.6072,0.32711834,20.290066,-73.70544,-15.455918
860652546000.0,-4.044283199647329,8.980170067889262,1.3144154109504496,0.4196644,0.6267477,0.2724459,20.124279,-73.764496,-15.422073
860658618000.0,-4.2551720703674745,9.083334992181392,1.461425141438624,0.35735616,0.63529986,0.22724187,19.985888,-73.75588,-15.454087
860662587000.0,-4.366617610506255,9.131628241888194,1.5542964054925723,0.2910773,0.62796944,0.18875736,19.85041,-73.72982,-15.497589
860667584000.0,-4.4666779811372015,9.133586223170967,1.6582761943916169,0.24129178,0.6105598,0.14813483,19.744337,-73.65096,-15.589775
860672592000.0,-4.517868186609742,9.063781331263344,1.7466958213273822,0.18417588,0.5687156,0.1255328,19.65105,-73.56363,-15.683216
860677593000.0,-4.547070981850642,8.969726891042646,1.811911928688023,0.13316862,0.5174029,0.10140363,19.584717,-73.43936,-15.8087845
860682585000.0,-4.542193723495204,8.838039336665988,1.8411757843909409,0.08582657,0.45356745,0.084910266,19.537588,-73.31114,-15.932693
860687568000.0,-4.559622934291378,8.702128097125868,1.8639654902874128,0.04062254,0.40530908,0.070249505,19.51671,-73.16297,-16.071165
860692746000.0,-4.608769287512389,8.554689037462834,1.8787093962537167,-0.0067195175,0.34025195,0.071776666,19.521948,-73.015305,-16.203333
860697585000.0,-4.695899095877083,8.403363280127156,1.880937957817166,-0.049480084,0.30757064,0.06566802,19.538177,-72.85592,-16.346241
860702594000.0,-4.843770025652635,8.227766490704171,1.8670750762450632,-0.067500606,0.25870144,0.063224554,19.580101,-72.70043,-16.481697
860707566000.0,-4.973189887242717,8.0768416326141,1.8563226181664512,-0.119729586,0.20677789,0.051618114,19.642822,-72.524345,-16.635132
860712601000.0,-5.06908152982997,7.9713607606841,1.8515280285273936,-0.16554448,0.16340645,0.05467244,19.718561,-72.35477,-16.780245
860717569000.0,-5.152133185150717,7.883164846779773,1.8546453975786523,-0.19517145,0.11056661,0.057421334,19.825426,-72.14562,-16.962929
860722575000.0,-5.2113594589276895,7.827887260616044,1.8743873926371275,-0.2501493,0.0693332,0.041233405,19.94306,-71.93045,-17.145147
860728399000.0,-5.27636316209982,7.763587646642587,1.8984953799458215,-0.2773328,0.035430185,0.032986723,20.084824,-71.70248,-17.34144
860732633000.0,-5.269706064266951,7.716988135593499,1.931780730085372,-0.30085114,0.020158553,0.010995574,20.234554,-71.4664,-17.541477
860737553000.0,-5.261970371934001,7.662838491200131,1.970459030200296,-0.33933565,0.010079277,-0.008246681,20.4033,-71.21493,-17.754028
860742669000.0,-5.22969244707946,7.61273323609893,2.003964858340642,-0.3567453,-0.009773844,-0.036651913,20.580597,-70.95957,-17.970385
860747603000.0,-5.171673765234169,7.571291444132608,2.028829933520435,-0.3680463,-0.03176499,-0.055283304,20.761887,-70.70355,-18.1847
860752605000.0,-5.10985121418007,7.532905763911998,2.0453953639119984,-0.37873647,-0.050701816,-0.081855945,20.952734,-70.43642,-18.40922
860757570000.0,-5.035130488445184,7.510929052874838,2.023418652874838,-0.3998113,-0.087964594,-0.10293079,21.156303,-70.168655,-18.631708
860762821000.0,-4.945706717919607,7.48266573047714,1.99675464726143,-0.4288274,-0.1337795,-0.13408493,21.36718,-69.9008,-18.852985
860767574000.0,-4.715250680208652,7.384896527769254,1.9234277361153729,-0.46578476,-0.19181168,-0.15607607,21.593565,-69.6316,-19.071732
860772646000.0,-4.469327468916846,7.280565495550782,1.8451794522246088,-0.4908302,-0.26816985,-0.17867808,21.831352,-69.36824,-19.28279
860777576000.0,-4.25670574570854,7.1962229177161605,1.765462900973648,-0.52106804,-0.33200526,-0.2003638,22.083488,-69.0994,-19.494308
860782621000.0,-4.077742312752672,7.134863832680707,1.6785378019155466,-0.52870387,-0.40653083,-0.22357668,22.362291,-68.828094,-19.705675
860787585000.0,-3.9280095307528193,7.098430536543736,1.544395505100071,-0.5503896,-0.48716503,-0.24098633,22.6288,-68.59381,-19.877096
860792561000.0,-3.8021323518439503,7.083906258335873,1.365262588875343,-0.5674938,-0.5323691,-0.26267207,22.907265,-68.35475,-20.052408
860798056000.0,-3.68975571598904,7.093236322594978,1.2102577943716213,-0.5723807,-0.6407976,-0.3032946,23.211342,-68.13286,-20.206373
860802473000.0,-3.6145710682959344,7.11516528993557,1.1100116519662298,-0.59589905,-0.6606508,-0.31490102,23.50044,-67.911385,-20.358364
860807433000.0,-3.530143662238021,7.1397900755387695,0.9974418384433088,-0.6056729,-0.6960809,-0.3494149,23.804115,-67.70493,-20.501503
860812479000.0,-3.414483163720317,7.126870905804749,0.9289102458883024,-0.62796944,-0.6960809,-0.38698313,24.10162,-67.49254,-20.648283
860817779000.0,-3.2884210997526795,7.105090354492992,0.8801898461665293,-0.64934975,-0.6795876,-0.41386122,24.403738,-67.27484,-20.799679
860822461000.0,-3.206276638472108,7.09276867886782,0.9992994629843364,-0.6844745,-0.6722572,-0.43554693,24.685564,-67.07366,-20.934122
860827428000.0,-3.119131926985436,7.079696965320143,1.1256594516075844,-0.7144069,-0.65209866,-0.46395215,24.942596,-66.87812,-21.06194
860832475000.0,-2.9579673656466747,7.1859486427988575,1.1975228307731538,-0.7360926,-0.63529986,-0.47555858,25.19652,-66.68055,-21.18991
860837462000.0,-2.782595675275397,7.317477461444309,1.2559800439412483,-0.75441855,-0.63804877,-0.46578476,25.448574,-66.48067,-21.318201
860842477000.0,-2.4836451085689557,7.475060649317177,1.236293203366032,-0.7666359,-0.6395759,-0.43768495,25.69814,-66.28849,-21.431982
860847446000.0,-2.167862004558569,7.635240603115984,1.204257250836699,-0.7819075,-0.6398814,-0.39706242,25.944736,-66.10195,-21.538086
860852505000.0,-1.7915377450187695,7.772949970959669,1.0878926563037827,-0.77488256,-0.6423248,-0.34422258,26.166548,-65.95342,-21.59968
860857483000.0,-1.4060760970834538,7.901437043189913,0.950227769719896,-0.7699956,-0.66889745,-0.28038713,26.390278,-65.81775,-21.645044
860862529000.0,-1.1495852539548752,7.997168346078919,0.7767474870907465,-0.73975784,-0.68600166,-0.20891592,26.55861,-65.7589,-21.616198
860867521000.0,-0.9500114648205944,8.077947995974556,0.5914289962528576,-0.72509706,-0.6872234,-0.14721853,26.724024,-65.71258,-21.572933
860872525000.0,-0.9438775984401224,8.05207077003653,0.4364864517158653,-0.7125743,-0.66737026,-0.09162979,26.824297,-65.76215,-21.443949
860877531000.0,-1.0196070952946985,7.981074579869682,0.2944936611758317,-0.7174612,-0.63591075,-0.049480084,26.915085,-65.82136,-21.305723
860882542000.0,-1.1584716845659808,7.945229162910186,0.2555455317069744,-0.71959925,-0.57940567,-0.01282817,26.95271,-65.94347,-21.118793
860887543000.0,-1.3266880105168088,7.92600439549423,0.2651579053778224,-0.7287622,-0.5403103,0.03023783,26.979239,-66.072296,-20.924385
860892530000.0,-1.5364034511422255,7.953303206890199,0.277228100055269,-0.7333437,-0.4728097,0.04734206,26.97907,-66.19167,-20.743628
860897542000.0,-1.766317409137804,8.001938905121591,0.2904923654421518,-0.73761976,-0.42058071,0.074830994,26.966051,-66.32018,-20.55375
860902613000.0,-2.009206562645762,8.047804910044096,0.3716842843351298,-0.75319684,-0.37048978,0.0983493,26.947727,-66.41871,-20.392647
860907563000.0,-2.2554070481920627,8.089612401469868,0.5110430191709947,-0.7696902,-0.34483343,0.12217305,26.917734,-66.52119,-20.22898
860912555000.0,-2.5093227034351147,8.078739838931297,0.7154459665114504,-0.78801614,-0.33078352,0.13133603,26.896706,-66.58404,-20.098505
860917549000.0,-2.769448154961832,8.010285822900762,0.9892622021832064,-0.8081747,-0.34238997,0.12950343,26.873825,-66.64595,-19.967329
860922544000.0,-3.0364493098723138,7.95465975571473,1.217442467746289,-0.84757555,-0.36468655,0.11362094,26.885235,-66.65559,-19.875393
860927554000.0,-3.31537259545313,7.919794462036749,1.3718464758434548,-0.8723156,-0.39400807,0.10170906,26.900766,-66.66421,-19.784029
860932547000.0,-3.5827823552455684,7.890322121166328,1.4746529059381963,-0.90377516,-0.43371433,0.09254608,26.981415,-66.59672,-19.743425
860937521000.0,-3.83657748898576,7.867249853802189,1.5161830835609804,-0.92485,-0.48930305,0.06841691,27.075174,-66.52115,-19.708954
860942544000.0,-4.044498742497315,7.83113718379381,1.565530784223372,-0.9260717,-0.50610185,0.058948494,27.210413,-66.39271,-19.712694
860947575000.0,-4.1762048509225815,7.774691750854242,1.6266800032412378,-0.94897914,-0.5177083,0.042455133,27.359983,-66.25198,-19.722555
860952526000.0,-4.25059485207414,7.722225455722271,1.6774485809944102,-0.9599747,-0.52931476,0.029321533,27.546347,-66.06817,-19.767305
860957562000.0,-4.217487041306266,7.6749284420908115,1.7105564905364323,-0.9639453,-0.52778757,0.038789943,27.72877,-65.886284,-19.810118
860962489000.0,-4.179466860357143,7.622978729047619,1.7375405457142858,-0.96852684,-0.49449542,0.044898596,27.926104,-65.67125,-19.878399
860967548000.0,-4.126595642827381,7.5556882071825395,1.7519599002380952,-0.98563105,-0.4605924,0.06963864,28.1175,-65.46372,-19.938322
860972543000.0,-4.04112744735939,7.467858737635844,1.7334914550810296,-1.0030408,-0.44684792,0.089186326,28.310806,-65.25653,-19.990738
860977563000.0,-3.8715568721449,7.325786181487131,1.6326656882554813,-1.0106765,-0.42852196,0.111177474,28.487652,-65.05795,-20.03795
860983248000.0,-3.7135671084376702,7.2042065361458905,1.547165186799129,-1.001819,-0.40530908,0.129198,28.657393,-64.86349,-20.074335
860987556000.0,-3.657420055634186,7.185490851878062,1.5359357371529667,-0.98654735,-0.38789943,0.15454891,28.818151,-64.67887,-20.103544
860992522000.0,-3.592697153075667,7.163916551025222,1.522991111585919,-0.98349303,-0.34116822,0.16157386,28.946747,-64.51334,-20.114614
860997564000.0,-3.5629115272126555,7.087742189036844,1.4943212260312375,-0.9569204,-0.29016098,0.18600847,29.062864,-64.36675,-20.116394
861002813000.0,-3.5364409197193503,7.0083162366691285,1.4628253716395865,-0.9465357,-0.23762658,0.20463985,29.162445,-64.220795,-20.122328
861007685000.0,-3.601052581314624,6.960934462444609,1.4025212381093055,-0.9462303,-0.1872302,0.22113322,29.236383,-64.08854,-20.115376
861012483000.0,-3.664682867097489,6.914272362130724,1.3431330540620383,-0.95478237,-0.1572978,0.24251351,29.2992,-63.963165,-20.102577
861017543000.0,-3.775418268587896,6.912410345379443,1.3688394662247838,-0.9624182,-0.10629055,0.2556471,29.338974,-63.842262,-20.094204
861022592000.0,-3.8961854014409214,6.921700117367916,1.4152883746685878,-0.98715824,-0.04642576,0.26267207,29.364801,-63.72258,-20.085709
861027507000.0,-3.9666357771904623,7.0377755767020975,1.3934901174087906,-0.9941832,-0.017104227,0.25625798,29.392181,-63.59182,-20.08362
861032620000.0,-4.022902572249353,7.197198407507421,1.3466010725653548,-0.9923506,-0.005497787,0.24740042,29.40589,-63.46198,-20.084303
861037557000.0,-4.0929426248166125,7.420336491373075,1.3730443983676,-0.9642508,-0.016187929,0.2312125,29.433086,-63.310184,-20.103285
861042560000.0,-4.172145609381134,7.682695796239281,1.4373966553362951,-0.91507614,-0.038179077,0.1994475,29.46149,-63.160625,-20.128912
861047570000.0,-4.29971427019421,7.964268889480309,1.4556746,-0.86009824,-0.076358154,0.15057829,29.489363,-63.016766,-20.156557
861052542000.0,-4.445276074653839,8.25111171458371,1.4556746,-0.79381937,-0.099265605,0.10476339,29.52092,-62.88116,-20.191212
861057577000.0,-4.53698797972806,8.576672579198306,1.4598584253929012,-0.70554936,-0.08307768,0.008552114,29.554638,-62.74122,-20.24795
861062557000.0,-4.57067500197775,8.934597657778562,1.4682801919477309,-0.63224554,-0.032986723,-0.0842994,29.588383,-62.604942,-20.316694
861067518000.0,-4.573294869428065,9.292828369398585,1.4830272163620282,-0.5580254,0.048563786,-0.18448131,29.611292,-62.465855,-20.417667
861072564000.0,-4.4640708374115565,9.66324076975236,1.5210182508549528,-0.48502702,0.14385876,-0.2959642,29.625399,-62.321156,-20.550913
861077493000.0,-4.344312520327103,10.021143738317758,1.5944935745327102,-0.39187005,0.2669481,-0.40133846,29.595613,-62.200626,-20.69562
861082541000.0,-4.160764399844236,10.369414457943924,1.8392242216510903,-0.33353242,0.31642818,-0.4905248,29.569378,-62.069565,-20.864712
861087574000.0,-4.028211556765317,10.71216906681184,2.129381092616055,-0.26816985,0.38240165,-0.52748215,29.482613,-61.98585,-21.014807
861092555000.0,-4.207631584380877,11.023792910125705,2.7006917349698107,-0.2489276,0.37018433,-0.6017023,29.418335,-61.878902,-21.192038
861097552000.0,-4.449246717694977,11.34773446130638,3.292518917921255,-0.23884831,0.3023783,-0.67164636,29.349005,-61.805027,-21.321499
861102585000.0,-5.172720385804797,11.76218671262634,4.034170340994117,-0.2742785,0.23335053,-0.763887,29.29549,-61.706577,-21.471823
861107603000.0,-5.8940378637652735,12.175403759541409,4.7736113982124,-0.35796702,0.17470746,-0.8756753,29.327663,-61.536266,-21.63721
861112592000.0,-6.380160037678571,12.515394775396826,5.352000473571429,-0.46181414,0.13469578,-0.9935723,29.3853,-61.337685,-21.820644
861117572000.0,-6.607267157321429,12.775621513492064,5.754169266428571,-0.593761,0.10934488,-1.1279627,29.469475,-61.094913,-22.030365
861123235000.0,-6.791208048213536,12.98663184436738,6.169679561065574,-0.74372846,0.044593163,-1.2586879,29.717472,-60.66075,-22.352459
861127592000.0,-6.878904806515343,13.087483391130728,6.459079000819672,-0.89858276,-0.01985312,-1.3949108,29.986364,-60.184296,-22.700184
861132604000.0,-6.909535269398908,13.20702729417122,6.743292962204007,-1.0283916,-0.049480084,-1.5286902,30.305452,-59.62603,-23.085306
861137673000.0,-6.883008056721311,13.330821230327867,6.990880603688525,-1.1823297,-0.0106901415,-1.6643023,30.637032,-59.02279,-23.496082
861142831000.0,-6.818348958722996,13.505827521843496,7.196228807181949,-1.3060299,0.077579886,-1.7965547,30.996222,-58.359245,-23.940565
861147612000.0,-6.704046931531445,13.73882725012002,7.319323100259242,-1.409877,0.19639318,-1.9065105,31.348236,-57.667282,-24.408781
861152576000.0,-6.55184264727745,13.979541885003496,7.393115874872614,-1.4660766,0.28221974,-1.9886718,31.699818,-56.946815,-24.890255
861157600000.0,-6.30668243994405,14.219895285343192,7.3210100053551805,-1.466382,0.31245756,-2.0479257,32.04642,-56.220753,-25.386328
861162515000.0,-6.006369116465864,14.409903243574297,7.215998001616466,-1.4294246,0.3368922,-2.067168,32.35777,-55.51891,-25.85971
861167574000.0,-5.519933060240964,14.473139727710844,7.006830345060242,-1.3918564,0.36102137,-2.046704,32.66684,-54.83335,-26.327644
861172566000.0,-5.01512624243022,14.446078829568991,6.814352860706184,-1.3518448,0.3368922,-1.9941696,32.9395,-54.215652,-26.737543
861177606000.0,-4.439100819804715,14.179488727981065,6.657255031728967,-1.3267993,0.24984388,-1.9089539,33.220352,-53.630474,-27.117634
861182606000.0,-3.978824177433628,13.872597949115043,6.560875385176991,-1.2907583,0.22449298,-1.7825048,33.423965,-53.139717,-27.417885
861187622000.0,-3.8449937298426735,13.439616944198624,6.639599252826942,-1.244638,0.15485434,-1.7256943,33.666435,-52.671104,-27.691105
861192560000.0,-3.7132443777286137,13.013368897492626,6.717098945501475,-1.2241739,0.034513887,-1.6377298,33.866623,-52.27417,-27.877134
861197607000.0,-3.722520065830468,12.471784691482906,6.500104316204734,-1.2098186,-0.05009095,-1.5522085,34.070137,-51.905884,-28.040298
861202625000.0,-3.7662695541573945,11.907902295974106,6.213302064191787,-1.2034045,-0.052839845,-1.4624114,34.271408,-51.568428,-28.171711
861207556000.0,-3.856002046670306,11.324935843613538,6.156671728584425,-1.1691961,-0.033292156,-1.3735305,34.496716,-51.218704,-28.297056
861212588000.0,-3.956837338810044,10.72430813837336,6.143519219559679,-1.1117748,-0.03145956,-1.282817,34.712963,-50.90279,-28.392935
861217595000.0,-4.120378929082484,10.2295047523633,6.133095455458758,-1.073901,-0.101098195,-1.2247849,34.952152,-50.572903,-28.501274
861222653000.0,-4.32239718352178,9.789553912140873,6.12411663823911,-1.0152581,-0.2049453,-1.1908818,35.188065,-50.28038,-28.584745
861227629000.0,-4.573813741038858,9.505200947660589,6.062145105114988,-0.93309665,-0.2864958,-1.1707232,35.47507,-49.9455,-28.700373
861232686000.0,-4.885862071837827,9.37558073374306,5.942126624316019,-0.84757555,-0.34574974,-1.1575897,35.77758,-49.63652,-28.794245
861237565000.0,-5.180999806268364,9.357585045641528,5.869522679921646,-0.7440339,-0.40622538,-1.1395692,36.137146,-49.296272,-28.917696
861242608000.0,-5.479005543486778,9.4663809791381,5.845871454456415,-0.6478226,-0.46303585,-1.1133019,36.504543,-48.983604,-29.024273
861247612000.0,-5.734945656187387,9.563544134433736,5.818811634424196,-0.57757306,-0.5198463,-1.069625,36.894543,-48.67258,-29.146963
861252583000.0,-5.934800297948669,9.645302642400534,5.787016680183188,-0.50823987,-0.57787853,-1.0213667,37.289917,-48.393314,-29.251068
861257735000.0,-6.086327201651929,9.71105957846662,5.766863723467107,-0.44684792,-0.6264423,-0.95386606,37.668896,-48.12515,-29.35937
861262596000.0,-6.127040237673695,9.738201539500531,5.77138727342338,-0.41508293,-0.6951646,-0.8723156,38.05335,-47.883526,-29.438852
861267590000.0,-6.103636911067465,9.719311504566434,5.757553224452519,-0.37873647,-0.7583892,-0.7834347,38.412643,-47.66189,-29.515352
861272648000.0,-5.89433336429343,9.567091185799862,5.690956704605716,-0.3567453,-0.8155051,-0.70249504,38.770813,-47.46359,-29.56355
861277582000.0,-5.567507573708552,9.33207523971153,5.586087693172376,-0.31490102,-0.8356637,-0.6206391,39.102654,-47.2892,-29.592672
861283697000.0,-4.644798700697656,8.675620378850827,5.28769913312691,-0.26908615,-0.8445212,-0.5384777,39.426548,-47.140373,-29.595707
861287579000.0,-4.059033231355334,8.258881577565258,5.0982724135690205,-0.23243423,-0.84299403,-0.49877146,39.725983,-47.006516,-29.58346
861292570000.0,-3.618305084232755,7.947289027217269,4.970558190755514,-0.21533,-0.84788096,-0.4288274,40.00345,-46.903446,-29.543522
861297608000.0,-3.327745664586266,7.743519934146723,4.89886176891913,-0.17256944,-0.8426886,-0.38087448,40.268604,-46.81808,-29.503214
861302637000.0,-3.051579153879909,7.545314494331895,4.820794255503548,-0.14263703,-0.82924956,-0.32986724,40.493298,-46.771084,-29.402891
861308264000.0,-2.850575536604988,7.364017311745776,4.682850447304907,-0.11209377,-0.83077675,-0.2761111,40.704964,-46.744164,-29.291996
861312515000.0,-2.698724394426973,7.227053685804139,4.578638766364367,-0.07452556,-0.81153446,-0.2556471,40.88416,-46.729877,-29.169188
861317635000.0,-2.525462793366834,7.06863646919598,4.429522226542714,-0.043982297,-0.7797695,-0.23243423,41.04369,-46.73253,-29.03808
861322613000.0,-2.372141393969849,6.924897594723618,4.247453152311557,-0.002443461,-0.73456544,-0.21319197,41.18535,-46.748653,-28.91172
861327573000.0,-2.2478780868702897,6.7805776492463306,4.024502789141214,0.049785517,-0.6936375,-0.2012801,41.300213,-46.778778,-28.778643
861332593000.0,-2.1668304756049186,6.632784846786989,3.733684740549385,0.099265605,-0.6478226,-0.1957823,41.39405,-46.81948,-28.653572
861337583000.0,-2.093438711649525,6.404516991099683,3.5122398353540345,0.17348573,-0.6044512,-0.18112154,41.45282,-46.8845,-28.527838
861342756000.0,-2.029748911629747,6.027277807753165,3.399558113647152,0.2406809,-0.548557,-0.1518,41.488255,-46.961926,-28.409056
861347565000.0,-1.9877738824596776,5.753121960265457,3.304716087147177,0.30634892,-0.49571714,-0.121256754,41.485172,-47.06467,-28.300404
861352622000.0,-1.9755687721774196,5.606660551915322,3.2233486003024194,0.38331795,-0.46944994,-0.086437434,41.46581,-47.189037,-28.190031
861357986000.0,-1.9609914162561572,5.451116444444445,3.139840313519431,0.4569272,-0.41538838,-0.064751714,41.438248,-47.29909,-28.107712
861362656000.0,-1.9201925632183907,5.312400148148148,3.1153610698595147,0.5329799,-0.36896262,-0.027794369,41.395153,-47.43376,-28.017508
861367567000.0,-1.8772882447454844,5.166525259259259,3.089618550456121,0.61941737,-0.32925636,-0.0027488936,41.344006,-47.57463,-27.943176
861372622000.0,-1.8746138446034304,4.958322731735052,3.0123664421870555,0.7031059,-0.30115658,0.01740966,41.27716,-47.734436,-27.86727
861377530000.0,-1.8835218204207336,4.740077417227329,2.9232865444897183,0.77946407,-0.28863382,0.05681047,41.19569,-47.91627,-27.784945
861382613000.0,-1.867494335517344,4.558653795434331,2.8571119318410907,0.81397796,-0.25381452,0.07880162,41.1126,-48.09147,-27.712402
861387616000.0,-1.8390847710939815,4.402401042780907,2.805027631514972,0.88178396,-0.19547687,0.12064589,41.009235,-48.29719,-27.631569
861392608000.0,-1.803978592828201,4.295387973298218,2.759559924311183,0.9450085,-0.1441642,0.15882497,40.913383,-48.48956,-27.566977
861397689000.0,-1.7645460457117774,4.213236802019179,2.716841368773636,0.99112886,-0.09193522,0.22082779,40.79071,-48.701168,-27.495592
861402545000.0,-1.7268596751553216,4.134723499966235,2.676014502863317,1.0451905,-0.03481932,0.2782491,40.661182,-48.918644,-27.427437
861407609000.0,-1.6481860112482642,4.016979020598673,2.619157642832896,1.0946705,0.01160644,0.33964106,40.5102,-49.153152,-27.349283
861412592000.0,-1.5524637422311371,3.884440523838914,2.5565699787841383,1.1368202,0.05131268,0.39736784,40.337856,-49.40301,-27.265156
861417608000.0,-1.4601244884318767,3.7600229203084834,2.495152008194088,1.1771374,0.08277224,0.453262,40.152607,-49.66905,-27.170387
861422624000.0,-1.4060980421593832,3.721432601542416,2.448843665970437,1.2174544,0.11453723,0.49571714,39.95083,-49.947224,-27.070131
861427802000.0,-1.350326722622108,3.681595944730077,2.401039719392674,1.2571607,0.13500121,0.5537493,39.736984,-50.24382,-26.946762
861432621000.0,-1.287578791207585,3.6737299837924153,2.332308085169661,1.3151928,0.16615535,0.6062838,39.507286,-50.554314,-26.819855
861437596000.0,-1.21625452,3.68323988,2.24671892,1.3521502,0.19822577,0.6640105,39.26349,-50.87577,-26.679853
861442761000.0,-1.1473720258952953,3.684708716189436,2.1579190230319107,1.3897184,0.23151793,0.72173727,39.00724,-51.22933,-26.518278
861448326000.0,-1.0766835436451587,3.680550575282828,2.062281695342124,1.4230106,0.26633725,0.78038037,38.734478,-51.59524,-26.346313
861452751000.0,-1.0224310970772257,3.680924602145156,1.9862577934393997,1.4440855,0.31215215,0.8384125,38.43287,-51.9928,-26.147457
861457610000.0,-0.9891570880899178,3.7308355830532713,1.9030727818287447,1.4648548,0.37965274,0.904386,38.10761,-52.404102,-25.938992
861462521000.0,-0.9555269876296032,3.7812807008223097,1.8189975416517696,1.4831808,0.44623706,0.9776898,37.75219,-52.85461,-25.70331
861467594000.0,-1.0218865739538303,3.975115562218339,1.6704415909040744,1.5054774,0.52320606,1.0430524,37.369278,-53.315193,-25.462198
861472568000.0,-1.1138883962016004,4.202929702823508,1.5083431715901776,1.5231925,0.61422503,1.105666,36.956783,-53.786224,-25.212421
861477598000.0,-1.2407317632465544,4.48487885957121,1.4174994627871362,1.5540411,0.6786713,1.1725558,36.51129,-54.300648,-24.936037
861482590000.0,-1.3871557044410414,4.796029674885146,1.3717419632465544,1.5613716,0.7812967,1.2049317,36.02994,-54.8126,-24.666746
861487715000.0,-1.591037044313805,5.1934064339854045,1.3178428122339347,1.5919148,0.88117313,1.2709051,35.498207,-55.386112,-24.371689
861492614000.0,-1.8288070746807217,5.635658668619501,1.2607780029596594,1.6249015,0.9645562,1.3454307,34.943382,-55.962006,-24.073174
861497614000.0,-2.0791343697276634,6.087941831514573,1.2095832000286668,1.6410894,1.0412198,1.4004086,34.362705,-56.589115,-23.760363
861502591000.0,-2.3341912808313428,6.538846094323937,1.1640373009651217,1.6780468,1.1178834,1.4471397,33.75851,-57.231113,-23.436573
861507685000.0,-2.568702597206276,6.985051035208572,1.1596622422885572,1.7009543,1.1676689,1.4819591,33.13857,-57.9124,-23.103416
861512611000.0,-2.7672976899732107,7.400295255817069,1.2002839743781095,1.7357736,1.1979067,1.5100589,32.50878,-58.60037,-22.763224
861517591000.0,-2.953593107766843,7.78014728635882,1.2408395590310373,1.7357736,1.2098186,1.5183055,31.8743,-59.305614,-22.42679
861522577000.0,-3.116253827812263,8.094624761483725,1.2806010784405757,1.7550159,1.1863003,1.5134187,31.253002,-60.011105,-22.084276
861528060000.0,-3.2951284222785766,8.440449068766087,1.3243259903785012,1.7629571,1.1545353,1.4816537,30.642115,-60.71227,-21.747126
861532603000.0,-3.4226312964314034,8.665607929156755,1.393350719693365,1.7867808,1.1102476,1.4364496,30.057589,-61.40096,-21.41158
861537668000.0,-3.559401827491409,8.900682126002291,1.4788322458190148,1.7928895,1.0516045,1.3674219,29.505325,-62.0608,-21.08733
861542571000.0,-3.665371235244922,9.049584681003584,1.6149390365591398,1.808772,0.99082345,1.2928963,28.985834,-62.708,-20.780214
861547744000.0,-3.745698592831541,9.11300094623656,1.8220990129032255,1.7989981,0.90316427,1.2003502,28.511852,-63.316475,-20.49111
861552590000.0,-3.827685537462187,9.162701664703071,2.079004141537972,1.7867808,0.77518797,1.0760391,28.095709,-63.880535,-20.233732
861557576000.0,-3.960725369558988,9.143695963063209,2.797420219200764,1.7528778,0.61850107,0.9550878,27.731415,-64.4035,-19.993793
861562519000.0,-4.092617846505334,9.124854169399775,3.5096405705620124,1.7110336,0.44898596,0.8167268,27.449554,-64.843216,-19.797964
861567620000.0,-4.219367819186608,9.085550164609936,3.9756266265049898,1.6701056,0.2519819,0.6960809,27.236334,-65.24092,-19.618774
861572619000.0,-4.33752585470544,9.034177245627214,4.258177895482348,1.6694947,0.16462818,0.57940567,27.056278,-65.59578,-19.474773
861577605000.0,-4.542769994335347,9.011212604418429,4.42334911189577,1.6380352,-0.011301007,0.50640726,27.040958,-65.784706,-19.376842
861582714000.0,-4.782974993013595,8.997354345449395,4.55269006467145,1.6087136,-0.17348573,0.39003745,27.05982,-65.93286,-19.319374
861587601000.0,-5.0592286219854525,9.004952086568998,4.538295626370249,1.529912,-0.29565877,0.24678956,27.161037,-66.008255,-19.31531
861592616000.0,-5.3692115211761084,9.024633944985146,4.44480885401086,1.4049901,-0.33536503,0.10476339,27.292349,-66.04204,-19.338009
861597741000.0,-5.6598383505583945,9.027737573064549,4.4085252461007,1.2156218,-0.30573806,-0.055588737,27.49236,-65.972534,-19.453255
861602622000.0,-5.925280675033125,9.023313445012304,4.399677128582245,1.0225884,-0.19547687,-0.1994475,27.687077,-65.854065,-19.603077
861607565000.0,-6.184200703367425,8.841597570822076,4.470224126157854,0.8054258,-0.06291912,-0.33200526,27.908539,-65.64087,-19.849312
861612596000.0,-6.439888657178695,8.51617672404477,4.60504157682362,0.59864795,0.05131268,-0.46853364,28.11231,-65.370155,-20.133966
861617605000.0,-6.464838164706492,8.30708466365899,4.836854840696951,0.38637227,0.18081611,-0.6072,28.31686,-65.00287,-20.512016
861622641000.0,-6.249754532389545,8.217049319539514,5.17198544181705,0.17562376,0.30482176,-0.70738196,28.496166,-64.592606,-20.910267
861627790000.0,-5.9262150350723015,8.13501110489734,5.38623513739714,-0.041233405,0.41722095,-0.75869465,28.710276,-64.069275,-21.404346
861633381000.0,-5.494167684868579,8.053734795518094,5.5188435447311655,-0.25473082,0.4654793,-0.7733554,28.91308,-63.51687,-21.900892
861637665000.0,-5.159034287729885,7.992714725143678,5.603191344425287,-0.45112398,0.5345071,-0.75655663,29.093311,-62.960712,-22.367393
861642620000.0,-4.719275083239943,7.938171103196839,5.480468025962644,-0.6203337,0.6087272,-0.70554936,29.259363,-62.398823,-22.816114
861647752000.0,-4.263807023211207,7.881679101616379,5.353360847284483,-0.7715228,0.6774496,-0.61544675,29.372316,-61.90197,-23.175707
861652562000.0,-3.7054173513940993,7.655728479580249,5.106748191574572,-0.90102625,0.7144069,-0.4813618,29.468138,-61.418587,-23.501701
861657580000.0,-2.765045474196492,6.949231270678292,4.502571172310656,-0.9804387,0.7031059,-0.3368922,29.552454,-60.956795,-23.791708
861662528000.0,-2.102850004434416,6.3549276339546745,4.0001172990777984,-0.99265605,0.64660084,-0.20525073,29.552574,-60.62072,-23.95514
861667667000.0,-2.08836491139017,5.99763090734818,3.715245634356912,-0.95478237,0.5644395,-0.09254608,29.55475,-60.31674,-24.076757
861672526000.0,-2.105675490240139,5.755253516693991,3.481448564818208,-0.88270026,0.51251596,-0.0421497,29.460806,-60.150475,-24.08493
861677569000.0,-2.217460596026618,5.792515299681743,3.346374856823223,-0.84513205,0.43066,0.0580322,29.38669,-60.02455,-24.038536
861682670000.0,-2.3426732240709254,5.867602813942191,3.20466108721561,-0.768163,0.33536503,0.13439035,29.334236,-59.920624,-24.001358
861687580000.0,-2.510187945712897,6.084610383288802,3.048567969330419,-0.68783426,0.1994475,0.2003638,29.310543,-59.84567,-23.928875
861692580000.0,-2.680773201967452,6.305595688122419,2.8896136741316494,-0.605062,0.06963864,0.25778514,29.306873,-59.80702,-23.844088
861697751000.0,-2.877368816078939,6.560078509754125,2.6905297651730837,-0.5149594,-0.0571159,0.30695978,29.336832,-59.796593,-23.733131
861703403000.0,-3.1006406442898737,6.849018541556131,2.4585021368650923,-0.408058,-0.16401732,0.37048978,29.391548,-59.818893,-23.595112
861707530000.0,-3.268448239730227,7.059077793430849,2.2724655709555925,-0.26725355,-0.23335053,0.38606682,29.465065,-59.894333,-23.45779
861712595000.0,-3.4893766456161863,7.313995157537007,1.99205639945695,-0.20341812,-0.258396,0.4092797,29.548016,-59.987564,-23.300663
861717693000.0,-3.711744466584917,7.570573385022335,1.7098202777787508,-0.119729586,-0.2443461,0.42241332,29.617937,-60.136055,-23.158533
861722626000.0,-3.8944468397074807,7.804287066508548,1.5031223101492244,-0.008857546,-0.18234327,0.4279111,29.677826,-60.297657,-23.020267
861728148000.0,-4.089957050255537,8.058278747018738,1.2806490012776832,0.07819075,-0.095294975,0.45051312,29.721634,-60.470043,-22.883106
861732615000.0,-4.102103434582624,8.135205763202725,1.232063506246451,0.1695151,0.025350908,0.46609017,29.707706,-60.67774,-22.77924
861737569000.0,-4.115574038557638,8.220519494605337,1.178181137232633,0.23548855,0.16646078,0.48991394,29.633955,-60.895107,-22.689724
861742613000.0,-4.061341443839314,8.11638418799619,1.313232971101937,0.28924468,0.2846632,0.50946164,29.5326,-61.12202,-22.607798
861747748000.0,-3.9910665065179423,7.968026063988568,1.492824663305811,0.35430184,0.3885103,0.5137377,29.39587,-61.357395,-22.5359
861752581000.0,-3.958709425710853,7.9621387226672,1.796169020104125,0.42149702,0.4541783,0.50762904,29.224321,-61.606056,-22.46558
861757573000.0,-4.0017877667601125,8.258901327392872,2.413625741609932,0.52534413,0.48533243,0.48258355,29.037605,-61.861446,-22.404913
861762557000.0,-4.123110528693238,8.709773150307356,3.0225830911758877,0.6386596,0.43096542,0.45662177,28.882952,-62.103718,-22.35195
861767614000.0,-4.4304189936744,9.530862787527266,3.622795091959151,0.7501425,0.27550024,0.41538838,28.756453,-62.345398,-22.302816
861772527000.0,-4.776359112730023,10.300943122510713,3.967801114292916,0.81000733,0.17959438,0.3921755,28.662771,-62.55107,-22.255316
861777687000.0,-5.26632870990673,11.03589734484497,3.693750440231913,0.8362745,-0.0015271631,0.3408628,28.648954,-62.74502,-22.207829
861782626000.0,-5.735313175111335,11.739373876649022,3.4314372078312747,0.8729264,-0.13347405,0.26450464,28.676003,-62.906826,-22.172838
861787562000.0,-6.064087900548321,12.399424694311172,2.6972856273474983,0.91721416,-0.2049453,0.1826487,28.744234,-63.052795,-22.14614
861792568000.0,-6.384464480757368,13.064822540267306,1.908666112148732,0.99173975,-0.19425514,0.065973446,28.836308,-63.175255,-22.148449
861797877000.0,-6.583988767699036,13.763723847643698,1.3299734746340592,1.0793989,-0.16462818,-0.04917465,28.919981,-63.29431,-22.191807
861802672000.0,-6.678256781488754,14.390810472509818,0.965197487397358,1.1658363,-0.18967366,-0.15363261,29.025528,-63.390858,-22.260519
