timestamp,acc_x,acc_y,acc_z,gyro_x,gyro_y,gyro_z,ori_azimuth,ori_pitch,ori_roll
2221240584000.0,1.1704853152281318,9.82485603692992,1.3378120404773066,-1.1759156,0.7467828,0.034208454,141.2122,-82.59427,-0.9060298
2221245624000.0,1.1615800341717946,9.825578076203488,1.3327576901666485,-1.1759156,0.7623598,0.032070424,141.60242,-82.74089,-0.41730088
2221250626000.0,1.1527418961075486,9.826294671530151,1.327741448052777,-1.1908818,0.7641924,0.034513887,141.36082,-82.395164,-0.3561522
2221255696000.0,1.143783607425876,9.82702100865654,1.322657012323603,-1.1924089,0.7470882,0.038789943,141.12427,-82.06096,-0.2973997
2221260587000.0,1.135141597575371,9.827721701927777,1.31775208625824,-1.176221,0.7302894,0.033292156,140.99843,-81.641945,-0.30401146
2221265649000.0,1.1261974442604543,9.82844689296008,1.312675673307337,-1.162782,0.7351763,0.023823744,140.87299,-81.2343,-0.31142396
2221270629000.0,1.1173981784547875,9.829160336528007,1.307681493833711,-1.1542299,0.75136423,0.03023783,140.75043,-80.842094,-0.3162565
2221275617000.0,1.108584777282365,9.829874926190024,1.3026792915818133,-1.1756102,0.7867944,0.031154128,140.62361,-80.45666,-0.3269288
2221281669000.0,1.097891372331382,9.83074194636535,1.2966100598198882,-1.2125676,0.782213,0.043676864,140.50478,-80.08061,-0.3318722
2221285627000.0,1.090897899628806,9.83130897641392,1.2926407902703674,-1.2229522,0.71959925,0.04337143,140.39523,-79.717094,-0.33934793
2221290611000.0,1.0820915661397614,9.832022993028891,1.2876425994076055,-1.135293,0.7855727,0.05131268,140.25212,-79.38234,-0.34763992
2221295621000.0,1.0732392927087593,9.832740734449642,1.2826183345154631,-1.2278391,0.7809912,0.05375614,140.14922,-79.00371,-0.35121223
2221300745000.0,1.064185590301483,9.833474807711102,1.2774797450329607,-1.239751,0.7797695,0.059864793,140.02876,-78.68316,-0.35540608
2221305412000.0,1.0559393707201483,9.834143410347956,1.2727994567591827,-1.2363913,0.7626653,0.065973446,139.91664,-78.350716,-0.358133
2221310399000.0,1.0471277364685705,9.834857856748211,1.2677982573545692,-1.2464706,0.75747293,0.08155051,139.80336,-78.02115,-0.3573732
2221315450000.0,1.0382030192829432,9.835581471901149,1.2627328757237886,-1.2394456,0.7440339,0.093767814,139.69977,-77.707085,-0.35460693
2221320421000.0,1.0294196557648772,9.836293626113232,1.2577477218757167,-1.2437216,0.72021013,0.110872045,139.60211,-77.396416,-0.34542528
2221325398000.0,1.020625690721744,9.83700663989588,1.252756550943942,-1.2455542,0.70096785,0.12034045,139.50946,-77.097466,-0.3346726
2221330391000.0,1.011803454945099,9.8377219458667,1.2477493344556252,-1.2076806,0.63438356,0.1386664,139.4378,-76.81747,-0.31240755
2221335395000.0,1.002961783039164,9.838438827716889,1.242731086647186,-1.1129965,0.56413406,0.14080444,139.37569,-76.56154,-0.2906787
2221340532000.0,0.993885110660909,9.839174763381235,1.2375794601499934,-1.0042624,0.4914411,0.13683382,139.33453,-76.32819,-0.2612044
2221345424000.0,0.9852413338895594,9.839875599914231,1.232673531237347,-0.8567385,0.4279111,0.14508049,139.31166,-76.1397,-0.22377977
2221350768000.0,0.9757989088964906,9.840641190763032,1.227314315352395,-0.72692966,0.37110063,0.14019357,139.31017,-75.98257,-0.1867411
2221355523000.0,0.967397200280839,9.84132240043482,1.222545776517637,-0.6017023,0.19394971,0.10598512,139.36282,-75.870255,-0.14300893
2221360524000.0,0.9585608291374376,9.842038852499725,1.2175305372510496,-0.23701571,0.009468411,0.063224554,139.4355,-75.86646,-0.09866043
2221365631000.0,0.949537164384518,9.842770490311256,1.2124089961723727,0.0888809,0.03268129,0.06536258,139.49936,-75.8889,-0.0535726
2221370617000.0,0.9407272970537844,9.84348479344975,1.207408799615043,0.05681047,0.055283304,0.070554934,139.61676,-75.91149,-0.0067806705
2221375598000.0,0.9319262643272732,9.844198380279442,1.2024136172941329,0.022602014,0.040011674,0.07574729,139.73727,-76.02265,0.041008458
2221380509000.0,0.9232489160598778,9.84490193878589,1.1974886342830928,0.03176499,0.038789943,0.0693332,139.8473,-76.1333,0.08385767
2221385505000.0,0.9144213795206988,9.845617674541993,1.1924784092529246,0.03726278,0.034513887,0.07819075,139.96025,-76.22962,0.13305902
2221390617000.0,0.9053888801635568,9.846350028662323,1.1873518539378285,0.032375857,0.026267206,0.07666359,140.07495,-76.32223,0.17737858
2221395555000.0,0.8966638250333596,9.847057455236309,1.182399794050124,0.03023783,0.026572637,0.080634214,140.18663,-76.41379,0.22478038
2221400610000.0,0.8877320401643546,9.847781643436289,1.177330401030208,0.04337143,0.025045475,0.09010262,140.29994,-76.50503,0.27337253
2221405510000.0,0.8790741280262488,9.848483626063368,1.1724164493392906,0.032986723,0.015882496,0.09101892,140.41472,-76.585785,0.32055607
2221410529000.0,0.8702059523076462,9.849202656839964,1.1673831588215935,0.036957346,0.01038471,0.093462385,140.52724,-76.67117,0.3699717
2221415648000.0,0.8611610845045925,9.849936013792622,1.1622495835755102,0.03573562,0.010995574,0.098043874,140.63947,-76.74903,0.41976666
2221421034000.0,0.8516444488360543,9.850707621635369,1.1568482481046365,0.040317107,0.009162978,0.09010262,140.7536,-76.826805,0.4665907
2221425589000.0,0.843596124389305,9.851360178955032,1.1522802787266508,0.04062254,-0.0033597588,0.0888809,140.8688,-76.899994,0.516511
2221430568000.0,0.8347986255044828,9.852073479261202,1.1472871021003082,0.040317107,-0.008246681,0.093462385,140.98154,-76.97151,0.56481963
2221435507000.0,0.8260718034534411,9.852781049096947,1.14233403936532,0.027488936,-0.004886922,0.08460484,141.0953,-77.03694,0.6086906
2221440601000.0,0.8170711086715002,9.85351082450559,1.1372255353013334,0.028405234,-0.006414085,0.07574729,141.2104,-77.10348,0.6538221
2221445589000.0,0.8082577074990775,9.854225414167605,1.132223333049436,0.03604105,-0.0076358155,0.07086037,141.32368,-77.16584,0.6967989
2221450635000.0,0.8119210878007901,9.853289115981042,1.131723050654494,0.031154128,-0.0143553335,0.06688975,141.43826,-77.22259,0.73751855
2221455833000.0,0.8253462489033166,9.851051596226355,1.1347064198460777,0.02076942,-0.022296581,0.06566802,141.55246,-77.277596,0.7773421
2221460515000.0,0.8374387083650383,9.84903619270742,1.1373936331117558,0.029321533,-0.019547688,0.06627888,141.6983,-77.36313,0.759418
2221465543000.0,0.8504248010975323,9.846871850782346,1.1402794315525568,0.022907447,-0.024740042,0.048563786,141.8486,-77.43927,0.73803073
2221470604000.0,0.863496124748915,9.84469330374917,1.1431841701979213,0.029932396,-0.020463986,0.047036625,141.99323,-77.51894,0.7215602
2221475524000.0,0.8762032799286823,9.842575451268784,1.1460079825146954,0.025961773,-0.027183503,0.044898596,142.14217,-77.591545,0.70203805
2221480527000.0,0.8891248037832303,9.840421870789235,1.1488794323156752,0.02565634,-0.025350908,0.04642576,142.28607,-77.66477,0.68339026
2221485523000.0,0.9020282483519536,9.83827130351444,1.1517468644975053,0.026572637,-0.01863139,0.04886922,142.42918,-77.735,0.66558784
2221490628000.0,0.915213213228521,9.83607381633713,1.154676856748955,0.02076942,-0.028099801,0.03940081,142.57558,-77.801186,0.6467864
2221495630000.0,0.9281321543279512,9.833920666315406,1.157547732604342,0.027488936,-0.036651913,0.04184427,142.7176,-77.86888,0.63254637
2221500560000.0,0.940865137058897,9.831798509256808,1.1603772843770443,0.021685716,-0.042760566,0.047647487,142.86055,-77.9294,0.61807567
2221505508000.0,0.9536446093819638,9.829668603957428,1.163217167170418,0.025350908,-0.045814894,0.050701816,143.0036,-77.992516,0.6048637
2221510510000.0,0.966563550481394,9.827515453935703,1.1660880430258052,0.0290161,-0.04550946,0.05100725,143.14577,-78.051994,0.59363085
2221515592000.0,0.9796891119902512,9.825327867288282,1.1690048345286197,0.029321533,-0.049480084,0.043066,143.2888,-78.109726,0.58229387
2221520818000.0,0.9931865902360772,9.823078294714604,1.1720042741968026,0.03390302,-0.045814894,0.044593163,143.42757,-78.167694,0.57411265
2221525531000.0,1.005359115106452,9.821049547003213,1.174709279775859,0.033292156,-0.04428773,0.04062254,143.56732,-78.22259,0.56344324
2221530520000.0,1.0182444803893502,9.818901992933162,1.177572694338539,0.033292156,-0.037873644,0.050396383,143.70227,-78.27692,0.5574478
2221536377000.0,1.0333716771145327,9.816380801474295,1.1809342936758045,0.016493361,-0.048563786,0.057726767,143.84044,-78.32455,0.5514472
2221540599000.0,1.0442760692220483,9.81456340855312,1.183357491968776,0.021685716,-0.048563786,0.05131268,143.97255,-78.37681,0.54414195
2221545826000.0,1.0577761302229924,9.81231340552162,1.1863575055825522,0.0125227375,-0.043066,0.04734206,144.10408,-78.41844,0.5406346
2221555510000.0,1.0827875307841444,9.80814485198096,1.1919155947036173,-0.00580322,-0.043676864,0.036651913,144.23659,-78.457535,0.53456223
2221560530000.0,1.0957529614756956,9.805983953718457,1.1947968015796755,-0.003970624,-0.04153884,0.032986723,144.36513,-78.49829,0.5296631
2221565596000.0,1.1088371989026673,9.803803254396172,1.1977044099530043,-0.015271631,-0.031154128,0.03634648,144.49023,-78.5288,0.5241645
2221570824000.0,1.1223398426587292,9.801552820906853,1.2007049975123731,-0.019242255,-0.032375857,0.040317107,144.61667,-78.56074,0.5192108
2221575599000.0,1.1346724983464098,9.799497384810545,1.2034455877181855,-0.02443461,-0.032070424,0.035124753,144.73865,-78.588036,0.51277983
2221580531000.0,1.1474106465875913,9.797374366836303,1.2062762873820736,-0.02687807,-0.025961773,0.034208454,144.85745,-78.61382,0.5091921
2221585513000.0,1.1602779325846646,9.795229825971004,1.2091356843256038,-0.021991149,-0.026267206,0.043676864,144.97624,-78.639175,0.50821203
2221590618000.0,1.1734628974612322,9.793032338793694,1.2120656765770534,-0.022602014,-0.022602014,0.04337143,145.09143,-78.661446,0.504445
2221595730000.0,1.1866659416236247,9.790831838411634,1.2149996864476529,-0.03176499,-0.013439035,0.047036625,145.20303,-78.68156,0.50485474
2221600630000.0,1.1993214417010352,9.788722595087672,1.21781201985257,-0.027794369,0.002443461,0.04642576,145.31064,-78.70439,0.50407267
2221606475000.0,1.2144176453648037,9.786206569122664,1.2211667318427215,-0.03359759,0.011911872,0.044898596,145.41603,-78.72099,0.50455254
2221610571000.0,1.2249966103274716,9.78444341388696,1.2235176129909953,-0.03573562,0.007330383,0.048563786,145.51944,-78.73892,0.506834
2221615580000.0,1.2379336307127269,9.782287250660486,1.2263925064655323,-0.04520403,0.011911872,0.052839845,145.6165,-78.7524,0.5084254
2221620610000.0,1.2509248889554565,9.780122047819768,1.2292794527975188,-0.058643065,0.016187929,0.052534413,145.7138,-78.763466,0.5106078
2221625790000.0,1.264303560465862,9.777892276305868,1.2322524909684314,-0.055283304,0.021685716,0.04886922,145.80832,-78.77605,0.5132579
2221630548000.0,1.2765923093165394,9.775844157992518,1.2349833240991654,-0.0693332,0.020463986,0.04550946,145.90242,-78.77935,0.5165741
2221635555000.0,1.289524164191559,9.773688855681687,1.2378570696825166,-0.069027774,0.032986723,0.04550946,145.99005,-78.78727,0.51926875
2221640531000.0,1.3023759536579251,9.771546897563312,1.24071302295249,-0.07849618,0.026267206,0.042760566,146.08272,-78.78812,0.52193785
2221645849000.0,1.3161110453745923,9.769257722870083,1.2437652656152145,-0.07727446,0.03970624,0.04062254,146.16516,-78.7918,0.52349514
2221650626000.0,1.3291807951044776,9.780978658507465,1.1110468142686567,-0.09132435,0.04062254,0.043982297,146.25182,-78.78814,0.5274397
2221655601000.0,1.3434030577910447,9.80468242965174,0.8597866421293532,-0.09010262,0.047647487,0.040927973,146.33249,-78.789085,0.52843535
2221660504000.0,1.3503298,9.818471043839756,0.8092220735449736,-0.1001819,0.048258353,0.049480084,146.5049,-78.77052,0.55752975
2221665611000.0,1.3503298,9.823092145408165,0.9570943803571428,-0.10415252,0.048563786,0.0571159,146.67424,-78.753914,0.585634
2221670589000.0,1.32511351125985,9.822201600493688,1.1033103881705115,-0.1142318,0.06414085,0.04917465,146.86497,-78.77619,0.5937897
2221676390000.0,1.2512721730561094,9.81165262546283,1.2773649514098546,-0.113926366,0.07391469,0.05100725,147.05556,-78.79909,0.60790503
2221680483000.0,1.2162545,9.808002023353673,1.2814908209888491,-0.13255776,0.06872234,0.052534413,147.33208,-78.79614,0.59341913
2221685499000.0,1.2162545,9.813055487691985,0.9883957781274983,-0.13439035,0.070249505,0.05589417,147.6019,-78.79736,0.5809091
2221690552000.0,1.2031811764242208,9.80969034503762,0.8815843486205661,-0.13988814,0.076358154,0.050701816,147.96262,-78.768616,0.5191748
2221695643000.0,1.1682434912146185,9.792221520673593,1.0877166366348978,-0.15057829,0.07360926,0.046731193,148.32137,-78.73736,0.46268716
2221700767000.0,1.1330793389824436,9.774639462916516,1.2951850797276965,-0.15302174,0.07971791,0.043676864,148.66835,-78.74944,0.39820156
2221705525000.0,1.1233082736290323,9.765521067439517,1.3186896452116936,-0.15424347,0.08032878,0.03604105,149.01619,-78.75785,0.33488604
2221710500000.0,1.1281111546774194,9.76071808608871,1.232237736189516,-0.1563815,0.0852157,0.030543262,149.35912,-78.76428,0.2738515
2221715599000.0,1.1277758590390436,9.756478611270666,1.1765148074672047,-0.15027285,0.094989546,0.024129177,149.83098,-78.7249,0.15545785
2221720626000.0,1.1240389519832337,9.752741626174029,1.1428826049445004,-0.13836098,0.09437868,0.021380283,150.29889,-78.68571,0.042348888
2221725729000.0,1.1204864,9.750021931639226,1.1128530694702936,-0.14110987,0.0983493,0.020463986,150.81073,-78.65046,-0.0946972
2221730549000.0,1.1204864,9.762413075161058,1.1417651770221904,-0.13805555,0.10903945,0.01038471,151.31557,-78.618614,-0.22923198
2221735474000.0,1.1204864,9.77507415023264,1.171307112643164,-0.13194689,0.11026118,0.0106901415,151.89359,-78.58451,-0.3930028
2221741774000.0,1.100902119303773,9.77792,1.193614724556982,-0.13958271,0.11728613,0.0009162979,152.46045,-78.54493,-0.55582386
2221746319000.0,1.0837616309994489,9.77792,1.207327115200441,-0.1459968,0.100792766,-0.003970624,153.02576,-78.50559,-0.70858186
2221750559000.0,1.063942997589997,9.775445837047494,1.2273880136936577,-0.14508049,0.10140363,-0.011301007,153.6895,-78.44404,-0.91000456
2221755512000.0,1.030461326913381,9.765879459917311,1.270435861722295,-0.15088372,0.09987647,-0.019242255,154.34763,-78.37644,-1.1021309
2221760475000.0,0.9964797603127548,9.75967451256207,1.3051712807678055,-0.16310102,0.09773844,-0.0290161,155.11296,-78.27964,-1.3481628
2221766776000.0,0.951757725180464,9.764146807603945,1.3185878857036983,-0.16615535,0.102319926,-0.038789943,155.8617,-78.18115,-1.5840807
2221770595000.0,0.924651955910472,9.766857440005928,1.326719613088268,-0.17806722,0.108123146,-0.05681047,156.77174,-78.0331,-1.90019
2221775523000.0,0.8960996253818989,9.760124903945112,1.358570263515286,-0.18875736,0.10720685,-0.060170226,157.65775,-77.88239,-2.1971793
2221780512000.0,0.8719957432973464,9.745662794168096,1.4067780176167894,-0.19792034,0.11209377,-0.06658431,158.51833,-77.726685,-2.4838
2221785505000.0,0.854243762893359,9.735778505373382,1.434613109079636,-0.20189096,0.11575896,-0.08032878,159.53627,-77.5216,-2.850279
2221790684000.0,0.8405765545742628,9.728944765637918,1.4482802674497106,-0.21624629,0.11362094,-0.09987647,160.52156,-77.310486,-3.1976829
2221795664000.0,0.8274345006200055,9.722373608294296,1.461422273374208,-0.22693644,0.12217305,-0.12583824,161.55365,-77.05764,-3.5764377
2221800594000.0,0.82360536,9.714113245690886,1.503325163860585,-0.23915374,0.13103059,-0.13744467,162.55304,-76.80323,-3.9341714
2221805518000.0,0.82360536,9.705131787163127,1.5572128365393774,-0.24770586,0.13194689,-0.15485434,163.52235,-76.54877,-4.2794175
2221810509000.0,0.8186816560014216,9.713614259996444,1.622024609694331,-0.25809056,0.13408493,-0.17959438,164.527,-76.25215,-4.6505485
2221815727000.0,0.809800948270837,9.735816029322908,1.6975106717700372,-0.26908615,0.14049901,-0.19792034,165.49944,-75.959175,-5.003635
2221820637000.0,0.8026680361747655,9.7438378974386,1.759032349815537,-0.2950479,0.13897185,-0.21685717,166.43816,-75.65816,-5.3390627
2221825630000.0,0.7976277797744281,9.728717322968272,1.8043947574154109,-0.31398472,0.13897185,-0.24404067,167.34787,-75.362564,-5.662833
2221830572000.0,0.8024468524245939,9.716672982687845,1.8518857492504013,-0.3323107,0.14660765,-0.27183503,168.23466,-75.05585,-5.97634
2221835503000.0,0.8193032642691415,9.708244607353205,1.9024549891843656,-0.3408628,0.15790866,-0.28985557,169.09496,-74.75575,-6.2766705
2221840514000.0,0.8635217136164897,9.694668295128045,1.9478842367270457,-0.364992,0.1591304,-0.30543262,169.935,-74.445435,-6.568861
2221845624000.0,1.026544757339163,9.65900734676244,1.9682621038934,-0.37323865,0.160963,-0.32467487,170.7489,-74.14602,-6.851095
2221850554000.0,1.165551079996093,9.634268,1.9914678685290093,-0.3924809,0.15699236,-0.34605515,171.539,-73.84277,-7.1156864
2221855609000.0,1.2601218448915803,9.634268,2.024567601680016,-0.40286562,0.15943582,-0.35430184,172.3051,-73.55094,-7.3673897
2221861433000.0,1.356982944081204,9.626118473503675,2.0562278768078404,-0.41508293,0.16065755,-0.35460728,172.99384,-73.30463,-7.546838
2221865604000.0,1.4101122281694085,9.609340746447325,2.070209325754288,-0.4269948,0.16310102,-0.3594942,173.66785,-73.063484,-7.720239
2221870868000.0,1.4771639067693385,9.588166458452925,2.0878545780329016,-0.44837508,0.15210545,-0.3539964,174.30768,-72.83878,-7.8489876
2221875516000.0,1.5295185733222174,9.560423883701542,2.091859710546061,-0.45478916,0.16187929,-0.34880406,174.92924,-72.62292,-7.9731455
2221880511000.0,1.5743836778970404,9.515558935285537,2.0769045889328885,-0.44990227,0.16584991,-0.34116822,175.54291,-72.414314,-8.086331
2221885497000.0,1.6063109031033345,9.469663317761636,2.072082338015847,-0.47647488,0.16646078,-0.3387248,176.11473,-72.22308,-8.159769
2221890621000.0,1.6225114720039615,9.421061441895016,2.0801827070485306,-0.47861293,0.1572978,-0.3286455,176.67786,-72.04832,-8.223321
2221895688000.0,1.634733870662605,9.36906535780655,2.087122561279513,-0.47891834,0.15027285,-0.30970868,177.245,-71.864426,-8.278316
2221900632000.0,1.5842488529017518,9.253670966945926,2.07630427594821,-0.5012149,0.14630222,-0.30604348,177.80452,-71.681404,-8.328933
2221905582000.0,1.533702566915461,9.13813653434882,2.065472861629855,-0.51068336,0.13316862,-0.29657507,178.3438,-71.51576,-8.357322
2221910510000.0,1.480637791651915,9.067472825491476,2.0537239869374826,-0.5290093,0.13072516,-0.2864958,178.8721,-71.34981,-8.380727
2221915598000.0,1.4216190300754683,9.06293282959098,2.0401042836671945,-0.53878313,0.13561209,-0.28344148,179.39311,-71.19091,-8.398828
2221920669000.0,1.3664548673916446,9.065961638241276,2.038686510342669,-0.5537493,0.14813483,-0.28771752,179.92244,-71.004,-8.440678
2221925578000.0,1.3223185714755126,9.088029863010483,2.0681107844312314,-0.56138515,0.14721853,-0.28527406,180.44351,-70.82593,-8.474071
2221931592000.0,1.2682473383038648,9.115065573697386,2.104158367313409,-0.57787853,0.16676621,-0.29901853,180.9657,-70.62744,-8.533587
2221935565000.0,1.25545566637442,9.175005557503868,2.127157545126354,-0.57818395,0.18173242,-0.30482176,181.47807,-70.44141,-8.58406
2221940617000.0,1.2429796494584835,9.258179003610108,2.156268251263538,-0.5867361,0.19456059,-0.30268374,181.97597,-70.25704,-8.6320305
2221945706000.0,1.2371200259874524,9.351454328443934,2.204749903525669,-0.58551437,0.21044308,-0.31429017,182.47598,-70.06303,-8.700402
2221950643000.0,1.24129787008041,9.455900867014224,2.2799511844481755,-0.5928447,0.21838433,-0.31978795,182.96358,-69.874596,-8.761169
2221955600000.0,1.251236079286336,9.572248192341164,2.3617373691906005,-0.61391956,0.21380283,-0.3436117,183.46834,-69.671585,-8.836719
2221960555000.0,1.3028604015593268,9.77186195575863,2.4890773114229763,-0.61575216,0.22815818,-0.36041048,183.95442,-69.48127,-8.907902
2221965597000.0,1.3553911448288365,9.974980542065564,2.6186530911879897,-0.61636305,0.23976462,-0.36713,184.43333,-69.286224,-8.969916
2221970632000.0,1.4031430121570558,10.147049187941516,2.7093631072942337,-0.6151413,0.24251351,-0.37812558,184.90266,-69.09744,-9.032489
2221975601000.0,1.4422321522917694,10.264317016510596,2.732816591375061,-0.6087272,0.25289822,-0.37995818,185.35672,-68.91875,-9.090732
2221980517000.0,1.4809043625759817,10.380334051174634,2.7560199175455886,-0.5928447,0.26725355,-0.38515055,185.7934,-68.751595,-9.117015
2221985514000.0,1.5420446952979092,10.434065517560532,2.772530214420296,-0.57726765,0.27366763,-0.37812558,186.22012,-68.594666,-9.1371765
2221990602000.0,1.6064714900421453,10.482385329807451,2.7886369025948268,-0.559858,0.2733622,-0.36835176,186.63692,-68.44894,-9.155309
2221995714000.0,1.621814128393395,10.484664081316854,2.814883955270537,-0.53786683,0.2669481,-0.35216382,187.053,-68.32095,-9.154887
2222001432000.0,1.5876921163049122,10.439168302731332,2.8546930881399937,-0.52106804,0.26542094,-0.3222314,187.45781,-68.20497,-9.145983
2222005545000.0,1.5242528694126074,10.37042643819075,2.849485162065084,-0.47769663,0.26511553,-0.31306845,187.861,-68.109955,-9.117641
2222010564000.0,1.4258779527220629,10.267132213262382,2.824891291649611,-0.48258355,0.27305678,-0.30482176,188.25267,-68.01498,-9.080941
2222015590000.0,1.2689236393640886,10.178391973763777,2.751344642153516,-0.46273044,0.2773328,-0.3100141,188.6387,-67.92829,-9.049828
2222020766000.0,1.0707034363405832,10.096203474787869,2.644982713742319,-0.44165558,0.2864958,-0.3155119,189.01408,-67.846,-9.016785
2222025623000.0,0.8964694346090655,10.019499226055862,2.5753048980864017,-0.40958515,0.30451632,-0.3295618,189.39282,-67.75153,-9.016303
2222030532000.0,0.7283565142360104,9.942258030153669,2.525325328645984,-0.37965274,0.31948254,-0.3390302,189.7631,-67.66698,-9.01436
2222035495000.0,0.5826795628457712,9.891888284577115,2.4890167845771143,-0.33353242,0.33017266,-0.35063666,190.17033,-67.56159,-9.082652
2222040597000.0,0.4589252385508819,9.86978930963365,2.46691780963365,-0.30298916,0.3368922,-0.3585779,190.56537,-67.46591,-9.147812
2222045809000.0,0.3461926749782473,9.843038158749888,2.4516625,-0.269697,0.34666604,-0.3680463,190.9403,-67.36486,-9.246252
2222050644000.0,0.2680808610254817,9.810149169137883,2.4516625,-0.23151793,0.3494149,-0.37323865,191.3066,-67.278625,-9.339072
2222055574000.0,0.1911309710782225,9.778865362027176,2.457604833015057,-0.18295415,0.34697145,-0.38026363,191.66035,-67.19671,-9.456836
2222060518000.0,0.1806981288424531,9.803208434226956,2.6106199081527723,-0.13255776,0.33505958,-0.39003745,192.00839,-67.129105,-9.569175
2222065619000.0,0.169933984780022,9.828324536834376,2.7684940785163423,-0.09468412,0.3213151,-0.38973203,192.34337,-67.061035,-9.689513
2222070522000.0,0.183253646453632,9.850971091582936,2.897098366331741,-0.05497787,0.2648101,-0.38545597,192.68614,-67.00984,-9.798933
2222075628000.0,0.2517173267633009,9.871107453302589,2.977643813210344,-0.030848695,0.22388211,-0.376293,193.02055,-66.96867,-9.900541
2222080524000.0,0.317365227036732,9.890415645033768,3.054876580135069,0.013133603,0.18753563,-0.37018433,193.36642,-66.92077,-9.9928
2222085523000.0,0.3849295223319453,9.86474304164188,3.120774112314099,0.043066,0.14294247,-0.3494149,193.71565,-66.88243,-10.067823
2222090526000.0,0.4526230364530041,9.832677784875074,3.184904849063058,0.060170226,0.09896017,-0.32620203,194.06636,-66.85673,-10.131361
2222095701000.0,0.5249775864611421,9.749848723228853,3.240625196032632,0.074830994,0.050396383,-0.31123585,194.43582,-66.83489,-10.168515
2222100621000.0,0.6018552207419494,9.498984915586089,3.256809946912838,0.07544186,0.003970624,-0.2837469,194.8055,-66.82195,-10.187506
2222105484000.0,0.6778421995036497,9.251027456934306,3.2728071915328467,0.06872234,-0.041233405,-0.2611449,195.17259,-66.81882,-10.175433
2222110512000.0,0.6603011488233896,9.118705957372631,3.2070669613976706,0.053145275,-0.06414085,-0.22327125,195.5353,-66.82181,-10.146996
2222115643000.0,0.6252605533824579,9.005797531970526,3.125305628951747,0.05375614,-0.08246681,-0.18173242,195.89975,-66.833374,-10.105226
2222120584000.0,0.5665675554036069,8.903185996045906,3.0517724805381428,0.04184427,-0.07238753,-0.15668693,196.22998,-66.84719,-10.040412
2222125578000.0,0.4604810185610956,8.810936908959398,2.9871980714147943,0.0571159,-0.06383542,-0.12308934,196.55579,-66.87603,-9.959867
2222130492000.0,0.3581115041565194,8.73863283486113,2.938415642057737,0.07086037,-0.058948494,-0.09987647,196.88434,-66.89568,-9.893495
2222135528000.0,0.2591332628748118,8.7188371312081,2.9318170626898343,0.08032878,-0.07147124,-0.0870483,197.208,-66.92299,-9.819333
2222140791000.0,0.1556935321628129,8.69814912717198,2.924921049343276,0.09193522,-0.09743301,-0.0852157,197.53267,-66.94601,-9.769289
2222145552000.0,0.0514031629535664,8.696811606017967,2.8818848952916984,0.106595986,-0.15057829,-0.09254608,197.86273,-66.974754,-9.712946
2222150628000.0,-0.080136695522892,8.728381260309558,2.766129844182271,0.10903945,-0.12186762,-0.09468412,198.1719,-67.00613,-9.659276
2222155530000.0,-0.2299335186928456,8.758355830823023,2.743907115761162,0.13347405,-0.09010262,-0.10293079,198.50368,-67.02101,-9.636797
2222160528000.0,-0.4058757996503497,8.788394465034965,2.8125675552447555,0.16340645,-0.105374254,-0.11942416,198.83507,-67.039604,-9.612697
2222165656000.0,-0.5289524118758185,8.799113951043834,2.846668068122641,0.15974127,-0.11362094,-0.14202617,199.1523,-67.05995,-9.619262
2222170601000.0,-0.5034149858223558,8.758983872274863,2.788296802041445,0.18234327,-0.102319926,-0.14538592,199.4621,-67.09721,-9.62221
2222175587000.0,-0.4776658237793698,8.718521066866959,2.729441567930052,0.21105394,-0.10323623,-0.15821409,199.76787,-67.1097,-9.665903
2222180512000.0,-0.4302016583886925,8.68299642040636,2.704656037385159,0.24220806,-0.09437868,-0.16768251,200.06187,-67.13066,-9.70765
2222186533000.0,-0.3588882961201414,8.64224589880742,2.6944684202826856,0.28130344,-0.09285152,-0.17287487,200.35316,-67.16172,-9.74678
2222190524000.0,-0.3065928915054516,8.61917122446734,2.68917636479944,0.30970868,-0.08674286,-0.16920967,200.63672,-67.207886,-9.778717
2222195595000.0,-0.2337250461708512,8.594881961288387,2.684318562888867,0.34330627,-0.09865474,-0.16462818,200.92001,-67.265724,-9.806275
2222200533000.0,-0.1572377999431524,8.57891349870801,2.7024660565891474,0.36010507,-0.099571034,-0.15393804,201.20184,-67.32873,-9.819664
2222205518000.0,-0.0718346154609421,8.57416878145498,2.754656806887299,0.3744604,-0.11484267,-0.13530666,201.4847,-67.401794,-9.823691
2222210545000.0,-0.0069840791144926,8.569720936284481,2.7959778764993084,0.3885103,-0.12370021,-0.12034045,201.77266,-67.48659,-9.817684
2222215638000.0,0.0247676837809423,8.565752300268533,2.819791764773375,0.3979787,-0.13561209,-0.098043874,202.05827,-67.577354,-9.800077
2222221344000.0,0.0616542227000842,8.560268177548442,2.842447965922493,0.39614612,-0.13713925,-0.084910266,202.3439,-67.67344,-9.766024
2222225719000.0,0.1013642861478517,8.547031222514743,2.824798968976411,0.3912592,-0.15088372,-0.063224554,202.62846,-67.774994,-9.719358
2222230830000.0,0.1418948876697247,8.533989348623853,2.8074100761467893,0.39003745,-0.13713925,-0.049785517,202.89682,-67.88164,-9.6642065
2222235508000.0,0.1237085175789559,8.544901390354795,2.8219592372412112,0.39064834,-0.112399206,-0.024129177,203.15865,-67.99141,-9.598588
2222240563000.0,0.1040565080003247,8.55669283348218,2.8376809151660307,0.37995818,-0.10323623,-0.011301007,203.41806,-68.105804,-9.525314
2222245595000.0,0.0401802315943576,8.609312568814335,2.865487974304232,0.3735441,-0.102319926,-0.0021380284,203.66743,-68.223404,-9.447221
2222250637000.0,-0.0564659239191765,8.692151879146016,2.9023054829393824,0.3576616,-0.089186326,0.011911872,203.906,-68.33722,-9.366048
2222256811000.0,-0.1548445628850855,8.787083334963325,2.9244617628361858,0.3481932,-0.073303826,0.016493361,204.14012,-68.44972,-9.29229
2222260588000.0,-0.2064340502628361,8.842357744498779,2.928146800427873,0.32711834,-0.059864793,0.018325957,204.36713,-68.55572,-9.216266
2222265557000.0,-0.2579253133232457,8.90314459334216,2.942068678135048,0.30726522,-0.043982297,0.02107485,204.59016,-68.648705,-9.161688
2222270662000.0,-0.2949138433213543,8.954003892093816,2.965186449035369,0.2929099,-0.037873644,0.021380283,204.80879,-68.737175,-9.106862
2222275523000.0,-0.3103324887078021,9.007754139010707,2.9840890273227942,0.2938262,-0.018936822,0.025350908,205.0163,-68.82308,-9.065281
2222280554000.0,-0.2955907505109638,9.07163475481897,2.9988307552575217,0.26908615,-0.012217305,0.024740042,205.22241,-68.89789,-9.023278
2222285504000.0,-0.2854118478629295,9.134035890399478,3.0222561763758264,0.2501493,-0.008552114,0.02565634,205.42703,-68.96812,-8.98964
2222291119000.0,-0.280404516454046,9.204138425551728,3.062314984505075,0.2452624,0.0012217305,0.03268129,205.6241,-69.036285,-8.954592
2222295673000.0,-0.2711103552061259,9.262792691478944,3.094319249007212,0.24129178,-0.00061086525,0.03940081,205.81721,-69.10792,-8.913782
2222300550000.0,-0.2503169741109429,9.329331976493634,3.127588587543406,0.22052236,0.013133603,0.047647487,205.99937,-69.17478,-8.872222
2222305697000.0,-0.2282185759822965,9.397826774280796,3.1644082543889844,0.2134974,0.0143553335,0.05589417,206.1797,-69.247314,-8.824544
2222310513000.0,-0.2055375329989345,9.439408736415048,3.221110782903041,0.19456059,0.013439035,0.0720821,206.35243,-69.31309,-8.773134
2222315623000.0,-0.1814718914613556,9.483529132284238,3.2812748029833623,0.17256944,-0.005497787,0.07574729,206.5185,-69.38818,-8.715341
2222320556000.0,-0.1810527492493217,9.517533205004522,3.3068883649381973,0.15271631,-0.01985312,0.09712757,206.67813,-69.46222,-8.648851
2222325689000.0,-0.1958726915526077,9.547172656315947,3.3118284970153757,0.14569137,-0.032070424,0.10262536,206.84116,-69.531685,-8.584365
2222330537000.0,-0.2307068866775343,9.495506011105451,3.298778246316862,0.122783914,-0.05009095,0.10873401,207.00108,-69.59476,-8.505857
2222335510000.0,-0.2792300310320937,9.393607898420784,3.274516542404483,0.12370021,-0.051923547,0.11881329,207.15689,-69.66264,-8.426071
2222340546000.0,-0.3088559690400078,9.266728616487455,3.2207849645451905,0.11209377,-0.062002823,0.13347405,207.30475,-69.72812,-8.339777
2222345835000.0,-0.3284827138409377,9.11952759498208,3.147184709968033,0.11881329,-0.058643065,0.14660765,207.44675,-69.798775,-8.253402
2222350569000.0,-0.3512122375876524,8.991786788014482,3.068625711890244,0.13408493,-0.033292156,0.17073683,207.57594,-69.86496,-8.172906
2222355527000.0,-0.3783550391044207,8.86059676648247,2.978149769817073,0.15241088,-0.024740042,0.19394971,207.70609,-69.93438,-8.088884
2222360506000.0,-0.396840921478743,8.747494620702403,2.876009017005545,0.17165314,0.0018325958,0.20341812,207.81636,-70.01614,-8.01779
2222365532000.0,-0.405737963401109,8.654075587615527,2.7603473791127544,0.18142697,0.03634648,0.2275473,207.91753,-70.103355,-7.938865
2222370598000.0,-0.3960762738319816,8.59983187063182,2.6217456118954643,0.19883664,0.079107046,0.25595254,208.0099,-70.20052,-7.872468
2222375622000.0,-0.3478997710343446,8.628737854811254,2.438674764433764,0.23640485,0.10262536,0.27458394,208.09605,-70.30555,-7.8041754
2222380502000.0,-0.2989862921141253,8.685053294667915,2.267991981103836,0.29657507,0.1142318,0.28955013,208.16925,-70.43654,-7.7376413
2222385501000.0,-0.2442498816443197,8.804478006963933,2.1087588408585387,0.35705075,0.116980694,0.30726522,208.23654,-70.57732,-7.6670876
2222390568000.0,-0.1541855498045602,9.149812386536372,1.929347001302932,0.4428773,0.10598512,0.30695978,208.31523,-70.76575,-7.5878286
2222395769000.0,-0.0073931695765472,9.856733726384364,1.716884336156352,0.5329799,0.07269296,0.30024028,208.39908,-70.968414,-7.504346
2222400640000.0,0.1300853314983713,10.518801376143944,1.5179022861796183,0.627664,0.033292156,0.30115658,208.49673,-71.221855,-7.4035573
2222405578000.0,0.2180176531175106,11.087587995361424,1.3853163612098955,0.7162395,-0.036957346,0.29871312,208.61415,-71.49043,-7.300539
2222410481000.0,0.2951568487234248,11.632099596443757,1.2673388002609198,0.8332202,-0.10720685,0.30970868,208.74242,-71.78673,-7.1907644
2222415651000.0,0.2668130552818112,11.983390361482614,1.1861865316106228,0.93951076,-0.19272798,0.31398472,208.92673,-72.18855,-7.0158544
2222420599000.0,0.2034385295920902,12.245942547955677,1.1228120011941154,1.0494665,-0.267559,0.2959642,209.12996,-72.61025,-6.841649
2222425567000.0,0.0768470125825951,12.252808717978112,1.1407499250338715,1.1554517,-0.3231477,0.27550024,209.3661,-73.100586,-6.6329646
2222430604000.0,-0.0840313656706617,12.127122050234496,1.2010793260656591,1.2250903,-0.37843102,0.2574797,209.62524,-73.59476,-6.426643
2222435555000.0,-0.2108894568909952,11.90043076113744,1.3193662844549765,1.2525792,-0.41172317,0.24312437,209.89265,-74.10938,-6.2289453
2222440622000.0,-0.3297122118412322,11.632121504265402,1.4611869717061612,1.2837334,-0.40439278,0.21746802,210.16687,-74.62496,-6.0417705
2222445517000.0,-0.439661652375605,11.348345939787029,1.6364120481703777,1.2651019,-0.41630468,0.20830505,210.43541,-75.10008,-5.879032
2222450689000.0,-0.5355595145324298,10.945574812584706,1.981644349932236,1.2159272,-0.46303585,0.22815818,210.7118,-75.56252,-5.7156386
2222455522000.0,-0.6133435046968571,10.588161195471445,2.3046244017438324,1.1346822,-0.48502702,0.22876903,210.96152,-75.95454,-5.5965314
2222460504000.0,-0.6165683487509294,10.343072387360596,2.6400087356133826,1.0861185,-0.5186246,0.2284636,211.22592,-76.33448,-5.4693594
2222465544000.0,-0.6198307361520784,10.09513027718824,2.9792975840081106,0.9789116,-0.5467244,0.22479841,211.46649,-76.608475,-5.3730693
2222470615000.0,-0.615981410734935,9.883436227884994,3.242368719669161,0.8304713,-0.6084218,0.23548855,211.72351,-76.854355,-5.269108
2222475596000.0,-0.582163488983852,9.834588292634896,3.1709753541551797,0.68844515,-0.6569856,0.24220806,211.98314,-77.06786,-5.1668367
2222480521000.0,-0.5487257727372982,9.786289541157936,3.10038464442694,0.5299256,-0.7110472,0.24281894,212.23138,-77.161766,-5.076093
2222485495000.0,-0.4987582020548629,9.693257066832915,2.923983002992519,0.36743546,-0.7675522,0.26450464,212.48883,-77.21951,-4.975215
2222491969000.0,-0.4214511509426434,9.538643093765586,2.614754787780549,0.22937989,-0.86926126,0.2773328,212.77058,-77.24114,-4.8715
2222495702000.0,-0.3557017607314705,9.447087350146026,2.404681766508801,0.04520403,-0.9089675,0.27947086,213.05127,-77.22233,-4.7587776
2222500550000.0,-0.2201070568602889,9.322486594285264,2.0565332214934093,0.0018325958,-1.0030408,0.28893927,213.36911,-77.20836,-4.6322875
2222505480000.0,-0.0822188782124082,9.195778317388902,1.7024960253453312,-0.04795292,-1.0836749,0.29779682,213.69601,-77.19284,-4.4942727
2222510502000.0,0.0949723773263803,9.042429213847502,1.2942168705942154,-0.064751714,-1.1749994,0.30207285,214.04575,-77.17753,-4.349819
2222515675000.0,0.2946987368803681,8.873096204645048,0.8513453870727431,-0.05589417,-1.2547172,0.30482176,214.40775,-77.15935,-4.200386
2222520851000.0,0.5665338844767789,8.715752484652182,0.2021456431054414,-0.019547688,-1.3197744,0.30726522,214.80766,-77.22053,-4.0156326
2222525598000.0,0.8927447156149092,8.584362204704007,-0.6133814063543952,0.05589417,-1.3607023,0.30726522,215.21689,-77.296295,-3.8291142
2222530559000.0,1.1038502362654163,8.532424842523698,-1.1693651173784527,0.16401732,-1.3927728,0.30085114,215.65704,-77.47258,-3.5980809
2222535514000.0,1.1328705465294058,8.600138798797268,-1.3096300513301395,0.28771752,-1.3710871,0.27916542,216.08981,-77.671875,-3.3744283
2222540517000.0,1.1186539211181246,8.684124248512173,-1.3580741211181244,0.3998113,-1.3264939,0.2761111,216.56998,-78.03786,-3.0756257
2222545635000.0,1.0479392673579802,8.790196067628495,-1.28735946735798,0.5204572,-1.2993103,0.24587326,217.0503,-78.43173,-2.7939694
2222550620000.0,0.9789085881672598,8.90512812576836,-1.1860678662568749,0.6105598,-1.2382239,0.20861048,217.51146,-78.86851,-2.513192
2222555509000.0,0.9107447060854093,9.052816337916532,-0.9891499864445162,0.6988298,-1.2125676,0.19486602,217.97491,-79.33038,-2.2372625
2222560518000.0,0.8409077485587189,9.204129541976709,-0.7873987776124232,0.7333437,-1.1527027,0.16218472,218.40884,-79.777534,-1.9987015
2222565598000.0,0.7757386010676014,9.44413149774662,-0.5128084971547321,0.79320854,-1.0931433,0.13408493,218.83559,-80.247444,-1.7669667
2222570609000.0,0.7132587029143715,9.70846990285428,-0.219633536004006,0.8188649,-1.0436633,0.105068825,219.24939,-80.706764,-1.5498034
2222575609000.0,0.6831730506672407,9.98823038699957,-0.0257580254928971,0.8405506,-1.0054842,0.08735373,219.632,-81.137184,-1.361501
2222581419000.0,0.6592207441670255,10.31877261687473,0.1658605615669393,0.8405506,-0.9502009,0.079107046,219.99567,-81.55864,-1.1837542
2222585503000.0,0.6084846496600258,10.543111613737734,0.3377065443155912,0.82772243,-0.88331115,0.08032878,220.3235,-81.94129,-1.0334839
2222591767000.0,0.4836187913906234,10.876087078501335,0.652844131327188,0.81061816,-0.81336707,0.05467244,220.63464,-82.31248,-0.8971734
2222595776000.0,0.3954716162056473,11.024833425679276,0.87044651274374,0.75808376,-0.8008443,0.03940081,220.92834,-82.65071,-0.7754925
2222600521000.0,0.2841061527373468,11.145882749067662,1.1415971993713372,0.73853606,-0.7788532,0.008246681,221.19928,-82.983406,-0.6700499
2222605572000.0,0.2251059807522124,11.152752756546867,1.3210890924778762,0.6817256,-0.75716746,-0.038179077,221.44963,-83.24592,-0.59806734
2222610502000.0,0.2165790440265486,11.058956323460356,1.4063584597345131,0.6203337,-0.7189884,-0.09682214,221.68803,-83.49372,-0.54024523
2222615525000.0,0.3516751066582029,10.938435623219071,1.4313712126534068,0.54825157,-0.66339964,-0.1441642,221.88911,-83.67494,-0.51505613
2222620610000.0,0.7947594939307379,10.763262788898292,1.3248936152137114,0.48166725,-0.5858198,-0.18325958,222.07196,-83.83471,-0.50518954
2222625562000.0,1.2262548500317394,10.59267166292848,1.221200977549725,0.41874814,-0.48472157,-0.19181168,222.22781,-83.956924,-0.51044554
2222630569000.0,1.6513382006420545,10.412682756019262,1.0967750063001604,0.35369098,-0.3820962,-0.18051068,222.3592,-84.05631,-0.52178746
2222635502000.0,2.0589269297351525,10.227845700642057,0.9545928120886836,0.28619036,-0.2959642,-0.15118915,222.46417,-84.13497,-0.53128874
2222640599000.0,2.3569617570961148,10.025057739059305,0.79879379799591,0.23487769,-0.23915374,-0.109650314,222.59639,-84.24388,-0.44837576
2222645681000.0,2.5311363428629856,9.811072282617587,0.6345721377505112,0.19547687,-0.16432275,-0.06963864,222.69666,-84.33459,-0.36173773
2222651619000.0,2.5753144125114718,9.646516377791372,0.4763003915815234,0.1826487,-0.11636983,-0.035124753,222.82315,-84.44529,-0.20473532
2222655717000.0,2.543299910523096,9.566480227286632,0.3802569441174671,0.18448131,-0.10354166,-0.005497787,222.93605,-84.54325,-0.04168294
2222660510000.0,2.432421478452213,9.542616686789009,0.3374705131877439,0.17562376,-0.079107046,-0.00580322,223.0499,-84.657196,0.14035712
2222665606000.0,2.2622194792161423,9.56693133064851,0.3415229397259819,0.19394971,-0.03634648,0.005497787,223.15259,-84.770615,0.33014753
2222670711000.0,2.078027003948897,9.592482272706157,0.3493387715927216,0.1881465,0.0030543262,0.010995574,223.25339,-84.8803,0.5108878
2222675587000.0,1.8502390857142856,9.621407542857144,0.3710328525714286,0.20372356,0.03970624,-0.0009162979,223.34244,-84.99256,0.6858238
2222680539000.0,1.6189007405342624,9.65078365807201,0.3930650693488192,0.20799962,0.08674286,-0.008552114,223.41043,-85.08999,0.8262168
2222685506000.0,1.366216381274275,9.6583953288158,0.3953216521378398,0.19242255,0.13469578,-0.027183503,223.46837,-85.180626,0.95673543
2222691779000.0,1.0286310061482522,9.648466664325262,0.3804281784860755,0.18020524,0.18600847,-0.04886922,223.51245,-85.26754,1.0806307
2222695638000.0,0.7944157398447996,9.616765025943945,0.3561365278526754,0.15088372,0.226631,-0.07849618,223.53447,-85.3386,1.1468036
2222700662000.0,0.3820429298131418,9.471877071036984,0.2632597705489923,0.122783914,0.25900686,-0.1151481,223.54578,-85.40535,1.2025346
2222705514000.0,-0.0162120212763493,9.331949452165857,0.1735627111466296,0.10262536,0.29260445,-0.15393804,223.53558,-85.47366,1.1945771
2222710501000.0,-0.2743523617364929,9.205648865402845,0.0952551903263507,0.08735373,0.31337386,-0.2012801,223.52153,-85.53682,1.1739182
2222715534000.0,-0.420551623163981,9.091430774407582,0.0267242846836019,0.070554934,0.34147367,-0.2415972,223.49713,-85.594315,1.1441514
2222720820000.0,-0.4778827528253682,9.030929,0.028131691180543,0.07788532,0.36010507,-0.28252518,223.45064,-85.67259,1.0262104
2222725558000.0,-0.4415137252629997,9.030929,0.0963236241497846,0.08460484,0.36193767,-0.310625,223.40164,-85.742485,0.903622
2222730516000.0,-0.3466588805488051,9.07168557857432,0.1635106916008505,0.08735373,0.33353242,-0.33292156,223.34813,-85.82246,0.75280243
2222735505000.0,-0.187009557019036,9.15876676508708,0.2264028409356014,0.09132435,0.31031954,-0.3268129,223.2928,-85.89715,0.60592073
2222740588000.0,-0.0523926174098853,9.22151336175587,0.2651928067114964,0.08002335,0.2724459,-0.3191771,223.24683,-85.96163,0.45447016
2222745604000.0,0.0525495197501365,9.257587263995084,0.2783105815613053,0.074830994,0.2415972,-0.31123585,223.20522,-86.0208,0.3095576
2222750637000.0,0.1578473220480612,9.293783426269798,0.2914728145794648,0.048258353,0.23060162,-0.2883284,223.17628,-86.05838,0.19616683
2222755585000.0,0.249174287157482,9.311660051404925,0.2818618450925724,0.0290161,0.21074851,-0.2770274,223.15839,-86.091644,0.086031385
2222760504000.0,0.3312624005837508,9.316790929481597,0.2562093029503376,0.015577064,0.20647246,-0.2770274,223.13855,-86.11449,-0.017686773
2222765657000.0,0.3909962356252884,9.3182335,0.2290036735717582,-0.018325957,0.21380283,-0.25900686,223.12636,-86.12444,-0.085128084
2222770581000.0,0.4388705447974158,9.3182335,0.2028904131970466,-0.04550946,0.2321288,-0.24740042,223.11203,-86.130486,-0.15232193
2222775569000.0,0.4814901482417033,9.329135284536186,0.2024378376979208,-0.069027774,0.25289822,-0.24404067,223.10034,-86.13182,-0.20149954
2222780642000.0,0.5203411284806078,9.348560909036385,0.2218633252818872,-0.08155051,0.29229903,-0.23701571,223.07768,-86.12796,-0.24564676
2222785512000.0,0.5577076290420411,9.388650633504492,0.3325942632124519,-0.10629055,0.34025195,-0.22602014,223.05,-86.12884,-0.28620663
2222790516000.0,0.59615621875,9.4463235,0.5171475725000001,-0.118507855,0.3866777,-0.22235495,223.01172,-86.12887,-0.32640454
2222795689000.0,0.6349644868227454,9.499365767353297,0.7040063776354509,-0.14202617,0.43493605,-0.21868975,222.96556,-86.12601,-0.3707486
2222800545000.0,0.6631395712541112,9.491315583520858,0.8448817367491778,-0.15851954,0.47678033,-0.20830505,222.90833,-86.12101,-0.4117922
2222805537000.0,0.6921037437173273,9.483039941492123,0.9897025342565344,-0.17287487,0.5329799,-0.20311269,222.82285,-86.08242,-0.45696157
2222810504000.0,0.6817602132075472,9.437672358490566,1.1056694547169812,-0.18906279,0.57360244,-0.19608775,222.73059,-86.03907,-0.4986613
2222816919000.0,0.6521647356081895,9.36368379325572,1.2437815976716178,-0.21899518,0.6102544,-0.18997909,222.62459,-85.988,-0.5398593
2222820552000.0,0.6299304390596745,9.310050528028931,1.3163001218806512,-0.23365596,0.6417139,-0.18845193,222.496,-85.91925,-0.58205473
2222825529000.0,0.5868348390596745,9.209493528028933,1.4024913218806512,-0.26267207,0.66859204,-0.1853976,222.3598,-85.83904,-0.62286234
2222830498000.0,0.541147684270335,9.124167080656186,1.4630503185321255,-0.29229903,0.6979135,-0.18051068,222.1997,-85.74023,-0.67512506
2222835504000.0,0.4878975568779904,9.079109658920029,1.4548580405929596,-0.30787608,0.7165449,-0.17837265,222.03699,-85.63834,-0.727754
2222841128000.0,0.4281100803205669,9.031585810359372,1.4465357773831615,-0.31398472,0.72326446,-0.1863139,221.86261,-85.513374,-0.78944963
2222845605000.0,0.3810896910038805,9.04243651138856,1.453769641015691,-0.3304781,0.7275405,-0.19456059,221.68573,-85.38279,-0.85123837
2222850580000.0,0.3288389791766492,9.05449419234014,1.4618081649316688,-0.31642818,0.7144069,-0.19456059,221.51312,-85.26108,-0.92844415
2222855504000.0,0.253249103168888,9.04635683051522,1.4386470610304358,-0.32070425,0.7128797,-0.20066923,221.3384,-85.13021,-1.0099452
2222860585000.0,0.1564522932086731,9.022157645713149,1.390248691426298,-0.31673363,0.70616025,-0.21227567,221.17102,-85.006584,-1.0923345
2222866888000.0,-0.0125412199210903,8.930340574067431,1.2420204778963415,-0.31398472,0.70952,-0.2519819,220.99474,-84.87979,-1.1951545
2222870700000.0,-0.1303895280703012,8.855048788558106,1.124172149237805,-0.31398472,0.7110472,-0.2666427,220.82259,-84.75515,-1.2933
2222875522000.0,-0.2371198118273054,8.769679662753266,0.9868807669096762,-0.30787608,0.72387534,-0.29565877,220.64696,-84.63657,-1.428713
2222880513000.0,-0.2597470835220602,8.701797904374171,0.8692190051316039,-0.32803464,0.7281514,-0.32436943,220.47557,-84.5093,-1.5663456
2222885533000.0,-0.2711856276548468,8.6226244293121,0.7551615398759374,-0.34330627,0.7275405,-0.34605515,220.30804,-84.39995,-1.7456769
2222890626000.0,-0.2395753368067771,8.500698924081105,0.6558148912878436,-0.34483343,0.7272351,-0.35369098,220.14091,-84.28474,-1.9257879
2222895758000.0,-0.2035064341553925,8.38093481585309,0.5628960197014292,-0.3576616,0.70952,-0.35705075,219.981,-84.17655,-2.1071901
2222900601000.0,-0.1307265206921413,8.29635269069935,0.5412587490194665,-0.3631594,0.68203104,-0.3659083,219.8256,-84.065704,-2.2883787
2222906493000.0,-0.0421823848000339,8.193449968955427,0.514934817807795,-0.3680463,0.6478226,-0.3659083,219.67969,-83.973015,-2.460562
2222910495000.0,0.0179591005767844,8.123555757750541,0.4970549174837779,-0.35979962,0.6010914,-0.35521814,219.54619,-83.87999,-2.6274683
2222915578000.0,0.0943456998197548,8.034782075702957,0.4743453889113194,-0.3494149,0.5012149,-0.3173445,219.43776,-83.78773,-2.7806284
2222920539000.0,0.1668421842967683,7.968936291306327,0.4523635447473828,-0.36957347,0.42271876,-0.28863382,219.33882,-83.68697,-2.9282565
2222925602000.0,0.2367299204839933,7.943188197784858,0.4302937310961917,-0.3549127,0.37323865,-0.24373524,219.25887,-83.604324,-3.0552766
2222930575000.0,0.3053753307267486,7.917897802943408,0.4086162309406767,-0.3417791,0.3368922,-0.18784106,219.20953,-83.54668,-3.1428583
2222935509000.0,0.4028559188437577,7.9435471519561425,0.3801560338400199,-0.3213151,0.33200526,-0.122783914,219.16374,-83.50251,-3.2123346
2222940650000.0,0.517363953946341,7.992621987540494,0.347439459702633,-0.28771752,0.34697145,-0.06505715,219.12123,-83.47226,-3.2657442
2222945581000.0,0.5911472502191906,8.042360043474307,0.3295336192105502,-0.2602286,0.35308012,-0.040011674,219.09181,-83.46543,-3.299011
2222950707000.0,0.5822175950450205,8.100402494406548,0.3429280833233288,-0.2489276,0.39675698,0.03145956,219.04503,-83.4778,-3.3032968
2222955578000.0,0.5695517653363871,8.155838047046474,0.3676729857858574,-0.20922135,0.43860126,0.04520403,219.00252,-83.526276,-3.2912529
2222960508000.0,0.5199907138620097,8.214410436587462,0.4983339204265674,-0.15302174,0.5018258,0.086132,218.94022,-83.59475,-3.2534077
2222965917000.0,0.4605598126210826,8.284565364672366,0.6497767752136753,-0.115453534,0.57787853,0.1151481,218.85939,-83.66557,-3.213417
2222970759000.0,0.3444624265915565,8.420679782698784,0.8859749402952602,-0.1133155,0.6258314,0.12675454,218.77042,-83.74268,-3.1687143
2222976706000.0,0.2018702839402572,8.587857073901407,1.1760762388785286,-0.122783914,0.58459806,0.13194689,218.67294,-83.800896,-3.123722
2222980509000.0,0.1554814322448827,8.792264531447712,1.2812285038332714,-0.18020524,0.55955255,0.14110987,218.55984,-83.84753,-3.0776808
2222985507000.0,0.1020409282768887,9.077280271120207,1.405922977130629,-0.21380283,0.50976706,0.1600467,218.468,-83.89754,-3.0272315
2222990579000.0,0.076614454,9.28206360635551,1.4370687891559086,-0.2611449,0.45753807,0.19822577,218.35938,-83.874954,-2.9923096
2222995630000.0,0.076614454,9.411761448857996,1.3842290091360476,-0.3118467,0.41325033,0.22082779,218.26442,-83.84278,-2.9571059
2223000571000.0,0.0907739842501884,9.388864559909573,1.2773093324039186,-0.3652974,0.4007276,0.25442538,218.16414,-83.78277,-2.9144874
2223005540000.0,0.1176695139952901,9.231973627260738,1.1204187274020343,-0.3943135,0.40530908,0.27275133,218.07268,-83.71688,-2.871348
2223010471000.0,0.1823586682714177,9.137997440864291,1.004025434571645,-0.43860126,0.39736784,0.2932153,217.99066,-83.650635,-2.8173094
2223015548000.0,0.311376910752464,9.142605328373769,0.9487319199507204,-0.45998153,0.3827071,0.3549127,217.90878,-83.58994,-2.7489452
2223020586000.0,0.4203259828281824,9.088765158948624,0.9056197084964722,-0.46089783,0.35430184,0.4364632,217.84088,-83.55651,-2.6663375
2223025577000.0,0.482074180514757,8.89402117966809,0.8913701083911358,-0.46181414,0.35338554,0.52290064,217.76868,-83.52414,-2.5683618
2223030517000.0,0.4470794594390447,8.677096326402388,0.8996500241460705,-0.473726,0.31978795,0.57451874,217.7155,-83.517105,-2.4262602
2223035534000.0,0.1468700929519578,8.390229567620105,0.969698893973896,-0.49449542,0.29535335,0.6197228,217.65935,-83.51185,-2.2666054
2223040572000.0,-0.1545958804109969,8.102162051027491,1.040040972146626,-0.528093,0.27152961,0.6585127,217.61472,-83.50261,-2.0865564
2223046561000.0,-0.5306208780868686,7.892233904404041,1.0793051926464643,-0.5653558,0.21685717,0.6792821,217.5865,-83.48383,-1.9025401
2223050601000.0,-0.7963724290363636,7.841428496727272,1.0753970843636365,-0.6102544,0.20769419,0.68019843,217.5529,-83.45021,-1.7194064
2223055516000.0,-1.128960894142857,7.811037170448979,1.0825016840816328,-0.6206391,0.20952678,0.6609562,217.49573,-83.35832,-1.6265992
2223060526000.0,-1.4814655677142856,7.825724854530612,1.1069811575510204,-0.64996064,0.21013765,0.6563747,217.44162,-83.250404,-1.5331283
2223065538000.0,-1.7403854218585777,7.908296719749883,1.1276468774030468,-0.68294734,0.22724187,0.6270532,217.3531,-83.110695,-1.5040811
2223070895000.0,-1.8939564612253044,8.085756208940332,1.1447103460187589,-0.68477994,0.25167647,0.5852089,217.26328,-82.97317,-1.4831378
2223075591000.0,-2.028578376638063,8.2413189793787,1.1596683539745891,-0.68386364,0.2415972,0.5516113,217.15349,-82.79832,-1.5294422
2223080498000.0,-2.1492469526989937,8.448282001829826,1.1323734871912168,-0.6646214,0.22174409,0.53878313,217.04024,-82.630394,-1.5833964
2223085506000.0,-2.2467575542238487,8.716436805123514,1.0494893308020738,-0.62796944,0.19639318,0.5149594,216.9329,-82.46835,-1.6502775
2223090572000.0,-2.327786517255217,8.926521264044943,0.94376893252809,-0.59040123,0.18081611,0.4914411,216.80806,-82.297646,-1.7492323
2223095626000.0,-2.389291554240235,9.068953678838952,0.814284766357678,-0.5403103,0.16676621,0.47983465,216.69038,-82.14283,-1.8500326
2223100607000.0,-2.4499082121789724,9.209328799157303,0.6866708700983146,-0.49632803,0.1441642,0.46975538,216.57924,-81.99998,-1.9557794
2223105520000.0,-2.5111693461656914,9.211270178523764,0.5988183291643568,-0.4605924,0.103847094,0.44990227,216.47803,-81.86936,-2.0647655
2223110498000.0,-2.5747925401909453,9.069341731136433,0.5498774346627656,-0.44043383,0.06719518,0.43157628,216.38268,-81.7477,-2.173655
2223115521000.0,-2.64958698202138,8.962468653838679,0.5515552167191448,-0.45020768,0.03390302,0.40133846,216.29306,-81.65206,-2.2785814
2223120595000.0,-2.7345888095238093,8.88691141904762,0.5987784416190476,-0.46089783,-0.010079277,0.35460728,216.2185,-81.55968,-2.3897069
2223125539000.0,-2.7795649118610224,8.963516028354633,0.7622396251797124,-0.49266282,-0.06719518,0.30726522,216.15059,-81.4465,-2.504538
2223130644000.0,-2.784446007458067,9.207573866313895,1.0599898052266372,-0.5381723,-0.1282817,0.2489276,216.09834,-81.32299,-2.6320374
2223135642000.0,-2.7714979413669063,9.577840450839329,1.379944403477218,-0.5858198,-0.18753563,0.16737708,216.04659,-81.164505,-2.7831843
2223140619000.0,-2.7407244094631986,10.079009018631249,1.7272454035602287,-0.6575964,-0.20647246,0.09254608,216.00183,-80.98444,-2.945729
2223145575000.0,-2.685301804399761,10.655142377861836,2.0772824207246665,-0.72112644,-0.21991149,0.04428773,215.9465,-80.76077,-3.1220448
2223150634000.0,-2.5743792259108105,11.41230940175194,2.4438092872088397,-0.75319684,-0.2003638,-0.064751714,215.8912,-80.51719,-3.3331184
2223155996000.0,-2.437945215212459,12.157979103032178,2.889361911417079,-0.8179486,-0.19547687,-0.20952678,215.83182,-80.20253,-3.5530217
2223160622000.0,-2.2917330328485974,12.71541353434406,3.3599825538056933,-0.91874135,-0.22571471,-0.25350907,215.77623,-79.87668,-3.7685325
2223166131000.0,-2.0578324012798137,13.264445795811518,3.768403783827807,-0.9505063,-0.2910773,-0.36560285,215.73521,-79.519554,-4.0097184
2223170640000.0,-1.8024424926410705,13.59100992408377,3.9400591929901103,-1.0173961,-0.34238997,-0.47586402,215.70082,-79.133446,-4.254261
2223175578000.0,-1.5034148105198963,13.88512312044519,4.077915545677695,-1.0986412,-0.3484986,-0.57543504,215.67198,-78.69975,-4.489318
2223180579000.0,-1.1565713285409362,14.03846450068608,4.10347241696905,-1.1991285,-0.31398472,-0.6542367,215.6511,-78.24937,-4.73998
2223185815000.0,-0.79342946258576,14.199011484677545,4.130230221024546,-1.3051136,-0.2779437,-0.71593404,215.65273,-77.795265,-4.9449277
2223190727000.0,-0.3073119375782285,14.28925286229742,4.10250823998573,-1.4049901,-0.21960606,-0.77396625,215.64235,-77.324684,-5.1666436
2223195616000.0,0.2319576489307919,14.356064876872898,4.054785351075323,-1.5027285,-0.17379116,-0.82619524,215.62828,-76.83729,-5.398058
2223200758000.0,0.7286648478901347,14.237293118300586,3.88533836259644,-1.5971072,-0.10598512,-0.8677341,215.63966,-76.36878,-5.559838
2223205542000.0,1.16697739838494,14.062910634194012,3.687390802962658,-1.6917913,-0.043066,-0.8854492,215.6402,-75.886505,-5.727989
2223210430000.0,1.572888884970385,13.645011566880552,3.4573359667077987,-1.7901406,0.058643065,-0.87964594,215.65944,-75.436775,-5.813015
2223215473000.0,1.978135296199408,13.13646716633761,3.2110096858341564,-1.8692477,0.14446963,-0.8335256,215.66194,-74.98177,-5.894424
2223220395000.0,2.285542728837814,12.738943139635731,3.1090483902428447,-1.9318613,0.22815818,-0.7846564,215.67284,-74.56301,-5.9071336
2223225481000.0,2.40171443462706,12.554124604509974,3.3202697386600173,-1.9773707,0.28710666,-0.7257079,215.66031,-74.14277,-5.9110346
2223230886000.0,2.485726629354445,12.448542799330085,3.518283731120585,-1.9938642,0.30115658,-0.6817256,215.67302,-73.76437,-5.842107
2223235391000.0,2.5251390690621194,12.43102625091352,3.662796101502233,-1.9935588,0.2941316,-0.6444628,215.66905,-73.38958,-5.76513
2223240445000.0,2.52138115622443,12.417111324956164,3.7365162172998247,-1.9941696,0.27488935,-0.5861252,215.67438,-72.986786,-5.662494
2223245449000.0,2.469365626993404,12.409108768723389,3.7205114390748935,-1.9996674,0.24709499,-0.52931476,215.67867,-72.59155,-5.5524917
2223250594000.0,2.3942880954882697,12.401965,3.695808192179667,-1.9990565,0.23762658,-0.49296826,215.68675,-72.18148,-5.4302974
2223255441000.0,2.189513036685382,12.401965,3.621344490254662,-1.9764545,0.22602014,-0.4813618,215.69768,-71.784035,-5.30122
2223260460000.0,1.9840106415221987,12.395963827906977,3.537299771585624,-1.9401081,0.21074851,-0.5103779,215.70848,-71.3896,-5.1826386
2223265486000.0,1.8293336532600424,12.343048229767442,3.3989046431458774,-1.8695531,0.17562376,-0.539394,215.72429,-71.017944,-5.0627756
2223270865000.0,1.6637929608879491,12.286416116279067,3.250789363424947,-1.781283,0.17745635,-0.58368176,215.71997,-70.66501,-4.9934797
2223275492000.0,1.5561663918918918,12.114531674447177,3.0459333863636364,-1.6737708,0.2302962,-0.63163465,215.71194,-70.341866,-4.938408
2223280395000.0,1.4504117738738738,11.903022036855038,2.810388809090909,-1.5436565,0.2947425,-0.66431594,215.70058,-70.054344,-4.89594
2223285422000.0,1.3648905298340062,11.720696907806191,2.6876046601166443,-1.4230106,0.36010507,-0.70646566,215.66194,-69.8082,-4.904414
2223290459000.0,1.2855392121579183,11.547566698519516,2.597432718483625,-1.319469,0.41722095,-0.7348709,215.60849,-69.59765,-4.9253845
2223295463000.0,1.1981846229654285,11.37209910070861,2.5324082897573548,-1.2030991,0.4908302,-0.7623598,215.52554,-69.44037,-4.982782
2223301375000.0,1.021898957902083,11.135024980888984,2.666142312604681,-1.0790935,0.54244834,-0.79168135,215.43596,-69.31506,-5.052242
2223305494000.0,0.878614531093409,11.023825749672632,2.840919458227848,-0.95417154,0.5946773,-0.8078693,215.33742,-69.20842,-5.152345
2223310494000.0,0.6521877778561036,11.027309308526116,3.2624215679324893,-0.84513205,0.65393126,-0.81397796,215.22566,-69.13167,-5.262103
2223315503000.0,0.4253534564629709,11.030799137785538,3.684682381434599,-0.76052725,0.70096785,-0.8353582,215.1291,-69.028015,-5.4097333
2223320534000.0,0.3336647580645161,11.037518284494022,3.9738157006733,-0.6844745,0.72509706,-0.84635377,215.02287,-68.95316,-5.5570226
2223325575000.0,0.3676248367741935,11.047221360968749,4.138764657300774,-0.6065892,0.73914695,-0.8362745,214.90747,-68.90205,-5.704956
2223330535000.0,0.5065901087910009,10.963024261459209,4.221850562468461,-0.550695,0.7162395,-0.81214535,214.79927,-68.761955,-5.8992634
2223335470000.0,0.7351467581286795,10.79905950904121,4.2367565245164,-0.5021312,0.6957755,-0.7968737,214.68665,-68.64268,-6.090798
2223340502000.0,0.972773874303338,10.570158638425251,4.218116113860668,-0.47555858,0.6450737,-0.7461719,214.60234,-68.50678,-6.2502294
2223345592000.0,1.2159730215820028,10.300428808055152,4.178319738316401,-0.4361578,0.57360244,-0.68752885,214.52657,-68.391594,-6.3959346
2223350657000.0,1.4188920431204322,9.98915103336511,4.0854863734350175,-0.3915646,0.4886922,-0.6209445,214.4875,-68.28374,-6.485213
2223355540000.0,1.5674892171803834,9.637471073721004,3.931936013684991,-0.37323865,0.410196,-0.56688297,214.46059,-68.18554,-6.553927
2223360477000.0,1.6466522196422182,9.351969435420392,3.807597950339893,-0.34483343,0.34147367,-0.5158757,214.47404,-68.10341,-6.561747
2223365544000.0,1.6640138555187836,9.12192808864043,3.7077687140071554,-0.32925636,0.27672195,-0.45814893,214.50009,-68.02982,-6.5455003
2223370703000.0,1.6593131005469328,8.935385711456023,3.640374321389505,-0.30757064,0.21624629,-0.42241332,214.55116,-67.96992,-6.4947343
2223375614000.0,1.6106476676422763,8.851959327642277,3.6438504237398375,-0.2837469,0.1731803,-0.41599923,214.61069,-67.91865,-6.432095
2223380488000.0,1.5623488853215075,8.769161487139689,3.647300336762749,-0.26083946,0.110872045,-0.37782016,214.69232,-67.87501,-6.34798
2223385497000.0,1.4465514701623816,8.626819017083896,3.601106135081191,-0.2452624,0.061086524,-0.3408628,214.7802,-67.83754,-6.2599053
2223390538000.0,1.2832338138362651,8.44308641923207,3.5194473069181327,-0.23182335,0.03848451,-0.30848694,214.8725,-67.809616,-6.1601405
2223395810000.0,1.0732839671073062,8.245421793441196,3.408506597192193,-0.20616703,0.03390302,-0.28099802,214.97322,-67.77541,-6.0628133
2223400608000.0,0.7865787130058769,8.052062706740188,3.245151284633244,-0.17348573,0.032375857,-0.2846632,215.07748,-67.7482,-5.96433
2223406220000.0,0.4512327592715665,7.825899473191613,3.054082086200392,-0.1142318,0.004581489,-0.26053402,215.18912,-67.71912,-5.887005
2223410505000.0,0.2862360545186801,7.700724393782384,3.0063207780747203,-0.044593163,-0.003970624,-0.23457226,215.29459,-67.70347,-5.812692
2223415547000.0,0.1808937928042905,7.599771188255613,3.045824144550496,0.009162978,0.018020526,-0.20219639,215.39462,-67.7034,-5.731361
2223420889000.0,0.0906532353463692,7.500925059781353,3.085908322104702,0.06811147,0.032986723,-0.16462818,215.49536,-67.705475,-5.718389
2223425567000.0,0.0508342818760998,7.429250998169052,3.1177635021775845,0.118202426,0.044593163,-0.12461651,215.58568,-67.72393,-5.697412
2223430746000.0,0.0091062231290609,7.350987640020721,3.151710667053948,0.16340645,0.05681047,-0.07727446,215.67564,-67.73131,-5.6890817
2223435516000.0,0.0023451235375564,7.293518335499149,3.1652328563531413,0.20341812,0.0711658,-0.050701816,215.75812,-67.753555,-5.6763535
2223440531000.0,-0.0047632442719603,7.233097253282025,3.1794495815807,0.21930063,0.08460484,-0.015882496,215.8361,-67.77099,-5.665903
2223445711000.0,0.021430494496609,7.1677025003725285,3.1743890411214064,0.23793201,0.07727446,0.01985312,215.91144,-67.80272,-5.6468472
2223450597000.0,0.1063529581246537,7.100658310249307,3.134162639058172,0.267559,0.062002823,0.064446285,215.97952,-67.84531,-5.6164045
2223455487000.0,0.1809169660843373,7.0485296,3.091150622013478,0.2932153,0.038789943,0.10598512,216.04967,-67.884,-5.5799065
2223460513000.0,0.2202333052409638,7.0485296,3.037090588319379,0.30818152,0.006414085,0.15057829,216.1204,-67.93135,-5.5284076
2223465581000.0,0.2509593106739338,7.052454295691243,2.988709980798409,0.32742378,-0.02565634,0.18387043,216.20706,-67.99029,-5.4557114
2223470762000.0,0.258268359582382,7.067072446932312,2.95581931222656,0.34422258,-0.05222898,0.21838433,216.29538,-68.05558,-5.369103
2223475803000.0,0.2653799047565736,7.08129558926125,2.923817409066804,0.36743546,-0.079107046,0.267559,216.39618,-68.136734,-5.2633605
2223480530000.0,0.2867065005529954,7.094789607102785,2.892793410518934,0.3930918,-0.100792766,0.29718593,216.5005,-68.2235,-5.1529994
2223485525000.0,0.3202521839631336,7.109166470106191,2.8592477471248245,0.41813725,-0.106901415,0.34391713,216.60048,-68.32011,-5.025717
2223490544000.0,0.358459995146931,7.09927736010259,2.841984550243436,0.453262,-0.124311075,0.37598756,216.71092,-68.434326,-4.892889
2223495873000.0,0.4028303647991653,7.068217889149713,2.8375475623891497,0.47983465,-0.14538592,0.410196,216.81888,-68.55467,-4.748345
2223500516000.0,0.4418540429885058,7.031577575862069,2.834735,0.50793445,-0.16187929,0.44806966,216.92976,-68.692795,-4.589106
2223505526000.0,0.4850142741129435,6.964439519790105,2.834735,0.5384777,-0.1695151,0.4972443,217.03963,-68.839424,-4.419257
2223510483000.0,0.5148484342457444,6.883033345079241,2.829370386030131,0.56230146,-0.17195857,0.54275376,217.14738,-68.99724,-4.2351975
2223515538000.0,0.5053765682410487,6.753584332752886,2.807269225787517,0.6038403,-0.17379116,0.59223384,217.25255,-69.16835,-4.039625
2223522410000.0,0.492500077007761,6.577605378706059,2.777223889845432,0.61758476,-0.16615535,0.64568454,217.35075,-69.3362,-3.8271482
2223525603000.0,0.4775770947758139,6.509158569376744,2.7640836699534885,0.62980205,-0.16523905,0.68294734,217.44925,-69.51286,-3.608986
2223530534000.0,0.4248627828325582,6.447658541069767,2.746512338139535,0.63255095,-0.15149458,0.7272351,217.53773,-69.68933,-3.3810136
2223535747000.0,0.3653211146843733,6.381332705475715,2.7322332448972166,0.62888575,-0.17501289,0.76174897,217.62465,-69.86213,-3.149914
2223540552000.0,0.269052170464799,6.305992018737493,2.7657180285519374,0.63224554,-0.1777618,0.7788532,217.70145,-70.0341,-2.9195669
2223546529000.0,0.1484975262190352,6.215184845545415,2.8048622426684053,0.6258314,-0.21533,0.8063421,217.7907,-70.19417,-2.6880724
2223550595000.0,0.0503454524771838,6.211800223033464,2.78117037986093,0.6032294,-0.22632557,0.8206975,217.87477,-70.346146,-2.4624655
2223555650000.0,-0.0716807975880052,6.207592336462408,2.751715788987397,0.61727935,-0.2556471,0.838718,217.95929,-70.49514,-2.2518287
2223560503000.0,-0.1547978863711911,6.276469537396122,2.672308036842105,0.6072,-0.28710666,0.838718,218.0489,-70.62681,-2.0453606
2223565611000.0,-0.2128726768642659,6.411977278116344,2.5445435147368425,0.60048056,-0.3173445,0.84971356,218.14447,-70.76038,-1.8328593
2223570655000.0,-0.2745074178013199,6.543532002084057,2.4211158645362976,0.623388,-0.33841935,0.88086766,218.25485,-70.88809,-1.6483982
2223575633000.0,-0.4483768629385203,6.6139078502952415,2.371438830809309,0.65087694,-0.37384954,0.88697636,218.37857,-71.01204,-1.46715
2223580484000.0,-0.6178105066429316,6.682488251997221,2.323029170180618,0.66675943,-0.41996986,0.88178396,218.50699,-71.173355,-1.2838824
2223585500000.0,-0.6895013081254571,6.7228897795969775,2.3244030782644023,0.66767573,-0.43310347,0.8949176,218.63463,-71.33474,-1.097103
2223590597000.0,-0.7172652349313399,6.750653664987405,2.348200854058666,0.6792821,-0.4560109,0.8961393,218.77956,-71.49942,-0.9130676
2223595563000.0,-0.750077237413901,6.765737250323523,2.369270337257358,0.6899723,-0.4700608,0.88025683,218.91736,-71.66696,-0.7639196
2223600603000.0,-0.8004499387288666,6.745588190836986,2.38438213187226,0.68019843,-0.48563787,0.84329945,219.06387,-71.827934,-0.620335
2223605490000.0,-0.8220483887080157,6.745219636781372,2.3751152616113744,0.6881397,-0.5021312,0.79717916,219.20393,-71.99127,-0.48424393
2223610513000.0,-0.7873553774675458,6.784868733340201,2.3156415132701422,0.70096785,-0.5180137,0.743423,219.352,-72.14933,-0.36101034
2223615561000.0,-0.7532427394548552,6.843944413056217,2.272829119727428,0.7199047,-0.5045747,0.6872234,219.48434,-72.30993,-0.25803003
2223620628000.0,-0.72017586,6.933224884,2.25629568,0.75411314,-0.5006041,0.61269784,219.62946,-72.47473,-0.17367147
2223625705000.0,-0.6870437212606474,7.022681554807496,2.239729610630324,0.82863873,-0.4831944,0.5653558,219.76851,-72.663055,-0.08499149
2223630538000.0,-0.6394475310911668,7.113045585337741,2.243767557420879,0.90377516,-0.48624873,0.5326745,219.91673,-72.857185,-0.011674502
2223635526000.0,-0.5717539387623997,7.212329734378838,2.2708449283797827,0.9392053,-0.49968776,0.46609017,220.06943,-73.05669,0.038819384
2223640532000.0,-0.4817376016228487,7.355324292727938,2.329108064393995,1.0311406,-0.4978552,0.40378192,220.21738,-73.30453,0.0969819
2223645668000.0,-0.3448583383141706,7.589459845009154,2.4515790404174296,1.1294898,-0.50915617,0.32559118,220.379,-73.55878,0.13516101
2223650550000.0,-0.2147484155195899,7.812016263668986,2.5679932353057486,1.2177598,-0.56107974,0.25320363,220.54935,-73.834595,0.18139987
2223655548000.0,-0.1357464256408117,7.938748640922991,2.6929402527939947,1.2846496,-0.6392705,0.19150625,220.73503,-74.12542,0.21296918
2223661325000.0,-0.0844766507923269,8.01052638031693,2.84162259824854,1.3448198,-0.7263188,0.14813483,220.94095,-74.432076,0.2358625
2223665553000.0,-0.0473930905849531,8.050219953671064,2.887830222801893,1.3744467,-0.816116,0.105374254,221.163,-74.746376,0.28193426
2223670618000.0,-0.0034250422256017,8.084416993151375,2.878059501631584,1.3976597,-0.904386,0.04642576,221.41173,-75.06801,0.3188963
2223675529000.0,0.0574340096954515,8.096509451878708,2.818355757415953,1.3961325,-0.9477574,0.010995574,221.65327,-75.37368,0.3622602
2223680533000.0,0.1403582954357284,8.084663298286092,2.699892572181938,1.3662001,-0.9401216,-0.0070249503,221.90582,-75.67032,0.39805976
2223685509000.0,0.222458740201976,8.070539999475386,2.585738,1.3564262,-0.8775079,-0.011911872,222.15088,-75.97948,0.43404558
2223690549000.0,0.2942031468121011,7.981914527760776,2.585738,1.3326025,-0.8051204,-0.014966198,222.38957,-76.268684,0.4657027
2223695598000.0,0.3660756684340299,7.893130796275247,2.585738,1.3100005,-0.7415904,-0.024740042,222.61342,-76.577515,0.52095586
2223700613000.0,0.422045880084317,7.852648273045176,2.6636851112984825,1.2647965,-0.70463306,-0.032070424,222.82285,-76.8651,0.57333046
2223705502000.0,0.4719129380775717,7.827714850359457,2.763419062394604,1.2076806,-0.6783658,-0.036651913,223.01653,-77.135254,0.6207175
2223710503000.0,0.5218692143964638,7.949967708262496,2.925009354879293,1.1487321,-0.64568454,-0.032375857,223.18695,-77.394585,0.67943877
2223715554000.0,0.5712120787444747,8.22957756916015,3.1511642732488947,1.0555751,-0.62858033,-0.022907447,223.35327,-77.62099,0.73778665
2223720629000.0,0.6062256513884555,8.489312865834632,3.3423057,0.9605856,-0.6203337,0.004886922,223.49951,-77.80938,0.8068342
2223725525000.0,0.5655877056786272,8.631545102964118,3.3423057,0.8622363,-0.61819565,0.034208454,223.64117,-77.965195,0.87794065
2223731682000.0,0.5158946242500815,8.804843745679818,3.3403010277877403,0.8231409,-0.59712076,0.0711658,223.75374,-78.08482,0.9572219
2223735511000.0,0.5009494080306488,8.849679375611347,3.316388598190414,0.7067711,-0.58276546,0.08399397,223.86662,-78.15195,1.0372448
2223740564000.0,0.48122671867134,8.908847418976197,3.284832184830453,0.6783658,-0.5720753,0.11789699,223.96213,-78.24054,1.1251034
2223745639000.0,0.4675244877567983,8.913434459571777,3.2761252406721475,0.6227771,-0.54550266,0.14935656,224.04816,-78.286766,1.2126625
2223750624000.0,0.4632115147556238,8.835801044629143,3.3020031957719755,0.57696223,-0.52748215,0.16249016,224.13237,-78.3264,1.3027163
2223755542000.0,0.4801380711938899,8.742056736669477,3.3314840224158933,0.5235115,-0.5314528,0.16798794,224.20418,-78.363464,1.3963859
2223760510000.0,0.6005198994536595,8.563713404648112,3.380528438721769,0.46609017,-0.5381723,0.1518,224.27232,-78.38618,1.4845659
2223765673000.0,0.7252482971677734,8.37903421849748,3.4301272848707898,0.43493605,-0.56321776,0.13652839,224.3368,-78.399605,1.5711352
2223770604000.0,0.8385931255700456,8.212794936954957,3.456574393087447,0.3912592,-0.60139686,0.119729586,224.40784,-78.39428,1.652023
2223775517000.0,0.951524202824226,8.047162491159293,3.482924959436755,0.37507126,-0.6188065,0.10751228,224.47546,-78.38432,1.7443943
2223780517000.0,1.0937213527700558,7.942715407466243,3.525759563641779,0.38362336,-0.6209445,0.086437434,224.55066,-78.370766,1.8293585
2223785520000.0,1.2602172885226373,7.89514518268467,3.5828439327243844,0.4382958,-0.61453044,0.05955936,224.62892,-78.367355,1.9083267
2223790563000.0,1.4232806550584598,8.012917535993816,3.683274725132863,0.46975538,-0.5900958,0.028405234,224.7125,-78.35743,1.9906716
2223795823000.0,1.5887764482751956,8.295234020678327,3.829300436989081,0.49418998,-0.5290093,0.00580322,224.78441,-78.361664,2.0645487
2223800921000.0,1.7512398397481883,9.355684333357734,4.0527503275894885,0.5180137,-0.43371433,-0.022602014,224.8479,-78.36645,2.147696
2223805516000.0,1.8994171367249837,10.975970603030524,4.32333494661445,0.52931476,-0.27458394,-0.06536258,224.87791,-78.375725,2.2127113
2223810483000.0,2.059590506492936,12.727431299758436,4.615825436864066,0.5537493,-0.08735373,-0.11026118,224.88037,-78.38598,2.2791092
2223815807000.0,2.2922852855932203,14.244601902994898,4.459080811773902,0.5497787,0.09315695,-0.16126843,224.84296,-78.393265,2.3227196
2223820775000.0,2.531073468644068,15.532492341698203,4.14591585623663,0.49968776,0.2098322,-0.21502456,224.77423,-78.39614,2.3458261
2223825528000.0,2.7562760040390244,16.569785320780486,3.751131525229268,0.38331795,0.23884831,-0.22968534,224.68501,-78.414154,2.3773267
2223830537000.0,2.985597113541464,17.182868350829267,3.100608492556097,0.31490102,0.27550024,-0.26419923,224.56688,-78.43554,2.379586
2223835533000.0,3.193099640987848,17.611105110466482,2.503975746029008,0.20219639,0.3408628,-0.29535335,224.47476,-78.538216,2.4204323
2223840612000.0,3.334197366922776,17.443313347157975,2.069241976377891,0.14782938,0.42332962,-0.3203988,224.369,-78.63348,2.4450634
2223847572000.0,3.5314945618563374,17.085615292040305,1.485671029287233,0.092240654,0.5729916,-0.3100141,224.267,-78.81563,2.4960625
2223850723000.0,3.645873560580568,16.111999113247666,1.2987590808727003,-0.010079277,0.6227771,-0.30970868,224.17128,-78.958664,2.5317194
2223855510000.0,3.819638164481834,14.632881167236755,1.014802401386706,-0.053450707,0.63499445,-0.2828306,224.07402,-79.15447,2.5970953
2223860507000.0,3.828807759102725,13.362840228362376,0.8595909974545104,-0.14996742,0.5861252,-0.20647246,223.97797,-79.29047,2.6709187
2223865545000.0,3.675521698180418,12.340932832194088,0.8363658320053913,-0.2733622,0.6075055,-0.14080444,223.85884,-79.39457,2.7393825
2223870646000.0,3.4144314165696086,11.454191723657871,0.821572359599636,-0.4034765,0.6750061,-0.028710667,223.74881,-79.44966,2.8757994
2223875577000.0,3.040598666678799,10.766683347042768,0.8172754350500455,-0.5546656,0.73884153,0.098043874,223.63194,-79.45287,3.029177
2223880485000.0,2.608779701288607,10.256444498261402,0.8371821412517898,-0.6759224,0.782213,0.22235495,223.48866,-79.40053,3.190187
2223885509000.0,1.9740189839230928,10.295809783595828,0.9355946558110044,-0.74036866,0.75625116,0.33017266,223.345,-79.31169,3.3782082
2223890589000.0,1.3705268740519865,10.519947942393255,1.032619875021466,-0.72387534,0.66950834,0.398895,223.1824,-79.207504,3.5307539
2223895892000.0,0.8353552669549605,11.20972456342206,1.1277615150339553,-0.6609562,0.5564982,0.4382958,223.03534,-79.09312,3.7036
2223900578000.0,0.3624504676231364,11.819246201389433,1.211833497892436,-0.54702985,0.42149702,0.4633413,222.88025,-79.0194,3.8002136
2223905515000.0,-0.160008008449054,13.02643359329684,1.4220035946029002,-0.38606682,0.21746802,0.45906523,222.7808,-78.97621,3.9052708
2223910521000.0,-0.6986765015365408,14.458278913761644,1.6798277861519255,-0.19761491,0.003970624,0.42730024,222.72658,-78.972145,4.013531
2223915570000.0,-1.042265569460663,15.708095571499255,1.8181242849084611,-0.02107485,-0.11362094,0.37751472,222.6695,-79.03837,4.0259194
2223920725000.0,-1.2816573110440377,16.87574107718951,1.8914075200395843,0.12767084,-0.121256754,0.32986724,222.64528,-79.1476,4.0350366
2223925616000.0,-1.3663806243542436,17.063184255350553,2.1840349824354246,0.18753563,-0.089491755,0.30695978,222.61472,-79.2925,3.9591026
2223930528000.0,-1.37629965355825,16.7656118256194,2.595677102498682,0.18448131,-0.0027488936,0.22143865,222.57771,-79.463875,3.8545241
2223935502000.0,-1.2811526499012282,15.617683088207505,2.9950580997509237,0.06505715,0.04734206,0.11301007,222.53502,-79.643135,3.7058916
2223940603000.0,-1.142692460559993,14.11140330859744,3.3978515570643304,-0.19272798,0.013439035,0.013439035,222.497,-79.78058,3.5436554
2223945558000.0,-0.8875037442341464,12.563397313170732,3.5295812130731705,-0.49693888,-0.046120327,-0.0888809,222.43274,-79.82843,3.3495953
2223950709000.0,-0.4399230120312194,10.826014261756098,3.274508316409756,-0.7855727,-0.053450707,-0.12858713,222.36557,-79.80624,3.1521955
2223955498000.0,-0.1024999743788187,9.453966566482398,2.9346267148676173,-0.97494096,-0.052839845,-0.106595986,222.28374,-79.63966,2.9690082
2223960515000.0,0.102529693095723,8.475415581126951,2.3847744139850646,-1.0213667,-0.08399397,-0.04184427,222.21126,-79.43234,2.792542
2223965611000.0,0.1898153360964553,7.860297325629784,1.8327234028238093,-0.9492846,-0.1695151,0.0290161,222.16635,-79.18386,2.7003534
2223970607000.0,-0.0057345600557331,8.137622660845656,1.306516407921528,-0.7849618,-0.24251351,0.09773844,222.12128,-78.94864,2.626489
2223975539000.0,-0.1987794135030096,8.411395389685666,0.7870502552277625,-0.57940567,-0.23548855,0.13927728,222.09596,-78.79073,2.605479
2223980591000.0,-0.5072997824735053,8.994126645020996,0.3276001276244751,-0.36468655,-0.13530666,0.14172074,222.0619,-78.68393,2.590335
2223986398000.0,-0.946550795660868,9.894869156268747,-0.1450117464067186,-0.19425514,0.04550946,0.09773844,222.00276,-78.625725,2.5677788
2223990544000.0,-1.136871697655293,10.420058252143482,-0.3269855365109361,-0.05375614,0.2938262,0.016493361,221.9173,-78.71159,2.512286
2223995690000.0,-1.3136497189326333,11.015067090901136,-0.4778935487699038,0.07452556,0.54092115,-0.08277224,221.7864,-78.84342,2.430442
2224000559000.0,-1.3517184680240384,11.483198958461536,-0.5196356885432692,0.20158553,0.70371675,-0.18570304,221.62985,-79.06681,2.283771
2224005514000.0,-1.114453033625,11.75696652,-0.346249447125,0.34269542,0.73273283,-0.27122417,221.44775,-79.32852,2.1111119
2224010484000.0,-0.844704727787448,11.94360291267769,-0.1660294722705734,0.4700608,0.6762278,-0.321926,221.26039,-79.64463,1.8976933
2224015558000.0,-0.4546848557924765,11.816729360603423,0.0407280543709505,0.5821546,0.6084218,-0.33261612,221.07184,-79.98773,1.6760224
2224021019000.0,-0.1001908680874722,11.655655587842846,0.2683848622979985,0.6817256,0.50701815,-0.30940324,220.91426,-80.338165,1.4903086
2224025529000.0,0.0182733085989622,11.457147720533728,0.470094130874722,0.729984,0.44959682,-0.28985557,220.76604,-80.693436,1.3078368
2224030538000.0,0.1498447190252038,11.236676344180877,0.6941211211853224,0.75625116,0.30695978,-0.23732115,220.67596,-81.03151,1.2052075
2224035536000.0,0.1486439323213818,11.027692103550557,0.8953299211602548,0.7816021,0.17684549,-0.17867808,220.6005,-81.36962,1.1163814
2224040556000.0,-0.0065332540172729,10.83057553895141,1.0714770221634826,0.7672467,0.084910266,-0.110872045,220.55458,-81.68992,1.0535834
2224045826000.0,-0.1357998183252007,10.673736570281758,1.199871566456792,0.7519751,0.026267206,-0.040927973,220.52646,-81.95662,1.0384862
2224050605000.0,-0.1430039031819612,10.695348888792696,1.1314327208248072,0.7348709,-0.028710667,0.022907447,220.52315,-82.20789,1.0461117
2224055628000.0,-0.1505758048843066,10.718064661104991,1.059499613143397,0.7128797,-0.09437868,0.06811147,220.51047,-82.41848,1.0447385
2224060535000.0,-0.1295972759853633,10.710269533455309,0.9187626761787768,0.7012733,-0.16065755,0.1151481,220.51315,-82.61785,1.0648947
2224065594000.0,-0.091607941228437,10.684943239763026,0.7330370542812337,0.6985244,-0.2003638,0.16035213,220.52713,-82.80536,1.0992035
2224070907000.0,-0.0454395696167587,10.65056461252302,0.5535209199797422,0.72265357,-0.22357668,0.17928895,220.55836,-83.00272,1.1423616
2224075596000.0,0.0041799300976058,10.60921505893186,0.4170672981399631,0.7464773,-0.23273966,0.19547687,220.59694,-83.19091,1.1981435
2224080523000.0,0.0484238280379066,10.556061269165488,0.2887840799950495,0.75900006,-0.22937989,0.20005837,220.65419,-83.399216,1.2672244
2224085520000.0,0.0518082205114568,10.451144766053748,0.2380181964257425,0.76052725,-0.23640485,0.1881465,220.71869,-83.603546,1.3361863
2224090720000.0,0.0553301018127298,10.341966095615277,0.1851899805841584,0.75991637,-0.23945917,0.15943582,220.7859,-83.83046,1.4104176
2224095618000.0,0.0341356797405004,10.25569794012975,0.1672240077794254,0.75228053,-0.23976462,0.12705997,220.8566,-84.04818,1.479643
2224100651000.0,-0.0328709022150139,10.197625796107507,0.2074279616172382,0.7318166,-0.22327125,0.095294975,220.92575,-84.25571,1.5399866
2224105606000.0,-0.0708651422488945,10.12842584017688,0.265091425272689,0.70921457,-0.1863139,0.04917465,220.98863,-84.469,1.5877116
2224110502000.0,0.0081208288136449,10.009946970183195,0.3973929166990946,0.6899723,-0.1301143,0.023823744,221.0429,-84.670395,1.6314368
2224115579000.0,0.0900268286266582,9.88708806026532,0.5345854559090335,0.66889745,-0.09865474,-0.00061086525,221.08476,-84.865005,1.6484202
2224120889000.0,0.1756917604775742,9.758590756411875,0.6780742058016425,0.6536258,-0.032986723,-0.027794369,221.10268,-85.051605,1.655911
2224125933000.0,0.2570653793581807,9.636530417308908,0.8143750070178986,0.657291,0.0125227375,-0.043982297,221.11876,-85.23228,1.6602056
2224130593000.0,0.3934265620275944,9.49915076484703,0.9587224132373524,0.65026605,0.026572637,-0.050701816,221.13081,-85.40348,1.6564405
2224135532000.0,0.6109623430833833,9.32417624595081,1.1336968827534493,0.6469063,0.049480084,-0.051618114,221.1288,-85.57148,1.6496141
2224140592000.0,0.8559898909295351,9.145319308470764,1.2839813148425787,0.65240407,0.062002823,-0.043066,221.12103,-85.693665,1.659073
2224145762000.0,1.136043266491754,8.963115916416792,1.3987019730134933,0.65393126,0.076358154,-0.034208454,221.10739,-85.809265,1.6683027
2224150644000.0,1.4004959897982827,8.791062345815728,1.5070320026441324,0.6389651,0.09162979,-0.020463986,221.0961,-85.898094,1.6990602
2224155526000.0,1.532289,8.7053175,1.5610195,0.6218608,0.1151481,0.0067195175,221.07921,-85.97966,1.7355603
2224160552000.0,1.532289,8.7053175,1.5610195,0.5708536,0.1432479,0.038179077,221.05762,-86.04211,1.7764888
2224165584000.0,1.5474084088833615,8.63980025446389,1.4955021492138223,0.5222898,0.16401732,0.06505715,221.03812,-86.071175,1.8686594
2224170616000.0,1.5730940488229546,8.528496142533536,1.3841978584791683,0.45723262,0.20280726,0.09254608,221.00615,-86.073944,1.9676877
2224175549000.0,1.548598030197612,8.48759637361054,1.277455009427748,0.40378192,0.22327125,0.10903945,220.9697,-86.07529,2.0626621
2224180569000.0,1.4248960024083983,8.581609772128449,1.1735452461506792,0.35063666,0.2510656,0.13164146,220.92097,-86.052216,2.1646109
2224185497000.0,1.3156515199548724,8.680664478070794,1.0954970296009026,0.3136793,0.26725355,0.13775012,220.86823,-86.03695,2.270999
2224190550000.0,1.223522524650966,8.793266353828797,1.0545508055069808,0.30848694,0.26816985,0.1459968,220.81337,-86.00917,2.382059
2224195758000.0,1.1285674865463262,8.90932227485545,1.0123485622690735,0.32650748,0.26450464,0.14080444,220.74742,-86.00005,2.4741986
2224200603000.0,0.997192544294699,9.048877371069183,0.9959879,0.34238997,0.2660318,0.1423316,220.68198,-85.98398,2.5681396
2224205515000.0,0.8328274719576719,9.213242296296295,0.9959879,0.36193767,0.27000242,0.1554652,220.6192,-85.96874,2.6616604
2224210501000.0,0.644191112684228,9.34482607555852,1.0686004535578526,0.38606682,0.28160888,0.16707164,220.54326,-85.97516,2.7360144
2224215604000.0,0.4323485840280093,9.449118191397131,1.2054832983327777,0.40194935,0.27397305,0.15668693,220.4747,-85.982666,2.8059354
2224220565000.0,0.2264009483894631,9.55050819466489,1.3385571358652884,0.410196,0.2669481,0.15454891,220.38707,-86.00674,2.8541791
2224225532000.0,0.0483641085732647,9.53622277763496,1.4683410687660667,0.42332962,0.25350907,0.15332718,220.30641,-86.03376,2.8984501
2224230550000.0,-0.1084345638946015,9.426938636246788,1.5966309471722364,0.42210788,0.25289822,0.13744467,220.22699,-86.06015,2.9364514
2224235508000.0,-0.2523796738981934,9.274758093432444,1.696692459663154,0.42149702,0.2565634,0.12980886,220.11316,-86.11035,2.9200184
2224240542000.0,-0.3884625956576966,9.079705750376364,1.7738061116955213,0.3912592,0.27122417,0.109650314,219.99907,-86.15901,2.8952682
2224245572000.0,-0.5188330662953946,8.868717625481843,1.839421124315277,0.3491095,0.29229903,0.09682214,219.8636,-86.20766,2.8454514
2224250568000.0,-0.6401703780503145,8.635750364779875,1.8879560632075472,0.2919936,0.30573806,0.07513642,219.72865,-86.25234,2.7876306
2224255522000.0,-0.7272259066475038,8.419734757942512,1.9236023740393344,0.2452624,0.3210097,0.06047566,219.56938,-86.29548,2.7081704
2224260512000.0,-0.7706040647211296,8.222122705496721,1.942881539747857,0.17256944,0.31856623,0.04734206,219.41359,-86.323975,2.6235058
2224265728000.0,-0.803317717215595,8.092980932499271,1.963799890311318,0.10293079,0.30665436,0.034208454,219.23785,-86.36379,2.5116074
2224270624000.0,-0.8203703947599651,8.055464994180971,1.9842630905440792,0.048563786,0.29810223,0.017104227,219.06396,-86.390236,2.3955004
2224275835000.0,-0.8385202114845796,8.015535346595868,2.0060428569682864,0.00061086525,0.27916542,0.016187929,218.88905,-86.39858,2.2762437
2224280543000.0,-0.8576417682923789,8.07169422275641,2.0408949614494305,-0.04153884,0.25320363,-0.0067195175,218.72057,-86.39666,2.1465917
2224285525000.0,-0.8788809409170228,8.165146642628205,2.0833733421830485,-0.089491755,0.22602014,-0.023823744,218.55905,-86.37437,2.019174
2224290541000.0,-0.9036444638125314,8.281907256641604,2.132900412150376,-0.13408493,0.20372356,-0.050701816,218.40524,-86.345764,1.8731734
2224295656000.0,-0.9331093200380952,8.429232076190477,2.1918301348571427,-0.18081611,0.17501289,-0.077579886,218.2619,-86.29819,1.7238444
2224300565000.0,-0.94810385,8.529983971400778,2.206781388171206,-0.24801129,0.15485434,-0.10415252,218.11235,-86.22314,1.5670015
2224305510000.0,-0.94810385,8.585264549708171,2.174534215797665,-0.30543262,0.1282817,-0.12889257,217.9737,-86.131546,1.405044
2224311179000.0,-0.9408987340125392,8.597510702194358,2.087533775548589,-0.37201694,0.112399206,-0.14966199,217.82831,-86.01624,1.2293457
2224315697000.0,-0.9285681605158164,8.56051906754061,1.97244829415788,-0.4034765,0.07086037,-0.16187929,217.69847,-85.886696,1.0520583
2224320509000.0,-0.8924587879637745,8.493908658194567,1.830110111831727,-0.47525316,0.0421497,-0.17287487,217.5575,-85.735954,0.8748429
2224325621000.0,-0.7971103802512416,8.355653177037686,1.6298784631025418,-0.49388456,0.036651913,-0.17348573,217.42209,-85.584526,0.6996575
2224330516000.0,-0.7037168232151925,8.224194985833249,1.4442042013608205,-0.5323691,0.026267206,-0.18661933,217.2966,-85.42433,0.53068775
2224335503000.0,-0.6018634635828171,8.093240782065603,1.2744485850919065,-0.53969944,0.036957346,-0.20372356,217.16684,-85.26384,0.36200756
2224340660000.0,-0.4819061541430543,7.948367698246326,1.1021001831452464,-0.54336464,0.06872234,-0.22357668,217.04762,-85.129745,0.2077133
2224345999000.0,-0.3200085799683364,7.774016469854672,0.931900171381018,-0.5317582,0.1020145,-0.25045475,216.92542,-84.99576,0.048067458
2224350585000.0,-0.1809446587911017,7.624255328554031,0.7857047688804092,-0.5109888,0.15363261,-0.2761111,216.80072,-84.88807,-0.092706196
2224355522000.0,-0.0848475569322746,7.616001771228398,0.8357461274077533,-0.48747048,0.17898351,-0.2883284,216.67462,-84.78271,-0.23581462
2224360520000.0,0.0001064581391873,7.64282942914526,0.9341139574311068,-0.47891834,0.19120082,-0.30024028,216.53871,-84.67663,-0.38530242
2224365615000.0,0.0867092406099953,7.670177751891639,1.0343908869967304,-0.45814893,0.16798794,-0.31490102,216.43488,-84.608116,-0.5010606
2224370666000.0,0.1725641285903783,7.697289896777207,1.1338018332648296,-0.45356745,0.12980886,-0.33475417,216.3329,-84.53565,-0.62006354
2224375660000.0,0.299520756139365,7.798160438662546,1.2124926919921326,-0.44868052,0.07086037,-0.3463606,216.24452,-84.46803,-0.7386644
2224381405000.0,0.4850293458415285,7.983668678617587,1.2846349228153977,-0.4370741,-0.00061086525,-0.3368922,216.1708,-84.40238,-0.8535594
2224385521000.0,0.6035968403733283,8.143246057634945,1.306673450476282,-0.43799037,-0.07544186,-0.3210097,216.1105,-84.32271,-0.9427469
2224390744000.0,0.7335430299701723,8.383887503127104,1.2922348933897816,-0.44440445,-0.16646078,-0.27977628,216.07436,-84.24704,-1.0179584
2224395622000.0,0.8430112343433414,8.576408979738442,1.2079370669837908,-0.44684792,-0.23793201,-0.23365596,216.07104,-84.16967,-1.0544701
2224400590000.0,0.9306472210370236,8.707862863694972,0.980083562890956,-0.4437936,-0.25900686,-0.1777618,216.07721,-84.09698,-1.0744109
2224405563000.0,1.0066081091393413,8.822847522848354,0.7607780372484431,-0.42852196,-0.21930063,-0.1142318,216.0991,-84.043526,-1.0538296
2224410519000.0,1.0137308855781495,8.840654463945375,0.5933926682171531,-0.3979787,-0.17867808,-0.08032878,216.12509,-83.998566,-1.0254506
2224415810000.0,1.0213351249118332,8.859665062279584,0.414692912861109,-0.3753767,-0.04153884,0.04795292,216.11331,-84.02534,-0.9321655
2224420942000.0,0.886371403288854,8.847240573390895,0.4056668522841444,-0.34574974,-0.03268129,0.09315695,216.1285,-84.059006,-0.8520719
2224425645000.0,0.6521577764952904,8.8118877827708,0.5249832358594977,-0.35521814,-0.0720821,0.16920967,216.11546,-84.0922,-0.73209316
2224430540000.0,0.2136665649488752,8.77928825562372,0.6854173591002045,-0.38789943,-0.14721853,0.23487769,216.12497,-84.15519,-0.5935506
2224435515000.0,-0.4776419748310447,8.751450250462558,0.894201797068848,-0.42241332,-0.19394971,0.28191432,216.13799,-84.21186,-0.44200978
2224440684000.0,-1.008586103659323,8.711042197103836,1.036897826916478,-0.4578435,-0.2434298,0.32895094,216.15543,-84.218475,-0.32450745
2224445641000.0,-1.2464196501475535,8.655656201496122,1.066219786569213,-0.48533243,-0.269697,0.35246924,216.17989,-84.21591,-0.20273405
2224451044000.0,-1.5056519785066227,8.595286918811338,1.098179953606479,-0.52626044,-0.28496864,0.364992,216.15251,-84.13094,-0.20229013
2224455530000.0,-1.721521192641965,8.557164993597144,1.1320254280885904,-0.550695,-0.26542094,0.35216382,216.12265,-84.04497,-0.2033932
2224460503000.0,-1.961473114453658,8.52717144053742,1.177016436265351,-0.56321776,-0.23273966,0.33536503,216.09294,-83.95327,-0.20288433
2224465548000.0,-2.1035955881652724,8.506780785905288,1.2624442246355558,-0.56779927,-0.18295415,0.2843578,216.02101,-83.836876,-0.2786916
2224470630000.0,-2.166568112999224,8.49418603545243,1.3799928178383507,-0.5720753,-0.13347405,0.23273966,215.9402,-83.71854,-0.3600097
2224475515000.0,-2.180567902022885,8.478012203616673,1.5156959685839804,-0.57971114,-0.12095132,0.20341812,215.83704,-83.57482,-0.48709226
2224480522000.0,-2.048295832488762,8.448618330813241,1.7263514772578668,-0.5882632,-0.13561209,0.18784106,215.72859,-83.429306,-0.6238442
2224485480000.0,-1.903275912951595,8.419633377276844,1.902250436600584,-0.5882632,-0.15363261,0.18173242,215.60478,-83.2551,-0.7774258
2224490740000.0,-1.7106410772869076,8.389217799134547,1.998567827966187,-0.5849035,-0.18906279,0.18081611,215.4903,-83.080055,-0.9307036
2224495521000.0,-1.5668696143671066,8.360708509163421,2.0765101171208813,-0.5766568,-0.23640485,0.1853976,215.39291,-82.871445,-1.0621705
2224500674000.0,-1.4872060252682555,8.327905169784446,2.137429430177571,-0.5742133,-0.28099802,0.20066923,215.30406,-82.66613,-1.1879386
2224505510000.0,-1.4355313686988846,8.286870972490707,2.173016661710037,-0.57879484,-0.30085114,0.21960606,215.23149,-82.460304,-1.2777287
2224510515000.0,-1.48135042929368,8.200323810780668,2.1170154163568773,-0.5717699,-0.32284227,0.21594086,215.1718,-82.26284,-1.3669307
2224515660000.0,-1.5357720802647232,8.143859721185306,2.0364678730963712,-0.5739079,-0.33475417,0.21930063,215.11813,-82.05587,-1.4301596
2224521041000.0,-1.6085801953301606,8.15535576673111,1.902347728524688,-0.57971114,-0.34788775,0.20433442,215.07114,-81.85404,-1.4982992
2224525509000.0,-1.6690348799821533,8.164901265987506,1.790983891701368,-0.59986967,-0.35277468,0.20586158,215.0219,-81.649124,-1.5596937
2224530529000.0,-1.6805228116651914,8.387595672863185,1.8420681746041117,-0.6047566,-0.35063666,0.17989981,214.97514,-81.44978,-1.6324772
2224535516000.0,-1.6570352532212058,8.739908804268712,2.0017833365791287,-0.6398814,-0.35827246,0.15302174,214.9316,-81.24148,-1.7040725
2224540582000.0,-1.6253606749258305,9.247802527801705,2.1122903071872905,-0.6765333,-0.39828414,0.10598512,214.90024,-81.04377,-1.790706
2224545639000.0,-1.588281622308355,9.859607089577947,2.186448509216193,-0.72204274,-0.44073927,0.049480084,214.87209,-80.83631,-1.8862121
2224550602000.0,-1.5604832996584912,10.47755888481838,2.19906500863086,-0.743423,-0.453262,-0.028099801,214.84868,-80.60865,-1.9935877
2224555517000.0,-1.5409986282831418,11.105938811859671,2.155224612480596,-0.77579886,-0.44715336,-0.13194689,214.83424,-80.36622,-2.1212425
2224560497000.0,-1.4920659582292275,11.576765908359183,2.128924159704871,-0.79259765,-0.41416663,-0.26633725,214.83551,-80.12005,-2.263726
2224565552000.0,-1.4190054206254716,11.921773578770855,2.1167474034375786,-0.81581056,-0.37110063,-0.4034765,214.83563,-79.86268,-2.433125
2224570544000.0,-1.3204374428049823,12.223052504706663,2.1110089675002377,-0.8341365,-0.3463606,-0.5311473,214.85129,-79.61557,-2.6132073
2224575598000.0,-1.0995325474964344,12.347312089188932,2.1340198770752115,-0.8888089,-0.30390546,-0.6630942,214.85503,-79.34757,-2.8301466
2224580602000.0,-0.8782525750404313,12.467703528301888,2.1668795195867028,-0.9654725,-0.24037547,-0.78801614,214.8689,-79.076836,-3.0502408
2224585521000.0,-0.6348807851392633,12.559408847484278,2.3009102998727164,-1.0906999,-0.14049901,-0.895223,214.86441,-78.774284,-3.299495
2224590782000.0,-0.3745882487151841,12.65749010062893,2.444259747948488,-1.2302825,-0.004886922,-0.98837996,214.86621,-78.45395,-3.5372043
2224595532000.0,-0.063233540968092,12.830075723030172,2.6172807140872587,-1.3833044,0.14446963,-1.063211,214.83875,-78.095375,-3.799319
2224600583000.0,0.3777569019209899,13.1345692334491,2.864025353212502,-1.5549575,0.30115658,-1.1328496,214.77425,-77.69385,-4.087212
2224605588000.0,0.753874470724848,13.507385607729294,3.199894056246031,-1.6887369,0.36957347,-1.1939361,214.7216,-77.26724,-4.334621
2224610515000.0,1.0791992343826544,13.92688280468112,3.597988862233512,-1.8365663,0.47586402,-1.2073752,214.61493,-76.79968,-4.5946255
2224615570000.0,1.4292379271554003,14.392214812334707,4.017936052480694,-1.9016235,0.54825157,-1.2156218,214.53209,-76.334785,-4.7944584
2224620600000.0,1.8063328714059028,14.917090230720406,4.456181653348144,-2.0616703,0.57879484,-1.201572,214.43019,-75.818756,-4.994075
2224625518000.0,2.1222829586561747,15.367674920298628,4.844032488196126,-2.211332,0.56779927,-1.169807,214.35956,-75.281296,-5.1329947
2224630605000.0,2.387691486955206,15.760873025121064,5.197910474606537,-2.3451116,0.5448918,-1.1123856,214.27979,-74.72306,-5.263349
2224636263000.0,2.652526339166289,16.096979390212958,5.388975472460354,-2.4468207,0.50793445,-1.0619892,214.24985,-74.13297,-5.331717
2224640616000.0,2.8376377529225194,16.29342375169914,5.411642156864522,-2.5118778,0.5039638,-1.0097603,214.20992,-73.5353,-5.3887897
2224645573000.0,2.9854326562865903,16.41625308419292,5.285780582269306,-2.5201247,0.5494733,-0.98624194,214.19652,-72.92326,-5.4064817
2224650662000.0,2.976374652448657,16.284912808846762,4.76947677535545,-2.474615,0.61361414,-0.9972375,214.17345,-72.321304,-5.427664
2224655606000.0,2.953106371111286,16.13806078869024,4.336199782814838,-2.3790147,0.6588182,-1.0170907,214.16638,-71.75447,-5.411792
2224660515000.0,2.8420269558163347,15.875173148460265,4.3213891941088445,-2.2504275,0.6805039,-1.0054842,214.14102,-71.22034,-5.402721
2224667692000.0,2.6698022188838557,15.477677401771006,4.299086109802306,-2.103209,0.6270532,-0.9950995,214.1153,-70.78064,-5.402616
2224670751000.0,2.2384544305189458,14.829147353789129,4.2659055349258646,-1.8472565,0.61117065,-0.9896017,214.06824,-70.41419,-5.4135976
2224675647000.0,1.54807235407743,13.791160065485997,4.212799260131796,-1.7583756,0.5897904,-0.9627236,214.03175,-70.0208,-5.4401426
2224680540000.0,1.0339496437791602,13.26685916547434,4.169071526065318,-1.5827519,0.5531385,-0.9236283,213.99814,-69.72965,-5.463862
2224685505000.0,0.6050486721617419,13.005574560497667,4.129632129642301,-1.4089607,0.5311473,-0.90041536,213.96175,-69.46909,-5.4886866
2224690686000.0,0.1591611643950127,12.827737750354208,4.111296581552848,-1.2443326,0.5338962,-0.88514376,213.88362,-69.18475,-5.6168427
2224695641000.0,-0.2666480734202324,12.69327177132332,4.102332136148107,-1.0943651,0.5357288,-0.8772025,213.80861,-68.95206,-5.737935
2224700584000.0,-0.6466079399246896,12.58525659281498,4.152047524017912,-0.95539325,0.54061574,-0.86070913,213.72823,-68.724556,-5.9159927
2224705495000.0,-0.9960190925707306,12.49431412904539,4.238203936902097,-0.8350528,0.55833083,-0.86132,213.64375,-68.53695,-6.094996
2224710504000.0,-1.2303910177946906,12.42959877113346,4.273967617740328,-0.7779369,0.5491679,-0.8695667,213.55153,-68.33779,-6.3346
2224715657000.0,-1.3958275762254235,12.380414863821692,4.27843896692942,-0.6719518,0.5329799,-0.86345804,213.45451,-68.188286,-6.5663657
2224720657000.0,-1.4555498014892956,12.287491848588273,4.269734846726652,-0.5742133,0.5198463,-0.8546005,213.36682,-68.00452,-6.8460503
2224725645000.0,-1.391324129837625,12.139278244285864,4.245032665322164,-0.47616947,0.4914411,-0.8405506,213.28566,-67.85227,-7.112827
2224730553000.0,-1.2420290490072456,11.913312940622944,4.2396212160534485,-0.36377025,0.43982297,-0.8359691,213.22484,-67.70223,-7.392018
2224735612000.0,-1.0003991744236378,11.59873854135692,4.253298177566576,-0.27275133,0.36132678,-0.83260936,213.17674,-67.57483,-7.655
2224741051000.0,-0.6991199943000456,11.213946486548108,4.249421786739626,-0.20861048,0.25900686,-0.8231409,213.17317,-67.454544,-7.8953834
2224745700000.0,-0.3945880230734154,10.83226634245326,4.225059330797993,-0.15027285,0.12461651,-0.8063421,213.19675,-67.358795,-8.114797
2224750542000.0,-0.0809134984237125,10.431995037461895,4.202224833819991,-0.082161374,0.014049901,-0.7699956,213.27231,-67.26959,-8.288486
2224755629000.0,0.2317270618289748,9.99820647858174,4.190500820920905,-0.036651913,-0.122783914,-0.7305948,213.38622,-67.19383,-8.434873
2224760565000.0,0.5350873538296167,9.577294285416333,4.179124817840526,0.0021380284,-0.24648413,-0.65668017,213.54814,-67.13654,-8.51102
2224765706000.0,0.9532902830737124,8.773016154085257,4.127001708738899,0.02321288,-0.35308012,-0.5653558,213.73233,-67.095436,-8.556071
2224770688000.0,1.4024407984857905,7.836579346802842,4.059205272291297,0.04153884,-0.4437936,-0.47800204,213.93407,-67.07404,-8.568516
2224775683000.0,1.641292258366462,7.180268670039754,3.990693777954464,0.06078109,-0.52320606,-0.37904188,214.18077,-67.05984,-8.503669
2224780612000.0,1.6284975220455369,6.864664951454644,3.922455184242863,0.058337633,-0.58032197,-0.2828306,214.43263,-67.0563,-8.408585
2224785559000.0,1.5914217075598731,6.5794908617582,3.856001772934501,0.06566802,-0.61483586,-0.20189096,214.70615,-67.05738,-8.240471
2224790879000.0,1.4591131489371931,6.393278939472925,3.792297574415697,0.05375614,-0.6414085,-0.12095132,214.97954,-67.06291,-8.0413065
2224795648000.0,1.3283152842560553,6.234987382352942,3.7301717079584775,0.06811147,-0.6291912,-0.04428773,215.24142,-67.07247,-7.8347287
2224800708000.0,1.1233767487889272,6.113887196078432,3.637017808304498,0.056199603,-0.63041294,0.014966198,215.50438,-67.0775,-7.607248
2224805650000.0,0.923764794886271,6.000393055015858,3.547418352079746,0.06841691,-0.6401868,0.07696902,215.7581,-67.08156,-7.3830037
2224810379000.0,0.7390803916248301,5.947039864195741,3.477648738812868,0.07422013,-0.63529986,0.10476339,216.00275,-67.08224,-7.1545577
2224815440000.0,0.5414301981576801,5.889941006352515,3.40298094165836,0.07452556,-0.6200282,0.15424347,216.2379,-67.075966,-6.9437747
2224820445000.0,0.3646627281783412,5.832523427712818,3.2775954384657413,0.096516706,-0.589485,0.20066923,216.46216,-67.07907,-6.730332
2224825701000.0,0.1878881909604788,5.773930249448983,3.1363287788951166,0.10720685,-0.5467244,0.23365596,216.67249,-67.08188,-6.5123625
2224830383000.0,0.1176015630467414,5.7568910343055295,3.042613229047121,0.12858713,-0.49388456,0.24831672,216.87065,-67.08263,-6.335242
2224835384000.0,0.0425260768877066,5.738690881607448,2.942512531740452,0.1591304,-0.43890667,0.26328292,217.0678,-67.08292,-6.1922035
2224841255000.0,-0.0456099317585027,5.717324535578567,2.824997795910127,0.20250183,-0.39400807,0.26389378,217.25032,-67.093925,-6.0559235
2224845455000.0,-0.1086607299724491,5.70203946432643,2.7409300237269614,0.2507602,-0.35063666,0.26542094,217.4142,-67.11692,-5.92344
2224850570000.0,-0.1324061223571283,5.706107793369941,2.668413457799471,0.28924468,-0.30451632,0.2657264,217.57341,-67.144104,-5.80236
2224855428000.0,-0.1418680134878991,5.715569877160871,2.606911246959528,0.3368922,-0.2687807,0.2602286,217.72217,-67.18727,-5.687907
2224860421000.0,-0.106480887772658,5.773110778750952,2.5804461480388423,0.38789943,-0.2312125,0.26908615,217.87814,-67.25092,-5.622313
2224865485000.0,-0.0603109052562833,5.8423657033511045,2.561978071725057,0.4370741,-0.19303341,0.27305678,218.02278,-67.327065,-5.563389
2224870475000.0,-0.0105454362075637,5.939077414248021,2.5841627301671064,0.49357912,-0.14813483,0.27885997,218.15788,-67.428116,-5.5121894
2224875468000.0,0.0408556139141991,6.046552068601583,2.621545432903352,0.5323691,-0.10873401,0.28863382,218.28171,-67.53783,-5.4619145
2224880452000.0,0.0965488213621229,6.162705407880133,2.702025987791343,0.57910025,-0.06566802,0.301462,218.40947,-67.66109,-5.4039755
2224885449000.0,0.1544908690828372,6.28341817536071,2.8034246015538287,0.6133087,-0.016798794,0.31673363,218.52261,-67.7913,-5.3471622
2224890468000.0,0.2098033874173302,6.395534182735363,2.915813554754098,0.6392705,0.032070424,0.3387248,218.62868,-67.935745,-5.2820134
2224895591000.0,0.2649550283203747,6.50583738775644,3.0353087895081967,0.6728681,0.06352998,0.37048978,218.7233,-68.09145,-5.2132688
2224900570000.0,0.3359181718360419,6.60772865195433,3.166661680302407,0.6951646,0.07880162,0.38973203,218.80595,-68.24854,-5.1326766
2224905522000.0,0.4188449333007611,6.70528962270109,3.308124917249537,0.70005155,0.099571034,0.43371433,218.87344,-68.41109,-5.041555
2224910508000.0,0.4682648579838499,6.799130363662412,3.389988441208648,0.72143185,0.10629055,0.48288897,218.92104,-68.59124,-4.93229
2224915623000.0,0.4980380085569158,6.892703153060693,3.4367747692888773,0.71959925,0.10415252,0.516792,218.96396,-68.76443,-4.818259
2224920512000.0,0.505904599141604,6.959186253446116,3.47001626833751,0.72234815,0.09682214,0.5684101,218.98598,-68.94175,-4.664058
2224925651000.0,0.4699285885119047,6.979744024404762,3.480295126984127,0.713796,0.09285152,0.6102544,219.00693,-69.11248,-4.506456
2224930633000.0,0.4293326644223363,6.992957801265359,3.4632915114615805,0.70371675,0.087964594,0.65240407,219.02834,-69.281715,-4.3294115
2224935521000.0,0.3821177531514763,6.997249972620576,3.4117843795342013,0.68661255,0.077579886,0.70188415,219.04907,-69.444786,-4.1419897
2224940585000.0,0.3381144283697544,6.984019094072713,3.3577347628505128,0.6591236,0.0729984,0.73914695,219.07399,-69.59289,-3.9596026
2224945618000.0,0.3101507455501837,6.914109984355058,3.301807338812609,0.6282749,0.06811147,0.7800749,219.09807,-69.73368,-3.766085
2224950705000.0,0.2714211134230538,6.837373439593756,3.2392968450870523,0.6053675,0.058337633,0.8222246,219.12938,-69.86817,-3.5762415
2224955511000.0,0.1931297143576145,6.740660648298979,3.156400221793076,0.58246,0.05681047,0.8552113,219.15807,-69.99156,-3.3826365
2224961326000.0,0.0787530114199371,6.65959007733097,3.067659236892578,0.5656612,0.055283304,0.8885035,219.18513,-70.11329,-3.1869512
2224965798000.0,-0.0489459774752196,6.669944006060118,3.022791948118301,0.5717699,0.052839845,0.9245446,219.21083,-70.23283,-2.9861052
2224970663000.0,-0.1878671717898299,6.6812078395277625,2.973981715585462,0.56169057,0.03359759,0.9486737,219.25313,-70.33671,-2.8037364
2224975525000.0,-0.3162876482797947,6.777230082436799,2.996280858106824,0.5699373,0.020463986,0.97005403,219.29228,-70.44574,-2.6171527
2224980599000.0,-0.4455972941322942,6.915775985173921,3.0516992867135526,0.55924714,-0.018325957,0.9969321,219.34166,-70.54453,-2.422825
2224985517000.0,-0.5625395239360808,7.045681625231286,3.0764602459209422,0.57360244,-0.07666359,1.0079277,219.40076,-70.65002,-2.260607
2224990690000.0,-0.6792041829058032,7.179012763498738,3.080626925567704,0.5696318,-0.112704635,1.0238101,219.46164,-70.7459,-2.0919163
2224995653000.0,-0.7921597575855645,7.319997620829656,3.074366482494852,0.58032197,-0.1328632,1.0442741,219.5258,-70.846016,-1.9443867
2225000649000.0,-0.9094632114641562,7.507683186231245,3.032137127390409,0.60994893,-0.12705997,1.0592403,219.5916,-70.948524,-1.796077
2225005589000.0,-1.0199646544766905,7.684610710049398,3.005053525980241,0.61911196,-0.108123146,1.0763446,219.64006,-71.05261,-1.6559639
2225010509000.0,-1.1036101987804878,7.819170735365853,3.0486947158536584,0.66553766,-0.110872045,1.0592403,219.6951,-71.17258,-1.5222917
2225015661000.0,-1.191200004523001,7.96007586756715,3.09439378297314,0.70096785,-0.13836098,1.0418307,219.73735,-71.31116,-1.3968384
2225020526000.0,-1.2689745742333731,8.110163193946635,3.139426846395858,0.7415904,-0.15882497,1.0067059,219.78288,-71.45994,-1.2832538
2225025682000.0,-1.3476332453604143,8.282229550378334,3.1885885158502587,0.7657196,-0.15424347,0.958753,219.83289,-71.60969,-1.1794555
2225031421000.0,-1.4114500686108271,8.426552580898877,3.2370213122267617,0.7791586,-0.15393804,0.89919364,219.88115,-71.76098,-1.0996169
2225035508000.0,-1.4474320750561798,8.510510582022473,3.269005239101124,0.7910705,-0.1282817,0.8335256,219.92694,-71.913826,-1.0377468
2225040712000.0,-1.4971073130848231,8.633176580829213,3.2703646532521877,0.786489,-0.09040806,0.75533485,219.95802,-72.06278,-0.9988717
2225045612000.0,-1.5461934684670977,8.758122853176113,3.2480527856219097,0.8002335,-0.04184427,0.68539083,219.98494,-72.21538,-0.9782825
2225050608000.0,-1.539754539647762,8.874212087325716,3.229250193458434,0.80878556,0.01038471,0.60231316,219.99184,-72.36482,-0.98515815
2225055522000.0,-1.4805528168466298,8.977815115106406,3.214449827151693,0.8390234,0.058337633,0.5338962,219.99219,-72.51904,-1.0092653
2225060505000.0,-1.4088075122252626,8.93255119939977,3.178630050304528,0.86254174,0.09590584,0.44623706,219.97475,-72.68244,-1.0588933
2225065839000.0,-1.3231361461558833,8.770226500838556,3.124521848839262,0.8738427,0.122478485,0.35308012,219.95444,-72.84409,-1.1291049
2225070513000.0,-1.2483913784162852,8.606573785818641,3.073943313431382,0.89949906,0.13927728,0.25686884,219.92352,-73.0249,-1.2023654
2225075611000.0,-1.1675514584201812,8.38307512213889,3.0121244400896074,0.89736104,0.18478674,0.16646078,219.88567,-73.19274,-1.300723
2225080517000.0,-1.0973204926605504,8.191654917431192,2.9586181850152906,0.9025534,0.22815818,0.089491755,219.84882,-73.36,-1.3956105
2225085503000.0,-1.046529421300359,8.061502815715995,2.9205249395027257,0.8915578,0.27000242,0.024740042,219.80685,-73.51368,-1.5116807
2225090627000.0,-0.9943325802153968,7.927748429597128,2.881377368302088,0.8677341,0.3023783,-0.043066,219.75047,-73.6737,-1.6344076
2225095524000.0,-0.9439441987853844,7.8150964252158195,2.850142172003614,0.8414669,0.31856623,-0.07086037,219.68962,-73.82205,-1.7619214
2225100656000.0,-0.8896749730475808,7.741093005822124,2.8353414366091148,0.8304713,0.34300083,-0.1133155,219.62465,-73.958435,-1.9108776
2225105493000.0,-0.8325418392284867,7.724815395825915,2.7905185525024727,0.820392,0.32925636,-0.14508049,219.5494,-74.087555,-2.0339556
2225110506000.0,-0.7565639484569733,7.857776568318497,2.657557181671612,0.8362745,0.3203988,-0.15302174,219.46835,-74.213905,-2.1608102
2225115653000.0,-0.6873209545333535,7.987791117516261,2.550132168733928,0.8857546,0.31887165,-0.129198,219.36992,-74.35997,-2.271643
2225120619000.0,-0.6441579713568295,8.095698406443805,2.524953775026471,0.95325524,0.2919936,-0.108123146,219.28288,-74.508766,-2.3795037
2225125579000.0,-0.6010471383814855,8.203475320072606,2.49980580225382,1.0283916,0.22327125,-0.07696902,219.20184,-74.71114,-2.4469123
2225130554000.0,-0.5495795747602554,8.299111896850308,2.452218130295486,1.0931433,0.16676621,-0.036651913,219.12447,-74.92327,-2.502559
2225135507000.0,-0.4931044973525273,8.386392237904534,2.390609061186276,1.1737776,0.115453534,0.021380283,219.06287,-75.15561,-2.537857
2225140678000.0,-0.5375645696923612,8.405174478056836,2.6393071289997394,1.2571607,0.025961773,0.07574729,219.02089,-75.423325,-2.5376964
2225145654000.0,-0.6121083750977666,8.40103307265143,2.974754177648388,1.2953397,-0.13744467,0.08674286,219.01501,-75.69298,-2.523828
2225150737000.0,-0.6918012012220206,8.394085984271022,3.2319260974591653,1.278541,-0.29657507,0.0729984,219.0242,-75.98867,-2.4799383
2225155510000.0,-0.7701508095281306,8.384868194192379,3.3886253044464607,1.2247849,-0.39920044,0.06566802,219.064,-76.276276,-2.4241576
2225160539000.0,-0.8303918781035264,8.35925166548817,3.490698684652344,1.1435398,-0.4642576,0.063224554,219.09303,-76.48692,-2.3833046
2225165611000.0,-0.865618851542018,8.315217546369324,3.52152224617895,1.0299188,-0.51159966,0.04184427,219.14844,-76.66605,-2.3442574
2225170913000.0,-0.8670062338659887,8.25882299101144,3.4828490808516435,0.9068295,-0.52503866,0.01038471,219.18619,-76.789505,-2.319946
2225175594000.0,-0.8018832302560378,8.189630126929362,3.315971515852552,0.7672467,-0.53786683,-0.02321288,219.23885,-76.872246,-2.2991138
2225180639000.0,-0.7291542694668502,8.118550804642927,3.1334754749360614,0.65484756,-0.5164866,-0.06658431,219.26833,-76.92463,-2.2956553
2225185506000.0,-0.6313426023017903,8.087984678601876,2.928682238959932,0.56779927,-0.46853364,-0.099265605,219.29543,-76.94318,-2.2991428
2225190676000.0,-0.5274415710210505,8.055515627516558,2.711139393265132,0.5204572,-0.4175264,-0.13133603,219.32474,-76.979126,-2.2996213
2225195768000.0,-0.4001019672678929,8.03070882599599,2.494303505378781,0.4905248,-0.34116822,-0.14630222,219.33447,-76.99448,-2.3087778
2225200606000.0,0.112864567982739,8.119568854066777,2.2479180539098595,0.51068336,-0.2947425,-0.13958271,219.33894,-77.010185,-2.321675
2225205487000.0,0.6303903345305553,8.209218667422196,1.9993427358817888,0.52839845,-0.20830505,-0.13103059,219.33002,-77.076904,-2.3094172
2225210521000.0,0.956345068307923,8.315875302424395,2.030417101224694,0.5665775,-0.18203785,-0.11636983,219.3248,-77.154015,-2.2928145
2225215650000.0,1.201880904138132,8.430459290427393,2.181830838806965,0.6047566,-0.1966986,-0.092240654,219.30687,-77.234985,-2.274273
2225220509000.0,1.4279081076528677,8.566539645081656,2.3231976560767187,0.65148777,-0.226631,-0.061086524,219.33687,-77.424095,-2.1510074
2225225610000.0,1.6505497575484238,8.77062759409419,2.466987106428029,0.6954701,-0.23396139,-0.020158553,219.36473,-77.61977,-2.0209818
2225230559000.0,1.825340047605437,8.95934617218543,2.608486570282329,0.711658,-0.20799962,0.021685716,219.40286,-77.81821,-1.8502595
2225235514000.0,1.8518039271453468,9.114821602649007,2.757345961777623,0.7156286,-0.17745635,0.06658431,219.44073,-78.021225,-1.6703203
2225240899000.0,1.8805643693900316,9.283789350993375,2.919123524482398,0.6927212,-0.14385876,0.103847094,219.48494,-78.224174,-1.4657116
2225245610000.0,1.8527300052889024,9.429606355243044,3.120159349831856,0.6417139,-0.13316862,0.122478485,219.52592,-78.41364,-1.2580308
2225250768000.0,1.7268837935493733,9.585655697747884,3.447359626505656,0.5946773,-0.1685988,0.12308934,219.56999,-78.590836,-1.0483388
2225255490000.0,1.6241530226133432,9.711736417895318,3.650822253151493,0.54275376,-0.19700404,0.1020145,219.60059,-78.73054,-0.8489347
2225260511000.0,1.5355331129008478,9.81808010597125,3.708425134316255,0.46181414,-0.18417588,0.07849618,219.62968,-78.84216,-0.6543685
2225265729000.0,1.4506802398551777,9.903275144967417,3.700966294974656,0.41141775,-0.11056661,0.06414085,219.62566,-78.90442,-0.50141054
2225270636000.0,1.3928317909630703,9.906678065966693,3.489989492418537,0.36774087,-0.0033597588,0.070249505,219.60873,-78.94221,-0.35460857
2225275604000.0,1.3342642152353368,9.91012328942795,3.276389990666184,0.32620203,0.13408493,0.07269296,219.55605,-78.95792,-0.23961739
2225280644000.0,1.2847997409189296,9.852439536206218,3.184609576534829,0.27855456,0.2501493,0.070554934,219.48003,-78.9578,-0.1313788
2225286381000.0,1.2415552125344351,9.706489217630851,3.244070669008265,0.24190263,0.29871312,0.076052725,219.38516,-78.94767,-0.026630906
2225290682000.0,1.2365048493609745,9.69398066589514,3.3404059346885377,0.20341812,0.39461896,0.074830994,219.24617,-78.9762,0.05912896
2225295654000.0,1.260463715014592,9.785024755660665,3.50811819440475,0.1994475,0.40622538,0.070249505,219.11963,-79.00226,0.1446943
2225300580000.0,1.320583096687794,10.012200464322223,3.694614993375588,0.20647246,0.3885103,0.06566802,218.97362,-79.0069,0.21349168
2225305523000.0,1.4270479491821713,10.413863429462276,3.907544698364343,0.2275473,0.3454443,0.082161374,218.83322,-79.01331,0.2854433
2225310481000.0,1.5620885934913793,10.995937244181034,4.0449954243534485,0.26633725,0.30024028,0.09010262,218.69931,-79.008125,0.3472011
2225315812000.0,1.7425379341896552,11.84536936301724,4.097809779224138,0.29871312,0.2751948,0.11759156,218.57193,-79.006195,0.41847748
2225320687000.0,1.9107029397395336,12.640474800971232,4.115594279758664,0.35338554,0.2843578,0.13439035,218.44687,-79.00739,0.4991599
2225325535000.0,2.0917568521227285,13.511582924288131,3.9994466369950703,0.39370266,0.31612277,0.16401732,218.32204,-79.01237,0.5889946
2225330544000.0,2.2788234872562727,14.411620174637628,3.87944178084762,0.39187005,0.3313944,0.1740966,218.21144,-79.05161,0.7051016
2225335507000.0,2.454337307765332,15.166594468388077,3.5927499769128537,0.32498032,0.36010507,0.19853121,218.08745,-79.079926,0.82697326
2225340778000.0,2.6268507228972853,15.77518330776533,3.05124944879438,0.20586158,0.42210788,0.24953845,217.94966,-79.088936,0.9524898
2225345535000.0,2.7197309065728184,16.045157872994512,2.524939376834696,0.051618114,0.5381723,0.31398472,217.8165,-79.13654,1.1159767
2225350562000.0,2.689831730059,15.761116502639478,1.8920740550046575,-0.07849618,0.67011917,0.3585779,217.66171,-79.15055,1.2766937
2225356449000.0,2.358863219374575,15.10672613800136,1.3606161498980285,-0.16737708,0.7684685,0.38515055,217.50922,-79.23525,1.4650849
2225360498000.0,1.9182640707293384,14.425115110808974,1.1459653178984168,-0.21777347,0.79259765,0.38545597,217.34348,-79.283806,1.645904
2225365759000.0,1.3978400818814825,13.816941009139043,0.9672575,-0.23182335,0.76174897,0.37720928,217.18266,-79.39668,1.821086
2225370555000.0,1.0080632795024298,13.713667165663306,0.9672575,-0.22296582,0.70524395,0.36651915,217.02841,-79.49073,1.9879034
2225375648000.0,0.5941489228476101,13.603997923623703,0.9672575,-0.18387043,0.6218608,0.37751472,216.87656,-79.593765,2.0897036
2225380508000.0,0.0661158830192131,13.445809048673375,0.9922465778774016,-0.14049901,0.52931476,0.3857614,216.74944,-79.69427,2.187852
2225385508000.0,-0.5735061663860934,13.244283888563588,1.0360563217017384,-0.077579886,0.47433686,0.38912117,216.63982,-79.80401,2.2870042
2225390942000.0,-1.163429171750285,12.993195934150512,1.109656568814139,-0.032986723,0.35277468,0.376293,216.55011,-79.92447,2.3140109
2225395601000.0,-1.5513594852836374,12.741995417260547,1.2018695075684152,0.077579886,0.3484986,0.34483343,216.44728,-80.07578,2.333402
2225400536000.0,-1.9622708605330672,12.47591373645952,1.2995451574401369,0.09896017,0.34330627,0.25595254,216.34123,-80.213684,2.2504737
2225405577000.0,-2.2697465111485067,12.259343291228438,1.3258509432057215,0.12644911,0.39400807,0.16982053,216.2245,-80.379036,2.15965
2225410498000.0,-2.49279388977703,12.085861479175431,1.3010679011358857,0.15485434,0.46028697,0.1151481,216.10948,-80.54719,2.0554228
2225415693000.0,-2.4676667744819474,11.830634613519138,1.5370710296081802,0.17379116,0.47769663,0.058643065,215.95456,-80.71188,1.849166
2225420622000.0,-2.3309796411546464,11.557260436069134,1.8745175684191475,0.17928895,0.46822822,0.0027488936,215.79262,-80.87345,1.6313822
2225425525000.0,-2.080443694164652,11.332805206813164,2.160556150541478,0.17104226,0.45570546,-0.04642576,215.61783,-81.021614,1.3817854
2225430564000.0,-1.6948299144779728,11.155219530123016,2.3990277924403323,0.16523905,0.41538838,-0.10323623,215.45732,-81.16248,1.122096
2225435499000.0,-1.312670069842277,11.063283690445976,2.5581115905094274,0.12675454,0.34513888,-0.15424347,215.29239,-81.23415,0.87295055
2225440689000.0,-0.9071836779822336,11.031746160532997,2.6662413734137056,0.07971791,0.21655174,-0.17928895,215.15749,-81.29188,0.6247425
2225445559000.0,-0.5087326448908113,11.124806437809896,2.6513550159299504,0.029321533,0.058643065,-0.18142697,215.05199,-81.30338,0.42528903
2225450675000.0,-0.0590480539508386,11.434933511129865,2.434265848718219,-0.0012217305,-0.08277224,-0.19211712,214.97961,-81.30124,0.22539847
2225455531000.0,0.2968263633605509,11.757109810132809,2.131625673821938,0.0070249503,-0.23457226,-0.20555615,214.9649,-81.289154,0.09057688
2225460508000.0,0.5828558410644367,12.118163863748157,1.7143039545302508,0.087659165,-0.4129449,-0.19058995,214.99579,-81.28698,-0.02885926
2225465697000.0,0.6731551793636106,12.30214523869323,1.2934032953734302,0.17592919,-0.5714644,-0.15607607,215.08794,-81.33298,-0.07820226
2225470594000.0,0.5181729573505807,12.253436017467662,0.9125898543291474,0.27000242,-0.66339964,-0.10873401,215.20816,-81.40234,-0.112657204
2225475515000.0,0.2908431383296664,12.096416014696825,0.5460406818533838,0.3576616,-0.7144069,-0.040011674,215.38081,-81.56105,-0.072138764
2225480524000.0,-0.0975455438669365,11.699584458681686,0.208311367304409,0.43463063,-0.7302894,0.0143553335,215.5656,-81.7394,-0.019488236
2225485636000.0,-0.49026974256153,11.294244328734912,-0.1132507306298793,0.50976706,-0.6966918,0.050701816,215.74588,-81.98286,0.03733211
2225490699000.0,-0.8247178709546951,10.88758558151748,-0.0866469046521398,0.56046885,-0.63071835,0.03634648,215.91968,-82.234535,0.09442911
2225495924000.0,-1.1698672825395828,10.467915039504623,-0.0591918403160369,0.58093286,-0.49205196,0.0067195175,216.04846,-82.52334,0.10209261
2225500612000.0,-1.4625404360655738,10.12998313434626,0.0735013220535786,0.5717699,-0.4550946,-0.021991149,216.18724,-82.81011,0.10860179
2225505559000.0,-1.7561570508196722,9.807952423230708,0.310288919255098,0.5503896,-0.40744713,-0.10476339,216.2865,-83.09121,0.08724717
2225510562000.0,-1.811952682729452,9.672329562949388,0.4041471832792894,0.4783075,-0.34116822,-0.18081611,216.34618,-83.32388,0.0022300566
2225515698000.0,-1.6177863946144089,9.731272639221768,0.348671106132807,0.39461896,-0.25625798,-0.26358834,216.38899,-83.53924,-0.1077719
2225520510000.0,-1.4358689143944734,9.786497343860145,0.2966946880586494,0.33414328,-0.1469131,-0.31978795,216.373,-83.69742,-0.27956587
2225525517000.0,-1.1033544044829509,9.858718708306236,0.243014923768466,0.28191432,-0.05009095,-0.36102137,216.33711,-83.8226,-0.46879017
2225530532000.0,-0.6928232102294899,9.939040016259408,0.1894673789203753,0.24465153,0.015882496,-0.39492437,216.27914,-83.92251,-0.6700619
2225535507000.0,-0.2701632722910216,9.994158972864687,0.1455182831141868,0.23579398,0.039095376,-0.42088616,216.22256,-84.02689,-0.8398616
2225540720000.0,0.1889801758513933,10.025980725505374,0.1091504830795847,0.27152961,0.024740042,-0.42332962,216.15775,-84.1233,-1.0094774
2225545539000.0,0.6048295710546914,10.023162856667645,0.0618524349347422,0.33261612,-0.0067195175,-0.40530908,216.11203,-84.24811,-1.1123729
2225550534000.0,1.016685696164759,9.948279884844927,-0.0177106744899716,0.39675698,-0.049785517,-0.35888332,216.07344,-84.37835,-1.2039846
2225555499000.0,1.389655660259025,9.850769907097696,-0.0852761608613094,0.46211955,-0.07452556,-0.3032946,216.06119,-84.55676,-1.2151868
2225560512000.0,1.658926404283092,9.684311826024883,-0.1195469868248011,0.52015173,-0.11575896,-0.24007004,216.06578,-84.74906,-1.2079623
2225565985000.0,1.870360682442015,9.5176467931009,-0.1257470510827301,0.552833,-0.1591304,-0.1826487,216.09955,-84.98989,-1.1264542
2225570583000.0,1.922402821768356,9.40055198810755,-0.0834628112668045,0.59589905,-0.21319197,-0.124005646,216.14874,-85.247574,-1.0257819
2225575504000.0,1.9781008138572904,9.275231514994829,-0.038208190967942,0.61850107,-0.28527406,-0.06963864,216.23552,-85.52436,-0.87688196
2225580512000.0,1.9832264925884544,9.196284846554937,-0.0060635279828677,0.623388,-0.3191771,-0.034208454,216.32834,-85.80204,-0.7180423
2225585516000.0,1.9519922141527,9.151664448789573,0.0162466867411545,0.6267477,-0.3368922,-0.01985312,216.43858,-86.07801,-0.55055076
2225590704000.0,1.8732732600612088,9.14638178462127,0.0090455759984697,0.6041457,-0.30085114,0.010079277,216.54948,-86.334816,-0.36602548
2225595701000.0,1.745122098221117,9.187573103194335,-0.0321458668305279,0.5699373,-0.2666427,0.036957346,216.66762,-86.57737,-0.18010382
2225600529000.0,1.6206136930763255,9.242299238201593,-0.0541929338006409,0.54733527,-0.23793201,0.04917465,216.77316,-86.805084,-0.001301151
2225605515000.0,1.4907827171392505,9.325762205573897,-0.044919296743154,0.52931476,-0.18845193,0.062308256,216.86465,-87.00964,0.18203507
2225610485000.0,1.3568188265852077,9.414121910858094,-0.0571230860896047,0.50762904,-0.14477506,0.080634214,216.94804,-87.19779,0.34532452
2225615722000.0,1.203613913459224,9.52090086503749,-0.1267617108615199,0.48899764,-0.10476339,0.08124508,217.02058,-87.36568,0.50434935
2225620607000.0,1.048325420314227,9.610531862466445,-0.1852892103015948,0.44929138,-0.039095376,0.07544186,217.0707,-87.515465,0.63480896
2225625534000.0,0.821080771115585,9.644060046897206,-0.2076411452415916,0.4260785,0.03176499,0.0720821,217.10991,-87.64876,0.76373506
2225630537000.0,0.5903308259276804,9.678105410547923,-0.2303378634280751,0.4202753,0.081855945,0.046120327,217.12973,-87.78231,0.8586261
2225635510000.0,0.4789073320651653,9.697182144513656,-0.2012469441303306,0.410196,0.12583824,0.036651913,217.13326,-87.89274,0.9550976
2225640676000.0,0.4457193589075228,9.706664118447533,-0.1348709978150455,0.3924809,0.14385876,0.026267206,217.13255,-87.9884,1.0422744
2225645828000.0,0.4843669712290445,9.730559717988276,-0.0378787709822071,0.38331795,0.160963,0.010995574,217.10524,-88.10122,1.0767591
2225650609000.0,0.5738401384140697,9.763523687750697,0.0751399631502622,0.3848451,0.16401732,0.01160644,217.07892,-88.200714,1.1125847
2225655507000.0,0.6875494626624405,9.743268436014263,0.1938013312935816,0.37934732,0.14202617,0.023823744,217.05717,-88.28747,1.1360936
