timestamp,acc_x,acc_y,acc_z,gyro_x,gyro_y,gyro_z,ori_azimuth,ori_pitch,ori_roll
7223298787000.0,1.035001435911182,10.206460357875452,1.126580692220904,-1.8090774,-5.854838,8.74026,316.25455,-15.276692,-28.738117
7223303787000.0,1.0290093096116208,10.200947616296006,1.1138773850664985,-1.8090774,0.7593055,0.03756821,318.34665,-13.994718,-31.290369
7223308865000.0,1.0229237061417866,10.19534887594792,1.100975906320484,-1.1878275,0.75961095,0.03390302,316.22098,-15.516151,-28.952112
7223313763000.0,1.0170538192187368,10.189948594296697,1.0885317466320283,-1.1881329,0.75594574,0.03970624,316.1673,-15.607097,-29.145767
7223318963000.0,1.0108220078671932,10.184215343054074,1.0753203071914466,-1.1914927,0.73853606,0.03573562,316.0907,-15.85146,-29.322123
7223323831000.0,1.0049880737019408,10.178848137852324,1.0629523673459171,-1.1691961,0.73548174,0.03726278,315.98364,-16.106388,-29.486446
7223328953000.0,0.9988497395206704,10.173200885378344,1.049939099496944,-1.1545353,0.72784597,0.035430185,315.85742,-16.360704,-29.63232
7223333820000.0,0.9930170037806776,10.16783478272491,1.0375737003128456,-1.1511755,0.7452556,0.03145956,315.70694,-16.62122,-29.771578
7223338762000.0,0.9870943861461916,10.162385988947786,1.0250177515214312,-1.1646146,0.7724391,0.037873644,315.53305,-16.886305,-29.898483
7223343818000.0,0.9810351480320756,10.156811504662652,1.0121721673268962,-1.2009611,0.8414669,0.064446285,315.32648,-17.21728,-30.042717
7223350084000.0,0.9735258153534656,10.149902936915293,0.996252382800995,-1.2843442,0.788627,0.0571159,315.11725,-17.533266,-30.15143
7223354724000.0,0.967965122147473,10.144787112729563,0.9844637137617066,-1.2696834,0.77274454,0.06352998,314.8624,-17.874418,-30.271996
7223358811000.0,0.9630671581102118,10.140280997762527,0.9740800304936954,-1.2822062,0.77518797,0.07422013,314.5937,-18.192587,-30.371798
7223363763000.0,0.9571325562231264,10.134821178502245,0.9614986750879722,-1.2935071,0.7742717,0.0852157,314.30786,-18.520088,-30.454323
7223368789000.0,0.951109270866808,10.129279770666589,0.9487293107363636,-1.3081679,0.7819075,0.092240654,314.0025,-18.849236,-30.527992
7223373788000.0,0.9451183429925069,10.123768131635456,0.9360285442433888,-1.325883,0.8026769,0.11026118,313.67395,-19.18271,-30.591747
7223378769000.0,0.939148986772884,10.118276338474011,0.92337350965617,-1.3399329,0.80878556,0.13775012,313.32742,-19.52044,-30.641308
7223383753000.0,0.9331760352774816,10.112781237667622,0.9107108530846584,-1.3573426,0.7690793,0.15027285,312.97058,-19.857782,-30.673683
7223388735000.0,0.927205480632599,10.107288341957863,0.8980532778360087,-1.2935071,0.71685034,0.15332718,312.5974,-20.218178,-30.692383
7223393784000.0,0.9211546314953024,10.10172157551094,0.8852254782714899,-1.1948525,0.6398814,0.15882497,312.2181,-20.588976,-30.68299
7223398782000.0,0.9151649020462612,10.096211039028129,0.8725272524399461,-1.0635164,0.54458636,0.16218472,311.83923,-20.986717,-30.645966
7223403789000.0,0.9091643867698808,10.09069057961047,0.8598061606555243,-0.9239337,0.45265114,0.17012598,311.46,-21.414934,-30.579872
7223408800000.0,0.9031590777924606,10.085165709999549,0.8470749062253791,-0.77457714,0.35705075,0.15882497,311.09338,-21.877302,-30.481794
7223413762000.0,0.8972124916527763,10.079694865256108,0.8344681442053469,-0.59528816,0.08735373,0.08735373,310.7764,-22.37442,-30.314102
7223419848000.0,0.8899188755209506,10.072984756205608,0.8190056787370044,-0.063224554,0.040317107,0.04917465,310.43103,-22.99739,-30.169254
7223423828000.0,0.8851491429865,10.068596613908367,0.8088938462420975,0.09712757,0.10445796,0.05009095,310.11697,-23.570593,-29.981573
7223428831000.0,0.8791534214111594,10.063080564683975,0.7961829171033993,0.106901415,0.1441642,0.03940081,309.82764,-24.2278,-29.775553
7223433810000.0,0.8731864620420564,10.057590976619164,0.7835329638390421,0.16798794,0.20433442,0.013744468,309.52866,-24.93314,-29.58602
7223438762000.0,0.8672518601549712,10.05213115735888,0.7709516084333188,0.23793201,0.2678644,-0.0027488936,309.22278,-25.641817,-29.400675
7223443918000.0,0.8610727795148639,10.046446418242155,0.7578519580956957,0.29810223,0.34208453,-0.019242255,308.91223,-26.357424,-29.229559
7223448856000.0,0.8551549555814175,10.041002034658298,0.7453061719500047,0.35277468,0.4175264,-0.04153884,308.59665,-27.083117,-29.070448
7223453775000.0,0.8492599017279093,10.03557859949244,0.7328086583715006,0.39614612,0.5103779,-0.062002823,308.2689,-27.815826,-28.928473
7223458803000.0,0.8432342195210708,10.03003498656015,0.7200342126970303,0.43249258,0.5684101,-0.07544186,307.93765,-28.554682,-28.790945
7223463760000.0,0.8372936255076859,10.024569654558286,0.7074401539841525,0.45448375,0.6731735,-0.07696902,307.583,-29.29577,-28.680174
7223468899000.0,0.8311349180969971,10.018903658762934,0.6943836948908544,0.46609017,0.77946407,-0.0842994,307.22168,-30.036308,-28.578194
7223473832000.0,0.8252230862898502,10.013464787920652,0.6818506120523178,0.4859433,0.87109387,-0.086132,306.8415,-30.780523,-28.488104
7223478800000.0,0.8192693095986064,10.007987327887315,0.6692286060637005,0.47647488,0.9425651,-0.10048734,306.44904,-31.512854,-28.412376
7223483809000.0,0.8132663974717063,10.002464663373027,0.6565024329564169,0.47769663,0.99173975,-0.10048734,306.03876,-32.24961,-28.34121
7223489411000.0,0.806552819165678,9.996288187707416,0.6422696476206209,0.45662177,1.010982,-0.10598512,305.6245,-32.97062,-28.273575
7223493771000.0,0.8013276850324609,9.99148107705014,0.6311923637819792,0.4447099,1.0128145,-0.100792766,305.20047,-33.690586,-28.201895
7223498775000.0,0.7953307650318602,9.985963925277431,0.61847889398185,0.43951756,0.981355,-0.0983493,304.78128,-34.400505,-28.119535
7223503756000.0,0.7893614088122375,9.980472132115988,0.6058238593946311,0.43982297,0.9260717,-0.102319926,304.3675,-35.10327,-28.024014
7223508751000.0,0.783375274638976,9.974964903278122,0.5931332555473798,0.44440445,0.86651236,-0.09101892,303.95807,-35.803185,-27.909403
7223513751000.0,0.777383148339415,9.969452161698678,0.5804299483929742,0.4392121,0.78038037,-0.08246681,303.5699,-36.49417,-27.771141
7223518800000.0,0.7713322992021183,9.963885395251754,0.5676021488284555,0.4538729,0.68966687,-0.067500606,303.1942,-37.18805,-27.609325
7223523778000.0,0.7653665382582754,9.958396909735258,0.5549547362255293,0.44532076,0.59498274,-0.064446285,302.84274,-37.86892,-27.42366
7223528743000.0,0.7594163568428113,9.952922757346869,0.5423403522212045,0.4474588,0.50762904,-0.044898596,302.50684,-38.55497,-27.209728
7223533816000.0,0.7629071298908632,9.945773839652045,0.5347486865297696,0.43799037,0.43401974,-0.024129177,302.1932,-39.23101,-26.974442
7223538766000.0,0.7745466617750518,9.937459895393005,0.5318981888748585,0.41080686,0.36743546,-0.005192355,301.89935,-39.900227,-26.716278
7223543846000.0,0.7864918783349869,9.928927605123118,0.5289728296653738,0.39553526,0.32803464,0.016798794,301.5959,-40.586918,-26.478172
7223548832000.0,0.7982160613601514,9.92055319581492,0.526101601118427,0.3652974,0.29993483,0.049480084,301.30447,-41.263313,-26.219227
7223554653000.0,0.8119036805718408,9.910776333283223,0.5227495310478739,0.3200934,0.2733622,0.06994407,301.02588,-41.928703,-25.947733
7223559086000.0,0.822327528014792,9.90333073431346,0.5201967520369202,0.27977628,0.2556471,0.086437434,300.75204,-42.587288,-25.663902
7223563766000.0,0.8333321763416613,9.895470277923094,0.5175017360722769,0.24251351,0.25717425,0.09712757,300.4834,-43.232742,-25.37346
7223568851000.0,0.8452891500045098,9.886929589729714,0.5145734975722318,0.2275473,0.26358834,0.109650314,300.2206,-43.871273,-25.074955
7223573828000.0,0.8569921702444304,9.878570296683804,0.5117074517482938,0.18906279,0.2846632,0.106901415,299.96146,-44.489033,-24.779116
7223578802000.0,0.868688136222603,9.870216042391991,0.5088431334986921,0.17928895,0.3118467,0.09407325,299.70526,-45.104385,-24.483929
7223583816000.0,0.8804781590240822,9.861794604712228,0.5059557809246065,0.1704314,0.35521814,0.09468412,299.4442,-45.7068,-24.192152
7223588765000.0,0.8921153394876883,9.853482340037882,0.5031058591278074,0.15882497,0.37782016,0.09162979,299.1911,-46.297474,-23.90434
7223593764000.0,0.9038700909804276,9.8450860961286,0.5002271444254032,0.16340645,0.41508293,0.0888809,298.9296,-46.88386,-23.625725
7223598802000.0,0.9157165478758906,9.836624348416064,0.4973259712566269,0.15393804,0.44776422,0.09010262,298.66946,-47.458252,-23.349285
7223603793000.0,0.9274524880039686,9.82824154118437,0.4944518634191195,0.13347405,0.45631635,0.087964594,298.41315,-48.02385,-23.075834
7223608799000.0,0.9392236994407864,9.819833540182197,0.4915691177099305,0.11911872,0.46089783,0.07880162,298.1565,-48.581383,-22.80803
7223613787000.0,0.9509525853071163,9.8114557717046,0.4886967374467595,0.0852157,0.45448375,0.0720821,297.90616,-49.123363,-22.539389
7223618850000.0,0.9628578277171462,9.802952034374592,0.4857811678251806,0.03634648,0.44104472,0.05497787,297.66556,-49.648952,-22.27478
7223623895000.0,0.974720744556688,9.794478529569163,0.4828759636496197,-0.011301007,0.41386122,0.045814894,297.43536,-50.16091,-22.006752
7223628797000.0,0.9862474082529088,9.786245205375666,0.4800531071840895,-0.040011674,0.36926803,0.041233405,297.22058,-50.657753,-21.737156
7223633878000.0,0.9981949762334266,9.777711235521082,0.4771271721164928,-0.064446285,0.32528573,0.03756821,297.01923,-51.137173,-21.466106
7223638844000.0,1.0098721308469378,9.769370417906858,0.474267460731788,-0.06841691,0.28099802,0.027183503,296.8364,-51.60692,-21.191864
7223643995000.0,1.021984298268242,9.760718877123358,0.4713012155963441,-0.064751714,0.23518312,0.01985312,296.67035,-52.066822,-20.912231
7223648809000.0,1.0333040369531885,9.752633356383352,0.468529034644679,-0.04642576,0.18081611,0.018325957,296.52362,-52.52265,-20.627409
7223653677000.0,1.044750752349599,9.744457138069611,0.4657257573549603,-0.0290161,0.1554652,0.0033597588,296.38934,-52.96987,-20.347172
7223658671000.0,1.0564937467394246,9.736069292083824,0.4628499219431166,-0.01282817,0.083383106,0.009162978,296.28296,-53.418392,-20.04947
7223663642000.0,1.0681826584558491,9.727720076546106,0.4599873312678513,0.021685716,0.017715093,0.0012217305,296.1907,-53.864685,-19.758614
7223668718000.0,1.0801184693334536,9.719194504615016,0.4570642754908151,0.051618114,-0.037873644,-0.011301007,296.11893,-54.307964,-19.461315
7223674131000.0,1.092846708947416,9.71010291264043,0.4539471555300001,0.062002823,-0.09407325,-0.01282817,296.06845,-54.749233,-19.156872
7223678640000.0,1.1034492643546496,9.702529665233556,0.4513506113025265,0.08307768,-0.113926366,-0.014660766,296.02936,-55.1919,-18.856277
7223683661000.0,1.1152557471002074,9.6940964704609,0.448459227721656,0.09987647,-0.11575896,-0.018325957,296.005,-55.62939,-18.554712
7223688649000.0,1.1269846329665374,9.685718701983305,0.4455868474584849,0.09407325,-0.11575896,-0.018325957,295.9892,-56.06068,-18.253916
7223693689000.0,1.1388357927031658,9.67725359510137,0.4426845225734844,0.108123146,-0.09010262,-0.021380283,295.97217,-56.49342,-17.961895
7223698684000.0,1.1505811385135745,9.668864069530882,0.4398081113035287,0.11484267,-0.05131268,-0.03268129,295.95673,-56.915634,-17.677496
7223703713000.0,1.1624064326237935,9.660417438080636,0.4369121208577614,0.13408493,-0.004276057,-0.043982297,295.93652,-57.33758,-17.402159
7223708721000.0,1.174182346901777,9.652006077909062,0.4340282234323482,0.14294247,0.03023783,-0.053450707,295.91434,-57.751102,-17.13625
7223713698000.0,1.1858853671416976,9.643646784863153,0.4311621776084102,0.15882497,0.049785517,-0.06414085,295.88895,-58.162865,-16.881104
7223718764000.0,1.1977976638134753,9.63513800877905,0.4282448804124951,0.16432275,0.051923547,-0.058643065,295.86157,-58.569298,-16.629698
7223723751000.0,1.2095241982592224,9.626761919886151,0.4253730760074361,0.17989981,0.04734206,-0.05681047,295.83618,-58.973686,-16.386702
7223728719000.0,1.2212060557138993,9.618417743102532,0.4225122129065071,0.19150625,0.028099801,-0.04550946,295.8154,-59.37479,-16.141386
7223733717000.0,1.2923116532699974,9.65450980108576,0.0323461892442107,0.19333886,0.004276057,-0.03940081,295.80084,-59.770744,-15.89893
7223738700000.0,1.401606143650861,9.71927696598524,-0.6072291942912884,0.2012801,-0.032070424,-0.021380283,295.79495,-60.16853,-15.649792
7223744389000.0,1.5108700915537017,9.793337841100506,-0.9579603148070908,0.20830505,-0.05222898,0.0033597588,295.80338,-60.59079,-15.338893
7223748755000.0,1.5712392606882168,9.850353241437396,-0.6527607528675704,0.20677789,-0.067500606,0.020463986,295.8219,-61.00868,-15.025487
7223753668000.0,1.6391718598540146,9.914511890510948,-0.3093238660583942,0.21288654,-0.07238753,0.034513887,295.76846,-61.576073,-14.700588
7223758805000.0,1.6191388924184051,9.968797595260597,-0.0481583084727774,0.21410827,-0.09132435,0.061391957,295.72467,-62.139233,-14.36712
7223763714000.0,1.5712958933197645,10.016640451624628,0.1705523717387512,0.22174409,-0.09040806,0.0870483,295.68073,-62.700058,-14.034949
7223768994000.0,1.5111191422158947,10.066406964575831,0.3616553863730005,0.22815818,-0.063224554,0.10781772,295.69586,-63.208508,-13.6389265
7223773836000.0,1.3208358005527174,10.0858236238171,-0.1470614425826983,0.23335053,-0.013133603,0.122783914,295.70645,-63.713356,-13.245888
7223778734000.0,1.1283517428356085,10.105464845825308,-0.6616618201591158,0.22571471,0.04886922,0.13744467,295.76065,-64.16658,-12.824158
7223783805000.0,1.0002789751691517,10.103613396566846,-0.7954503363112392,0.19639318,0.11911872,0.15454891,295.80017,-64.60923,-12.411527
7223788831000.0,0.9158456293240196,10.088536026312491,-0.689908681556196,0.16920967,0.19425514,0.15241088,295.82498,-65.04087,-12.014438
7223793794000.0,0.8324706401816815,10.07364764816439,-0.585689972334294,0.13439035,0.2751948,0.15271631,295.7678,-65.556625,-11.678891
7223798752000.0,0.7308322539130009,10.061189406093858,-0.5206726249926521,0.09560041,0.3463606,0.13713925,295.70047,-66.05318,-11.358573
7223803943000.0,0.5993287327931811,10.051448207504654,-0.5060611068237484,0.067500606,0.40744713,0.13988814,295.6173,-66.53757,-11.043996
7223808709000.0,0.5078358820069204,10.03662571799308,-0.5042901243079585,0.024740042,0.45356745,0.1414153,295.57733,-66.96506,-10.7159605
7223813751000.0,0.4577117200484429,10.011563575951556,-0.5209981826557094,-0.005497787,0.47158796,0.14172074,295.5329,-67.380356,-10.395102
7223818788000.0,0.4002911920303534,9.985638310938368,-0.5366725380714418,-0.0067195175,0.48472157,0.13164146,295.5306,-67.78196,-10.046208
7223823763000.0,0.2636094434647418,9.950365809550249,-0.5410816237645752,-0.024740042,0.46731192,0.13164146,295.53503,-68.16413,-9.698778
7223828721000.0,0.1273947481103091,9.915213837312605,-0.5454756432352397,-0.032070424,0.41172317,0.13041973,295.6204,-68.55498,-9.275893
7223833749000.0,0.0352317168230562,9.895218265224052,-0.4955474891037916,-0.021685716,0.3436117,0.118507855,295.71844,-68.933876,-8.861218
7223838723000.0,-0.0514271980965147,9.87697439142091,-0.4408155343163539,-0.0021380284,0.26511553,0.121256754,295.8366,-69.30452,-8.444929
7223843814000.0,-0.1044505969734168,9.853280880545208,-0.4309563,0.025045475,0.17959438,0.11453723,296.08185,-69.68252,-7.9259167
7223848773000.0,-0.1486772487114798,9.829157184388755,-0.4309563,0.058948494,0.089186326,0.10629055,296.3512,-70.05411,-7.41194
7223853751000.0,-0.1916914906450367,9.805499800309,-0.4352471865971418,0.10262536,0.040317107,0.094989546,296.80817,-70.44657,-6.6945724
7223858744000.0,-0.2332473916927385,9.782413202008495,-0.4444818403814214,0.12003502,-0.035430185,0.0852157,297.29327,-70.81813,-5.99304
7223863746000.0,-0.2625040057986802,9.75262216350686,-0.442249460454593,0.14813483,-0.08674286,0.07544186,298.02844,-71.23159,-4.9846716
7223868793000.0,-0.2726295290635802,9.712120345344088,-0.4219984192112705,0.1731803,-0.14202617,0.06688975,298.76965,-71.607056,-4.0179973
7223873816000.0,-0.2560989769750278,9.662891025679912,-0.4093995238378323,0.1872302,-0.1731803,0.06352998,299.9119,-72.00607,-2.530111
7223878762000.0,-0.2129989849196239,9.605424216257203,-0.4046106397209584,0.18692477,-0.18753563,0.06047566,301.01913,-72.32011,-1.1396139
7223884091000.0,-0.1647251542944676,9.564620200959062,-0.4071006047065091,0.17898351,-0.18875736,0.053145275,302.39066,-72.594475,0.6310402
7223888752000.0,-0.1211222381173963,9.544800706775598,-0.4150284106580232,0.1731803,-0.16523905,0.05222898,303.68973,-72.74636,2.2565637
7223893732000.0,-0.0732247764472982,9.531280590042478,-0.4143068726523758,0.15760323,-0.14049901,0.0571159,304.59747,-72.904335,3.4120271
7223898778000.0,-0.0207136400051368,9.54082826207646,-0.3856644347742764,0.13622294,-0.12064589,0.047647487,305.47858,-73.00083,4.4932723
7223903749000.0,0.021247507250863,9.561687253164555,-0.3555430861219792,0.11362094,-0.10323623,0.04795292,306.3435,-73.03789,5.5437245
7223908762000.0,0.0304551273092635,9.62153655063291,-0.3187126020425777,0.09132435,-0.096516706,0.04917465,307.18643,-73.02411,6.5302243
7223913795000.0,0.0389229889976249,9.684274458987192,-0.2848411513665281,0.065973446,-0.106595986,0.05589417,308.04175,-72.94434,7.5057955
7223918831000.0,0.0430139882325048,9.762003318432436,-0.2684771501552294,0.040011674,-0.11575896,0.052839845,308.8764,-72.82682,8.422397
7223923808000.0,0.0470570587630842,9.838821533972348,-0.2523048638111799,0.012217305,-0.1414153,0.05681047,309.72293,-72.65977,9.318081
7223928817000.0,0.0925217406917761,9.93265000807786,-0.2155186946958637,0.0143553335,-0.16523905,0.048258353,310.55518,-72.4756,10.158895
7223933723000.0,0.147393351526618,10.028675349002434,-0.1743649942092457,-0.0030543262,-0.20189096,0.042455133,311.38177,-72.26439,10.956812
7223938802000.0,0.1960145228717323,10.12206457106718,-0.1129925049427527,0.019547688,-0.24495697,0.056505036,312.2162,-72.04257,11.732228
7223943809000.0,0.2409419684212498,10.211919415253442,-0.0456013220755176,0.03023783,-0.27763826,0.050701816,313.0458,-71.81172,12.458771
7223948840000.0,0.2498419885207528,10.232214188580652,-0.0091744340873444,0.055283304,-0.31398472,0.05955936,313.8929,-71.56085,13.178653
7223954649000.0,0.2332983099124856,10.203853514890184,0.0097326292240112,0.087659165,-0.3399465,0.06963864,314.73312,-71.312775,13.857064
7223958795000.0,0.2214907541352648,10.183611932325077,0.0232269801430816,0.11453723,-0.35246924,0.06719518,315.60892,-71.034966,14.541372
7223963794000.0,0.2072539062504779,10.159205836993925,0.0394976651996261,0.118507855,-0.3680463,0.06811147,316.47754,-70.759796,15.189269
7223969375000.0,0.1916942136031239,10.131734055023074,0.0573027563968761,0.12705997,-0.36377025,0.0693332,317.32547,-70.499405,15.789035
7223973790000.0,0.2029512959868654,10.094210473198435,0.0460456740131345,0.1142318,-0.35643986,0.070249505,318.16434,-70.242355,16.353558
7223978910000.0,0.2160059419222577,10.050695017039404,0.0329910280777422,0.09743301,-0.32895094,0.06414085,318.99026,-69.98838,16.887878
7223983808000.0,0.2423343350198918,10.017577868560643,-0.0027949867010099,0.07880162,-0.2959642,0.06627888,319.8003,-69.73857,17.391954
7223988802000.0,0.2764857197082526,9.988305427777211,-0.0515826783851882,0.03145956,-0.26175576,0.058643065,320.59177,-69.495544,17.860136
7223993767000.0,0.2873042,9.99026640018204,-0.0810799240542649,-0.0027488936,-0.21166481,0.05009095,321.36282,-69.25353,18.313004
7223999762000.0,0.2873042,10.010173947208738,-0.1059641785488904,-0.03176499,-0.16493362,0.058948494,322.11423,-69.01383,18.740286
7224003771000.0,0.3006799366239086,10.013518284574756,-0.1435839650695267,-0.0870483,-0.12217305,0.04642576,322.8346,-68.788864,19.13008
7224008817000.0,0.3371434520232834,10.0030999290719,-0.2217200485167618,-0.122783914,-0.098043874,0.04153884,323.53735,-68.56905,19.50053
7224013793000.0,0.3663186319356393,9.976627869544272,-0.2849226797639464,-0.13255776,-0.07971791,0.029626964,324.2183,-68.36699,19.83745
7224018805000.0,0.3894417370748627,9.935006394257636,-0.3357935332835533,-0.15210545,-0.09254608,0.028405234,324.89386,-68.16872,20.156881
7224023799000.0,0.3824304346784922,9.86783598984336,-0.3989413770688792,-0.15393804,-0.13194689,0.015882496,325.5588,-67.99209,20.450266
7224028816000.0,0.3377548839911308,9.768175281811027,-0.4779827497789858,-0.14202617,-0.17440203,0.010995574,326.22223,-67.82245,20.729193
7224033715000.0,0.2941301036807096,9.670858596809955,-0.5551650668821974,-0.14049901,-0.23060162,0.009773844,326.89154,-67.66388,20.992191
7224038797000.0,0.2331207899209328,9.609486567207092,-0.613922974877406,-0.13713925,-0.29840767,0.008552114,327.57205,-67.51652,21.240429
7224043839000.0,0.1637051948534462,9.570922374570722,-0.6602000302020605,-0.122783914,-0.34422258,0.0143553335,328.2574,-67.377174,21.476479
7224048819000.0,0.0917610598396873,9.539631948715904,-0.7053328165145956,-0.10873401,-0.37018433,0.017715093,328.92178,-67.275604,21.669489
7224053778000.0,0.0008539556899026,9.547207297814644,-0.7469985654968894,-0.11453723,-0.4098906,0.018020526,329.60065,-67.17905,21.853304
7224058746000.0,-0.0902181341298452,9.554796395278354,-0.7887399328983888,-0.090713486,-0.41386122,0.02687807,330.25607,-67.11372,22.00203
7224063793000.0,-0.165133569054257,9.585589649833056,-0.850166228245409,-0.063224554,-0.39767328,0.028710667,330.91476,-67.05495,22.139309
7224069827000.0,-0.2423108013530884,9.638649059682804,-0.9369906227662772,-0.047647487,-0.3381139,0.015882496,331.55835,-67.00357,22.263704
7224073752000.0,-0.2678379504888745,9.68907014649992,-0.9948151224135132,0.004581489,-0.30451632,0.01160644,332.18353,-66.99315,22.344736
7224079014000.0,-0.2228221344615884,9.807748031346437,-1.076662083953224,0.013744468,-0.21960606,0.0033597588,332.7727,-66.98864,22.410425
7224083712000.0,-0.1826312747701803,9.913705595582265,-1.1497363951112556,0.050701816,-0.16279559,-0.009773844,333.34717,-67.02396,22.436033
7224088794000.0,-0.1077831500402917,9.950415101076764,-1.171600466238277,0.07727446,-0.12064589,-0.005192355,333.89767,-67.05789,22.457247
7224093812000.0,-0.0243228929708232,9.962934392323724,-1.175773476172282,0.1001819,-0.07971791,-0.008246681,334.42947,-67.1007,22.466269
7224098817000.0,0.0810404915218146,9.973876349710425,-1.1580550800868723,0.10842858,-0.058948494,-0.0070249503,334.9485,-67.15133,22.466091
7224103822000.0,0.2105862138123552,9.98312931930502,-1.1164153642084942,0.12095132,-0.04734206,-0.008552114,335.45554,-67.20525,22.459366
7224113799000.0,0.3838599438831719,9.978445562575663,-1.0460190457854115,0.1423316,-0.056505036,0.005192355,335.96988,-67.23323,22.476963
7224118761000.0,0.4521772975332929,9.971254492206416,-1.013658177852603,0.18448131,-0.065973446,0.024740042,336.4778,-67.26196,22.490889
7224123838000.0,0.4998417083535875,9.957224798734808,-0.9841599700682536,0.20769419,-0.08093964,0.032070424,337.0064,-67.25147,22.54206
7224128832000.0,0.5396507471017147,9.941301279673713,-0.9562936454386548,0.24404067,-0.090713486,0.040317107,337.5321,-67.23905,22.59263
7224133767000.0,0.5751280713178294,9.928624829457364,-0.9233823311627908,0.27763826,-0.07727446,0.048563786,338.06708,-67.19584,22.670797
7224139579000.0,0.6086407448182434,9.920246486114246,-0.8731132815443666,0.3231477,-0.040927973,0.06536258,338.59283,-67.15202,22.745852
7224143755000.0,0.6327200504854369,9.914226533980582,-0.8369942947572815,0.364992,-0.02107485,0.070249505,339.12885,-67.089806,22.835785
7224148854000.0,0.6739750761299802,9.903178110362113,-0.864751460798548,0.40469822,0.028710667,0.0720821,339.63864,-67.02788,22.920734
7224154798000.0,0.7280905445942443,9.888419565724655,-0.9336256999274049,0.4156938,0.14569137,0.07849618,340.11584,-66.96661,22.999928
7224158806000.0,0.7663044620684117,9.862465671912638,-0.9755086046410792,0.4633413,0.1966986,0.07696902,340.60645,-66.8896,23.091805
7224163813000.0,0.8163577774289384,9.808561823189336,-1.0217116680664846,0.4868596,0.3100141,0.0842994,341.0354,-66.81164,23.179373
7224168856000.0,0.8667709728280071,9.754270409346397,-1.0682469284727798,0.52870387,0.41874814,0.08735373,341.44064,-66.73427,23.263042
7224173877000.0,0.8962000642701834,9.6791757701834,-0.9655228447948572,0.56230146,0.50243664,0.07727446,341.81317,-66.66129,23.338583
7224178723000.0,0.9225240649413876,9.604591441387786,-0.8514521645301569,0.5946773,0.52748215,0.08002335,342.16516,-113.413826,23.412977
7224183802000.0,0.9253550281075352,9.546836484100984,-0.6078919000423973,0.6035349,0.5021312,0.076358154,342.49326,-113.48943,23.484715
7224188715000.0,0.9208213204181924,9.496965604837156,-0.3358692540537675,0.5946773,0.42577308,0.06841691,342.82532,-113.56299,23.55131
7224193851000.0,0.8500416051433809,9.536951736676706,-0.0812586455381694,0.5852089,0.34147367,0.06261369,343.18436,-113.667015,23.64555
7224198912000.0,0.7516708547034175,9.616282928244075,0.1567350915241587,0.54519725,0.25961772,0.057726767,343.56073,-113.764694,23.731047
7224203821000.0,0.6562545310697918,9.693231519313867,0.3875810222174939,0.5036584,0.20891592,0.04642576,343.9933,-113.90378,23.856487
7224209246000.0,0.5545780341021258,9.83364959416729,0.4466253854075419,0.45570546,0.1853976,0.040927973,344.43408,-114.03389,23.971735
7224213761000.0,0.4714344610330093,9.97222213556244,0.4189108578357013,0.3998113,0.22082779,0.017104227,344.8636,-114.146255,24.069048
7224218758000.0,0.3944742528173402,10.060126016823927,0.4052573114402706,0.32986724,0.28405234,0.0033597588,345.32825,-114.259315,24.16983
7224223831000.0,0.3209551618176963,10.129320490475344,0.396608013523233,0.27275133,0.3839288,-0.020158553,345.76038,-114.35098,24.250721
7224228915000.0,0.2657290459522838,10.193354540986949,0.4411931787194127,0.23182335,0.48930305,-0.045814894,346.14966,-114.38898,24.279865
7224233819000.0,0.2274218209522838,10.250815040986948,0.5273844387194127,0.18234327,0.5757405,-0.062308256,346.50754,-114.414246,24.298962
7224238794000.0,0.2239205535365259,10.25739004857115,0.6153086600702233,0.14844026,0.6533204,-0.0842994,346.8281,-114.40108,24.281492
7224243811000.0,0.2473511717302252,10.224587490393056,0.7043450209499659,0.103847094,0.68600166,-0.103847094,347.13187,-114.37808,24.256395
7224248825000.0,0.270348238635222,10.169627805368076,0.7607277804159472,0.06414085,0.73731434,-0.1160644,347.40054,-114.33452,24.214024
7224253806000.0,0.2928103712556898,10.094754095118509,0.7869336024580129,0.03848451,0.7828238,-0.13103059,347.6582,-114.28107,24.16284
7224259138000.0,0.3197388418701978,10.01306590093183,0.8150258503776361,-0.010079277,0.8054258,-0.16279559,347.9181,-114.236755,24.122423
7224263804000.0,0.4147053212457087,9.903489273173124,0.840593745443845,-0.047036625,0.82986045,-0.16523905,348.16122,-114.193115,24.083445
7224268817000.0,0.5167342456154977,9.785763676311918,0.8680630677685139,-0.09712757,0.84574294,-0.17348573,348.39673,-114.148674,24.044867
7224273789000.0,0.5871168990929705,9.707950777777778,0.8319877888888889,-0.14019357,0.86529064,-0.18020524,348.62177,-114.10041,24.00319
7224278902000.0,0.6305652000788722,9.664502628019324,0.735436070531401,-0.19181168,0.87872964,-0.18081611,348.84244,-114.04766,23.958113
7224283808000.0,0.6617442867187501,9.608072197265626,0.6242974540039062,-0.25992316,0.88361657,-0.17989981,349.08054,-114.04257,23.960835
7224288765000.0,0.6828168176136363,9.536425416193184,0.4936476656392045,-0.30482176,0.8897252,-0.17837265,349.31137,-114.0323,23.958569
7224293790000.0,0.6980770530196503,9.468680846989365,0.3638133441184424,-0.3472769,0.9101892,-0.18142697,349.52298,-114.01664,23.95141
7224298772000.0,0.6937763844059852,9.41707286853254,0.2433945376122228,-0.40286562,0.9184359,-0.18020524,349.73502,-113.998184,23.941753
7224303993000.0,0.6841912082842786,9.361371801199876,0.1203460195155368,-0.44623706,0.92179567,-0.17837265,349.9099,-113.960846,23.912785
7224308817000.0,0.5989103684278535,9.285566334273408,0.0540164909822582,-0.473726,0.93218035,-0.17531833,350.08014,-113.92238,23.882526
7224313764000.0,0.5125504450129199,9.211355635857682,-0.0126415376207513,-0.48380527,0.926988,-0.16920967,350.23044,-113.86754,23.835073
7224318831000.0,0.4402104440826873,9.187242315643012,-0.0608682148112701,-0.48380527,0.9080512,-0.16584991,350.3828,-113.81278,23.786951
7224324840000.0,0.3588825888888889,9.154566241148638,-0.1136950925305922,-0.47769663,0.8732319,-0.16218472,350.5232,-113.73488,23.714848
7224328785000.0,0.3157330555555556,9.123745164300864,-0.1383519701003426,-0.4728097,0.8304713,-0.16126843,350.6734,-113.65826,23.643034
7224333809000.0,0.26078166,9.08449419089574,-0.1697527693171806,-0.45540005,0.79320854,-0.16065755,350.82474,-113.56469,23.553343
7224338745000.0,0.2103423806995465,9.011080335153142,-0.203106815381697,-0.43096542,0.7528914,-0.15363261,350.99167,-113.47464,23.46627
7224343805000.0,0.161018322885167,8.912432107152771,-0.2389788489155177,-0.41691554,0.73273283,-0.15302174,351.16492,-113.384056,23.378048
7224348836000.0,0.1066672245669875,8.81058197522487,-0.2962598725130188,-0.41813725,0.68600166,-0.15088372,351.34598,-113.27762,23.273455
7224353730000.0,0.0474986664861922,8.707037230077324,-0.3776166372676345,-0.40958515,0.6618725,-0.14508049,351.52716,-113.17388,23.171074
7224358782000.0,-0.0135801147610856,8.60014960186208,-0.4615999587920151,-0.41080686,0.6383542,-0.14080444,351.71338,-113.06179,23.06008
7224363745000.0,-0.0400628215724539,8.62803245800194,-0.4608998476256062,-0.42852196,0.6188065,-0.14538592,351.90662,-112.95007,22.949158
7224368792000.0,-0.0635032415231813,8.6702250842871,-0.4515236915897187,-0.43585235,0.5873469,-0.15149458,352.11142,-112.840256,22.839842
7224373789000.0,-0.0591711844339732,8.822116640488655,-0.4579763840663176,-0.4392121,0.5519168,-0.16035213,352.3,-112.70682,22.706724
7224378832000.0,-0.0498060791815008,8.995371120418849,-0.4673414756282722,-0.43554693,0.4972443,-0.16432275,352.505,-112.574715,22.574715
7224383814000.0,-0.0244841061279888,9.147928549949702,-0.4780384954089607,-0.4111123,0.4541783,-0.16982053,352.71176,-67.57088,22.429045
7224388766000.0,0.0048739969675771,9.294718965797417,-0.489047788093322,-0.3640757,0.40469822,-0.16310102,352.93787,-67.71245,22.287308
7224394831000.0,0.034469755149261,9.465655060291672,-0.5132988430654791,-0.32253686,0.35918877,-0.1563815,353.17578,-67.86626,22.133287
7224398790000.0,0.0456025468474111,9.565850270823136,-0.5429862863022414,-0.28221974,0.32284227,-0.16035213,353.426,-68.019684,21.979736
7224403795000.0,0.0671406436625555,9.68597776428219,-0.5760976025969413,-0.24740042,0.32070425,-0.16218472,353.67764,-68.178,21.82133
7224408805000.0,0.1286835578115441,9.77119077069561,-0.5855657561637888,-0.24831672,0.33017266,-0.16554448,353.9362,-68.33631,21.66296
7224413790000.0,0.1882214601069626,9.847461902522705,-0.5893785495136226,-0.24770586,0.37018433,-0.14935656,354.1782,-68.500435,21.498772
7224418806000.0,0.2366949857497477,9.866851703531786,-0.5554470861190717,-0.27397305,0.4196644,-0.15302174,354.41364,-68.66909,21.329967
7224423768000.0,0.2832605806899334,9.885339912245309,-0.5177329797538833,-0.28955013,0.47036624,-0.14202617,354.63452,-68.82253,21.176327
7224428776000.0,0.3219619338955013,9.899852706273956,-0.4548432694290901,-0.31673363,0.5045747,-0.13958271,354.84467,-68.97725,21.021248
7224433751000.0,0.3562534860383116,9.914543821410408,-0.395853789213426,-0.36377025,0.52015173,-0.13408493,355.04266,-69.11907,20.878729
7224438749000.0,0.3684245776809629,9.930771858874383,-0.3552834583200542,-0.40591997,0.5177083,-0.115453534,355.23523,-69.25427,20.742584
7224445229000.0,0.3818744086595534,9.953496274410472,-0.3040621152344661,-0.4092797,0.5015204,-0.10140363,355.42642,-69.38065,20.614864
7224448768000.0,0.3727578583502197,9.977807106966736,-0.2858289987501121,-0.41447207,0.4886922,-0.09987647,355.61697,-69.50335,20.49034
7224454066000.0,0.3591100811422935,10.01420122702412,-0.2585334205828028,-0.4147775,0.4465425,-0.095294975,355.81934,-69.61876,20.372776
7224458805000.0,0.328584559708641,10.014037879631475,-0.287632919476485,-0.39920044,0.4083634,-0.07849618,356.02377,-69.72896,20.260311
7224464631000.0,0.2766240224865296,9.988057671090267,-0.3655737233719151,-0.36254853,0.37598756,-0.04337143,356.2385,-69.831665,20.155495
7224468805000.0,0.239397231829974,9.969444318798644,-0.4214139079684693,-0.30695978,0.37965274,-0.028099801,356.4486,-69.942314,20.042618
7224473789000.0,0.2152805699165597,9.830243481386391,-0.4875047897368421,-0.2837469,0.4098906,-0.002443461,356.6592,-70.03932,19.943352
7224478809000.0,0.2064642190821566,9.601018295250322,-0.5536274371052632,-0.2489276,0.47586402,0.015882496,356.85657,-70.134315,19.846657
7224483731000.0,0.1936980002202339,9.37908484514797,-0.57646051169649,-0.23182335,0.5739079,0.016798794,357.0191,-70.24698,19.731823
7224488757000.0,0.1738220069759119,9.157136270061942,-0.5300831883613214,-0.24465153,0.64934975,0.01985312,357.16776,-70.35261,19.623833
7224493830000.0,0.153760145907777,8.933112171094288,-0.4832721733833447,-0.25289822,0.72692966,0.02565634,357.2707,-70.451706,19.52201
7224498837000.0,0.1290051691436976,8.58588817971118,-0.3864520735336066,-0.28496864,0.788627,0.034513887,357.35553,-70.54705,19.423002
7224503808000.0,0.099298970332323,8.110589147619898,-0.2379210750454626,-0.3100141,0.82986045,0.038789943,357.42328,-70.640366,19.325544
7224508800000.0,0.0748017039529951,7.717726589301258,-0.1063709895299517,-0.33353242,0.840856,0.03634648,357.46768,-70.72327,19.236544
7224513753000.0,0.0672945543018121,7.593858475429295,-0.0312994930181213,-0.36132678,0.8249735,0.024740042,357.50867,-70.80546,19.147266
7224518819000.0,0.0596161331160876,7.467164377937801,0.0454847188391232,-0.36835176,0.768163,0.004581489,357.54614,-70.867096,19.07674
7224523840000.0,0.0209066695542475,7.391392364301622,0.1474568259730618,-0.35521814,0.6985244,-0.008552114,357.59354,-70.92892,19.005594
7224528802000.0,-0.0294911614409799,7.335954683741648,0.2583320555308092,-0.3313944,0.6218608,-0.014660766,357.6614,-70.99371,18.931673
7224534350000.0,-0.1229744787485265,7.43801790373281,0.3522345807465619,-0.2864958,0.5348125,-0.026267206,357.75247,-71.05471,18.861332
7224538762000.0,-0.2027932639439323,7.543378824089467,0.4224751109717394,-0.22235495,0.49968776,-0.029626964,357.85144,-71.11607,18.79179
7224543779000.0,-0.3023867808520599,7.72859981835206,0.5024281606507491,-0.19425514,0.42210788,-0.03176499,357.99234,-71.18261,18.716808
7224548787000.0,-0.4435229857744783,8.222576451845907,0.5826191793238363,-0.13591751,0.3549127,-0.035430185,358.14063,-71.253525,18.640348
7224554757000.0,-0.61177041855939,8.811442366773676,0.678214303420947,-0.10995574,0.31337386,-0.028710667,358.31198,-71.348854,18.537971
7224558811000.0,-0.7092117956709522,9.172237677280032,0.7103833896444355,-0.08582657,0.31429017,-0.026572637,358.49048,-71.44844,18.433283
7224563766000.0,-0.7616408616914423,9.458214735837686,0.6198240956006428,-0.08979719,0.3484986,-0.01985312,358.67075,-71.54505,18.331562
7224568905000.0,-0.823832149653089,9.710089312414734,0.5275176300701617,-0.092240654,0.40469822,0.00030543262,358.86356,-71.71171,18.15702
7224573824000.0,-0.911052768778016,9.792719117326056,0.4448875663145585,-0.10262536,0.4746423,0.024129177,359.04172,-71.87294,17.986868
7224578756000.0,-0.9847118429711214,9.857880379065127,0.3621670721186367,-0.13805555,0.535118,0.04642576,359.20364,-72.055984,17.792856
7224583823000.0,-0.9720870110571505,9.811589240829068,0.2780014689003555,-0.17104226,0.6044512,0.07788532,359.3414,-72.22597,17.61052
7224588791000.0,-0.959708845486081,9.766202547567426,0.1954803090842077,-0.22204952,0.6805039,0.122783914,359.45956,-72.40361,17.417349
7224593770000.0,-0.9576807,9.546066626829775,0.1611064457517775,-0.27397305,0.7470882,0.17654006,359.55917,-72.56432,17.238638
7224599469000.0,-0.9584948998866428,9.25487919081806,0.1357037006234649,-0.32528573,0.80878556,0.22296582,359.63712,-72.70822,17.073227
7224604081000.0,-0.9710118661439636,9.017056657661062,0.1607376462081995,-0.37934732,0.83016586,0.24831672,359.6926,-72.84123,16.915895
7224608716000.0,-0.983591254392594,8.778048105800114,0.185896435840733,-0.41416663,0.8145888,0.2779437,359.729,-72.947586,16.782444
7224613807000.0,-0.9932160440771592,8.58156703226655,0.2323658264384042,-0.44165558,0.75655663,0.29260445,359.7722,-73.045425,16.654736
7224618805000.0,-1.0016097041209997,8.405299996054362,0.2827278261420429,-0.45204028,0.65484756,0.3145956,359.833,-73.1289,16.540804
7224623816000.0,-0.9980273686685104,8.277020854602924,0.3265573807111813,-0.4550946,0.5180137,0.33536503,359.9089,-73.19907,16.438473
7224628805000.0,-0.9838693317661004,8.192072337514817,0.3643121654958514,-0.42394048,0.35430184,0.35430184,0.0231767,-73.263176,16.345459
7224633804000.0,-0.98540140543131,8.201264811501598,0.3676514630670927,-0.35979962,0.17806722,0.37232238,0.17444374,-73.314545,16.266895
7224638764000.0,-1.0022636446929358,8.302438599219029,0.3372994183102591,-0.2929099,0.08827003,0.38056904,0.3482513,-73.36531,16.192484
7224643780000.0,-1.019316264075257,8.404754671636493,0.3066046891771388,-0.25870144,-0.08032878,0.39920044,0.5873157,-73.40569,16.132643
7224649933000.0,-1.0712752985087637,8.65725459717246,0.2757187459417062,-0.1704314,-0.22540927,0.419359,0.8449051,-73.45229,16.0761
7224653827000.0,-1.1109976806720248,8.845033103611891,0.2576631159717246,-0.08735373,-0.3213151,0.43096542,1.1363066,-73.4996,16.023418
7224658801000.0,-1.1854937904931366,9.051061268174886,0.2464774027275038,-0.01863139,-0.38515055,0.44715336,1.4560605,-73.561966,15.962906
7224663764000.0,-1.2740934750720216,9.236315062362312,0.2424501523657007,0.043982297,-0.39003745,0.46700647,1.7843163,-73.62696,15.905606
7224668797000.0,-1.384128276997579,9.407020595932202,0.2514688686140436,0.07544186,-0.3576616,0.49327368,2.122667,-73.710175,15.831736
7224673787000.0,-1.55075078062954,9.52735909762712,0.2977528995486683,0.08399397,-0.2947425,0.5174029,2.4504411,-73.79221,15.760836
7224678782000.0,-1.7273923642318787,9.619563513352563,0.3582618674495208,0.076052725,-0.21013765,0.52595496,2.7652032,-73.90202,15.659921
7224683806000.0,-1.9467633818554015,9.592701685493626,0.4791397655792314,0.047036625,-0.13530666,0.54611355,3.0608826,-74.00127,15.567649
7224688982000.0,-2.1741553232344337,9.55403937150021,0.6061282449644797,0.00061086525,-0.056505036,0.5510005,3.3397794,-74.13165,15.437157
7224693805000.0,-2.400950146437526,9.399625776222315,0.7508908822064355,-0.055588737,-0.002443461,0.5531385,3.6010032,-74.253815,15.311471
7224698776000.0,-2.62455036020379,9.233018304351964,0.8966776455004285,-0.12156218,0.041233405,0.5519168,3.8532298,-74.4017,15.148957
7224703808000.0,-2.780580935196648,9.012739760975146,1.0205842602609274,-0.18570304,0.04734206,0.5540548,4.09815,-74.54231,14.989628
7224709074000.0,-2.9335340314131853,8.778183799526763,1.1436813881119452,-0.24678956,0.024740042,0.5681047,4.3466697,-74.69741,14.804536
7224713803000.0,-2.966790986292428,8.526908214751959,1.1880241360966055,-0.3051272,-0.02687807,0.5717699,4.5999312,-74.84715,14.620025
7224719690000.0,-3.0081916404210185,8.214102258404047,1.2432251843913185,-0.35521814,-0.099571034,0.55680364,4.8643274,-75.0043,14.416969
7224723766000.0,-2.962581493890422,7.946940102089082,1.2599729506109578,-0.3924809,-0.1908954,0.5412266,5.1472564,-75.153175,14.218526
7224728776000.0,-2.868021446590461,7.59233992471423,1.269428955340954,-0.398895,-0.2874121,0.52626044,5.451232,-75.30048,14.019952
7224733794000.0,-2.754022165672884,7.3075703313527,1.2171714390140749,-0.39920044,-0.34147367,0.5036584,5.76127,-75.43988,13.821759
7224738807000.0,-2.6242063893780765,7.081224952783748,1.1139845532760175,-0.38423425,-0.42913285,0.49205196,6.1076255,-75.57778,13.626743
7224743818000.0,-2.494442404735492,6.8549698775774806,1.010838835256188,-0.37323865,-0.5155703,0.4550946,6.455219,-75.69477,13.450318
7224748971000.0,-2.3801225468261022,6.750570999146515,0.8248118567078593,-0.3494149,-0.5870415,0.4147775,6.8229537,-75.816475,13.271504
7224754824000.0,-2.2605214768669986,6.700737241678521,0.570659511495377,-0.32284227,-0.6224717,0.34483343,7.2055106,-75.955444,13.075086
7224758806000.0,-2.1722068831026378,6.667638624732306,0.4270545540726038,-0.31490102,-0.602924,0.31642818,7.570496,-76.05952,12.920763
7224763806000.0,-2.053403442256464,6.626995245259859,0.2801134718709846,-0.312763,-0.5103779,0.25870144,7.9257245,-76.1913,12.736367
7224768862000.0,-1.9332694028728128,6.585896659937321,0.1315266495487072,-0.3173445,-0.3631594,0.2012801,8.248571,-76.323654,12.560608
7224773835000.0,-1.7064273859019197,6.61909318543561,0.1026497923317012,-0.34055737,-0.16920967,0.1459968,8.530987,-76.467636,12.364839
7224778806000.0,-1.2883414057900056,6.781887736962773,0.280243846892438,-0.38240165,0.01985312,0.0852157,8.772797,-76.62326,12.147474
7224783757000.0,-0.871937525779125,6.944027311416803,0.4571233810163985,-0.464563,0.19486602,0.0143553335,8.951038,-76.767044,11.94148
7224789816000.0,-0.5904395571748077,7.478384077741992,0.969620408243872,-0.5308419,0.35430184,-0.07971791,9.081085,-76.92602,11.707842
7224793780000.0,-0.4410077718321704,7.879132846036858,1.3499921845365896,-0.6200282,0.48441613,-0.19883664,9.172057,-77.09142,11.444601
7224798829000.0,-0.2871246522842839,8.434714688819083,1.8885853841268283,-0.7076874,0.6075055,-0.3277292,9.206717,-77.16154,11.255461
7224803974000.0,-0.1613673673034259,9.039317088446058,2.483514052429567,-0.85154617,0.70952,-0.47311515,9.217194,-77.239044,11.0271015
7224808802000.0,-0.0313271646619874,9.595755182859254,3.156762398854821,-0.9981538,0.7812967,-0.6301075,9.244132,-77.25124,10.811258
7224813808000.0,0.1147819374602881,10.162481724418177,3.962576203140008,-1.1453724,0.84207773,-0.788627,9.25671,-77.267784,10.553569
7224818846000.0,0.259801170781936,10.757243279949822,4.740587378235417,-1.3399329,0.904386,-0.9596693,9.279472,-77.231155,10.260982
7224823852000.0,0.4001275249111437,11.393723263642066,5.452242504745976,-1.5677856,0.91232723,-1.1505647,9.318385,-77.18719,9.921746
7224828768000.0,0.4730101877589526,12.022816251443974,5.919447593299962,-1.7800614,0.86009824,-1.3454307,9.33445,-77.07809,9.506437
7224833810000.0,0.4590653689641895,12.673574494224106,6.082137226800154,-1.9349157,0.7965683,-1.5662584,9.377014,-76.945206,9.038356
7224838803000.0,0.4838020020507166,13.278485966723464,6.043426005392403,-2.0088303,0.61758476,-1.6765196,9.478602,-76.71027,8.554486
7224843787000.0,0.5794836471223815,13.809519002706224,5.636778762814473,-2.0329595,0.40683624,-1.8597792,9.640074,-76.46223,8.004687
7224848863000.0,0.7861011264111897,14.18466723984871,5.121362292057375,-2.0332649,0.28008172,-1.9788979,9.862608,-76.16693,7.447367
7224853803000.0,1.1743537512595448,14.26569409776636,4.44614033273389,-2.0528126,0.24617869,-2.0598376,10.141882,-75.84333,6.869727
7224859395000.0,1.613849435095982,14.3574151887533,3.681800009548277,-2.0998492,0.29168814,-2.159714,10.472575,-75.535576,6.302067
7224863743000.0,1.9905593769776684,14.558405716975775,3.256221204494701,-2.1688771,0.36774087,-2.339003,10.825522,-75.20585,5.702976
7224868817000.0,2.4549674537187736,14.884870660389856,2.879177056179031,-2.2751677,0.43249258,-2.552195,11.189166,-74.83714,5.078179
7224873785000.0,2.987295999136597,15.36177401694225,2.410167216168445,-2.3487768,0.51159966,-2.7598891,11.535494,-74.526505,4.530249
7224878811000.0,3.626351551160707,16.04787726024273,1.806397033452798,-2.3845124,0.62888575,-2.9217684,11.872107,-74.19023,3.939533
7224884065000.0,4.299073264717857,16.760980998615747,1.1785087465369268,-2.3762658,0.8136725,-3.015231,12.135011,-73.87089,3.3753467
7224888743000.0,5.014068673235079,17.293578974024918,0.7006291097223352,-2.286163,1.1481212,-3.0024028,12.334444,-73.55001,2.7863247
7224893862000.0,5.7964674539532615,17.876385523003012,0.1776992549010665,-2.1316142,1.5632042,-2.8472428,12.29462,-73.293106,2.2547033
7224898945000.0,6.543765994282025,18.3177784048695,0.0530703294457253,-1.92392,1.9798143,-2.5836546,12.161853,-73.06039,1.7399212
7224903815000.0,7.23627613169787,18.63177415881213,0.2466290476049064,-1.7131716,2.3338106,-2.1966715,11.919177,-72.85525,1.2835724
7224908807000.0,7.639138587475328,18.894803560021533,0.7307569504001435,-1.563815,2.5192082,-1.7373008,11.445392,-72.7401,0.97563285
7224913767000.0,7.4985021618517855,19.05248625874753,1.7152108350583168,-1.4950926,2.5130997,-1.3093897,10.912291,-72.65175,0.7560484
7224918792000.0,7.0477443754449896,19.042302655220745,2.7396447348283117,-1.4727961,2.3209825,-0.9969321,10.33292,-72.57074,0.69813216
7224923767000.0,4.506549998040956,17.877433695476135,3.937901394876586,-1.4541647,2.0320432,-0.8176431,9.774479,-72.500046,0.72515833
7224928765000.0,1.9536073853243008,16.70717941189753,5.14169773395624,-1.428203,1.8912388,-0.7706065,9.343995,-72.33373,0.80374104
7224933748000.0,0.0041893332297822,15.842178767685294,5.5833788003039,-1.3869696,1.6441438,-0.7819075,9.018338,-72.17482,0.9379334
7224938745000.0,-1.466292722064832,15.22005184585514,5.409668046277225,-1.3539828,1.4688255,-0.84207773,8.717794,-72.02036,1.0668269
7224943841000.0,-2.959972988510567,14.600855362713856,5.21749825712848,-1.2308935,1.3976597,-0.97005403,8.676472,-71.69303,0.8624225
7224948787000.0,-4.3860641522475685,14.060609390724588,4.971209524152969,-1.0433578,1.387275,-1.1661417,8.678123,-71.40735,0.63559926
7224953750000.0,-5.817056963737001,13.518506528010734,4.724074267024489,-0.8194757,1.3267993,-1.4413365,8.757689,-71.13849,0.18067291
7224958821000.0,-6.455361010387864,13.311758239668183,4.673482,-0.55680364,1.3866642,-1.7073684,8.828792,-70.93432,-0.3248391
7224963756000.0,-6.875667853486286,13.19520247216202,4.673482,-0.4147775,1.5222762,-1.8206838,8.912053,-70.75462,-0.8538262
7224968796000.0,-7.195962941754782,13.060390670514163,4.68150891309226,-0.4746423,1.5338826,-1.8090774,8.962043,-70.52309,-1.6386466
7224973839000.0,-6.77884655696182,12.818697090241344,4.7438813672128495,-0.5928447,1.3429873,-1.7232509,9.037789,-70.292076,-2.4122286
7224978733000.0,-6.374054253337638,12.584144565582372,4.804410970715957,-0.72143185,1.0140363,-1.5818355,9.132331,-69.992195,-3.2175906
7224983818000.0,-5.87282842733629,12.36776446755883,4.583315374069619,-0.8176431,0.63407815,-1.4257594,9.284002,-69.65524,-3.9575727
7224988726000.0,-5.346293383023832,12.173405674986842,4.219334795255995,-0.86467975,0.3036,-1.2574661,9.496622,-69.29408,-4.6152534
7224994139000.0,-4.7574321161395305,11.955802452474336,3.8180946410915455,-0.8558222,0.09285152,-1.1252137,9.774653,-68.91625,-5.152588
7224998815000.0,-4.12960659384962,11.720368213302178,3.4742854097805225,-0.8008443,-0.026267206,-1.0213667,10.102955,-68.54953,-5.6191373
7225003863000.0,-3.451834302036218,11.466203961946093,3.10312437478094,-0.7153232,-0.10170906,-0.91324353,10.410942,-68.25763,-5.964418
7225008808000.0,-2.716834285753081,11.116604345519114,2.815767229559223,-0.6398814,-0.15302174,-0.82344633,10.7352915,-67.98886,-6.2714696
7225013757000.0,-1.9346630313662,10.700766352203887,2.578145548631711,-0.5839872,-0.19517145,-0.754724,11.067732,-67.74918,-6.5437164
7225018781000.0,-1.273287880763764,10.295807080451056,2.5056938745096184,-0.539394,-0.25809056,-0.6930266,11.360262,-67.58751,-6.7127256
7225023767000.0,-0.6805422504974888,9.902151678953851,2.514743419624752,-0.5152648,-0.35155296,-0.6444628,11.665445,-67.44339,-6.8570213
7225028769000.0,-0.1939683412698412,9.51037738095238,2.606563547619048,-0.4841107,-0.42119157,-0.593761,11.93477,-67.34392,-6.9155197
7225033741000.0,0.2067007874354561,9.123367227194493,2.7613676091222032,-0.47891834,-0.5830709,-0.57787853,12.249755,-67.24793,-6.950396
7225038738000.0,0.501866273702658,8.7593841307565,2.863889570012657,-0.46181414,-0.7669413,-0.5381723,12.563304,-67.1671,-6.899935
7225044710000.0,0.7078958547366372,8.35846180965826,2.9140048892220816,-0.44348818,-0.95203346,-0.5225952,12.914993,-67.090034,-6.8362494
7225048751000.0,0.7950107224616579,8.118456753931275,2.9150715218889536,-0.41233405,-1.0952814,-0.5170974,13.290098,-66.99959,-6.718255
7225053781000.0,0.8417698993205203,7.856605265870704,2.877664131576393,-0.36774087,-1.2315043,-0.51251596,13.699298,-66.92217,-6.582589
7225058725000.0,0.8751065889319688,7.576837549437879,2.7875734451210725,-0.30695978,-1.3090842,-0.49235737,14.101088,-66.8338,-6.437373
7225063763000.0,0.8855378412727011,7.2499920348803695,2.5963340367180745,-0.21380283,-1.391551,-0.45723262,14.524434,-66.77125,-6.278366
7225068773000.0,0.895911119205823,6.924963049582012,2.4061574912438743,-0.12736541,-1.4740179,-0.4147775,14.931525,-66.69942,-6.125744
7225073744000.0,0.879276244317064,6.703563616061294,2.18317674810821,-0.03726278,-1.5143349,-0.37507126,15.333142,-66.65898,-5.966435
7225079041000.0,0.8408892781328036,6.545217436918275,1.9192665497446084,0.03359759,-1.5070046,-0.33292156,15.726662,-66.64156,-5.7983127
7225083799000.0,0.7914774738311849,6.413445360465697,1.6946066232765074,0.096516706,-1.4245378,-0.29260445,16.081135,-66.64529,-5.6440043
7225088761000.0,0.7242972921330562,6.286988718253638,1.4733071177130976,0.1563815,-1.319469,-0.2321288,16.411299,-66.67164,-5.482228
7225093798000.0,0.6563133981801818,6.150416040842408,1.2494832534056342,0.2049453,-1.2186762,-0.17806722,16.697596,-66.72759,-5.336067
7225098764000.0,0.5921088597443974,5.906438619584196,1.0397485139600395,0.25625798,-1.0934488,-0.12461651,16.93715,-66.80314,-5.192458
7225103751000.0,0.5276328160111601,5.661429477454774,0.8291268575735757,0.29901853,-0.9483683,-0.07422013,17.138622,-66.9088,-5.0582786
7225108808000.0,0.5258412068443558,5.441916539395667,0.742713035504561,0.35643986,-0.79290307,-0.035430185,17.29609,-67.03319,-4.9309688
7225114772000.0,0.5380524713426453,5.18955076345496,0.6694455420210946,0.40408736,-0.6808093,0.02076942,17.416203,-67.1684,-4.7995653
7225119052000.0,0.5779767573047746,5.004727962141901,0.6291470510548862,0.4538729,-0.5919284,0.10262536,17.49985,-67.336235,-4.6750536
7225123752000.0,0.9073744851048638,4.767722377135208,0.6974368304390897,0.48441613,-0.5720753,0.20769419,17.562002,-67.513916,-4.5360546
7225128760000.0,1.2583582767692991,4.515185362302544,0.7702017698340027,0.50610185,-0.5195409,0.26450464,17.590658,-67.699066,-4.403179
7225133805000.0,1.4569749033712471,4.431342293370222,0.8442663258028487,0.5207626,-0.46273044,0.35063666,17.597246,-67.89528,-4.2390623
7225138709000.0,1.6109731163848755,4.392842702428527,0.9164530047986474,0.5271767,-0.44440445,0.4269948,17.59409,-68.094185,-4.0658484
7225143871000.0,1.6703194911450503,4.392714577273087,0.974710081016064,0.5357288,-0.42332962,0.4718934,17.544903,-68.28326,-3.8375905
7225148810000.0,1.707749153715281,4.400200462886761,1.0271116125227506,0.55771995,-0.3930918,0.5027421,17.47979,-68.47626,-3.597376
7225153730000.0,1.7190321056162805,4.42231359997334,1.0734764223584825,0.5928447,-0.35185838,0.5170974,17.39098,-68.66061,-3.3336425
7225158751000.0,1.6720280406647117,4.477863850439883,1.1076611644183774,0.64476824,-0.2779437,0.52320606,17.280565,-68.85122,-3.0721927
7225163832000.0,1.6219572474485315,4.535929363791589,1.1410752622890037,0.6948592,-0.17928895,0.54000485,17.14051,-69.0303,-2.8082445
7225168824000.0,1.5426591642794418,4.615227593082252,1.1597336720460534,0.752586,-0.07513642,0.56077427,16.975916,-69.22039,-2.5511765
7225174025000.0,1.4601740448275864,4.694892105244253,1.1771010711925287,0.8081747,0.043982297,0.5858198,16.777187,-69.409966,-2.3115213
7225178815000.0,1.3860260836206897,4.727846797683189,1.1647430346443963,0.8536842,0.16340645,0.6227771,16.545769,-69.60766,-2.0743928
7225183803000.0,1.3088131336206896,4.762163709141523,1.15187416485273,0.9095783,0.28863382,0.66248333,16.280983,-69.80919,-1.8548174
7225188741000.0,1.2346953631343147,4.885597059339855,1.3237376034012984,0.9645562,0.38423425,0.72265357,15.986134,-70.01821,-1.628634
7225193855000.0,1.1585694729267624,5.037848559202707,1.5521151337478285,0.9914343,0.44226643,0.79351395,15.663008,-70.229126,-1.3970114
7225198837000.0,1.1394034731397074,5.238078586495654,1.727923304547382,1.0070114,0.44501534,0.8585711,15.337788,-70.44907,-1.1603742
7225203820000.0,1.154578752257791,5.470766305278779,1.8746178278142889,1.0012082,0.4083634,0.9401216,14.99993,-70.66376,-0.9015524
7225208809000.0,1.121878228022701,5.765405245969732,2.0033903525415364,0.9669997,0.38698313,1.0451905,14.638811,-70.809235,-0.64883995
7225213758000.0,1.0712002319295937,6.081168257427208,2.1242378660305974,0.89827734,0.37323865,1.1569787,14.278512,-70.93694,-0.36964303
7225218758000.0,0.9829166245145632,6.465251140574434,2.225763029894822,0.8164214,0.33505958,1.2883148,13.917549,-71.02826,-0.05005377
7225223771000.0,0.7984178439927185,7.018747532837783,2.2743152631775887,0.7318166,0.3042109,1.4101825,13.549432,-71.09186,0.29561105
7225228736000.0,0.5751252271742313,7.55765498866346,2.282709215185108,0.6747007,0.20952678,1.4758505,13.210588,-71.12411,0.6613157
7225233759000.0,0.2531554133089312,8.080856173896676,2.197186100094122,0.6554584,0.09315695,1.5974126,12.869449,-71.134056,1.075028
7225238706000.0,-0.0895941560451029,8.579720673935329,2.1333727626129906,0.64904433,-0.03756821,1.713477,12.587006,-71.16157,1.4887338
7225243793000.0,-0.4845618249370981,9.065485324573665,2.101593684372379,0.657291,-0.14446963,1.8329011,12.317598,-71.17456,1.9371818
7225248723000.0,-0.9048249498147386,9.52825648497324,2.0490896309180733,0.6731735,-0.26633725,1.967597,12.129765,-71.23603,2.3859475
7225254315000.0,-1.5166444841910254,10.024326051049814,1.9112924716755868,0.66248333,-0.42210788,2.112372,11.9682665,-71.27329,2.8731134
7225258715000.0,-2.001414066775548,10.30175681972313,1.8235646292891583,0.6411031,-0.5693264,2.2583687,11.884808,-71.338104,3.3319454
7225263740000.0,-2.562816891670556,10.357897457847256,1.7711670260460417,0.6627888,-0.72784597,2.3848178,11.835687,-71.390656,3.8288255
7225268827000.0,-3.1311464777881475,10.414730776481568,1.718122925011666,0.72082096,-0.8918633,2.4013114,11.898772,-71.49526,4.252141
7225273776000.0,-3.763513743729994,10.346668754189418,1.7244653363208435,0.8173377,-1.042747,2.3115141,11.999695,-71.6029,4.6823864
7225278757000.0,-4.4281633872717,10.234396488985125,1.751410567426097,0.93645644,-1.2000448,2.1563544,12.151153,-71.72399,5.102212
7225283741000.0,-5.016504084835355,10.030279120450606,1.851819153067591,1.0711522,-1.3264939,1.9474384,12.432808,-71.93367,5.3652573
7225288731000.0,-5.554846602599653,9.765249150779896,2.0008987326169843,1.1960741,-1.3970488,1.6548339,12.76025,-72.185684,5.563275
7225293806000.0,-5.992129426233785,9.490682105412256,2.3391076271209186,1.328021,-1.4538593,1.3319917,13.21335,-72.531334,5.5851007
7225298811000.0,-6.170793262710601,9.208393240047712,3.10021514888922,1.4138476,-1.5189165,0.9984592,13.707224,-72.919266,5.5263968
7225303730000.0,-6.346387151148055,8.93095489264947,3.84824469925451,1.42973,-1.5922203,0.7079928,14.294632,-73.35328,5.2959275
7225308775000.0,-6.027897886614575,8.810211636826907,4.229483335145235,1.398576,-1.600467,0.47678033,14.894728,-73.81093,4.990748
7225313754000.0,-5.400171328520469,8.794012337268558,4.363128507983693,1.3536774,-1.4957036,0.36926803,15.487261,-74.269424,4.6389384
7225318816000.0,-4.735324225729259,8.774267124196578,4.524110833016909,1.3301591,-1.3497068,0.31520647,16.054064,-74.58514,4.1921883
7225323847000.0,-4.001628865569069,8.745681512508652,4.75279507979828,1.3154984,-1.2904528,0.2950479,16.615877,-74.87526,3.7326624
7225328761000.0,-3.355539771083752,8.693323535963065,4.934388022233922,1.2687671,-1.1652255,0.28955013,17.027582,-75.047295,3.3804758
7225333747000.0,-2.9262311169123603,8.561823742831686,4.98466734539932,1.2342533,-1.0241156,0.28344148,17.419817,-75.20617,3.0250971
7225338739000.0,-2.496405845828608,8.430165706868623,5.035007173165398,1.174083,-0.904386,0.27916542,17.675592,-75.22084,2.791523
7225343844000.0,-2.1950895453832966,8.239570093950528,4.939762812392848,1.0986412,-0.8170323,0.26328292,17.90975,-75.22245,2.5527651
7225348772000.0,-1.944649221046616,8.039217705739244,4.804910460037553,1.0442741,-0.74097955,0.22479841,18.122936,-75.21427,2.3061855
7225354774000.0,-1.6780786770062697,7.709703202445142,4.469910050485893,0.9993755,-0.63804877,0.14569137,18.280012,-75.17938,2.1435237
7225358756000.0,-1.5346247552821315,7.416817990031348,4.099320601865204,0.96791595,-0.6105598,0.11636983,18.442244,-75.13591,1.9871365
7225363711000.0,-1.356117929028213,7.052366401003135,3.638177779686521,0.95233893,-0.5723807,0.042760566,18.577238,-75.112045,1.8599669
7225369842000.0,-1.2472376006031365,6.909700656694813,3.236781613570567,0.92179567,-0.5030475,-0.030543262,18.703135,-75.07845,1.7216042
7225373792000.0,-1.1950874584352922,6.867328721488885,3.005365557651215,0.8735373,-0.44409904,-0.087964594,18.830658,-75.03905,1.56694
7225378746000.0,-1.1301948717470571,6.859839004062923,2.716717338608188,0.83291477,-0.37232238,-0.15027285,18.939884,-75.05555,1.4446807
7225383740000.0,-1.0654229674861966,6.909663505781853,2.427734916480884,0.7984009,-0.28924468,-0.21105394,19.03734,-75.060616,1.3026958
7225388736000.0,-0.99512960288815,7.016290804481009,2.227932606003851,0.7611381,-0.18692477,-0.27183503,19.125381,-75.097206,1.1697793
7225393774000.0,-0.9191219856117628,7.176751501312795,2.109698559180816,0.72265357,-0.069027774,-0.31429017,19.191948,-75.12196,1.0194474
7225398766000.0,-0.8332681130608176,7.347941285144566,2.035601346560319,0.6612616,0.069027774,-0.3454443,19.244616,-75.18195,0.87474555
7225403775000.0,-0.7137012504955135,7.558378913718843,2.0977761708275176,0.63255095,0.21533,-0.3576616,19.265772,-75.236465,0.7170725
7225408709000.0,-0.5947707517830643,7.753966163925648,2.212062973074276,0.59803706,0.33505958,-0.36682457,19.26952,-75.3124,0.5746505
7225413737000.0,-0.4695375100267727,7.912349356215099,2.514096121517632,0.57543504,0.42424592,-0.38453966,19.244095,-75.37942,0.42178166
7225418841000.0,-0.3424113234865754,8.073126566526428,2.82069460792473,0.54428095,0.45081854,-0.38728857,19.204115,-75.434456,0.30903256
7225423804000.0,-0.1338217374861798,8.244268301716613,3.247886192027931,0.50488013,0.44593164,-0.38759398,19.151478,-75.478004,0.19155644
7225428888000.0,0.1306099665968383,8.428426352730094,3.762583527999224,0.4914411,0.40500367,-0.38973203,19.104208,-75.517746,0.077119686
7225433838000.0,0.4117961739455319,8.613686831659574,4.19333892546383,0.441961,0.32895094,-0.38515055,19.072094,-75.511604,0.009177213
7225438952000.0,0.7202394325310638,8.809589591319149,4.58514527172766,0.3930918,0.23945917,-0.39400807,19.058954,-75.50172,-0.05795587
7225443786000.0,0.948849602791092,8.963263017919033,4.860425470946096,0.32528573,0.17440203,-0.38759398,19.051552,-75.45019,-0.07602258
7225448847000.0,0.9524237077870364,9.00615220322985,4.792517830565592,0.24678956,0.16157386,-0.3921755,19.058588,-75.383194,-0.098297566
7225453829000.0,0.9559420225647076,9.048371907086498,4.725670198798023,0.13041973,0.18875736,-0.3930918,19.048294,-75.28847,-0.08025304
7225458791000.0,0.9402983377166712,9.047508075505943,4.649179537571468,-0.01038471,0.23365596,-0.3921755,19.039623,-75.16594,-0.065453716
7225463830000.0,0.9052624482983938,9.003713270895727,4.561589699700518,-0.15302174,0.31856623,-0.3930918,19.0156,-75.012184,-0.05845448
7225468913000.0,0.9248917334760725,9.020753489332131,4.3834620664412896,-0.29993483,0.43096542,-0.39064834,18.978195,-74.84112,-0.04968878
7225474846000.0,1.0870981527608743,9.19576584629254,3.948065979851251,-0.45448375,0.6093381,-0.37568212,18.901976,-74.63151,-0.051276796
7225478810000.0,1.19547270965367,9.312696401322214,3.657165914581925,-0.6169739,0.8927795,-0.3662137,18.777224,-74.40444,-0.076318845
7225483825000.0,1.4345649337270578,9.552909448210068,3.619054875086317,-0.76144356,1.1777482,-0.3494149,18.606022,-74.14452,-0.11057315
7225488845000.0,1.7315973211520987,9.845573486916228,3.7675711600218063,-0.87598073,1.423316,-0.31978795,18.371761,-73.85436,-0.158423
7225493846000.0,2.053523756457367,10.11579932554406,3.910528327791652,-0.990518,1.536326,-0.29046643,18.082623,-73.60453,-0.15363163
7225498808000.0,2.405304861523368,10.357383934534427,4.0461546755618985,-1.1206323,1.4459181,-0.2779437,17.788221,-73.32678,-0.14943534
7225503816000.0,2.746324947122986,10.599520110477334,4.089856037786451,-1.1997393,1.162782,-0.2724459,17.479914,-73.049164,-0.095021635
7225508813000.0,3.028868968487941,10.834175090063043,3.749845416311418,-1.2098186,0.81092364,-0.28160888,17.222956,-72.763954,-0.030060513
7225513753000.0,3.296252785398916,11.12026140472502,3.431972165036793,-1.1065824,0.4633413,-0.30940324,17.005306,-72.50453,0.104058854
7225518800000.0,3.5162087468628966,11.653771525948878,3.1886167028659957,-0.9392053,0.312763,-0.35216382,16.838093,-72.26869,0.23815314
7225523754000.0,3.676629196756095,12.216211519738856,2.932543666928491,-0.7150178,0.06780604,-0.38423425,16.76521,-72.14803,0.4563485
7225528752000.0,3.427612654309905,13.07068036764256,2.546812220983373,-0.6041457,-0.12156218,-0.45723262,16.72843,-72.04563,0.6498245
7225533794000.0,3.1358679967749263,13.939417686350216,2.157954972087213,-0.37720928,-0.2779437,-0.52015173,16.721626,-72.09623,0.88692516
7225538730000.0,2.649164122022863,14.823357792035733,1.7786122176016352,-0.18478674,-0.38056904,-0.57818395,16.758814,-72.16482,1.1040806
7225543768000.0,2.152402752290105,15.725564083049436,1.3914305326141267,-0.10262536,-0.38331795,-0.59223384,16.804976,-72.32045,1.2726251
7225548765000.0,1.6109727614334066,16.55813861791072,0.952263318075375,-0.10842858,-0.27091873,-0.5390886,16.84806,-72.494225,1.4312093
7225555169000.0,0.8592161700795828,17.55113060290889,0.3239294569703621,-0.19456059,-0.014049901,-0.43279803,16.849737,-72.65606,1.5783162
7225558808000.0,0.1878068437095573,18.007807688870503,0.0544051430781961,-0.40469822,0.12339478,-0.38148534,16.862886,-72.82554,1.6229973
7225563760000.0,-1.1032655371063305,18.463018803475386,-0.1771245617790649,-0.50243664,0.5348125,-0.25778514,16.7211,-72.988304,1.667195
7225569455000.0,-2.561626782190627,18.90359038504476,-0.3794442780094786,-0.73456544,1.0381655,-0.13133603,16.524006,-73.09585,1.6183562
7225573772000.0,-3.258297786013692,17.95437597240653,0.4565609811374407,-0.95325524,1.53205,-0.03023783,16.215063,-73.170975,1.5631315
7225579135000.0,-4.067162286307054,16.71522388381743,1.4466937983402488,-1.1646146,1.8707749,0.044593163,15.881751,-73.1968,1.3206363
7225583757000.0,-4.232911575245421,15.084609788482949,1.845387911264042,-1.3151928,1.8930714,0.18417588,15.486412,-73.17216,1.1182715
7225588950000.0,-4.371288448242188,13.27970168359375,2.2375404727539063,-1.4636332,1.5766432,0.3576616,15.161399,-72.9776,0.85021967
7225593824000.0,-3.940318585209517,11.903913064985796,1.9516085002929688,-1.5656476,0.9776898,0.5036584,14.89717,-72.756615,0.6464386
7225598766000.0,-3.5033360117365056,10.508930021661932,1.661687325097656,-1.63437,0.226631,0.573297,14.787826,-72.41982,0.4794771
7225603857000.0,-3.0933458575875488,9.533431626459144,1.2477796385214008,-1.606881,-0.44623706,0.56077427,14.814111,-72.09062,0.38001832
7225608715000.0,-2.712234862195372,8.718806808519354,0.8237936343845996,-1.527774,-1.0332786,0.5112942,15.016215,-71.76676,0.35024917
7225613988000.0,-2.473374195096977,8.47597484060254,0.2002388898670868,-1.3759739,-1.5402967,0.46181414,15.349897,-71.46225,0.41583407
7225618733000.0,-2.289942081333071,8.373074164221718,-0.3903229785783203,-1.1936307,-1.7712038,0.4364632,15.766235,-71.19841,0.49953905
7225623771000.0,-2.276209001190476,8.603904683904762,-1.0669930771561904,-1.0922271,-2.1068742,0.39828414,16.3161,-70.96723,0.65656286
7225628780000.0,-2.308189080952381,8.919137273523809,-1.7522820285409524,-0.86559606,-2.3377812,0.3594942,16.898531,-70.83062,0.81251407
7225633815000.0,-2.3459160929535074,9.479201701328352,-2.530869941033624,-0.62125,-2.4526238,0.3036,17.509953,-70.77238,0.9918706
7225638749000.0,-2.385145745278124,10.12648863491075,-3.3301714893524283,-0.36651915,-2.4443772,0.24984388,18.151741,-70.786995,1.1638057
7225643786000.0,-2.441052999426266,10.704267382429403,-3.8024885045988346,-0.064446285,-2.2745566,0.2012801,18.768366,-70.95796,1.3116534
7225648768000.0,-2.5009331111609145,11.251743404303005,-4.170323833975796,0.28619036,-1.9327776,0.16310102,19.340712,-71.219376,1.4220368
7225653769000.0,-2.553667375471698,11.702328703754134,-4.279895664831745,0.6588182,-1.4315627,0.14202617,19.81595,-71.66881,1.488616
7225658779000.0,-2.600331271698113,12.070973001556116,-4.172568571950982,1.0009027,-0.83169305,0.13988814,20.175346,-72.20994,1.5022339
7225663739000.0,-2.5705354340534283,12.32965851615392,-3.901758467769312,1.3234396,-0.22693644,0.13408493,20.3971,-72.91015,1.4547409
7225668781000.0,-2.458772494657151,12.478676384607969,-3.4500499230687627,1.5482379,0.37659842,0.10048734,20.458733,-73.675644,1.3449501
7225673758000.0,-2.2914818997758304,12.629222523130222,-2.733886590197677,1.724778,0.9728029,0.030543262,20.360542,-74.50905,1.1687247
7225678836000.0,-2.0387630754840025,12.78779075687793,-1.6139954188913797,1.8228219,1.498147,-0.030848695,20.116102,-75.37434,0.9485928
7225683721000.0,-1.891474348150649,12.813987108822868,-0.4538985012078925,1.8796324,1.8310685,-0.06872234,19.758955,-76.21393,0.70516914
7225688768000.0,-1.8588381795633584,12.683442699527347,0.8479214375647086,1.9147571,1.9361374,-0.06872234,19.319286,-77.06139,0.44461393
7225693946000.0,-1.825354906144497,12.54950987778528,2.183531432207968,1.9159788,1.7880026,-0.06841691,18.855696,-77.758514,0.20766123
7225698783000.0,-1.857527542381048,12.219196180285085,3.566555956434451,1.8658879,1.4077389,-0.07391469,18.429596,-78.433876,-0.0114149535
7225703732000.0,-1.9051039654788195,11.833827207839793,5.0128787019474,1.7666223,0.91782504,-0.115453534,18.079493,-79.07821,-0.21527869
7225708820000.0,-1.7525583481022171,11.714563577602403,5.668399914994363,1.6099354,0.39370266,-0.14202617,17.858503,-79.37694,-0.36825898
7225713759000.0,-1.552587128673431,11.670125570086434,6.090561357609921,1.4052955,0.13469578,-0.1337795,17.706575,-79.6236,-0.5029807
7225718848000.0,-1.1747940475957122,11.6849362618683,5.595304475497703,1.1884383,-0.28893927,-0.10048734,17.77491,-79.55501,-0.5862599
7225723780000.0,-0.7263355403246554,11.728335344257276,4.669454480888208,1.1001683,-0.47219884,-0.07819075,17.85349,-79.47613,-0.66725034
7225729616000.0,-0.1179548889569792,11.65465467213453,3.5090228522129374,0.9599747,-0.52320606,-0.03176499,18.011223,-79.29231,-0.6905395
7225733767000.0,0.3331815852274837,11.572629918601052,2.668268571773445,0.86101454,-0.49205196,-0.0061086523,18.196783,-79.10982,-0.71055
7225738743000.0,0.8088251327136879,11.3095964210002,1.8615221545128515,0.79229224,-0.408058,0.032375857,18.342144,-79.01275,-0.6459045
7225743789000.0,1.270984728750747,10.991861795178322,1.1056985390017933,0.75625116,-0.27458394,0.07880162,18.460234,-78.90562,-0.5811327
7225748770000.0,1.7203902712639187,10.530007990623169,0.7831738250097675,0.7498371,-0.18692477,0.14569137,18.519484,-78.92006,-0.4321202
7225753791000.0,2.1712765616917364,10.018064123461611,0.5906078082047275,0.74067414,-0.124311075,0.21227567,18.54315,-78.923744,-0.2811445
7225758827000.0,2.6282912441397803,9.423882099126374,0.4253490704783323,0.7370089,0.025045475,0.2941316,18.481653,-79.0654,-0.06981223
7225763892000.0,3.089818723164086,8.794526605224462,0.2701080384266067,0.75228053,0.24648413,0.36346483,18.378017,-79.20181,0.1456437
7225768829000.0,3.2622816038076707,8.479224555725404,0.538534339585881,0.80909103,0.38331795,0.45081854,18.227139,-79.360016,0.44980925
7225773773000.0,3.047343791689828,8.580113714146748,1.3938991369622011,0.88300574,0.22052236,0.573297,18.092268,-79.51245,0.78379637
7225778766000.0,2.793654836179752,8.679073425972266,2.1600407023459494,0.9049969,-0.13164146,0.6899723,17.940908,-79.669464,1.2144592
7225783753000.0,2.4251629051402355,8.768706574496923,2.6181658339067875,0.8866709,-0.4822781,0.81397796,17.827164,-79.80622,1.6856321
7225788725000.0,2.0342303710273466,8.840942899236264,2.91443073619118,0.8720101,-0.7144069,0.9101892,17.790215,-79.74335,2.171728
7225793774000.0,1.5855219222468588,8.876680630943582,2.862809323996058,0.8390234,-0.7788532,1.0024298,17.789198,-79.64491,2.6869597
7225799752000.0,1.039056549066864,8.924977105058726,2.786569039850181,0.77274454,-0.70646566,1.0742066,17.831236,-79.493004,3.154826
7225803778000.0,0.5362888015388884,9.010554458059742,2.60115113140664,0.70096785,-0.5626069,1.1239921,17.85785,-79.3142,3.6277432
7225808716000.0,-0.080369702508092,9.115517440950708,2.373730954582447,0.6044512,-0.3930918,1.1563679,17.887371,-79.13958,4.019548
7225813742000.0,-0.7698812454848667,9.200755532755874,2.060935581760255,0.514654,-0.3118467,1.1542299,17.893883,-78.943115,4.4011426
7225818810000.0,-1.4898885491129032,9.278071798387098,1.7130126387096776,0.47342056,-0.18570304,1.1322387,17.833912,-78.73217,4.7644916
7225823765000.0,-2.057607866399644,9.317378869692924,1.3805868028749444,0.41538838,-0.07238753,1.0806206,17.807472,-78.57251,5.0094867
7225828947000.0,-2.596503810413885,9.343882481975967,1.0360468078771694,0.3885103,0.0125227375,1.0082331,17.753593,-78.418945,5.230216
7225833743000.0,-2.942799530953192,9.381133328340423,0.7598776300272341,0.3915646,0.10048734,0.9077458,17.746935,-78.38897,5.3166285
7225838733000.0,-3.133952501421277,9.43400524493617,0.5199195377548935,0.41080686,0.20463985,0.8173377,17.714212,-78.36507,5.3773484
7225843799000.0,-3.274583159274328,9.47754906094321,0.2999765385959814,0.44012842,0.31887165,0.75777835,17.719793,-78.45515,5.331667
7225848828000.0,-3.0386529522417804,9.44955718930588,0.2479919067286615,0.44257188,0.408058,0.70157874,17.70636,-78.55355,5.2571626
7225853724000.0,-2.8089622993025576,9.422305607771506,0.1973820921288608,0.43310347,0.45937067,0.64873886,17.694695,-78.71493,5.1310444
7225858791000.0,-2.5985788687596107,9.299935717239023,0.2726264790261404,0.39278635,0.46120325,0.59528816,17.673042,-78.874084,4.9881606
7225863771000.0,-2.403017638108662,9.14104198069366,0.3989264516555613,0.34574974,0.43493605,0.55863625,17.64513,-79.03094,4.8357286
7225869227000.0,-2.241521533960516,8.908350352433896,0.5040126519314375,0.27550024,0.36041048,0.5320636,17.611685,-79.165245,4.718821
7225873820000.0,-2.1662830808067848,8.645015733661179,0.5541716032421068,0.22815818,0.2959642,0.50732356,17.583727,-79.29521,4.5946827
7225878815000.0,-2.084459420126862,8.358632885681704,0.6087206913755256,0.19853121,0.2666427,0.49418998,17.552233,-79.37651,4.508857
7225883806000.0,-2.061597328378138,8.036617938383479,0.6563906029490831,0.1826487,0.26542094,0.47555858,17.532412,-79.45096,4.41767
7225888806000.0,-2.0829095056969917,7.687099779223785,0.6990148107112337,0.19822577,0.29352075,0.45112398,17.513418,-79.52643,4.3225813
7225893803000.0,-2.159636090433226,7.31458514517933,0.8166942969129819,0.21074851,0.34483343,0.4083634,17.482456,-79.57702,4.2401605
7225898834000.0,-2.3536387056371635,6.890653487875625,1.0933276827231375,0.22540927,0.3933972,0.34300083,17.44723,-79.63625,4.1443853
7225903813000.0,-2.5456361258519125,6.471103553128029,1.3671018087316384,0.22449298,0.4297437,0.2556471,17.407352,-79.692024,4.029665
7225908810000.0,-2.630633847477477,6.258339670570571,1.5899569624024026,0.2284636,0.46761733,0.14202617,17.359034,-79.760864,3.8883913
7225913776000.0,-2.655627032027027,6.161937381981982,1.7827613904504505,0.2275473,0.4886922,0.08552113,17.30818,-79.828545,3.7399802
7225919386000.0,-2.665627482213192,6.066321649109097,2.00341469190372,0.2098322,0.5479461,-0.08307768,17.272871,-79.8736,3.4921827
7225923766000.0,-2.517020841387934,6.105658813848078,2.20010001356674,0.1563815,0.5684101,-0.1386664,17.243458,-79.896736,3.2645574
7225928839000.0,-2.3353655438001786,6.153615259143622,2.415892694290812,0.12950343,0.6062838,-0.24862215,17.220125,-79.90112,2.9785373
7225933756000.0,-2.023818107582516,6.234127478925067,2.4543984845004463,0.06078109,0.5910121,-0.321926,17.212723,-79.87257,2.6937878
7225939049000.0,-1.6884468283675291,6.320796419194172,2.495848789072257,-0.016493361,0.550695,-0.3640757,17.218517,-79.79093,2.439119
7225943836000.0,-1.28287845675074,6.478286102120614,2.427905991926166,-0.105374254,0.5021312,-0.39003745,17.24142,-79.68634,2.175204
7225948778000.0,-0.6993571790953924,6.768379656791602,2.1878286874313093,-0.17104226,0.44012842,-0.40378192,17.288267,-79.56418,1.9110849
7225954911000.0,0.0247901288488092,7.128384466746512,1.8898938212906864,-0.23884831,0.38423425,-0.37873647,17.325974,-79.40837,1.73031
7225958810000.0,0.2614869273685183,7.253345673500323,1.7025480713929195,-0.29535335,0.35521814,-0.35124752,17.379555,-79.239655,1.5510924
7225963801000.0,0.4293691837582032,7.350540496996025,1.463978594315556,-0.31306845,0.34666604,-0.3042109,17.44557,-79.0636,1.3886323
7225968872000.0,0.5211385867782428,7.4124484,1.2623995061087865,-0.33536503,0.37110063,-0.23976462,17.438278,-78.91749,1.3854187
7225973820000.0,0.4814849872955496,7.4124484,1.132624099885888,-0.35246924,0.39461896,-0.17287487,17.432117,-78.77153,1.3948545
7225978722000.0,0.4422000348573602,7.4124484,1.004055174804108,-0.36377025,0.41691554,-0.11636983,17.398882,-78.66227,1.4516039
7225983770000.0,0.320725351065119,7.388614697857813,0.9225692649312964,-0.36102137,0.44104472,-0.064446285,17.355192,-78.55371,1.5215331
7225988793000.0,0.1688213575123325,7.355770613945549,0.8609865475787317,-0.37598756,0.4428773,-0.040011674,17.309996,-78.43969,1.5965507
7225993784000.0,-0.1509823435777087,7.346338496093383,0.893635152363739,-0.38148534,0.43768495,-0.013133603,17.262714,-78.34434,1.6857048
7225998844000.0,-0.743999746123129,7.373708604349054,1.0761020675854278,-0.42088616,0.3659083,0.023823744,17.231531,-78.236626,1.7851051
7226003768000.0,-1.256589062142786,7.38956743136513,1.1867974593647317,-0.47433686,0.2415972,0.04886922,17.229198,-78.13582,1.8618164
7226008811000.0,-1.598021302270238,7.375140625052275,1.109854977765608,-0.5522222,0.17867808,0.06963864,17.227615,-78.01842,1.9454492
7226013743000.0,-1.9110267299630783,7.3645644,1.0366533448357471,-0.6105598,0.081855945,0.08032878,17.317526,-77.876625,1.9245869
7226018781000.0,-2.1668144748650957,7.3645644,0.9681387674126668,-0.6236934,0.03848451,0.07819075,17.409893,-77.72936,1.9059175
7226023779000.0,-2.40892743130227,7.368614788769414,0.9077714543369176,-0.62949663,-0.0009162979,0.077579886,17.538483,-77.58328,1.8249415
7226028833000.0,-2.582408346276384,7.397528157188371,0.8933146896176822,-0.6017023,-0.03848451,0.07819075,17.678661,-77.44605,1.7470591
7226033819000.0,-2.738033675897436,7.420296288888888,0.8799137098803419,-0.569021,-0.10781772,0.081855945,17.84549,-77.31166,1.6212642
7226038797000.0,-2.7991533046153845,7.408072533333333,0.8717644260512821,-0.5494733,-0.16523905,0.07880162,18.019106,-77.18333,1.4969817
7226043800000.0,-2.8605798820512818,7.395787388888889,0.8635742157264957,-0.5320636,-0.20799962,0.076358154,18.215513,-77.06132,1.3471841
7226048770000.0,-2.792282417910448,7.438520298507463,0.8586822167164179,-0.50671273,-0.22021692,0.06261369,18.418968,-76.94834,1.1967702
7226054868000.0,-2.667763598294243,7.50825073347548,0.8537014639317697,-0.48166725,-0.20311269,0.04520403,18.625168,-76.84109,1.0470657
7226058758000.0,-2.552237467308206,7.555760004740266,0.8561211234251092,-0.4654793,-0.1518,0.02565634,18.82657,-76.736176,0.8782763
7226063742000.0,-2.36936077166533,7.619554316564199,0.864627007983605,-0.4465425,-0.10140363,0.024129177,19.021955,-76.63918,0.7104527
7226068833000.0,-2.1719780258413746,7.696746855322821,0.8859594229073507,-0.44959682,-0.06383542,0.00061086525,19.196747,-76.541405,0.55037737
7226073767000.0,-1.9421496582725348,7.815367848372166,0.9526838089119009,-0.47158796,-0.030543262,-0.018325957,19.35751,-76.443665,0.39014602
7226078734000.0,-1.710784132995999,7.934782212473523,1.0198544666509766,-0.48930305,-0.007941248,-0.03390302,19.496334,-76.35187,0.26017386
7226083801000.0,-1.6280571,7.971964659489019,1.0769638702948638,-0.5137377,0.027183503,-0.051618114,19.623316,-76.25275,0.12326367
7226088952000.0,-1.6280571,7.963332171196081,1.1287585296351388,-0.54825157,0.090713486,-0.07086037,19.73684,-76.14654,-0.019720465
7226093874000.0,-1.6434472382785956,7.926146965118913,1.199367591619479,-0.5885687,0.16768251,-0.09193522,19.826387,-76.03239,-0.110460445
7226098788000.0,-1.6825310313023782,7.844426421653455,1.302406658708947,-0.61850107,0.25503623,-0.13775012,19.898367,-75.913315,-0.21704343
7226103721000.0,-1.721765941963005,7.762389905390713,1.4058441267497168,-0.6722572,0.312763,-0.19822577,19.961248,-75.76929,-0.33667475
7226108743000.0,-1.7713898396347738,7.720527103995199,1.638148785339506,-0.73761976,0.44104472,-0.22999077,19.982162,-75.615875,-0.46962002
7226113737000.0,-1.8246944957561728,7.695924889146091,1.9210735282407407,-0.75686204,0.59742624,-0.3118467,19.988068,-75.46202,-0.63635623
7226118866000.0,-1.8917334880499317,7.911545875019029,2.3679847658395494,-0.8258898,0.7703011,-0.40225476,19.971384,-75.25322,-0.8302905
7226124729000.0,-1.9900302219135333,8.582527801796317,3.154358815253463,-0.9071349,1.0140363,-0.5549711,19.904846,-75.03625,-1.0759118
7226128773000.0,-2.057830322842137,9.045337099406304,3.696759745806059,-1.0757337,1.1065824,-0.6084218,19.867748,-74.735954,-1.318809
7226133739000.0,-2.008199994117647,9.543118505882353,4.154531530588235,-1.1490375,1.2983941,-0.72082096,19.757519,-74.44016,-1.6377378
7226138753000.0,-1.9147242234024544,10.022690312568768,4.548755551256877,-1.3381003,1.4776831,-0.8573494,19.638117,-74.06743,-1.9762777
7226143953000.0,-1.8259136099804305,10.513095918415548,4.889927029792834,-1.5577064,1.5867225,-1.0161743,19.538649,-73.577484,-2.379391
7226148831000.0,-1.7534080107632093,10.963891388690197,5.120053320838114,-1.7571539,1.6129897,-1.1640037,19.43294,-73.046364,-2.812784
7226154813000.0,-1.6644927802348335,11.516711910047912,5.402262314899791,-1.9278907,1.5628988,-1.3151928,19.336828,-72.42787,-3.2719142
7226158797000.0,-1.599493576863085,12.0610925884845,5.5738276517427305,-2.0482311,1.4810427,-1.4468343,19.265125,-71.778336,-3.751922
7226163731000.0,-1.513051521577123,12.916414267668015,5.7694598491238205,-2.1743748,1.4398094,-1.5778649,19.221275,-71.08871,-4.2583303
7226168971000.0,-1.4314292482714197,13.787210826283015,6.012457955980245,-2.3145685,1.4266758,-1.7476854,19.205,-70.34732,-4.776631
7226173888000.0,-1.3707603452437191,14.545571938157613,6.295579456517071,-2.4437664,1.3875804,-1.9181169,19.23116,-69.58583,-5.3102293
7226178753000.0,-1.3107330494882257,15.295912960990623,6.575706790279865,-2.5830436,1.258077,-2.0549507,19.27976,-68.80508,-5.834398
7226183742000.0,-1.4082877957970226,15.76392151969862,6.838375772058823,-2.7241535,0.98440933,-2.1612413,19.402903,-68.00021,-6.361894
7226188741000.0,-1.634274769825708,15.989907994553375,7.081746205882353,-2.853657,0.57543504,-2.2464569,19.619886,-67.17382,-6.8766146
7226194145000.0,-1.7828417516908213,16.281594867149757,7.151393788647343,-2.9040534,0.121256754,-2.3359487,19.912556,-66.352486,-7.3487663
7226198763000.0,-1.7861800414251208,16.592056370169082,6.961111134359903,-2.9113839,-0.31642818,-2.4281893,20.32744,-65.52394,-7.787935
7226203957000.0,-1.789934713768116,16.94124152536232,6.747094653985507,-2.849381,-0.6151413,-2.5650232,20.863148,-64.672554,-8.244954
7226208745000.0,-1.2902957090451306,17.190167576532065,5.967249658147268,-2.7256808,-0.6740898,-2.643214,21.458582,-63.856056,-8.676277
7226213793000.0,-0.5691589567790973,17.42442211486936,4.919993736437055,-2.651766,-0.59803706,-2.7769935,22.122585,-63.044952,-9.127775
7226218775000.0,0.4452892650950871,17.62824725237718,4.040674491759113,-2.466063,-0.37323865,-2.797152,22.70896,-62.348015,-9.564969
7226223942000.0,1.7032854213417856,17.821030533544636,3.2335964614896997,-2.2944098,-0.14080444,-2.676506,23.274523,-61.682858,-10.000489
7226228836000.0,2.894814972081352,18.003628052033807,2.4691606418383523,-2.1331415,0.009468411,-2.4501805,23.658459,-61.20883,-10.345015
7226233801000.0,3.454687923458967,17.824709925354494,1.9133139326133275,-1.9468275,0.027488936,-2.2116377,24.002775,-60.807182,-10.661622
7226238775000.0,3.549181059980898,17.38374258834766,1.5143429279847185,-1.7507398,0.09987647,-1.9911152,24.27032,-60.477654,-10.946148
7226243874000.0,3.646048873234884,16.931693442509737,1.105345510895599,-1.5063937,0.2779437,-1.7305813,24.261536,-60.39871,-11.028601
7226248753000.0,3.5394758441756027,16.116573280725873,1.3283226882962147,-1.271516,0.42455134,-1.4474452,24.218887,-60.39265,-11.057311
7226253746000.0,3.3992372504536705,15.22255171377509,1.6526245135001374,-1.112691,0.45875978,-1.1795808,24.135218,-60.453133,-11.034913
7226258750000.0,3.1546190749612,14.34202553978272,2.1665223784169685,-1.0308352,0.36682457,-0.91904676,23.949928,-60.564274,-10.97342
7226263743000.0,2.857772697258148,13.471276044645627,2.7750573881324367,-1.0149527,0.2864958,-0.70005155,23.733353,-60.720833,-10.860732
7226268823000.0,2.515667085768501,12.767331838364672,3.0262560960324305,-0.960891,0.24404067,-0.5421429,23.577045,-60.837727,-10.722124
7226273799000.0,2.1662961772296017,12.142574523201656,3.14134298456098,-0.8454375,0.23976462,-0.4156938,23.41058,-60.99374,-10.531425
7226278744000.0,1.7068602684085283,11.5717440040929,3.1951303387588044,-0.6795876,0.28344148,-0.30665436,23.32115,-61.08259,-10.341094
7226283744000.0,1.0824444583952029,11.065830716447744,3.1632259031981724,-0.4908302,0.39003745,-0.21563543,23.197586,-61.21906,-10.1339035
7226288747000.0,0.5780769710912638,10.655492108305102,3.142716572292372,-0.2837469,0.52595496,-0.16249016,23.068665,-61.321857,-9.986143
7226293773000.0,0.3408953977394518,10.457840956267324,3.147657851093317,-0.09712757,0.6762278,-0.13713925,22.896294,-61.475872,-9.838542
7226298782000.0,0.1092107614032917,10.279611373894015,3.1810114684140425,0.04337143,0.8078693,-0.14385876,22.70855,-61.595947,-9.786437
7226303766000.0,-0.1132998877756635,10.134297972314718,3.2627500641708687,0.15393804,0.8552113,-0.14996742,22.500422,-61.75912,-9.733385
7226308712000.0,-0.3105798723374341,10.02401774448794,3.3337807332161686,0.2012801,0.8949176,-0.15363261,22.259645,-61.896835,-9.732666
7226313763000.0,-0.441963750228471,10.012425017574692,3.376287250615114,0.25228736,0.87689704,-0.15088372,22.023977,-62.062523,-9.725911
7226318775000.0,-0.5723331812302286,10.000921800926664,3.418465564850615,0.27672195,0.8384125,-0.11056661,21.782372,-62.18629,-9.749726
7226323833000.0,-0.6846886676111795,10.001440058885567,3.3764328771664616,0.28038713,0.7583892,-0.008857546,21.551615,-62.322388,-9.744579
7226328826000.0,-0.7897532535559852,10.005642727280716,3.3091914993320444,0.25717425,0.70188415,0.12675454,21.318323,-62.462997,-9.71411
7226333853000.0,-0.8940984204514364,9.92151275991792,3.209553353830369,0.23335053,0.6835582,0.29993483,21.074148,-62.582447,-9.670311
7226338812000.0,-0.9956104563440492,9.7509725124829,3.079617971631327,0.20861048,0.6899723,0.4868596,20.82168,-62.708897,-9.581488
7226343784000.0,-1.090221206502411,9.520291745629898,2.9548705205696204,0.20830505,0.71776664,0.65118235,20.539957,-62.83307,-9.475202
7226348834000.0,-1.1448808738471972,8.940899370705244,2.860127087025316,0.22785273,0.7452556,0.79473567,20.237932,-62.97067,-9.325888
7226353732000.0,-1.1978953393233875,8.378946132610006,2.7682353370253163,0.25228736,0.75655663,0.9086621,19.908289,-63.116425,-9.171087
7226358813000.0,-1.1949881236714976,7.942102979066022,2.756439308373591,0.30818152,0.7357872,0.9868528,19.569317,-63.283276,-8.987751
7226363798000.0,-1.133486830072464,7.661503269323671,2.829472167270531,0.37507126,0.65057147,1.0409144,19.236008,-63.464466,-8.775145
7226369001000.0,-1.0662401165388489,7.372385185374545,2.901176034433341,0.45020768,0.5448918,1.0644327,18.922386,-63.612293,-8.580297
7226373831000.0,-0.9515765750561624,7.168140802385932,2.890426300526764,0.50426924,0.43371433,1.0708468,18.629856,-63.771957,-8.365934
7226378743000.0,-0.8349663647532729,6.960428916414904,2.879494065961732,0.5558874,0.35216382,1.0699304,18.357079,-63.89115,-8.147974
7226383802000.0,-0.7570577932132659,6.759088477926642,2.836695157039314,0.6081163,0.30085114,1.0769554,18.103569,-64.022995,-7.9185896
7226388801000.0,-0.7360279565341533,6.576829746980013,2.7525757737242844,0.6612616,0.22540927,1.0763446,17.87833,-64.164314,-7.6811876
7226393767000.0,-0.7151369445420602,6.395774164287283,2.669011689398931,0.7189884,0.1386664,1.070236,17.65287,-64.29879,-7.436462
7226398941000.0,-0.7508669393186261,6.3495806197523965,2.65617818170902,0.7831292,0.013439035,1.056186,17.457273,-64.444405,-7.1830735
7226403848000.0,-0.807733190784697,6.362703635995532,2.6736755214744488,0.85154617,-0.06078109,1.042747,17.270391,-64.60172,-6.9300294
7226408801000.0,-0.8719108466171617,6.412146224284928,2.654880047552256,0.89736104,-0.24984388,1.0332786,17.136545,-64.756226,-6.6640887
7226413833000.0,-0.9425972992024202,6.491668477676934,2.6062830969838653,0.9801333,-0.46089783,1.0180069,17.02869,-64.93269,-6.3954744
7226418789000.0,-0.99796997506101,6.593799561854702,2.55304334987798,1.0647382,-0.67347896,1.0201449,16.966476,-65.11593,-6.121473
7226423759000.0,-1.0292424895156749,6.736759601276516,2.4904983209686504,1.1481212,-0.8717047,1.0393872,16.952831,-65.31503,-5.8293304
7226428776000.0,-1.0575262585152838,6.856591260371179,2.4094660212336243,1.2217305,-1.0280862,1.0714576,16.977764,-65.54096,-5.5334044
7226433750000.0,-1.0748606847161573,6.895593628820961,2.270790566375546,1.2538009,-1.1667526,1.1209377,17.04221,-65.77195,-5.2144117
7226439002000.0,-1.0934864889525002,6.921840664281242,2.126283348814742,1.2617421,-1.2614367,1.1841623,17.133354,-66.04346,-4.8756213
7226443792000.0,-1.1140039198497182,6.782322005635566,2.015489093425172,1.2366967,-1.3109168,1.2415836,17.240334,-66.30615,-4.5240736
7226450123000.0,-1.1390073369355609,6.597873894272076,1.8713601291169453,1.210124,-1.3304645,1.282817,17.367556,-66.60424,-4.153515
7226453822000.0,-1.1322436933651552,6.489655632458233,1.8104873016706444,1.1664472,-1.3539828,1.2855659,17.50356,-66.87953,-3.7824743
7226458713000.0,-1.1233004706825775,6.346564116229117,1.7299982508353222,1.1676689,-1.3912456,1.3038919,17.65018,-67.1733,-3.4032345
7226463804000.0,-1.076271799164423,6.260482615560301,1.764677117927769,1.1701124,-1.4395039,1.3130548,17.803831,-67.44328,-3.0324516
7226468788000.0,-1.0142319425865751,6.2028742202766685,1.8488740496147065,1.1841623,-1.5250251,1.325883,17.971914,-67.70643,-2.658429
7226473801000.0,-0.9523963800547944,6.152744237369863,1.9449418810958905,1.2153164,-1.65911,1.3429873,18.170765,-67.979355,-2.2735794
7226478822000.0,-0.8909176511689497,6.108830617223744,2.050334046712329,1.2470814,-1.8161024,1.344209,18.395828,-68.24487,-1.8891765
7226483842000.0,-0.8166926641272727,6.118464889636364,2.124222901818182,1.328021,-1.9507982,1.323745,18.630814,-68.49534,-1.5039927
7226488800000.0,-0.7221401399662337,6.217128531593074,2.1447777825108223,1.4367551,-2.0250182,1.3029755,18.886738,-68.751434,-1.1208227
7226493998000.0,-0.6194721574665718,6.372661396257616,2.162198903204368,1.6007724,-2.0073032,1.2745703,19.126211,-69.00009,-0.75894064
7226498766000.0,-0.4930240693836538,6.990450616797215,2.14052210168526,1.7629571,-1.9608774,1.2727377,19.371754,-69.26816,-0.40349334
7226503753000.0,-0.3607680678590078,7.636615642558747,2.1178496584856394,1.8781052,-1.8408424,1.2779301,19.58404,-69.56594,-0.053874824
7226508742000.0,-0.3672811148161765,8.078194953125,2.1227943838235293,1.9068159,-1.6927075,1.2782356,19.772524,-69.8717,0.274298
7226513732000.0,-0.5034425385110294,8.3285565078125,2.153540488970588,1.8958203,-1.5115861,1.2684617,19.916702,-70.185196,0.5748025
7226519890000.0,-0.710394330254469,8.586404076270593,2.152903124290221,1.8283197,-1.2318097,1.1798862,20.034552,-70.56332,0.8854805
7226523762000.0,-0.8689618259936909,8.71117829232387,2.1243089539432174,1.616044,-1.1432343,1.1294898,20.14967,-70.88075,1.1942953
7226528965000.0,-1.0820368983932702,8.87884364514546,2.0858855375394323,1.539075,-0.95325524,1.0118983,20.202045,-71.2268,1.3958719
7226533744000.0,-1.164649847076419,9.16707307321416,2.1284287294779576,1.3744467,-0.75777835,0.9275989,20.228012,-71.4765,1.5775616
7226538733000.0,-1.1374274455024571,9.602631143080975,2.2509295187949574,1.2272283,-0.57787853,0.8561276,20.21456,-71.70225,1.7101585
7226543853000.0,-1.1094902444484012,10.04962599529948,2.37664690530589,1.0858129,-0.37995818,0.79717916,20.20487,-71.91799,1.76721
7226548824000.0,-1.229423293607346,10.215078875994752,2.692825648010494,0.9755518,-0.15515977,0.7883216,20.139181,-72.09476,1.7988952
7226554996000.0,-1.4568613046961083,10.27710761093135,3.189054178137298,0.8900307,0.06566802,0.768163,20.025795,-72.23525,1.7945839
7226558809000.0,-1.7388139139136394,10.220262608636052,3.65521918577793,0.8268061,0.27458394,0.6973027,19.860533,-72.35371,1.7639983
7226563742000.0,-2.26498852138451,10.038125361549003,4.440433687131597,0.77182823,0.37598756,0.61269784,19.667309,-72.44813,1.7177597
7226568916000.0,-2.8149553863562997,9.823228747684988,5.255891066239062,0.7122689,0.32925636,0.5143485,19.448294,-72.43665,1.5901835
7226573768000.0,-3.312347339937133,9.392945259111375,5.9427655117747005,0.63285637,0.129198,0.39461896,19.258026,-72.4087,1.4484123
7226578765000.0,-3.8246036449749385,8.949802927618725,6.650166914153428,0.56016344,-0.10262536,0.2929099,19.18093,-72.29465,1.1985362
7226583812000.0,-4.032375791167032,8.486732944975511,6.920794732747847,0.49418998,-0.26328292,0.24678956,19.150642,-72.164314,0.95525634
7226589227000.0,-4.1199595522293535,7.983125781574058,7.01713678303496,0.4541783,-0.3463606,0.20891592,19.175404,-72.025444,0.71141917
7226594050000.0,-4.136025756875094,7.457057036287299,6.864180577897735,0.398895,-0.36102137,0.1518,19.321821,-71.796486,0.37265253
7226598869000.0,-4.063364030881692,6.82040109091318,6.369388361898335,0.33169982,-0.36896262,0.089491755,19.498213,-71.55539,0.04058328
7226603722000.0,-3.990189646933573,6.179253279562153,5.87110518608487,0.29901853,-0.37323865,0.05497787,19.717363,-71.299,-0.2879073
7226608742000.0,-3.852294601906725,5.915614098479773,5.382641562483896,0.2302962,-0.39278635,-0.025350908,19.958822,-71.014786,-0.6345427
7226613764000.0,-3.682932472043288,5.853652461479,4.907601252769904,0.17470746,-0.41080686,-0.09865474,20.209408,-70.726715,-0.979524
7226618794000.0,-3.4807138642676767,5.828595596548822,4.422436946885521,0.13194689,-0.40378192,-0.17562376,20.480648,-70.47564,-1.306883
7226623766000.0,-3.220189225378788,5.872684262474747,3.92543624540404,0.092240654,-0.38056904,-0.26175576,20.766054,-70.206955,-1.651238
7226629252000.0,-2.928356807931666,5.930599339231239,3.380224635980128,0.06261369,-0.3381139,-0.3436117,21.047405,-69.995056,-1.9631535
7226633743000.0,-2.6322053618669923,6.099293246003661,2.975359400644993,0.04062254,-0.32375857,-0.39400807,21.339708,-69.77018,-2.284815
7226638735000.0,-2.3030163129347163,6.286806045515558,2.525328838455504,0.042455133,-0.29871312,-0.42332962,21.601124,-69.619026,-2.5506647
7226644010000.0,-1.6481468812030076,6.625062257142857,1.7699091864661656,0.08399397,-0.26419923,-0.44929138,21.863184,-69.468666,-2.8276656
7226648784000.0,-0.9270956837704016,6.989780054703832,0.9692069551439576,0.1600467,-0.18295415,-0.48624873,22.112377,-69.32427,-3.1185603
7226653771000.0,-0.3171490270727273,7.31126537930303,0.5101390937818182,0.2519819,-0.08093964,-0.5216789,22.311386,-69.280334,-3.3358197
7226658900000.0,0.1591607180121211,7.579189677616162,0.4357156873696969,0.3359759,0.02321288,-0.55833083,22.491743,-69.24999,-3.5680802
7226663736000.0,0.5573580643909656,7.778551101587928,0.4690850147627971,0.40286562,0.118202426,-0.57451874,22.534725,-69.39983,-3.6710474
7226668791000.0,0.9250105427122992,7.936116134628661,0.6027768368458428,0.45020768,0.20647246,-0.57940567,22.552067,-69.56354,-3.787194
7226673740000.0,1.2105680773600291,8.038625429516216,0.8115593591864468,0.48472157,0.28191432,-0.5867361,22.4994,-69.78374,-3.8239625
7226678755000.0,1.4194219277405329,8.08648782986048,1.1074356813009605,0.50518554,0.34025195,-0.5992588,22.42714,-70.00915,-3.8671575
7226683769000.0,1.5867736436265163,8.123154156075978,1.4105747952246548,0.54183745,0.38881573,-0.6044512,22.31354,-70.26224,-3.828473
7226688744000.0,1.6449255833244336,8.130423105843313,1.7304104825387137,0.5500842,0.41141775,-0.61178154,22.191713,-70.50733,-3.794993
7226693816000.0,1.7042113397360592,8.13783378186742,2.0564821621481424,0.52839845,0.44318274,-0.61208695,22.058233,-70.734344,-3.6983526
7226698848000.0,1.789572649683662,8.185113108020095,2.490107037197618,0.46883908,0.45875978,-0.61941737,21.923067,-70.94576,-3.607599
7226703806000.0,1.8867628272422776,8.251378844622256,2.971640055452177,0.42455134,0.45906523,-0.6209445,21.782022,-71.14969,-3.5181034
7226708805000.0,2.0269263303030303,8.425935202020202,3.5080036753535357,0.3115413,0.40561453,-0.61850107,21.663631,-71.28332,-3.4173973
7226713753000.0,2.205331036639118,8.700069850321395,4.086731206078972,0.23060162,0.3173445,-0.61636305,21.554893,-71.409424,-3.3165002
7226718990000.0,2.60203035193821,9.322914099096472,4.78014959912562,0.13836098,0.18234327,-0.61361414,21.482502,-71.46346,-3.2023382
7226723767000.0,3.308723873579132,10.442956307053336,5.546845498761295,0.042455133,0.044593163,-0.59131753,21.43367,-71.49316,-3.07869
7226728914000.0,4.070153966919265,11.649750789857183,6.372925422442437,-0.09712757,-0.0720821,-0.5723807,21.415384,-71.44708,-2.9295852
7226733743000.0,4.462974717113439,12.340679728031244,6.164335435709214,-0.27488935,-0.1441642,-0.52870387,21.418943,-71.36556,-2.7674625
7226738797000.0,4.64771218933073,12.753116812710813,5.253537299884608,-0.49418998,-0.15149458,-0.4541783,21.432648,-71.23601,-2.5957706
7226743841000.0,4.6446368131709335,13.053911139966967,4.2215805026218,-0.68416905,-0.039095376,-0.3491095,21.33399,-71.06775,-2.2698746
7226748765000.0,4.287687812620424,13.13828123025048,2.981994303034682,-0.81092364,0.17104226,-0.26267207,21.210281,-70.856735,-1.9567025
7226754824000.0,3.8484607625928975,13.242098934764655,1.4566789530553264,-0.8402451,0.36713,-0.18509217,20.997305,-70.75848,-1.5841329
7226758747000.0,3.460415565607819,13.460620963347589,0.6181574175931582,-0.8005389,0.43218717,-0.12797627,20.764557,-70.64156,-1.2230392
7226763744000.0,2.8506874167030283,13.907476347412514,-0.2839060896151497,-0.6908886,0.408058,-0.09621128,20.505638,-70.53499,-0.87721235
7226768783000.0,2.307285873727453,14.46420474520729,-1.028367661138918,-0.6072,0.35094208,-0.07269296,20.209229,-70.589294,-0.5867466
7226774529000.0,2.2189413272169234,15.88811281679101,-0.6490052589064124,-0.5018258,0.32620203,-0.0421497,19.91746,-70.67345,-0.2989305
7226779204000.0,2.033702988598656,17.006073142686976,-0.2716421732034374,-0.3484986,0.5500842,0.004886922,19.579538,-70.87482,-0.122757375
7226783807000.0,0.9234941274823448,17.774968006806773,0.6622834824232111,-0.18478674,1.0552697,0.05100725,19.181967,-71.10228,0.030066492
7226788716000.0,-0.2605196242491279,18.594977758699905,1.6582950060971666,-0.17928895,1.5137241,0.062002823,18.755354,-71.32974,0.14775251
7226798828000.0,-2.955286871907416,17.345661763223315,3.3172121722417494,-0.5503896,1.7641789,-0.0027488936,18.26378,-71.48511,0.22480685
7226803726000.0,-4.055008485714286,16.319358847263388,3.8960612011855367,-0.84757555,1.7189748,0.12980886,17.72153,-71.65212,0.3415636
7226808973000.0,-4.7252003,14.94422288934993,4.109529813278008,-1.1600331,1.3509285,0.40775254,17.32049,-71.61127,0.30810192
7226813711000.0,-5.225569501541911,13.719373333052983,4.051897817559106,-1.3952162,0.67164636,0.6630942,17.143568,-71.37531,0.13652876
7226818841000.0,-5.514806869077656,12.433874720773758,3.3861928999813102,-1.5332718,-0.11728613,0.7770206,17.085535,-71.08648,0.057797067
7226823808000.0,-5.728821101658059,11.23259744079007,2.709780848011235,-1.5540411,-0.8304713,0.754724,17.22853,-70.70654,-0.022883693
7226828825000.0,-5.628696291274803,10.226995997372471,1.8739564664763977,-1.4990633,-1.4376713,0.65148777,17.54768,-70.323105,-0.026193775
7226834163000.0,-5.520172844400479,9.18212234940646,0.9972401774311216,-1.3762794,-1.9098701,0.5002986,18.012484,-69.96438,-0.045491625
7226838744000.0,-5.378873887015736,8.891450374712432,0.5491201846003496,-1.1447614,-2.2739458,0.34116822,18.614029,-69.66281,-0.046273682
7226845147000.0,-5.1873523507501975,8.524119898657542,-0.0819158553219268,-0.8866709,-2.5470026,0.18845193,19.296394,-69.443634,-0.0424667
7226848826000.0,-5.147163577116785,8.768342939194525,-0.4992594486598228,-0.5323691,-2.7510316,0.16218472,20.054554,-69.324455,-0.022041874
7226853752000.0,-5.093352786435027,9.095345575151356,-1.0580619876058612,-0.43860126,-2.8695395,0.11301007,20.857958,-69.240654,-0.011455934
7226858804000.0,-5.037381772124968,9.527725815227406,-1.667258024541419,-0.22968534,-2.8185322,0.055588737,21.670288,-69.29444,-0.014848833
7226863760000.0,-4.98172583816065,10.04453171689421,-2.299351345489572,0.02107485,-2.5607471,-0.02687807,22.462414,-69.38923,-0.054976206
7226868794000.0,-4.860553189388214,10.613480882868396,-2.91756243640164,0.29718593,-2.0674734,-0.10629055,23.16302,-69.62539,-0.13183214
7226873819000.0,-4.272502271508963,11.499426073398183,-3.362469327429858,0.56046885,-1.402852,-0.17592919,23.752882,-69.9287,-0.27910402
7226878905000.0,-3.6773128250743623,12.396126021464749,-3.8127770782297614,0.8063421,-0.71685034,-0.27183503,24.194775,-70.40174,-0.49238154
7226883803000.0,-3.2091543277098995,12.643969140938284,-3.7906235508302006,0.96577793,-0.10323623,-0.3652974,24.479843,-70.91802,-0.7852282
7226888753000.0,-2.793319358255012,12.55857446871084,-3.519588177239975,1.0088439,0.15515977,-0.4538729,24.679667,-71.45952,-1.1357924
7226893825000.0,-2.365553025334957,12.455914763702802,-3.223067796102314,0.93676186,0.6035349,-0.5039638,24.617393,-72.10937,-1.4637356
7226898775000.0,-1.9305723481120585,12.1980056954933,-2.738045131059683,0.9016371,0.9795224,-0.50854534,24.502626,-72.7654,-1.8142639
7226903739000.0,-1.4943614225091353,11.939367187494923,-2.2516506847421844,0.8604037,1.2522738,-0.49449542,24.27555,-73.34867,-2.128288
7226908739000.0,-0.7100914935243645,11.479436244617128,-1.0876566882143437,0.93187493,1.3106114,-0.48808134,24.000793,-73.93822,-2.4509673
7226914309000.0,0.4125515648372999,10.823122161728994,0.6956184880038858,1.1374311,1.1905763,-0.4981606,23.696333,-74.53758,-2.7733366
7226918762000.0,1.2269235418854612,10.400040139891695,1.942055839563505,1.3579534,0.9593639,-0.49480084,23.393196,-75.07299,-3.0094678
7226923767000.0,1.6437912156219232,10.533752238267148,2.268471114834264,1.5717562,0.68600166,-0.48930305,23.133902,-75.64864,-3.2280695
7226928727000.0,2.05691082835576,10.6662621299639,2.591951587430259,1.702176,0.39858958,-0.4456262,22.918402,-75.90107,-3.217925
7226933744000.0,2.425155404153033,10.793974023575805,2.556211956657437,1.7119498,0.15027285,-0.38728857,22.767025,-76.17529,-3.1831396
7226938748000.0,2.7709328117543417,10.918614725312526,2.363219906418324,1.6136005,0.0036651916,-0.3036,22.660877,-76.45299,-3.1157556
7226943798000.0,3.11170931284869,10.99604418005072,2.0475342580557907,1.459357,-0.025961773,-0.18448131,22.565979,-76.69584,-2.948426
7226948840000.0,3.434842234897154,10.972234262045646,1.4795006165835447,1.3170254,0.04062254,-0.051618114,22.473759,-76.914635,-2.755646
7226954819000.0,3.818025840793181,10.94399953381234,0.805904198026909,1.2241739,0.17195857,0.07727446,22.336386,-77.15013,-2.4768744
7226958778000.0,3.895412700120807,10.850707800483226,0.7761280447123874,1.1774428,0.28985557,0.21746802,22.169931,-77.35807,-2.1693516
7226963748000.0,3.851181963200446,10.673784852801784,1.072474199149707,1.1279627,0.32406402,0.37904188,21.976784,-77.53733,-1.830873
7226968890000.0,3.741593918179815,10.476574931687969,1.3420803664609962,1.0512991,0.21410827,0.55741453,21.751392,-77.85923,-1.397375
7226973815000.0,3.519865563361246,10.261775618480977,1.5326281606434553,0.926988,0.018936822,0.7357872,21.529757,-78.13623,-0.9227984
7226978755000.0,3.2974618937564277,10.046322094167769,1.7237563034376375,0.8035932,-0.21013765,0.88606006,21.342756,-78.28779,-0.40566704
7226984039000.0,2.892031897947549,9.884989836944127,1.8337237499429877,0.68325275,-0.41874814,1.0024298,21.191479,-78.38025,0.14964534
7226988760000.0,2.439950536321376,9.777917838522937,1.881311272590124,0.6001751,-0.5204572,1.1001683,21.061052,-78.419586,0.734688
7226993799000.0,1.7496308480941627,9.637080121330325,1.8413395539109012,0.5537493,-0.66920286,1.1325442,21.012873,-78.35323,1.2956308
7226998815000.0,0.6418119098884556,9.44312949435434,1.6178033829398482,0.5510005,-0.7452556,1.178359,20.95776,-78.252075,1.8734745
7227003865000.0,-0.4735161678505437,9.247864210018475,1.3927520146376515,0.59895337,-0.7293731,1.1878275,20.947311,-78.13965,2.3644278
7227008799000.0,-1.319934939335221,9.069034250857056,1.1983612975555225,0.6395759,-0.6420194,1.1679744,20.92896,-78.01188,2.8460653
7227013762000.0,-1.8264743724996275,8.906091911015054,1.03896078206141,0.66614854,-0.50335294,1.1224649,20.885166,-77.88415,3.305649
7227018928000.0,-2.353732625920405,8.73648479281562,0.8730403583171858,0.6588182,-0.31398472,1.0552697,20.931202,-77.8876,3.5229723
7227023799000.0,-2.6190951551686616,8.665478623503809,0.6793488750163221,0.6209445,-0.093767814,0.9789116,20.930286,-77.89024,3.708938
7227028831000.0,-2.8113676743997096,8.62352813355096,0.4661011363612622,0.5671884,0.13072516,0.9086621,20.87674,-77.88862,3.861576
7227034170000.0,-2.99257952564354,8.594511567786222,0.2417280821157146,0.5348125,0.33414328,0.84238315,20.83751,-77.969536,3.8908472
7227038787000.0,-2.681834598774209,8.88719020421672,0.0863556035891149,0.5009095,0.48808134,0.79381937,20.751753,-78.03867,3.8933055
7227043854000.0,-2.340802641995587,9.20839502353518,-0.0841603913630792,0.4783075,0.57635134,0.7507534,20.66203,-78.16997,3.8397582
7227048770000.0,-2.0830369640902364,9.402211427514793,-0.0897329835188609,0.4792238,0.6047566,0.7101309,20.548325,-78.30133,3.7673244
7227053817000.0,-1.88641133158284,9.491586630177514,0.0532674433986686,0.45356745,0.5558874,0.68936145,20.432877,-78.41993,3.6876214
7227058760000.0,-1.724921031751749,9.53761121237099,0.2006320117281984,0.44959682,0.42943826,0.66523224,20.308983,-78.562965,3.6602657
7227063916000.0,-1.6154733336981368,9.506828781672093,0.3682238114261965,0.44165558,0.27152961,0.65209866,20.208576,-78.69675,3.6347573
7227068812000.0,-1.511544720495948,9.47759860698206,0.5273645118376393,0.4538729,0.0729984,0.6273586,20.143862,-78.80629,3.639626
7227073774000.0,-1.419196376324647,9.333138328204637,0.6772890251908837,0.45753807,-0.119729586,0.59498274,20.123373,-78.91082,3.6465492
7227078838000.0,-1.3399149494182134,9.0533215273584,0.8171975327473795,0.46975538,-0.3136793,0.5644395,20.160255,-79.02053,3.656865
7227083711000.0,-1.2981968124934853,8.686151911473456,0.8895642211049065,0.49327368,-0.3848451,0.5311473,20.20784,-79.09201,3.684552
7227088740000.0,-1.312540264864865,8.144686135135135,0.8608772789189189,0.5222898,-0.4905248,0.51923543,20.319443,-79.16688,3.7197921
7227093756000.0,-1.3268466393120393,7.604620051597052,0.8322644926781326,0.5290093,-0.5174029,0.47555858,20.423323,-79.21221,3.7495923
7227099565000.0,-1.3525037705729708,7.296151172690471,0.8278709008386963,0.54428095,-0.4541783,0.43127087,20.530958,-79.26731,3.7744055
7227103754000.0,-1.373324370230434,7.154570755864646,0.8320350468590408,0.5525276,-0.3115413,0.37201694,20.625399,-79.32662,3.7781014
7227108807000.0,-1.3716100305167598,7.037341406424581,0.8816079433659219,0.5543602,-0.13164146,0.28008172,20.702448,-79.396614,3.7599232
7227113739000.0,-1.3621861416500398,6.938389859896248,0.9428635900139666,0.5021312,0.07544186,0.17989981,20.734518,-79.45919,3.7132673
7227119073000.0,-1.2777785890068167,6.873390565967728,1.036386713512814,0.45998153,0.3042109,0.06658431,20.721272,-79.53879,3.6254547
7227123762000.0,-1.1847821525066873,6.826892428639227,1.1255083018638363,0.3930918,0.5317582,-0.027488936,20.655256,-79.603,3.5062969
7227128745000.0,-1.0265766911630732,6.762881529527281,1.25125021843304,0.34269542,0.73639804,-0.11484267,20.541962,-79.6578,3.3557937
7227133867000.0,-0.7882413052535682,6.678471083591457,1.4200710584573335,0.27488935,0.9108001,-0.18448131,20.380608,-79.69348,3.1784532
7227138740000.0,-0.5412137981556197,6.640641338773906,1.577925009745874,0.23579398,1.0238101,-0.23793201,20.18403,-79.691956,3.010037
7227143794000.0,-0.2622444412660903,6.649094993459086,1.7385437425901669,0.18051068,1.0891727,-0.269697,19.961056,-79.669815,2.8280578
7227148752000.0,0.0301466811801261,6.70239454767087,1.887662440022376,0.12186762,1.0910053,-0.2828306,19.729053,-79.60771,2.6896155
7227154751000.0,0.4859235903616762,7.012089078722539,2.0220582835231893,0.06169739,1.0247264,-0.26939157,19.505898,-79.53191,2.5553994
7227158771000.0,0.7385484445348207,7.21268817117515,2.097429854891936,-0.011911872,0.88422745,-0.20555615,19.296598,-79.41489,2.4962802
7227163743000.0,0.8750259351847549,7.437691603788055,2.141692787357657,-0.08979719,0.68477994,-0.10903945,19.126347,-79.28171,2.459404
7227168757000.0,1.012656292811217,7.664595709001472,2.186329622310016,-0.17195857,0.46609017,0.012217305,18.978552,-79.117065,2.5174744
7227173779000.0,0.997492585231516,7.864456526652352,2.165625174477222,-0.26633725,0.24465153,0.13347405,18.885447,-78.927765,2.6114764
7227178766000.0,0.8949468856235997,8.047255076829723,2.107664521172517,-0.3747658,0.024740042,0.22999077,18.849726,-78.71242,2.740564
7227183747000.0,0.7046616457845188,8.138537488232217,2.018732701569038,-0.48716503,-0.07819075,0.3042109,18.830341,-78.47029,2.9286969
7227188730000.0,0.4229837431829049,8.134972059399281,1.8975042492229528,-0.591623,-0.21471913,0.33017266,18.878366,-78.20484,3.1361763
7227193842000.0,0.1340137576120741,8.13131432867603,1.7731374323670055,-0.63194007,-0.3005457,0.38056904,18.946236,-77.946594,3.3512373
7227198780000.0,-0.6246226416630073,7.842642356754176,1.1651988540372316,-0.70829827,-0.3371976,0.4129449,19.036158,-77.657936,3.564455
7227203760000.0,-1.489689413481623,7.492062717613365,0.450380526839141,-0.7693848,-0.3051272,0.41691554,19.127298,-77.36984,3.7754078
7227208819000.0,-2.0891628918995204,7.264825588390253,0.0908809996998777,-0.8042041,-0.17623462,0.3921755,19.226631,-77.10233,3.9188015
7227213724000.0,-2.5664624473609936,7.092467146391947,-0.1212521606726879,-0.78954333,-0.026267206,0.32284227,19.311872,-76.84504,4.0402627
7227218805000.0,-2.929068701378845,6.98641187466011,-0.1884315938096615,-0.7305948,0.093462385,0.25167647,19.41375,-76.69909,3.9996557
7227223761000.0,-3.194504530132099,6.931494319670234,-0.1518197710153312,-0.6585127,0.21533,0.19303341,19.475983,-76.569305,3.9333723
7227228879000.0,-3.3675164034915217,6.860513269258553,0.004237350161533,-0.5864306,0.3118467,0.14966199,19.543154,-76.49733,3.7601683
7227233747000.0,-3.447032572930671,6.780997050978228,0.2521408777706431,-0.5531385,0.3903429,0.10323623,19.583576,-76.439644,3.5643013
7227239380000.0,-3.3882531659680546,6.733451053180685,0.5200521680601976,-0.5497787,0.45478916,0.04337143,19.625498,-76.39629,3.3038566
7227243775000.0,-3.2561267082540857,6.72179288048195,0.7182419317292956,-0.5757405,0.47128254,-0.022907447,19.660286,-76.354744,3.0288773
7227248753000.0,-3.0535210443553717,6.747331527180987,0.8748611140431953,-0.61117065,0.47769663,-0.06872234,19.69417,-76.279976,2.725864
7227253788000.0,-2.75337307439404,6.842833078440064,0.911242681123267,-0.63438356,0.4859433,-0.099571034,19.725002,-76.19934,2.4108057
7227258759000.0,-2.4673233439855786,6.944462473615208,0.9394647979514912,-0.6554584,0.4642576,-0.12217305,19.765118,-76.07115,2.1222303
7227263741000.0,-2.2132052567354967,7.069566845624386,0.943374304473943,-0.6835582,0.43401974,-0.1469131,19.807913,-75.932106,1.8289393
7227268824000.0,-1.9539354378892169,7.197207456407735,0.9473630683546378,-0.70402217,0.38453966,-0.16462818,19.846281,-75.78247,1.5966359
7227273756000.0,-1.6975647980708743,7.357056038142169,0.9320869624218914,-0.7144069,0.33261612,-0.183565,19.896784,-75.62794,1.3637801
7227278729000.0,-1.4379165846823234,7.526825801226673,0.9121140481977354,-0.71593404,0.29260445,-0.18875736,19.95911,-75.4699,1.1367708
7227283751000.0,-1.2878781328487052,7.58520515729214,0.9214010746796912,-0.6973027,0.27672195,-0.19883664,20.016602,-75.322655,0.9698178
7227288738000.0,-1.153344280208996,7.628603340917765,0.9344204708568832,-0.6872234,0.2678644,-0.20189096,20.084198,-75.17432,0.8090405
7227294063000.0,-1.043752626799573,7.571936991100036,1.0472573953542186,-0.6750061,0.25686884,-0.2312125,20.147097,-75.03978,0.69331276
7227298768000.0,-0.9595379255980776,7.48371195995016,1.1836050165939838,-0.67103547,0.22204952,-0.24617869,20.218857,-74.90811,0.58521736
7227303805000.0,-0.8405162400785449,7.41372319520463,1.252964247002894,-0.6789767,0.19181168,-0.2855795,20.286093,-74.773155,0.4914031
7227309066000.0,-0.6790971571703184,7.372066688548987,1.226928930343117,-0.69913524,0.19181168,-0.31978795,20.355667,-74.63868,0.39662704
7227313746000.0,-0.5609943404805626,7.338467199062317,1.2516553837956632,-0.7318166,0.2574797,-0.32803464,20.424854,-74.47229,0.3203717
7227318801000.0,-0.4569665287204532,7.305367465911311,1.3225834327798398,-0.79381937,0.32589662,-0.3387248,20.496124,-74.29614,0.23412329
7227323761000.0,-0.3725083181183666,7.297855846375247,1.4252852274509804,-0.8582657,0.40744713,-0.34116822,20.532936,-74.11015,0.16757806
7227328787000.0,-0.3075689850674581,7.319502274150027,1.5681517411764705,-0.95203346,0.4783075,-0.36682457,20.557066,-73.90355,0.08753317
7227333719000.0,-0.2610345280916604,7.392431402704734,1.7144930707738544,-1.0512991,0.5525276,-0.4034765,20.558235,-73.66688,0.01805902
7227338732000.0,-0.2718553880157776,7.641311034072126,1.8840198498873029,-1.1575897,0.6426302,-0.4456262,20.539446,-73.40908,-0.06670961
7227343775000.0,-0.2827410047317806,7.891680070773854,2.054561151915853,-1.2791518,0.7281514,-0.49388456,20.504164,-73.1016,-0.16160592
7227348827000.0,-0.3627945273178503,8.244336065691288,2.203900563712585,-1.4019357,0.8552113,-0.54825157,20.439747,-72.77338,-0.2795522
7227355669000.0,-0.5385960315754171,8.821184586610212,2.38519578036388,-1.5231925,1.022283,-0.6722572,20.35466,-72.42092,-0.4387466
7227358744000.0,-0.6384778994716981,9.168485167295596,2.513351598616352,-1.6771306,1.2275337,-0.7266242,20.226425,-72.00653,-0.6152666
7227363765000.0,-0.880415755514151,10.068191920518869,2.8989400436084907,-1.7146988,1.4813483,-0.87598073,20.064785,-71.60166,-0.86639804
7227369007000.0,-1.13300253929717,11.007499389229558,3.301500216611635,-1.806634,1.790446,-1.0555751,19.851824,-71.13155,-1.1857514
7227373759000.0,-1.3750115503149976,11.655876741795955,3.668518575345557,-1.9120082,2.1181753,-1.2611313,19.590445,-70.656525,-1.5696099
7227379016000.0,-1.6495790498824636,12.26655279783733,4.075636077856135,-2.0182989,2.3985624,-1.4892895,19.28847,-70.16225,-2.0222619
7227383741000.0,-1.882355767887833,12.855293348258709,4.523046714246947,-2.1138992,2.5103507,-1.6163495,18.98654,-69.61975,-2.547926
7227388734000.0,-2.115925914138399,13.512749728358209,5.068043571614654,-2.16399,2.6972754,-1.887879,18.63938,-69.05799,-3.1904223
7227393783000.0,-2.3173099381516766,14.097836021678797,5.651656482942014,-2.2696698,2.77455,-2.1523838,18.33885,-68.41171,-3.8898678
7227398815000.0,-2.440217227027229,14.502706868877054,6.305957013554872,-2.3701572,2.659402,-2.3692408,18.078556,-67.75229,-4.6250005
7227403743000.0,-2.5605843016652914,14.89920995611732,6.946734639719451,-2.450486,2.356718,-2.5216517,17.906622,-67.01022,-5.4149275
7227408739000.0,-2.64422213706763,15.228706246773362,7.533959401824126,-2.5170703,1.8820758,-2.5992317,17.84235,-66.24876,-6.183775
7227413741000.0,-2.706048613061435,15.517230231801756,8.086276566288074,-2.559831,1.2910637,-2.6542094,17.91806,-65.47713,-6.914107
7227418769000.0,-2.3825131191225686,15.975512090376286,8.015796861802428,-2.5906794,0.6081163,-2.7226264,18.192451,-64.61254,-7.614831
7227424638000.0,-1.0314236188900876,16.935119762337553,6.354385805147372,-2.591596,0.06780604,-2.8417451,18.6072,-63.75613,-8.267994
7227429139000.0,0.0044851945558312,17.65677202270012,5.100086173890268,-2.5546384,-0.17287487,-3.0320296,19.165533,-62.841717,-8.9116
7227433745000.0,1.058506016406948,18.0581103572282,4.285247184256962,-2.4636195,-0.12156218,-3.1496212,19.798725,-61.960976,-9.519721
7227438709000.0,2.1944502977071965,18.490642596176823,3.407075072980424,-2.3991733,0.074830994,-3.0897565,20.206583,-61.36625,-9.9408455
7227443759000.0,2.577422140022936,18.62091984919725,2.715971056154434,-2.283109,0.23945917,-2.8732047,20.60983,-60.82223,-10.347783
7227448733000.0,2.73675185206422,18.66189117775229,2.092308937232416,-2.1013765,0.1441642,-2.5491407,21.01289,-60.338318,-10.69599
7227453751000.0,2.5550501625457587,18.0831635161594,1.820094090147474,-1.8701639,0.1731803,-2.230269,21.123009,-60.05832,-10.930319
7227458957000.0,2.2056715875640625,17.191465722623157,1.7053727662064635,-1.5653422,0.3371976,-1.9291124,21.192451,-59.87812,-11.093786
7227463757000.0,1.7614163080365055,16.41844650035442,2.1784876815257843,-1.269378,0.42424592,-1.6358972,21.124556,-59.812775,-11.200588
7227468777000.0,1.267284933413078,15.62187266905901,2.813190887799043,-1.067487,0.4071417,-1.3448198,21.01523,-59.83088,-11.24147
7227473763000.0,0.6943365466569852,14.73633888600058,3.386857457972698,-0.9975429,0.3231477,-1.1010846,20.890265,-59.853462,-11.282639
7227478755000.0,0.0463514003078711,13.764360625181528,3.909874116468196,-0.9728029,0.2779437,-0.9288206,20.740341,-59.93821,-11.270573
7227483742000.0,-0.491331570954043,12.969686947025888,4.189901168637289,-0.96486163,0.15057829,-0.86498517,20.742516,-59.908257,-11.259888
7227488732000.0,-0.8979071625189062,12.3858865198153,4.179475980228331,-0.93431836,0.016187929,-0.7837401,20.7352,-59.912235,-11.19395
7227493744000.0,-1.306275271721931,11.799512222985747,4.169004829064864,-0.79779,-0.06627888,-0.6945538,20.857172,-59.812233,-11.1728
7227498802000.0,-1.6807196123335668,11.48563842887176,4.090464074562019,-0.6258314,-0.09010262,-0.54275376,20.9743,-59.750256,-11.106115
7227503795000.0,-2.0349550427169887,11.289372391230351,3.985150962789068,-0.43890667,-0.095294975,-0.35460728,21.085659,-59.745075,-11.001191
7227508919000.0,-2.3746828007034577,11.078911626572872,3.906004057822253,-0.31887165,-0.07422013,-0.19364429,21.206762,-59.692368,-10.952042
7227513762000.0,-2.6871638802734568,10.87671817596354,3.841669747547805,-0.2180789,-0.0870483,-0.09468412,21.315987,-59.699688,-10.867546
7227518798000.0,-2.756592663526661,10.71387643412022,3.664812679907987,-0.16401732,-0.1414153,-0.051618114,21.3868,-59.700214,-10.820856
7227523761000.0,-2.713576153925635,10.574072852779244,3.442560526480127,-0.12675454,-0.20189096,-0.025045475,21.44967,-59.732082,-10.751949
7227528864000.0,-2.6634440684474585,10.431030420514729,3.2135957199200966,-0.10629055,-0.25503623,0.015882496,21.506338,-59.744263,-10.718023
7227533753000.0,-2.5242382991173464,10.304874869831831,2.987386282300474,-0.06963864,-0.258396,0.06505715,21.560404,-59.77417,-10.674959
7227538707000.0,-2.383181767871412,10.17704206187866,2.758169355737248,-0.0125227375,-0.2171626,0.14844026,21.574495,-59.832134,-10.624969
7227543803000.0,-2.351515915300057,9.972594013028257,2.715434551730315,0.06841691,-0.15210545,0.22052236,21.578417,-59.90927,-10.569551
7227548775000.0,-2.33600704853025,9.763225485709633,2.6999257254458104,0.15454891,-0.10323623,0.27122417,21.567888,-60.008068,-10.503434
7227553864000.0,-2.272451276871549,9.538327520865394,2.626599875432244,0.21502456,-0.054061573,0.33536503,21.504381,-60.14126,-10.421226
7227558755000.0,-2.153729036933104,9.30936301756133,2.4866772955915635,0.2932153,0.013439035,0.39920044,21.418375,-60.304665,-10.336723
7227564058000.0,-2.01984273441525,9.050659848274083,2.3312691995878416,0.38423425,0.105374254,0.47952923,21.299198,-60.46906,-10.256247
7227568825000.0,-1.88656181875322,8.791938147861927,2.182308103967028,0.49480084,0.19364429,0.55924714,21.157059,-60.662674,-10.169388
7227573764000.0,-1.748471942005839,8.52388140812296,2.0279722845268764,0.6075055,0.2910773,0.63071835,20.967855,-60.8844,-10.07654
7227578762000.0,-1.525094735858848,8.2331357646082,1.8382787062272965,0.7281514,0.33078352,0.70921457,20.762062,-61.142155,-9.966382
7227584123000.0,-1.274547803098899,7.918665751898254,1.6357841651385725,0.8029824,0.45142943,0.7831292,20.504677,-61.419373,-9.863043
7227588786000.0,-1.054146775261959,7.643164417312072,1.589160848063781,1.0012082,0.48808134,0.81122905,20.248455,-61.765377,-9.737315
7227593764000.0,-0.8188569797285498,7.349052119741837,1.5393879824411545,1.0742066,0.55771995,0.8698721,19.93269,-62.11816,-9.584155
7227599071000.0,-0.685911257514978,6.997475033949813,1.532289,1.2113458,0.6270532,0.88697636,19.613234,-62.533062,-9.438429
7227603818000.0,-0.583281352453764,6.677743295198402,1.532289,1.3377949,0.66675943,0.8793405,19.2831,-62.960857,-9.288493
7227609026000.0,-0.525428231890618,6.403081064866078,1.7758434356950472,1.4434745,0.6609562,0.84207773,18.944153,-63.40683,-9.1215925
7227613934000.0,-0.5078451915344905,6.195601331871914,2.169703458888224,1.541213,0.58246,0.7996226,18.619482,-63.875114,-8.952836
7227618803000.0,-0.4904018697142002,5.989770276462666,2.5604337875205747,1.6022996,0.45906523,0.7473936,18.319252,-64.32251,-8.783715
7227623852000.0,-0.48841715,6.087758431083803,2.787003231533709,1.6551393,0.28221974,0.70371675,18.061205,-64.78165,-8.606887
7227628803000.0,-0.48841715,6.221482607211926,2.9875894791028736,1.6759088,0.060170226,0.66156703,17.860975,-65.04138,-8.442517
7227634370000.0,-0.4913604636171214,6.37991370939793,3.205395997365945,1.6960673,-0.20769419,0.63071835,17.724417,-65.30608,-8.261299
7227638827000.0,-0.599776569332079,6.797516538212606,3.1009952796801503,1.7266107,-0.49449542,0.6160576,17.65432,-65.57057,-8.060865
7227643777000.0,-0.7201848536688618,7.261311468127939,2.9850465355597366,1.7449366,-0.77396625,0.62796944,17.64695,-65.77235,-7.8386345
7227648801000.0,-0.8050438388480166,7.550333678227718,2.7038004515095317,1.7776178,-0.9984592,0.6563747,17.696386,-65.982765,-7.5940914
7227653664000.0,-0.8770253384956208,7.780674320762494,2.3870819552807827,1.8072448,-1.1701124,0.7199047,17.79443,-66.1974,-7.317513
7227658684000.0,-0.89064306,7.824251,2.327164,1.8212948,-1.2886202,0.7996226,17.935394,-66.51263,-7.017803
7227663618000.0,-0.89064306,7.824251,2.327164,1.8161024,-1.3735305,0.86193085,18.10242,-66.824615,-6.6989403
7227668687000.0,-0.8774364756262895,7.705391804990668,1.8693364220257391,1.7962493,-1.4107933,0.93034774,18.28985,-67.251274,-6.350487
7227673647000.0,-0.8634367623342175,7.579394453580901,1.384013749071618,1.7577647,-1.4040737,0.9804387,18.480688,-67.66194,-5.995639
7227678643000.0,-0.7642501154626866,7.30241306161194,1.352407111283582,1.7293595,-1.352761,0.99173975,18.662811,-68.059326,-5.644467
7227683619000.0,-0.655190752119403,7.008427119641791,1.3761155974925374,1.6719382,-1.2852604,1.010982,18.829357,-68.42964,-5.290211
7227688631000.0,-0.5374657655694197,6.817728399782135,1.408230638047138,1.5855007,-1.2342533,1.0317514,19.00235,-68.890724,-4.928899
7227693653000.0,-0.4183958663180828,6.64150488801743,1.4415702925925926,1.5128077,-1.2073752,1.0580186,19.161295,-69.32888,-4.574644
7227698666000.0,-0.2915217438612099,6.560171152481218,1.4952997040332148,1.4495832,-1.1936307,1.1108584,19.295485,-69.71466,-4.209836
7227703665000.0,-0.1637429453024911,6.493915475860024,1.5520902416370106,1.4095715,-1.1777482,1.1569787,19.418674,-70.07556,-3.8512144
7227708653000.0,-0.0920193879814449,6.511300251816029,1.692087145992894,1.3787229,-1.1972959,1.2211196,19.528984,-70.39802,-3.4624429
7227713644000.0,-0.030691718851362,6.544322869334781,1.847765066304777,1.3698653,-1.2699889,1.2690725,19.644299,-70.7043,-3.0708604
7227718712000.0,-0.0414646736539401,6.665809622108332,2.0257945106356967,1.3631458,-1.3909402,1.320996,19.752832,-70.97478,-2.6452644
7227723669000.0,-0.0682498329430129,6.8041997485047965,2.204362254767726,1.3869696,-1.5430456,1.3558154,19.883339,-71.23913,-2.2114608
7227728658000.0,-0.0970678284787421,7.031497294134685,2.253308613965036,1.4205672,-1.6936239,1.3744467,20.017214,-71.44492,-1.7646363
