timestamp,acc_x,acc_y,acc_z,gyro_x,gyro_y,gyro_z,ori_azimuth,ori_pitch,ori_roll
7583154697000.0,2.587069582787806,9.316894989395324,-0.4481124465137148,-0.66950834,3.0246992,-1.6765196,237.12186,-64.900734,-22.685446
7583158986000.0,2.578692934434589,9.325271812684813,-0.4606774146701337,-0.66950834,-3.1606169,-2.8725939,238.96661,-64.915115,-22.403652
7583164002000.0,2.5688964158662198,9.33506853584174,-0.475372187407974,-4.9586987,0.74128497,0.036957346,236.88596,-65.18357,-21.952126
7583168962000.0,2.5592092683185497,9.344755885693887,-0.4899029036718671,-1.1710287,0.75502944,0.03023783,238.09592,-65.40521,-22.09715
7583173936000.0,2.5494947780157045,9.35447057887223,-0.5044746340542471,-1.180497,0.77121735,0.0290161,237.95114,-65.359055,-21.64165
7583178913000.0,2.5397744285510364,9.364191131334756,-0.5190551531763028,-1.2009611,0.7654142,0.035430185,237.8076,-65.788185,-21.18849
7583183973000.0,2.52989197560926,9.374073790659727,-0.5338788274293873,-1.201572,0.754724,0.037873644,237.6604,-66.20978,-20.742657
7583189015000.0,2.5200446776384227,9.383921294279592,-0.5486497692444173,-1.180497,0.72265357,0.03481932,237.5209,-66.624176,-20.300135
7583193997000.0,2.5103145629040493,9.39365161221576,-0.5632449362659326,-1.1487321,0.7324274,0.023518313,237.37225,-67.03091,-19.866282
7583199094000.0,2.500359846966454,9.40360653604568,-0.5781770049750179,-1.1377366,0.75441855,0.035124753,237.22826,-67.434845,-19.431017
7583203922000.0,2.490930502539004,9.413036077393697,-0.5923210166931785,-1.183246,0.75441855,0.04886922,237.0885,-67.82503,-19.002935
7583210101000.0,2.478862582237179,9.425104249719585,-0.6104228908453146,-1.2208142,0.7693848,0.049785517,236.93806,-68.20959,-18.582705
7583214000000.0,2.471247624920976,9.432719366065053,-0.6218453228438872,-1.244638,0.7498371,0.064446285,236.7966,-68.58803,-18.158361
7583218932000.0,2.461615162883656,9.442352029264809,-0.6362940108708066,-1.248914,0.7501425,0.07086037,236.64577,-68.95374,-17.74368
7583223914000.0,2.451885048149282,9.452082347200976,-0.6508891778923218,-1.2379184,0.73823065,0.07422013,236.50424,-69.31256,-17.329702
7583228974000.0,2.442002595207505,9.461965006525949,-0.6657128521454064,-1.239751,0.7302894,0.079107046,236.3617,-69.66208,-16.919577
7583233972000.0,2.4322412316100754,9.471726573977769,-0.6803548924451923,-1.241889,0.7079928,0.09560041,236.22672,-70.00813,-16.509647
7583239044000.0,2.422335342021006,9.48163267043948,-0.6952137216569798,-1.2443326,0.66706485,0.10293079,236.10059,-70.34402,-16.105383
7583244000000.0,2.4126560066891005,9.491312207912712,-0.7097327196013052,-1.1798862,0.63346726,0.101098195,235.97925,-70.6834,-15.704244
7583248979000.0,2.40293175111655,9.501036666564698,-0.7243190978831447,-1.1282681,0.5720753,0.09743301,235.87848,-71.01284,-15.30387
7583253976000.0,2.3931723405730607,9.510796280921788,-0.7389582086030387,-1.0122037,0.50579643,0.08460484,235.79036,-71.35275,-14.910521
7583259071000.0,2.3832215307433477,9.52074729856225,-0.7538844181523402,-0.8720101,0.43799037,0.07727446,235.72116,-71.69777,-14.519269
7583263982000.0,2.373630082838789,9.530338946772712,-0.7682715850015296,-0.73853606,0.3817908,0.0729984,235.66913,-72.05135,-14.133802
7583268939000.0,2.3639487944529423,9.540020437340674,-0.782793512525747,-0.6178902,0.24556783,0.04734206,235.66219,-72.412766,-13.754322
7583273919000.0,2.354222585826451,9.549746849087386,-0.7973828203874784,-0.34116822,0.021991149,-0.005497787,235.6991,-72.810814,-13.382038
7583279593000.0,2.343140957764862,9.560828708575508,-0.8140052566941981,0.059253927,0.019242255,0.00061086525,235.7101,-73.25291,-13.011037
7583283965000.0,2.334602205934537,9.56936763872744,-0.8268133799816458,0.055283304,0.036651913,0.009162978,235.7828,-73.653496,-12.649213
7583289029000.0,2.324711940776996,9.579258110431324,-0.841648772554298,0.0030543262,0.03145956,0.0033597588,235.86365,-74.10689,-12.294497
7583293932000.0,2.315136117303967,9.58883413388396,-0.856012502764352,-0.009468411,0.019242255,-0.0018325958,235.94147,-74.56038,-11.943823
7583298988000.0,2.3052614765779547,9.59870898083002,-0.870824458697869,-0.0036651916,0.01863139,0.004581489,236.01756,-75.00103,-11.597787
7583303921000.0,2.295627061486693,9.608343597124502,-0.8852760763046804,0.00030543262,0.009773844,-0.004276057,236.10101,-75.426704,-11.262427
7583308962000.0,2.285781716569797,9.618189147649638,-0.9000440885398185,-0.01160644,0.008857546,-0.0030543262,236.182,-75.846466,-10.928588
7583314185000.0,2.2755809158356275,9.628390161415316,-0.9153452843152852,-0.0018325958,0.008246681,-0.0070249503,236.2666,-76.26016,-10.604062
7583318956000.0,2.2662628954828183,9.637708376363822,-0.9293223099796064,-0.007941248,0.0143553335,-0.004276057,236.34964,-76.66314,-10.283206
7583323967000.0,2.2601264,9.641990138549223,-0.9440915278290156,0.0021380284,0.032986723,-0.008857546,236.41626,-77.061485,-9.977535
7583328992000.0,2.2601264,9.637003151502592,-0.9590522025699482,-0.0015271631,0.033292156,-0.013133603,236.48708,-77.44976,-9.675779
7583333965000.0,2.2643952207961933,9.629999075196032,-0.9644116021345754,0.0018325958,0.043676864,-0.008246681,236.53375,-77.843956,-9.376774
7583339071000.0,2.2742267945379,9.62016726191274,-0.957857179716507,0.0027488936,0.053145275,-0.007941248,236.58209,-78.22793,-9.08535
7583343994000.0,2.2837060028282288,9.61068782266604,-0.951537669030226,0.00061086525,0.05497787,-0.014660766,236.61533,-78.61381,-8.795956
7583349229000.0,2.293728355837059,9.607972878787878,-0.9505396906358669,0.004886922,0.05009095,-0.0030543262,236.64856,-78.99798,-8.506375
7583354679000.0,2.304099654396423,9.613158636363636,-0.955725366989568,0.011911872,0.056199603,-0.005192355,236.6803,-79.3707,-8.227962
7583358958000.0,2.310171079466369,9.621596473774982,-0.9598414794663692,0.009773844,0.04917465,-0.0009162979,236.70435,-79.74768,-7.941569
7583364139000.0,2.315204801775388,9.636697956071828,-0.964875201775388,0.013439035,0.04917465,-0.004886922,236.72647,-80.11775,-7.6634116
7583368958000.0,2.321351716897783,9.63255128688865,-0.9559638183359628,0.0030543262,0.044898596,-0.010079277,236.73926,-80.48898,-7.381142
7583373996000.0,2.329364450286473,9.60851337955659,-0.9319259779373912,0.009468411,0.032070424,0.004276057,236.75568,-80.860466,-7.0990133
7583379049000.0,2.336741,9.5860506564623,-0.90912998684727,0.017715093,0.024740042,0.00061086525,236.7565,-81.23042,-6.819417
7583383960000.0,2.336741,9.582105957393274,-0.9012407534664096,0.013439035,0.02321288,-0.0067195175,236.76099,-81.59457,-6.541594
7583389007000.0,2.336741,9.578052018032375,-0.8931330440644134,0.011301007,0.0125227375,0.004581489,236.75536,-81.96319,-6.256943
7583393994000.0,2.3459079499443,9.579862713795023,-0.8845317408930561,0.013439035,0.005497787,0.0036651916,236.75163,-82.32058,-5.982816
7583398994000.0,2.3592436350538435,9.584308034998145,-0.8756412563033791,0.010995574,0.0076358155,0.005497787,236.74997,-82.67315,-5.709533
7583403966000.0,2.3632698463778223,9.579779201203037,-0.8824971796050911,0.0018325958,-0.0015271631,0.011911872,236.7374,-83.028,-5.4323125
7583408961000.0,2.3590996680149945,9.567268404847006,-0.9033480931915264,0.004886922,-0.004581489,0.015882496,236.72467,-83.377686,-5.1603646
7583414086000.0,2.3575897021677794,9.561043275135916,-0.92445876092836,0.009468411,-0.00061086525,0.0061086523,236.69876,-83.72865,-4.884465
7583419000000.0,2.364066943266121,9.573998027871449,-0.9438905011320624,0.006414085,0.0027488936,0.0033597588,236.676,-84.074356,-4.6104403
7583423970000.0,2.370617999077833,9.587100413116785,-0.9635436856685708,0.0070249503,0.005192355,0.011301007,236.63594,-84.42779,-4.333761
7583428938000.0,2.3709478453063944,9.596644331793962,-0.978884466642984,0.006414085,0.004276057,0.009468411,236.59875,-84.7707,-4.0656595
7583433982000.0,2.358077783654529,9.59878915168739,-0.9853194638721138,0.00580322,0.011911872,0.015882496,236.56073,-85.11047,-3.7980955
7583439256000.0,2.3446208635213144,9.601031772646536,-0.9920478888099468,0.014966198,0.014049901,0.01282817,236.50732,-85.45983,-3.5267677
7583444088000.0,2.332291732295737,9.603086445470693,-0.9982124222380108,0.010079277,0.016798794,0.011911872,236.45445,-85.80121,-3.2583165
7583450322000.0,2.31895398125,9.605878724772728,-1.0059064176363637,0.0061086523,0.021991149,0.008246681,236.40332,-86.136,-2.9966776
7583453857000.0,2.329212845833333,9.60844347439394,-1.0084711136969695,0.007330383,0.022296581,0.015271631,236.35553,-86.46607,-2.737252
7583458869000.0,2.3437580875,9.612079832272729,-1.0121073956363635,0.0143553335,0.02321288,0.009162978,236.28436,-86.79648,-2.4841974
7583464315000.0,2.353822522766176,9.615114,-1.0078892242725093,0.019242255,0.027794369,0.009773844,236.21521,-87.12266,-2.232223
7583468828000.0,2.3464243546045878,9.615114,-0.9819956163942144,0.0030543262,0.025350908,0.010995574,236.151,-87.43813,-1.9866322
7583473793000.0,2.3382852221157138,9.615114,-0.953508631436152,0.01160644,0.030543262,0.005192355,236.06314,-87.76638,-1.7368945
7583478808000.0,2.340237755392201,9.61861082841775,-0.9306200766902734,0.019547688,0.031154128,0.01863139,235.98071,-88.08897,-1.4862535
7583483845000.0,2.3445621248767368,9.622935288211565,-0.9089982337830568,0.016493361,0.0290161,0.02321288,235.90114,-88.400826,-1.2447222
7583488890000.0,2.349399468990668,9.624691,-0.887893164730237,0.014660766,0.022296581,0.014049901,235.80167,-88.71486,-1.0005813
7583493835000.0,2.3544790867102865,9.624691,-0.8675746620272444,0.018325957,0.018325957,0.007330383,235.70566,-89.02375,-0.75947434
7583498831000.0,2.345407583171913,9.63168244188862,-0.8514256561743342,0.013133603,0.012217305,0.016493361,235.59233,-89.336075,-0.5102542
7583503831000.0,2.330914746206618,9.6413444677159,-0.8369329200968523,0.018325957,0.015271631,0.008857546,235.48155,-89.63837,-0.27289778
7583508897000.0,2.334065808712266,9.650746520443256,-0.8607891682002293,0.025350908,0.014049901,0.01038471,235.34824,-89.94625,-0.022705253
7583513861000.0,2.3431486768055025,9.659829009170808,-0.897120289659916,0.02107485,0.015882496,0.021685716,235.21765,-90.2593,0.2227433
7583518844000.0,2.34316497196962,9.659845106126582,-0.9034910039392404,0.01038471,0.009773844,0.02076942,235.09662,-90.54847,0.4556091
7583523871000.0,2.3382897746430378,9.654969806987342,-0.893740609286076,0.0143553335,0.0106901415,0.014966198,234.97714,-90.83428,0.6851561
7583528863000.0,2.325428024834725,9.65059301461378,-0.8849865989961726,0.010079277,0.005497787,0.018325957,234.86533,-91.11778,0.91321766
7583534444000.0,2.306830759916493,9.645944123173278,-0.875688010229645,0.02107485,0.010995574,0.01160644,234.754,-91.39407,1.1318392
7583538910000.0,2.3034424189213403,9.643845,-0.8798375778623903,0.009162978,0.011911872,0.009468411,234.65204,-91.65909,1.3489026
7583543895000.0,2.316273590978319,9.643845,-0.9012228125201576,0.0106901415,0.009773844,0.016798794,234.55292,-91.92242,1.5619828
7583548866000.0,2.326715660277092,9.643396655595623,-0.9225117976307964,0.006414085,0.009162978,0.0125227375,234.45218,-92.17199,1.7659246
7583554225000.0,2.3234688324729547,9.640149793888783,-0.9452393718921996,0.007941248,0.009773844,0.010995574,234.3552,-92.41901,1.9680792
7583558893000.0,2.320640657031695,9.637321588916304,-0.9650364080280888,0.002443461,0.022296581,0.008857546,234.26093,-92.66143,2.167362
7583564370000.0,2.318532744038563,9.633952782029072,-1.0204539529562402,-0.0021380284,0.022907447,0.007330383,234.17326,-92.8981,2.3617299
7583568881000.0,2.3282943006929275,9.630698895834902,-1.3718665609324394,0.0009162979,0.023823744,0.01038471,234.08524,-93.12994,2.5524476
7583578851000.0,2.3587019672872342,9.629335004137117,-1.946401050797872,-0.0021380284,0.027183503,0.010079277,234.00172,-93.356804,2.7393193
7583583921000.0,2.396963836968085,9.64368302423168,-1.7168293832446808,0.008246681,0.026267206,0.007941248,233.92245,-93.58106,2.922117
7583588904000.0,2.3981594150384846,9.65050665956187,-1.3526374833688573,0.0021380284,0.016798794,0.015271631,233.84296,-93.86801,3.1158059
7583593898000.0,2.31792933157687,9.641068127688968,-0.6777608354726663,0.004886922,0.0290161,0.009773844,233.76387,-94.14797,3.3006294
7583598911000.0,2.2628549154535387,9.631539427564684,-0.4289171411295681,0.0076358155,0.01863139,0.0061086523,233.70787,-94.39489,3.484629
7583603849000.0,2.2723767594885733,9.622017384677338,-1.257318153820598,0.007330383,0.018936822,0.009468411,233.64938,-94.63591,3.664867
7583608856000.0,2.2845554518143216,9.61907068181818,-1.7352458425014476,0.005497787,0.0067195175,0.007330383,233.59685,-94.7687,3.8110268
7583613892000.0,2.303172953802355,9.633034136363635,-1.3023874997104803,0.0012217305,0.011911872,0.0067195175,233.54012,-94.900024,3.9555168
7583618827000.0,2.3037218770413257,9.644835291076063,-0.8880275375164703,0.013133603,0.010995574,0.0009162979,233.48813,-95.13636,4.106371
7583623797000.0,2.2372062804152524,9.649586011778798,-0.5079378526292673,0.0030543262,0.01038471,-0.0027488936,233.43918,-95.36314,4.2540646
7583628804000.0,2.185381331240804,9.653421,-0.3525288739578224,0.0012217305,0.005497787,-0.004581489,233.39491,-95.53118,4.3908634
7583638837000.0,2.2034655874047333,9.65902094524669,-1.7421557553850782,0.008246681,0.007330383,0.003970624,233.35088,-95.69667,4.526548
7583643804000.0,2.2082357403931008,9.69241221540313,-1.6801437167268352,0.00061086525,0.013133603,-0.004276057,233.29807,-95.795784,4.638837
7583648804000.0,2.2176554939623787,9.718654658373788,-1.6124192422936892,-0.004886922,0.016493361,-0.0018325958,233.24942,-96.00054,4.770271
7583653863000.0,2.2507289750682644,9.707630305370143,-1.5168734426122572,-0.013439035,0.009468411,-0.01160644,233.2056,-96.19398,4.8926682
7583658884000.0,2.2835540291565533,9.696688760315537,-1.4220453223907767,-0.003970624,0.013439035,-0.018325957,233.15924,-96.37863,5.013134
7583663870000.0,2.306657821854864,9.691729,-1.3818015597021231,-0.0076358155,0.018325957,-0.018325957,233.1177,-96.55433,5.129684
7583668835000.0,2.321725629238407,9.691729,-1.3868241971268616,-0.010995574,0.030543262,-0.01985312,233.07578,-96.72557,5.2413316
7583673890000.0,2.348923110852481,9.68240349985079,-1.3606610837958817,-0.022907447,0.032375857,-0.018325957,233.04079,-96.88049,5.356993
7583678827000.0,2.3818451857157066,9.668293786630857,-1.3183328281110116,-0.020463986,0.03634648,-0.022907447,233.00357,-97.03194,5.468069
7583683913000.0,2.3942018,9.65383060067114,-1.3421717820864587,-0.021991149,0.032070424,-0.032986723,232.96973,-97.17956,5.579437
7583688873000.0,2.3942018,9.63976617114094,-1.4031185408705094,-0.0106901415,0.030848695,-0.033292156,232.93594,-97.32748,5.689757
7583693837000.0,2.3967890840939536,9.631680661873716,-1.39589686385639,-0.013744468,0.028710667,-0.031154128,232.9079,-97.46581,5.799573
7583698839000.0,2.4010672973296416,9.627402359292669,-1.3445582603554522,-0.01282817,0.032986723,-0.03604105,232.87968,-97.602005,5.9049344
7583703955000.0,2.3967459763018866,9.622932807358492,-1.283892068490566,-0.014660766,0.024740042,-0.04062254,232.85953,-97.74338,6.0120535
7583708949000.0,2.378698225660377,9.618420775471698,-1.2117009716981133,-0.016187929,0.031154128,-0.03604105,232.83563,-97.88262,6.1184177
7583714176000.0,2.3558968537921685,9.611523609219237,-1.1444318369247948,-0.021685716,0.03940081,-0.03145956,232.81076,-98.01125,6.221037
7583718934000.0,2.326824938759072,9.600621835553074,-1.1008241351303931,-0.033292156,0.02565634,-0.034208454,232.79163,-98.13493,6.3201575
7583723904000.0,2.2964576798867533,9.58923431661217,-1.0552734251854214,-0.026572637,0.019242255,-0.032375857,232.76505,-98.2481,6.414471
7583728970000.0,2.265310555371502,9.595213692827276,-1.0114959627774205,-0.025350908,0.016798794,-0.03176499,232.74222,-98.35488,6.5053434
7583733977000.0,2.234463996984561,9.606781006272112,-0.9690818292417176,-0.03268129,0.014049901,-0.0290161,232.72237,-98.45983,6.595165
7583739183000.0,2.187877532553699,9.601713311455848,-0.9214716491479714,-0.035124753,0.00580322,-0.025045475,232.69984,-98.5521,6.673882
7583744059000.0,2.113579162529833,9.560849173031029,-0.8694628095266508,-0.040317107,0.0027488936,-0.02076942,232.67757,-98.64123,6.751801
7583748927000.0,2.0394026930310263,9.520052079952269,-0.81753930024105,-0.049785517,0.00030543262,-0.026267206,232.65416,-98.71347,6.8175254
7583753886000.0,1.9902165736113744,9.465728570047393,-0.7739621123867299,-0.052839845,-0.004276057,-0.020158553,232.63333,-98.78786,6.886111
7583758989000.0,1.948526176113744,9.405509300473934,-0.7322716858672985,-0.050396383,0.0012217305,-0.014966198,232.61081,-98.85854,6.951615
7583763963000.0,1.9315543861506357,9.361585903718458,-0.7093786584519066,-0.071776666,-0.00580322,-0.019547688,232.58295,-98.90446,7.0001493
7583769051000.0,1.9269322311136403,9.32460837383798,-0.6955121933409221,-0.06780604,-0.014660766,-0.005192355,232.55539,-98.95953,7.054455
7583773918000.0,1.9326318889957907,9.316349849669272,-0.6946592259971939,-0.07422013,-0.024129177,0.0106901415,232.52328,-98.999245,7.099441
7583778909000.0,1.9470028477450392,9.330721108538786,-0.7042398651633595,-0.0693332,-0.027794369,0.021991149,232.49298,-99.04291,7.1460695
7583783963000.0,1.956230957643841,9.352761199374816,-0.6984342694246362,-0.094989546,-0.059253927,0.043066,232.47421,-99.084175,7.1989994
7583789055000.0,1.960994566669923,9.381342953013576,-0.6793798333203087,-0.108123146,-0.09590584,0.0711658,232.4591,-99.13173,7.255686
7583793981000.0,1.939058627901383,9.411778571256765,-0.6679578253156946,-0.12736541,-0.12522738,0.101098195,232.4512,-99.182495,7.322056
7583799063000.0,1.890281970835839,9.445921889957908,-0.6630801647023452,-0.13347405,-0.16432275,0.12675454,232.45766,-99.23783,7.392393
7583803909000.0,1.8580110039951976,9.458729666844528,-0.6718437120056026,-0.13408493,-0.20586158,0.16249016,232.472,-99.29716,7.4711018
7583808980000.0,1.838576353371573,9.452251652904687,-0.6945174710664977,-0.1414153,-0.24770586,0.18234327,232.49805,-99.35576,7.5497503
7583813941000.0,1.8195632786833853,9.445914159874608,-0.7166993915360502,-0.13683382,-0.29138273,0.20066923,232.53418,-99.41448,7.6246157
7583818937000.0,1.8052814987170631,9.428526946708772,-0.7373073025658738,-0.1301143,-0.32834008,0.20830505,232.58049,-99.47366,7.69942
7583823915000.0,1.795871983193526,9.40029830188493,-0.7561263336129478,-0.12064589,-0.36651915,0.22174409,232.64008,-99.53885,7.7781453
7583828966000.0,1.8398131052905464,9.457789794606954,-0.8024039351651817,-0.10629055,-0.3848451,0.2284636,232.7073,-99.60369,7.849036
7583833981000.0,1.9420560372072853,9.60926074627454,-0.8781394900812111,-0.094989546,-0.4269948,0.22540927,232.79196,-99.66948,7.9177136
7583839436000.0,2.051383023018711,9.7735833612474,-0.9596271214553016,-0.10476339,-0.5158757,0.21685717,232.8941,-99.73625,7.9842176
7583843983000.0,2.0984595414553016,9.90032763035343,-1.006703602079002,-0.086437434,-0.5369505,0.20769419,232.9881,-99.80753,8.048956
7583848974000.0,2.150132931276507,10.039448071767152,-1.0583769503950102,-0.07971791,-0.59803706,0.19394971,233.12288,-99.896545,8.124377
7583853970000.0,2.193550225432453,10.147119945405452,-1.1083325900008436,-0.057726767,-0.64568454,0.16920967,233.25829,-99.98477,8.192191
7583860164000.0,2.23859860048941,10.247227445532022,-1.1683971423424182,-0.03848451,-0.70616025,0.1337795,233.41302,-100.06657,8.249518
7583863973000.0,2.263335037024467,10.296350484293606,-1.2009512724704023,0.02107485,-0.70707655,0.124005646,233.56964,-100.16739,8.313686
7583869007000.0,2.282360100370955,10.30396068445146,-1.2237813961641673,0.03481932,-0.68508536,0.07696902,233.73312,-100.24555,8.355027
7583873922000.0,2.3009354254301497,10.3113909851618,-1.246071832786109,0.064751714,-0.6444628,0.047036625,233.89175,-100.34725,8.404469
7583878910000.0,2.3055078841677146,10.304211127631026,-1.2620689213668763,0.06994407,-0.58062744,0.0012217305,234.03381,-100.43108,8.436519
7583884151000.0,2.301298910683438,10.287374882096437,-1.274695797870021,0.06841691,-0.4981606,-0.05100725,234.15619,-100.5091,8.459407
7583888924000.0,2.316123399819657,10.26966949188458,-1.2916166702434626,0.036651913,-0.38240165,-0.084910266,234.25548,-100.57888,8.477612
7583893948000.0,2.3898778037150583,10.243638467177636,-1.326324672984671,0.0021380284,-0.24495697,-0.12889257,234.32172,-100.632645,8.481348
7583899125000.0,2.468743691403538,10.214199530170276,-1.3566546967102,-0.022602014,-0.11575896,-0.15943582,234.36111,-100.677025,8.482114
7583903977000.0,2.583969346751529,10.148905278227806,-1.3067235740452967,-0.05222898,0.021685716,-0.18387043,234.35706,-100.705284,8.477022
7583908981000.0,2.7028047093569185,10.081565534468508,-1.2552282447346668,-0.057421334,0.13316862,-0.19517145,234.33185,-100.745255,8.487199
7583913975000.0,2.820152869714952,9.97781076390802,-1.1513449,-0.050396383,0.22143865,-0.19883664,234.27382,-100.777374,8.496046
7583918972000.0,2.936786513934513,9.851035121224966,-1.0144271,-0.060170226,0.2507602,-0.1994475,234.20145,-100.80271,8.503875
7583923923000.0,3.0060019556921964,9.744942795822409,-0.9179471997133556,-0.079107046,0.23854288,-0.19303341,234.1297,-100.83868,8.5370455
7583929752000.0,3.0665752749796544,9.628844548783796,-0.8220397094728276,-0.10934488,0.17531833,-0.1853976,234.06526,-100.86981,8.568611
7583933961000.0,3.109715696245227,9.543993553245652,-0.8156619568413237,-0.14874569,0.14660765,-0.18478674,233.99371,-100.89912,8.619007
7583939002000.0,3.1609212524501484,9.441582333899024,-0.8566264606204921,-0.15821409,0.07941248,-0.16462818,233.95291,-100.933784,8.67246
7583943952000.0,3.191438831406032,9.347714678450169,-0.9222300220990614,-0.18875736,0.017104227,-0.14844026,233.92236,-100.95678,8.734846
7583948911000.0,3.2104087643898542,9.257606865388455,-1.0028524972638306,-0.21533,-0.050396383,-0.11942416,233.9139,-100.9863,8.802933
7583954407000.0,3.186279708670812,9.211000280120988,-1.120278793211225,-0.2171626,-0.09560041,-0.1001819,233.92471,-101.02986,8.880883
7583958953000.0,3.146043025239456,9.196368439421946,-1.2300154213241472,-0.19333886,-0.13713925,-0.06994407,233.95496,-101.08242,8.966696
7583963933000.0,3.101143295651386,9.172838103098387,-1.3823103402971553,-0.15943582,-0.13561209,-0.05222898,233.9943,-101.151985,9.059264
7583968944000.0,3.053319070701214,9.125014332125383,-1.6388217415020838,-0.09682214,-0.09254608,-0.03940081,234.03397,-101.23549,9.157408
7583974129000.0,3.001151493339107,9.080109913313912,-1.8708085494449256,-0.0018325958,-0.013744468,-0.027183503,234.07535,-101.338196,9.248783
7583979000000.0,2.916676364719313,9.098474055035036,-1.6467659053932762,0.100792766,0.09407325,-0.00580322,234.09639,-101.45604,9.347148
7583983959000.0,2.8306750995118497,9.117169965278324,-1.418675683292654,0.22143865,0.19028452,0.016493361,234.12216,-101.614624,9.4407425
7583988974000.0,2.69154236152,9.1695856416,-1.1285079883520002,0.3109304,0.23609942,0.014660766,234.13199,-101.78189,9.533707
7583993949000.0,2.50096399177,9.2553456866,-0.780702275752,0.36163223,0.2489276,-0.015271631,234.12448,-101.95851,9.625222
7583999377000.0,2.248329727100461,9.310182712452375,-0.4340106378377782,0.376293,0.26511553,-0.011301007,234.08661,-102.0976,9.703894
7584003923000.0,2.0038916170342893,9.327642925807098,-0.1677477505913375,0.3436117,0.28802297,0.013133603,234.0439,-102.23249,9.779309
7584008989000.0,1.7816930676210154,9.339769943034238,-0.1001720414256198,0.2773328,0.28191432,0.014660766,233.97803,-102.28481,9.806392
7584014009000.0,1.6114135711629278,9.344500023711138,-0.2609915375413223,0.17623462,0.29229903,-0.016187929,233.90154,-102.32213,9.831847
7584018942000.0,1.507086945419809,9.378214462543992,-0.4898567968909,0.08155051,0.3454443,-0.040927973,233.79315,-102.274475,9.808413
7584023935000.0,1.4734299583107089,9.445528336349923,-0.802386193852187,0.029932396,0.37598756,-0.050701816,233.68861,-102.21368,9.780089
7584028915000.0,1.465952355169259,9.513927859469351,-1.0556462373833486,0.01863139,0.43676865,-0.06078109,233.57047,-102.12701,9.709618
7584034161000.0,1.4889349227813358,9.587472171820677,-1.2532964148398902,0.033292156,0.47403142,-0.06811147,233.45097,-102.035675,9.638425
7584038955000.0,1.5198000550085418,9.638599029041778,-1.418039598804162,0.0720821,0.47555858,-0.06994407,233.3511,-101.968735,9.551839
7584043946000.0,1.5754738887637831,9.653445296862866,-1.551656823070353,0.13316862,0.44776422,-0.074830994,233.24977,-101.90732,9.464555
7584048893000.0,1.6306569093182173,9.66816068193819,-1.684096095449604,0.20555615,0.42943826,-0.08399397,233.16397,-101.876175,9.377263
7584053913000.0,1.707112535876819,9.675297864999598,-1.7238252,0.26450464,0.4288274,-0.093462385,233.08209,-101.853905,9.290677
7584059020000.0,1.7936279984964218,9.67923046442068,-1.7238252,0.33536503,0.4260785,-0.07941248,233.00787,-101.851524,9.21008
7584064182000.0,1.8822874028811916,9.688513820006476,-1.6029509553447718,0.37934732,0.42149702,-0.057421334,232.94957,-101.88567,9.143268
7584069082000.0,1.9696381515053416,9.7113010407899,-1.169994962062156,0.41722095,0.37110063,-0.05375614,232.90656,-101.93196,9.075911
7584073892000.0,2.0553844986241505,9.733669720783425,-0.7449912217173844,0.4147775,0.3481932,-0.049480084,232.85959,-102.000404,9.037585
7584078975000.0,2.042584005032675,9.758772902726658,-0.5253201707872005,0.39064834,0.33841935,-0.03268129,232.82533,-102.075386,9.004046
7584084074000.0,1.9948999862840835,9.7844486830166,-0.3822680149590626,0.35185838,0.312763,-0.023823744,232.80325,-102.146194,8.969481
7584088959000.0,1.9490413425626607,9.807717850081984,-0.2653366841157179,0.30879238,0.27488935,-0.018936822,232.74106,-102.16535,8.961057
7584094011000.0,1.89993019850082,9.819051418599203,-0.3371145036800187,0.26083946,0.26939157,-0.01740966,232.67813,-102.17656,8.954509
7584098981000.0,1.851616187022722,9.830201029749356,-0.4077272834176622,0.22296582,0.29657507,-0.011911872,232.59857,-102.15181,8.9401245
7584103968000.0,1.7906309269601344,9.84671604393176,-0.4609362027490498,0.20463985,0.31764993,-0.0030543262,232.52347,-102.1228,8.926728
7584108959000.0,1.7188053061080173,9.867841213559622,-0.498961552196588,0.2125811,0.30665436,-0.00580322,232.45042,-102.09054,8.911376
7584114973000.0,1.6306718876441515,9.869667759472817,-0.5369222576306725,0.20922135,0.2724459,-0.023518313,232.38751,-102.05196,8.881826
7584119073000.0,1.5689253472817133,9.84614510708402,-0.5545641210423843,0.19761491,0.25350907,-0.03481932,232.32434,-102.01445,8.85378
7584123971000.0,1.4951608217462933,9.81804414332784,-0.5756396934791074,0.2134974,0.24923302,-0.05131268,232.26608,-101.97134,8.804648
7584128969000.0,1.4698446040764332,9.799760289808916,-0.6071512747707006,0.23060162,0.25992316,-0.05497787,232.20961,-101.92737,8.7567
7584133953000.0,1.4774450453503185,9.788359786624204,-0.6451535049490446,0.258396,0.31215215,-0.06169739,232.14223,-101.885284,8.705757
7584138991000.0,1.4825000888795636,9.777539009819556,-0.6727146317750734,0.28344148,0.3753767,-0.06566802,232.07098,-101.837585,8.6399765
7584144002000.0,1.462361882920688,9.773511284515315,-0.5961893860469996,0.3231477,0.43951756,-0.07544186,231.98473,-101.79655,8.574261
7584148892000.0,1.4427099517415023,9.769580816198069,-0.5215119860050357,0.3481932,0.48472157,-0.07819075,231.88576,-101.76931,8.517238
7584154622000.0,1.4424111713027523,9.765397852844035,-0.3095083360770642,0.37690386,0.47555858,-0.081855945,231.78485,-101.748825,8.458808
7584159103000.0,1.4487104213284403,9.762248162055046,-0.1079321938363302,0.3726278,0.39064834,-0.1142318,231.69295,-101.72059,8.391345
7584164300000.0,1.4564586183272972,9.758569991324856,0.1076695051511833,0.31398472,0.3659083,-0.13775012,231.57478,-101.67684,8.326097
7584168941000.0,1.4714324004548134,9.754826467615596,-0.030838081158932,0.2761111,0.4120286,-0.118202426,231.46234,-101.639175,8.264825
7584173921000.0,1.4874999365451025,9.750809499705213,-0.1794628990482607,0.2657264,0.46944994,-0.09743301,231.325,-101.556984,8.203412
7584178972000.0,1.4962380442379182,9.753701582713754,-0.250701405901487,0.28588495,0.4813618,-0.09040806,231.18921,-101.47564,8.14441
7584185121000.0,1.5007987430607188,9.762823170848822,-0.2735049095399628,0.30757064,0.45142943,-0.09437868,231.05104,-101.395454,8.08929
7584189132000.0,1.504884269132856,9.76679637947494,-0.2822224737072394,0.30665436,0.43004912,-0.0983493,230.91559,-101.3455,8.0419035
7584194017000.0,1.527214937112172,9.74074382338902,-0.1966216704653938,0.28924468,0.44532076,-0.092240654,230.78003,-101.29817,7.997132
7584199067000.0,1.550299865115354,9.713811293556086,-0.1081295401949085,0.28863382,0.4251622,-0.069027774,230.65855,-101.26331,7.9605484
7584203971000.0,1.5946721483279482,9.691407168336026,-0.1521590643214863,0.2846632,0.37995818,-0.07819075,230.54039,-101.21916,7.9165473
7584209092000.0,1.662016897092084,9.671599901453956,-0.3225016836025848,0.27672195,0.3286455,-0.09682214,230.43175,-101.17706,7.875713
7584214079000.0,1.7267053442447204,9.652313253103337,-0.4808342955706916,0.23671028,0.33261612,-0.09743301,230.30608,-101.12451,7.8432646
7584218937000.0,1.7754570541431565,9.633562610511042,-0.5145854718160567,0.2284636,0.3640757,-0.06780604,230.18893,-101.079605,7.813624
7584223980000.0,1.8260653030146703,9.614097915041109,-0.5496219439867805,0.24617869,0.40194935,-0.055283304,230.08345,-101.06817,7.7984715
7584228973000.0,1.8525605465524115,9.605537,-0.5692684554005579,0.25778514,0.40500367,-0.048563786,229.98116,-101.05837,7.78981
7584234072000.0,1.8603456566679952,9.605537,-0.5770535817744121,0.26358834,0.37720928,-0.040927973,229.8788,-101.05327,7.7849646
7584239021000.0,1.8725105190202205,9.604224006411313,-0.5874677710438929,0.27122417,0.3622431,-0.02565634,229.76938,-101.07207,7.799229
7584243998000.0,1.9626196235656748,9.580717642774946,-0.6462345228620747,0.25778514,0.3643811,-0.0027488936,229.66508,-101.089966,7.8168244
7584248910000.0,2.051551896325826,9.557518274042412,-0.7042337764145981,0.25961772,0.3594942,0.01985312,229.5643,-101.119705,7.8395824
7584254214000.0,2.1019196198495163,9.553747070315298,-0.7306724239699033,0.2687807,0.35613444,0.043676864,229.46484,-101.15201,7.8685074
7584258970000.0,2.1223187871730564,9.561906481637406,-0.7347522574346113,0.25381452,0.3585779,0.05681047,229.36702,-101.181046,7.8999305
7584264023000.0,2.149067222781947,9.580669302971112,-0.7393339889688496,0.24923302,0.36193767,0.07849618,229.27463,-101.24675,7.961388
7584269005000.0,2.1834027140125425,9.61500499907474,-0.7442390591446489,0.26083946,0.37384954,0.09712757,229.18092,-101.31301,8.024644
7584273959000.0,2.2069884750156805,9.632106517353126,-0.7253765249215973,0.25992316,0.41325033,0.103847094,229.076,-101.38181,8.094447
7584278994000.0,2.217069844030943,9.627065727576834,-0.6749696798452854,0.25411993,0.4370741,0.109650314,228.97437,-101.453636,8.167348
7584283969000.0,2.212650129508046,9.610937346390806,-0.6603919704919541,0.25320363,0.45723262,0.11759156,228.85837,-101.53294,8.251058
7584289030000.0,2.1948227511908045,9.58419618583908,-0.6782193488091954,0.2443461,0.47219884,0.12339478,228.73901,-101.60814,8.334436
7584293971000.0,2.16351856536605,9.55889941673371,-0.6861978666934836,0.24037547,0.4999932,0.13561209,228.60587,-101.68204,8.422142
7584298987000.0,2.105549161826227,9.534745540627515,-0.6765363162510056,0.23976462,0.5119051,0.1386664,228.47475,-101.752174,8.506672
7584303924000.0,2.0515061974012654,9.515075058813473,-0.6874605130047872,0.23854288,0.52198434,0.14538592,228.33356,-101.826805,8.594567
7584309081000.0,2.0008436319028893,9.502409593776711,-0.7381231093622842,0.24617869,0.5412266,0.15515977,228.1887,-101.90221,8.682751
7584314170000.0,1.9489500691689428,9.492331818806086,-0.7827244267857979,0.23090707,0.56077427,0.160963,228.039,-101.96459,8.76083
7584318935000.0,1.8706093046742096,9.520819193757315,-0.7399931152329302,0.2312125,0.58001655,0.17654006,227.88693,-102.03355,8.84299
7584324492000.0,1.779247367990636,9.554041511197816,-0.6901593485384315,0.23365596,0.6337727,0.1957823,227.72206,-102.10145,8.9167795
7584328972000.0,1.682094570982358,9.573528495517207,-0.7060672511616698,0.22418754,0.6178902,0.19914207,227.57405,-102.16488,8.986324
7584334007000.0,1.5472871421768053,9.587474372794755,-0.785092287265015,0.21746802,0.59773165,0.20799962,227.41545,-102.23228,9.062609
7584338990000.0,1.4316274537462974,9.581550610733576,-0.8620027277487368,0.2171626,0.6230826,0.21105394,227.24178,-102.27424,9.116847
7584343946000.0,1.3447904148545042,9.544334410001744,-0.9364344815385957,0.21899518,0.6417139,0.2180789,227.0787,-102.31633,9.171761
7584348997000.0,1.2535122974181927,9.509125008405883,-1.0116828185229665,0.22693644,0.66339964,0.23243423,226.90735,-102.353325,9.206015
7584353887000.0,1.1375253987015912,9.502095725157613,-1.0784631747223057,0.21380283,0.67073005,0.24251351,226.7375,-102.38551,9.239805
7584358970000.0,1.0169606939620237,9.49478900803062,-1.1478792382317624,0.22479841,0.68508536,0.25992316,226.55397,-102.43207,9.264846
7584364315000.0,0.9265672832719404,9.50999885495902,-1.1939850666451792,0.22632557,0.68325275,0.2593123,226.37566,-102.47065,9.286092
7584369006000.0,0.885196261764435,9.54723266847776,-1.2063963666175523,0.21624629,0.66828656,0.26236662,226.20096,-102.51154,9.312102
7584373894000.0,0.8500391863172015,9.589438399236403,-1.2059197264369002,0.20799962,0.64904433,0.26358834,226.02902,-102.54329,9.310447
7584378976000.0,0.8399949602105046,9.644681747704055,-1.1607206565163553,0.20372356,0.6224717,0.25992316,225.86638,-102.571754,9.306902
7584384036000.0,0.8331822,9.707098570565933,-1.120301480747086,0.21288654,0.5910121,0.24465153,225.70007,-102.59706,9.289759
7584389151000.0,0.8331822,9.786206883302908,-1.0893459978092963,0.22296582,0.54428095,0.2312125,225.5485,-102.6199,9.2702675
7584394220000.0,0.8331822,9.864603762533353,-1.058668902401348,0.23548855,0.49541172,0.2098322,225.3944,-102.63357,9.24765
7584398970000.0,0.8490419768962332,9.945465880016425,-1.0846542706045366,0.2507602,0.44837508,0.18417588,225.25476,-102.6449,9.218159
7584403982000.0,0.8835275308241815,10.039069339731087,-1.1733313813507134,0.26633725,0.42058071,0.14508049,225.12418,-102.650604,9.177892
7584409100000.0,0.967182891522078,10.207142688311688,-1.2631286295238096,0.29260445,0.39553526,0.103847094,224.98698,-102.65178,9.129338
7584414056000.0,1.0904625290493506,10.433155597402598,-1.3494243895238094,0.32467487,0.37782016,0.0693332,224.85606,-102.65017,9.071606
7584418998000.0,1.1997528127772776,10.62333070426455,-1.4002472970041744,0.3381139,0.376293,0.051618114,224.73235,-102.65789,9.011853
7584423980000.0,1.258333050331505,10.681910901039537,-1.3182349399607105,0.32986724,0.37598756,0.03023783,224.61322,-102.659805,8.94214
7584428928000.0,1.3165135030449373,10.740091313252028,-1.2367822818613408,0.31429017,0.3857614,0.008246681,224.49127,-102.68401,8.88979
7584434000000.0,1.3341109268066016,10.754754,-1.1722335672568498,0.29657507,0.42119157,-0.013133603,224.36276,-102.70142,8.83412
7584440309000.0,1.3389514997276075,10.754754,-1.0996249228969717,0.24007004,0.47555858,-0.04520403,224.22618,-102.70078,8.771964
7584443963000.0,1.327015562216675,10.73727003095357,-1.0800955407688468,0.18753563,0.5342017,-0.07238753,224.06636,-102.68856,8.721806
7584448979000.0,1.274253703165252,10.67011873789316,-1.1088747092960558,0.15760323,0.5720753,-0.099265605,223.89755,-102.66288,8.66507
7584453925000.0,1.22314678442609,10.598199898331064,-1.1494769541042231,0.1554652,0.61269784,-0.12889257,223.69627,-102.62184,8.608057
7584459157000.0,1.1719486973688693,10.504336642200272,-1.2305406105074932,0.18753563,0.6261369,-0.15149458,223.49356,-102.57814,8.546494
7584463966000.0,1.124889905194142,10.418062101158036,-1.305050381846049,0.22235495,0.63071835,-0.17348573,223.27959,-102.531906,8.47317
7584469118000.0,1.068773330477032,10.485569703975266,-1.2921329323144877,0.25473082,0.6065892,-0.1863139,223.07207,-102.48968,8.39629
7584473892000.0,1.0162683977031803,10.562307747526502,-1.2719387014487633,0.28955013,0.54336464,-0.20922135,222.87564,-102.44957,8.309867
7584478976000.0,0.9173374960752247,10.949680926819298,-1.314880688389207,0.310625,0.5021312,-0.20341812,222.6765,-102.43197,8.227778
7584484049000.0,0.794191354374489,11.509797161774326,-1.39432980002453,0.33933565,0.462425,-0.2144137,222.49551,-102.4162,8.133273
7584488993000.0,0.7107728627181971,12.027828409508748,-1.4556746,0.33200526,0.4266894,-0.23671028,222.30794,-102.38898,8.027338
7584494017000.0,0.7678417981575566,12.446334015518437,-1.4556746,0.31612277,0.41050145,-0.26358834,222.12761,-102.36382,7.918122
7584498980000.0,0.8327193407793235,12.84054294837476,-1.4415149224302763,0.2770274,0.42302418,-0.27916542,221.92953,-102.30573,7.770628
7584503910000.0,0.9354457055976791,13.145609086042066,-1.363691945374827,0.23182335,0.47128254,-0.29718593,221.72665,-102.23977,7.6197157
7584509883000.0,1.0599050518573216,13.51521558508604,-1.2694045940660643,0.18295415,0.4981606,-0.30024028,221.50972,-102.16156,7.4775286
7584514458000.0,1.2580582349245648,13.813071052069631,-1.1097411401881625,0.12675454,0.5357288,-0.30298916,221.27795,-102.070946,7.3366957
7584518939000.0,1.7328477643094775,14.145091830483558,-0.714636533137795,0.06780604,0.5558874,-0.2919936,221.0469,-101.97299,7.20259
7584523914000.0,2.2599796341353966,14.513715658336558,-0.2759743104027852,0.027488936,0.58551437,-0.27397305,220.7887,-101.85593,7.090817
7584528966000.0,2.5962835701180174,14.67493593461841,0.0495643072560188,-0.022907447,0.61300325,-0.26175576,220.52924,-101.72714,6.9835873
7584534048000.0,2.772427529394178,14.663448055625492,0.279317250539103,-0.07819075,0.6203337,-0.23151793,220.27249,-101.59718,6.88882
7584539189000.0,2.9429087684589845,14.647327389262289,0.5048308715968904,-0.14446963,0.6221663,-0.21838433,220.00455,-101.43185,6.878911
7584543924000.0,2.986973370936918,14.566542514778524,0.6113204234431938,-0.204029,0.64812803,-0.20922135,219.73347,-101.26555,6.876733
7584548978000.0,3.034006634067536,14.48031511126407,0.7249842449914973,-0.25992316,0.68875057,-0.20586158,219.45506,-101.0793,6.9063587
7584554619000.0,2.8696828704028854,14.157228602490813,0.7867522428338097,-0.33017266,0.7312057,-0.19761491,219.17401,-100.88682,6.9388723
7584559205000.0,2.6186133524908124,13.771657234993874,0.8016968352225398,-0.41233405,0.7684685,-0.19425514,218.88736,-100.687195,6.9700212
7584563996000.0,2.356320709595753,13.368850339730503,0.8173094697917517,-0.46822822,0.7993172,-0.2049453,218.58801,-100.47985,7.008738
7584568957000.0,2.0894438729539977,12.987555752593524,0.8327245576066226,-0.5360342,0.8313876,-0.22479841,218.28206,-100.26099,7.0443196
7584573915000.0,1.825738955590485,12.629315704181076,0.8476512600607775,-0.600786,0.8594874,-0.25289822,217.97227,-100.0375,7.0725207
7584579941000.0,1.6066574295677096,12.271508163123956,0.8693759837592548,-0.66523224,0.87689704,-0.2938262,217.65051,-99.776024,7.0471067
7584584103000.0,1.479729120006369,12.043036861316777,0.885242034051429,-0.73823065,0.8765916,-0.3417791,217.32889,-99.502235,7.01016
7584589048000.0,1.345788728659315,11.764107965641324,0.918290734372606,-0.8014552,0.8713993,-0.39003745,216.99806,-99.19979,6.9311624
7584593984000.0,1.2772003300986652,11.45683208218224,1.0060838799466048,-0.86590147,0.86254174,-0.4465425,216.67087,-98.880905,6.8348923
7584599050000.0,1.2068055109924551,11.141463438421358,1.0961892436982008,-0.9370673,0.84604836,-0.5155703,216.34343,-98.53054,6.6998744
7584603973000.0,1.138397754486361,10.834996830992456,1.18375116745444,-1.0213667,0.81061816,-0.57757306,216.02673,-98.16571,6.549559
7584609162000.0,1.1492635654824075,10.700397228319494,1.2834167523071651,-1.1053606,0.745561,-0.6291912,215.7259,-97.78692,6.3813863
7584614026000.0,1.1851538559712351,10.632604577690268,1.379124124210256,-1.1829406,0.72082096,-0.679893,215.42635,-97.39397,6.196256
7584618944000.0,1.2429132616904603,10.617313449938546,1.4800037118653682,-1.2626585,0.6740898,-0.6979135,215.14629,-96.98171,5.997327
7584623959000.0,1.3337285249976365,10.680884276496172,1.5889821226623806,-1.3017539,0.6215554,-0.7443393,214.87743,-96.56165,5.7760468
7584628942000.0,1.4117884845095694,10.785752961124402,1.7193060326555023,-1.3521502,0.59803706,-0.7715228,214.61238,-96.15028,5.5652165
7584634075000.0,1.460789447159091,11.001356869318183,1.9104096897727272,-1.3997977,0.56382865,-0.80878556,214.36876,-95.7453,5.3384967
7584638938000.0,1.491427740965942,11.203592405426209,2.0551841808735807,-1.4450017,0.5323691,-0.8393288,214.13356,-95.36751,5.1215706
7584644000000.0,1.4820997129497786,11.408809411391188,2.111152446372908,-1.493871,0.50946164,-0.8622363,213.90979,-95.016235,4.8975744
7584649629000.0,1.449136514599156,11.606564890295358,2.166871804894515,-1.5421293,0.4972443,-0.8933904,213.69101,-94.699524,4.669581
7584653838000.0,1.3848844029817158,11.701053289732773,2.197108092714487,-1.5858061,0.5112942,-0.91538155,213.47598,-85.560234,4.4396853
7584659003000.0,1.2988618327198362,11.808203,2.2226221551465577,-1.6200147,0.52626044,-0.945314,213.26408,-85.76185,4.196723
7584663851000.0,1.1360980577855682,11.808203,2.114112971857045,-1.6652187,0.5314528,-0.98440933,213.05586,-85.885994,3.9473197
7584669123000.0,0.9560087683679273,11.807761864373044,1.988098237446688,-1.6942347,0.57604593,-1.0381655,212.83118,-85.939606,3.674328
7584673814000.0,0.7388573276845797,11.799245949862572,1.7283681356459104,-1.704925,0.65270954,-1.0830641,212.60085,-85.90322,3.3951142
7584678807000.0,0.5077259818453228,11.79018179272107,1.4519169742109752,-1.6841555,0.75991637,-1.1191051,212.34167,-85.82059,3.0799532
7584683847000.0,0.3099651306868226,11.77698666115231,1.228388059041643,-1.6627752,0.91354895,-1.1609493,212.05223,-85.66488,2.7517502
7584688809000.0,0.1202099589857387,11.763432918996008,1.0160429535082716,-1.6548339,1.0430524,-1.1685852,211.74341,-85.440544,2.4247754
7584693811000.0,-0.031125616267166,11.81418891781107,0.8402781382438619,-1.6597209,1.1557571,-1.1673635,211.3785,-85.22972,2.0526476
7584698794000.0,-0.1701387623420724,11.883695339471494,0.6764412248231377,-1.6658295,1.278541,-1.1505647,210.97733,-84.970665,1.6834311
7584703872000.0,-0.2111865886101856,11.871468344121848,0.5300450605045217,-1.6578883,1.3839152,-1.1511755,210.52805,-84.72905,1.2804024
7584709082000.0,-0.2349348812010154,11.843761856734888,0.3835972424178962,-1.6749926,1.4865406,-1.1450669,210.04797,-84.44279,0.88459826
7584714065000.0,-0.2633508377248398,11.75080216758796,0.2538194196565763,-1.6780468,1.5280794,-1.142318,209.53731,-84.17491,0.4691154
7584719086000.0,-0.3013227923330701,11.548285417039573,0.1399035633213126,-1.6545285,1.6041322,-1.1453724,208.99231,-83.88532,0.05368273
7584723927000.0,-0.3232717963274041,11.376687829349638,0.0441044157946081,-1.643533,1.6420058,-1.1731668,208.42142,-83.612335,-0.36328053
7584728875000.0,-0.1608404924926811,11.499608544561791,0.1231250498324069,-1.591304,1.6331482,-1.2089024,207.8486,-83.339775,-0.7804902
7584734746000.0,0.0286545897776311,11.648998782909931,0.2244814874628835,-1.5149459,1.5442673,-1.2611313,207.27863,-83.08171,-1.2097889
7584739130000.0,0.1360058212444737,11.797905443418014,0.3803139025074233,-1.3536774,1.5005904,-1.276403,206.7047,-82.84662,-1.6355232
7584743975000.0,0.2546455832099967,11.962470400115471,0.5525328922179149,-1.2916746,1.3695599,-1.2904528,206.1949,-82.57995,-2.0285957
7584748917000.0,0.4495893152774387,12.207450766876349,0.7314122715707446,-1.1786644,1.2305881,-1.3313808,205.7069,-82.35758,-2.4267497
7584754392000.0,0.7498816999361562,12.566817101023378,0.933248138860201,-1.0989466,1.0965031,-1.3671165,205.26016,-82.13166,-2.817714
7584759137000.0,1.0222886055971732,12.772160972438162,1.0902432924734982,-1.0485502,0.94959,-1.4220943,204.87875,-81.88614,-3.1830137
7584765307000.0,1.398119024925795,12.850458926501767,1.2624989549293286,-1.0122037,0.8060367,-1.5021176,204.5401,-81.644745,-3.5553002
7584768975000.0,1.6205161802119838,12.874571544063595,1.354175582237798,-1.0112875,0.70249504,-1.5647314,204.25877,-81.39101,-3.8708272
7584773970000.0,1.914917654654244,12.723281836396271,1.3909757398581075,-1.0326678,0.6560693,-1.6016886,204.00569,-81.13251,-4.193662
7584778910000.0,2.2060774712197624,12.573657981365928,1.4273706905376526,-1.07665,0.5858198,-1.6334536,203.81679,-80.861855,-4.4602776
7584784155000.0,2.382169488719282,12.298108099303866,1.5104727906399396,-1.1215485,0.46822822,-1.6297885,203.65547,-80.587875,-4.719965
7584789355000.0,2.5158255819844,11.989028438144762,1.6065380695127065,-1.1942415,0.3830125,-1.6096299,203.50612,-80.297104,-4.9786344
7584793987000.0,2.4704907910206653,11.694821687611457,1.6452628710794084,-1.2611313,0.27366763,-1.59558,203.42105,-80.013306,-5.170658
7584798961000.0,2.170679275611036,11.350038387496069,1.6152816986677856,-1.318858,0.10598512,-1.6203201,203.37773,-79.716484,-5.3595395
7584803903000.0,1.8905014106586069,11.09487868851416,1.5765996830178173,-1.352761,0.011301007,-1.674687,203.36635,-79.39488,-5.5261106
7584809060000.0,1.6194432228444162,10.933815553293032,1.525530738975501,-1.3753631,-0.18387043,-1.7666223,203.43344,-79.059784,-5.6956544
7584814372000.0,1.3387045966518254,10.77423546001781,1.472535908067676,-1.4110987,-0.23609942,-1.8661933,203.46252,-78.68479,-5.9287696
7584818985000.0,1.0593969766251112,10.782103028049866,1.4174612065894925,-1.4544702,-0.24801129,-1.9110919,203.53586,-78.30536,-6.160315
7584823889000.0,0.7624699077738202,10.790466902671415,1.3589122501513804,-1.4715744,-0.24404067,-2.0015,203.58276,-77.89257,-6.4766054
7584828970000.0,0.5255106275311355,10.805549427838828,1.3307622577289375,-1.4984524,-0.24556783,-2.067168,203.6339,-77.47228,-6.7912316
7584835256000.0,0.2697165617054945,10.827600623736265,1.313121301010989,-1.4902058,-0.2779437,-2.1270328,203.695,-77.05164,-7.1214104
7584839332000.0,0.0967721375182481,10.813072490378234,1.2966120181818184,-1.4630222,-0.27214047,-2.1358902,203.69171,-76.625916,-7.4987354
7584844006000.0,-0.2151063976277372,10.334116203715991,1.1963653409090909,-1.4486669,-0.24495697,-2.1584923,203.69337,-76.194466,-7.88839
7584848965000.0,-0.5460019166240876,9.825955265428004,1.0900060613636362,-1.4162911,-0.23487769,-2.1789563,203.65312,-75.76651,-8.308386
7584853973000.0,-0.6717111910179095,9.546734525561709,0.9672506705379356,-1.4208726,-0.33169982,-2.169488,203.6338,-75.3402,-8.713504
7584859211000.0,-0.6390421517290785,9.438926558775645,0.8267737633897753,-1.4367551,-0.42271876,-2.129171,203.6081,-74.9262,-9.108272
7584864016000.0,-0.6090737031260176,9.340030552588734,0.6979093993487464,-1.4517213,-0.5109888,-2.022575,203.52391,-74.50171,-9.540131
7584869009000.0,-0.6208836929397443,9.065132295800366,0.6838469453438831,-1.4514158,-0.50946164,-1.9010127,203.43636,-74.09164,-9.948034
7584873979000.0,-0.6739942583891255,8.625763726110772,0.785239870977886,-1.4605788,-0.55863625,-1.7892243,203.38216,-73.69908,-10.312774
7584878971000.0,-0.741296866676195,8.259299237986342,0.9034988181197396,-1.5097535,-0.6805039,-1.7482964,203.40036,-73.30018,-10.653929
7584884200000.0,-0.8247985077624265,7.945173768429411,1.0426682337700492,-1.5656476,-0.7648033,-1.7253889,203.4145,-72.9219,-10.961607
7584889083000.0,-0.8898125288644082,7.650530591634226,1.1805546928269692,-1.6093245,-0.69913524,-1.6148223,203.4126,-72.52883,-11.245279
7584893990000.0,-0.5706326920997267,7.315780928816367,1.554228656589083,-1.6453656,-0.56413406,-1.459968,203.40756,-72.14677,-11.503648
7584898934000.0,-0.2490461600099396,6.978507170313923,1.9307202149424327,-1.6389514,-0.45753807,-1.35551,203.37384,-71.741234,-11.758604
7584904884000.0,0.0578540101046008,6.726560730979158,2.240020891230829,-1.613906,-0.49113566,-1.3203852,203.3355,-71.356064,-11.985964
7584909222000.0,0.2506268865639008,6.602401916932757,2.409922422650413,-1.597718,-0.6072,-1.3133603,203.28596,-70.991875,-12.190856
7584914011000.0,0.4457214904952166,6.472304507653348,2.5866618789291747,-1.6111571,-0.65179324,-1.3035865,203.42223,-70.544014,-12.348982
7584918929000.0,0.373780338880135,6.4457998917839054,2.601807334174773,-1.6178766,-0.8219192,-1.3005321,203.62273,-70.11048,-12.484185
7584923973000.0,0.2999960426730444,6.418616223128868,2.6173408185706246,-1.6374242,-1.061073,-1.3588698,203.93958,-69.639946,-12.573737
7584928975000.0,0.3089017580188679,6.466938084810528,2.448171672459172,-1.6401732,-1.1911873,-1.4199562,204.26913,-69.18024,-12.651972
7584934198000.0,0.384244518490566,6.577969607594736,2.1230081637704137,-1.6261233,-1.2067643,-1.4462235,204.63034,-68.72485,-12.720238
7584939050000.0,0.4468784919427402,6.672449342535787,1.8266828670756647,-1.6044376,-1.1716396,-1.4785993,205.01949,-68.247314,-12.812005
7584943997000.0,0.39098365253972,6.627733349614598,1.6180088430313042,-1.5824465,-1.1447614,-1.4996742,205.41028,-67.780945,-12.899075
7584948939000.0,0.3351453068090294,6.583062551753971,1.409545728653453,-1.5723672,-1.1633929,-1.5143349,205.7307,-67.41459,-12.948688
7584953979000.0,0.2557922569943898,6.529272614485422,1.2760115894141453,-1.5555683,-1.1737776,-1.5173893,206.03557,-67.06414,-12.999458
7584959143000.0,0.1511793152267083,6.465595217925135,1.22143091629725,-1.5302174,-1.2257011,-1.4993688,206.35,-66.729866,-13.038407
7584963967000.0,0.0586890236173363,6.377144405538552,1.1554381479810445,-1.5143349,-1.2770138,-1.457219,206.57986,-66.4613,-13.067158
7584968955000.0,-0.0262003050192516,6.226229951594432,1.0564005683581794,-1.5192219,-1.3316863,-1.3836098,206.81627,-66.210594,-13.074787
7584974132000.0,-0.1046718027197508,6.031796734945975,0.9756307828774458,-1.5192219,-1.3680327,-1.2791518,207.08047,-65.948166,-13.078691
7584978919000.0,-0.158222866884065,5.7774292174437845,0.9443926605616664,-1.5018122,-1.4040737,-1.1835514,207.3478,-65.7082,-13.057833
7584984110000.0,-0.209288281843202,5.502167172210427,0.9163077002767948,-1.4792101,-1.4144585,-1.0824533,207.64536,-65.45302,-13.03578
7584989135000.0,-0.2395617474011166,5.23727439797122,0.9049551635346388,-1.4605788,-1.4352279,-0.98440933,207.93936,-65.22484,-12.982307
7584993913000.0,-0.2683471441047417,4.985402223779193,0.8941606519815994,-1.4117095,-1.4278975,-0.88300574,208.25444,-64.97972,-12.9233675
7584998925000.0,-0.3523757116845272,4.713593925079902,0.9093051233060726,-1.3402383,-1.3967434,-0.77763146,208.55025,-64.76938,-12.836384
7585003912000.0,-0.4601242298815566,4.439733181049069,0.9362422317597292,-1.2751812,-1.3683381,-0.6747007,208.82758,-64.5924,-12.723122
7585009108000.0,-0.5781181380531439,4.243553470139437,1.0287294353722705,-1.2235631,-1.3154984,-0.5757405,209.1023,-64.40016,-12.605784
7585013985000.0,-0.6928046914882049,4.120674968096115,1.159799761992458,-1.1032226,-1.2825116,-0.5326745,209.36346,-64.25505,-12.477555
7585018962000.0,-0.8260943750276911,4.013645369570034,1.2769496759138053,-0.9828822,-1.2528846,-0.45204028,209.61885,-64.084946,-12.362833
7585023989000.0,-1.000611911529554,3.9506251846138354,1.3545129804752791,-0.8454375,-1.1707232,-0.38545597,209.84178,-63.9598,-12.250818
7585028957000.0,-1.2172295794467471,3.962245479599928,1.5189144394936025,-0.70096785,-1.1117748,-0.3231477,210.05983,-63.82342,-12.148968
7585034101000.0,-1.5457093913768247,4.148679928617769,1.896222389826996,-0.5555819,-1.0732902,-0.2669481,210.24913,-63.735477,-12.040051
7585038992000.0,-1.8393076131615924,4.318686755846994,2.2279017086026545,-0.4092797,-1.039998,-0.20830505,210.43456,-63.638603,-11.966822
7585044421000.0,-1.961069911733021,4.428272752513661,2.300959096221702,-0.26083946,-1.0204504,-0.1469131,210.60193,-63.59098,-11.882202
7585048948000.0,-2.062602040234192,4.519651608087432,2.36187838039032,-0.10873401,-1.0164797,-0.070249505,210.76332,-63.495422,-11.846778
7585053966000.0,-2.122518527575392,4.592313294451146,2.4606872243667066,0.005497787,-0.9737192,-0.024129177,210.90053,-63.435425,-11.810732
7585059213000.0,-2.134641439420989,4.640805110615199,2.594039296863691,0.1441642,-0.9254609,0.00580322,211.02438,-63.43034,-11.760876
7585064029000.0,-2.144270253847385,4.681189599888018,2.7203294062549994,0.29077184,-0.8604037,0.03176499,211.15392,-63.417442,-11.729595
7585068993000.0,-2.1252576017917133,4.643164136954088,2.9256662072788355,0.4288274,-0.8173377,0.056505036,211.26971,-63.442673,-11.694021
7585073969000.0,-2.106198988449848,4.60504675106383,3.1314993905775075,0.5699373,-0.8045095,0.083383106,211.40706,-63.467403,-11.647424
7585078971000.0,-2.117833234123374,4.59549527364935,3.4550721115393825,0.7012733,-0.79534656,0.11148291,211.52776,-63.528645,-11.598849
7585084233000.0,-2.158047998787008,4.611581179514803,3.901456377232464,0.84971356,-0.81336707,0.14508049,211.64632,-63.633842,-11.540208
7585089115000.0,-2.20002396024068,4.634993527394998,4.291080744313356,0.9633345,-0.82894415,0.17837265,211.793,-63.70915,-11.47127
7585093990000.0,-2.313858661160925,4.789221249787635,4.302097001982067,1.078788,-0.8023715,0.21135938,211.92632,-63.826454,-11.39699
7585098975000.0,-2.430261939948089,4.946928982326569,4.313361831618688,1.169807,-0.7247916,0.24495697,212.06583,-63.88786,-11.355323
7585103969000.0,-2.623416472722188,5.28746440921069,4.449685758228713,1.2333369,-0.66431594,0.25259277,212.1996,-63.971607,-11.31269
7585109223000.0,-2.91111829622747,5.84723209997514,4.731133199235551,1.2599095,-0.4978552,0.2602286,212.27863,-64.07162,-11.282215
7585114114000.0,-3.1789427383219397,6.368325319527657,4.99313537547545,1.2611313,-0.2782491,0.2574797,212.34308,-64.15278,-11.273025
7585118890000.0,-3.292085138080496,6.899973658410733,5.524426170918473,1.2455542,-0.03726278,0.22327125,212.35823,-64.23185,-11.290575
7585123982000.0,-2.97503640866873,7.534070854489164,6.903336039938081,1.1462886,0.30451632,0.14049901,212.29283,-64.28084,-11.356848
7585128883000.0,-2.6014799510612656,8.144180479946435,8.021683475554067,1.0491611,0.70432764,-0.017104227,212.1613,-64.25305,-11.529589
7585134221000.0,-2.036701716029461,8.808222854837629,8.757606711523268,0.9850202,0.7443393,-0.05222898,212.03137,-64.21394,-11.684116
7585138925000.0,-1.5390027992835622,9.393396202812186,9.40612355341145,0.8854492,0.45814893,0.04520403,211.91756,-64.07775,-11.798128
7585143971000.0,-0.9828210913281934,10.099083006042925,9.68521088414253,0.80573124,0.00580322,0.23854288,211.8349,-63.9443,-11.8746605
7585148976000.0,-0.3885411850623046,10.948054697020211,9.165840188164202,0.75136423,-0.46670106,0.5164866,211.81554,-63.82231,-11.863449
7585153886000.0,-0.1692242550570202,11.523091527820355,8.507098365534949,0.6392705,-0.75533485,0.74128497,211.9154,-63.74254,-11.606386
7585159662000.0,-0.5126153027676271,11.773215612431024,7.485403956583385,0.4831944,-0.90133166,0.8228355,212.08081,-63.65369,-11.285217
7585165441000.0,-0.8809558377985297,12.017465542420029,6.501719278263461,0.36071593,-1.0231993,0.7993172,212.36185,-63.718765,-10.758786
7585168982000.0,-1.2515362062010729,12.13200876634214,6.124401033429367,0.33444872,-1.1798862,0.74464476,212.67282,-63.763634,-10.220354
7585173933000.0,-1.7696789353626068,12.292162254520166,5.596837455295053,0.41080686,-1.2632693,0.6921103,213.01976,-63.87197,-9.734202
7585179010000.0,-2.2063587345186204,12.538953659554943,4.576730612181693,0.5164866,-1.2568552,0.655153,213.37943,-63.974224,-9.269679
7585184232000.0,-2.6308536250286765,12.814301249827942,3.40267730110117,0.5833763,-1.1960741,0.6771441,213.73679,-64.08482,-8.817236
7585189155000.0,-2.826109097438586,13.008459159227082,2.65738806450719,0.60139686,-1.2495248,0.74464476,214.10048,-64.23755,-8.440625
7585194015000.0,-2.331116131890353,12.98057239769323,3.134951749498202,0.5852089,-1.208597,0.8555168,214.4106,-64.40291,-8.075055
7585198911000.0,-1.8324565517825049,12.952479067555425,3.616052943266926,0.5308419,-1.1490375,0.9969321,214.68137,-64.74865,-7.745898
7585203837000.0,-1.265229610469993,12.814711281169302,4.2446533010019625,0.47586402,-1.0806206,1.0482447,214.93921,-65.08399,-7.423893
7585208963000.0,-0.6060216368763556,12.556098995041834,5.050915333560583,0.3051272,-1.1047498,1.0955868,215.19244,-65.37723,-7.0695367
7585213897000.0,-0.1691214098784227,12.180706156147584,4.98417757261867,0.22113322,-1.2040154,1.0836749,215.51427,-65.60996,-6.6327724
7585218811000.0,0.1194402602833279,11.713037155196108,4.292624466624379,0.21930063,-1.2617421,1.0735956,215.82503,-65.81594,-6.1968822
7585223802000.0,0.1314870660261667,11.099608717438,3.447900874204257,0.25137106,-1.2385293,1.0354166,216.16902,-65.922226,-5.7053866
7585229281000.0,-0.017084342859793,10.346505135227494,2.4386400796914662,0.35185838,-1.2195925,0.97433007,216.52756,-66.040436,-5.2306595
7585233906000.0,-0.0090987382544283,9.640081471819643,1.750257869243156,0.54458636,-1.1664472,0.89888823,216.90697,-66.25088,-4.7510157
7585238839000.0,0.0669759581457326,8.85080693307166,1.098868226952496,0.7648033,-0.9947941,0.86498517,217.2492,-66.49071,-4.3045845
7585243807000.0,0.1604382581067979,8.220302551978792,0.7539246284169665,0.98349303,-0.75961095,0.8530733,217.57352,-66.84037,-3.9095674
7585248809000.0,0.2647530955534936,7.685121702897178,0.5951846476822571,1.1765264,-0.5140431,0.83199847,217.85625,-67.23559,-3.5533488
7585253854000.0,0.3948543362482449,7.289886112777309,0.4916470431395675,1.3338243,-0.23976462,0.8338311,218.0676,-67.72631,-3.21668
7585258971000.0,0.5508174020031826,7.028418716830479,0.4411884033735841,1.4743233,0.007941248,0.8396343,218.22903,-68.256485,-2.9120448
7585263971000.0,0.7338243066497248,6.915066971961034,0.403609056069462,1.5931365,0.20066923,0.829555,218.35031,-68.80853,-2.629824
7585269029000.0,0.9646351358746296,7.0125202891783145,0.3830925462473528,1.6963727,0.38453966,0.8368854,218.41423,-69.3853,-2.3679647
7585273884000.0,1.1412959803040843,7.228656103209778,0.3569142530080493,1.7880026,0.5626069,0.82863873,218.44763,-69.98139,-2.1143723
7585278852000.0,1.2784071522408824,7.569070295875981,0.3238184569710822,1.8887954,0.72143185,0.8210029,218.44629,-70.595985,-1.8753754
7585283979000.0,1.406931827869493,8.073098666406175,0.3559846023893719,1.9895881,0.84788096,0.8362745,218.4234,-71.24268,-1.6124225
7585288966000.0,1.518901011917554,8.716921486861386,0.4539576542639445,2.0717494,0.9398162,0.8503244,218.37923,-71.89589,-1.3638101
7585293873000.0,1.5698889495414654,9.398328342175327,0.604241629742629,2.1649065,0.9810496,0.8732319,218.33434,-72.592224,-1.0887771
7585298891000.0,1.5461947957302042,10.156540175525096,0.8269663885711469,2.2333233,1.0290025,0.8854492,218.27448,-73.28478,-0.8224188
7585303840000.0,1.3910184993224592,10.938647920953576,1.054001489058971,2.26631,1.033584,0.8857546,218.2326,-73.99942,-0.5360018
7585309230000.0,1.011054428138854,11.845380727310747,1.3130678827854454,2.327702,1.0351112,0.8552113,218.19136,-74.717415,-0.2607621
7585314088000.0,0.6777582612490688,12.62725205463124,1.533230748870127,2.366492,1.0415252,0.84116143,218.14255,-75.42172,0.0116625475
7585318943000.0,0.4853263517010181,12.865867206936512,1.5486253305686617,2.3823745,1.0323622,0.82772243,218.10966,-76.11025,0.27374646
7585323938000.0,0.2873454272535386,13.111363125734623,1.5644638342935189,2.389705,1.024421,0.8127562,218.05533,-76.76815,0.4682147
7585328984000.0,0.0739672344073734,13.22630305313204,1.5780538865209777,2.3839016,1.0177015,0.81214535,218.01146,-77.40146,0.66183263
7585334694000.0,-0.1768957360405371,13.262792472599884,1.591737311660689,2.3921483,1.040609,0.81214535,217.9704,-78.01644,0.84860677
7585338967000.0,-0.3443664732200456,13.25553239957517,1.6143259168200772,2.3936756,1.0436633,0.8151997,217.91064,-78.62262,1.0074059
7585343998000.0,-0.473243103916293,13.130446089686098,1.6825547231689089,2.379931,1.0439687,0.81092364,217.8535,-79.20329,1.1624497
7585348885000.0,-0.598430958063095,13.008940067736606,1.7488306477617812,2.3774874,1.0415252,0.8142834,217.74382,-79.786835,1.2918073
7585353882000.0,-0.6968881389646335,12.827266156842644,1.917938383393132,2.3356433,1.0247264,0.8371908,217.64514,-80.3325,1.4261745
7585358985000.0,-0.7820544939907739,12.611845797437212,2.1433787226242957,2.2941043,0.94897914,0.8729264,217.57074,-80.85469,1.5678198
7585364026000.0,-0.7746414308050491,12.353145938849927,2.265598542552594,2.219579,0.8686504,0.9239337,217.47533,-81.32618,1.7007108
7585368969000.0,-0.7348056759495091,12.083147678167368,2.3496962811407203,2.127949,0.77304995,0.9764681,217.41136,-81.758446,1.847314
7585373914000.0,-0.6387844422382671,11.822311066925854,2.4307723305193005,2.0387628,0.6356053,1.0494665,217.36531,-82.11402,2.0031886
7585378907000.0,-0.5015700728038508,11.565587765805796,2.510445090298991,1.9425515,0.4813618,1.1227703,217.35521,-82.41968,2.1763077
7585383978000.0,-0.2987155586381109,11.151354632848252,2.558894416520227,1.8322903,0.3005457,1.2046263,217.37677,-82.650894,2.3838413
7585388982000.0,-0.0136201742559033,10.53730278276588,2.5632804504576243,1.7033978,0.106595986,1.2944235,217.44743,-82.82484,2.6162717
7585393907000.0,0.2389415803416978,9.97313600902296,2.5441232841430863,1.5528195,0.009468411,1.3723087,217.52171,-82.93039,2.8844287
7585398916000.0,0.402854780576615,9.53261919647624,2.446799991991458,1.4627168,-0.20463985,1.4086553,217.68529,-82.993965,3.1705027
7585404162000.0,0.5547224256470589,9.125457358823528,2.295560668823529,1.3084733,-0.39858958,1.5048665,217.8502,-82.97068,3.5280051
7585409009000.0,0.6664253681354724,8.827583289037433,2.0845661364616754,1.1542299,-0.5928447,1.5323554,218.07838,-82.91049,3.8752623
7585414026000.0,0.773774307833733,8.52586456648015,1.8604063216360245,1.0341948,-0.7528914,1.564426,218.33246,-82.80469,4.270824
7585418951000.0,0.8282334434585665,8.270325348965272,1.6048674978061994,0.9184359,-0.88331115,1.5989398,218.63208,-82.642685,4.6713862
7585423882000.0,0.882758925238476,8.014474814637179,1.3490173576427746,0.8072584,-1.0012082,1.5992452,218.97098,-82.46279,5.0944104
7585428921000.0,0.9576746885878652,7.850864882157303,1.1593394338966292,0.70066243,-1.0726794,1.59558,219.33185,-82.240585,5.519993
7585433976000.0,1.0360022157519102,7.702913097438202,0.9809267189977527,0.6453791,-1.1585059,1.5958854,219.72835,-81.99627,5.9421086
7585438959000.0,1.1031620229620782,7.624082010052752,0.8576251082213596,0.600786,-1.1948525,1.5546521,220.13177,-81.76397,6.3632855
7585443947000.0,1.1649713708271126,7.581290560266746,0.7625338057231015,0.58368176,-1.2147056,1.5033394,220.54843,-81.525085,6.8005676
7585448910000.0,1.184601213769664,7.600751756845989,0.6693795448727908,0.58551437,-1.2217305,1.4242324,220.97267,-81.287964,7.2109184
7585453908000.0,1.17995323878423,7.656527650805982,0.5764199966304137,0.6053675,-1.2040154,1.3429873,221.39534,-81.056244,7.598432
7585459007000.0,1.0989495113042638,7.72690812230494,0.5145087054877695,0.63499445,-1.1618657,1.2339478,221.7975,-80.84545,7.9666243
7585463988000.0,0.965201045806826,7.805312520061878,0.4776125752479938,0.6737844,-1.1123856,1.1163563,222.19337,-80.65352,8.301932
7585468942000.0,0.824651156088852,7.984466525223167,0.5528881206186423,0.6835582,-1.0968086,1.0134255,222.57445,-80.48489,8.6108885
7585473915000.0,0.6763468291156322,8.261301160161928,0.7357967692163172,0.7153232,-1.135904,0.93554014,222.95786,-80.33891,8.887993
7585478921000.0,0.564086051134331,8.465157718055433,0.8189115255149207,0.711658,-1.1951579,0.8686504,223.31999,-80.22801,9.118062
7585484112000.0,0.4760435378305144,8.619232003719118,0.8277157887965997,0.691194,-1.255328,0.82527894,223.6925,-80.12422,9.32926
7585488941000.0,0.418333884780198,8.731644898019802,0.8484102681485148,0.6786713,-1.3246613,0.80939645,224.03404,-80.04028,9.502567
7585493940000.0,0.4088537910792079,8.783785457920793,0.8958107119059406,0.64599,-1.3765849,0.8151997,224.38496,-79.95203,9.667362
7585498888000.0,0.3966809118131101,8.818852729727038,0.9331089812064156,0.63041294,-1.4645494,0.8188649,224.74081,-79.87564,9.813673
7585503975000.0,0.3772677988284518,8.813999352659893,0.9476688336820084,0.59986967,-1.5076154,0.82863873,225.09465,-79.78701,9.960813
7585508956000.0,0.36391866,8.889243758229444,0.950717762605407,0.55741453,-1.5079209,0.84238315,225.44008,-79.69356,10.104847
7585513976000.0,0.36391866,9.15524539431293,0.9271480082420508,0.5002986,-1.4721853,0.8371908,225.7834,-79.596176,10.24384
7585519589000.0,0.36391866,9.452669136013448,0.9007940179548956,0.47647488,-1.4581354,0.816116,226.12186,-79.50184,10.374688
7585523921000.0,0.3486187358519141,9.685257870214556,0.8666003158582247,0.44715336,-1.4563028,0.7788532,226.44962,-79.40834,10.496718
7585528907000.0,0.3134641635927639,9.95645001809003,0.8113574023601178,0.43249258,-1.4477507,0.70524395,226.76768,-79.32895,10.59983
7585534015000.0,0.3691338170881071,10.250291106052924,0.7505097908739734,0.42913285,-1.4092661,0.61666846,227.06111,-79.26784,10.681248
7585539016000.0,0.5002427569421068,10.551356579336916,0.6873832727283787,0.45112398,-1.3164146,0.537256,227.33218,-79.22291,10.742647
7585543940000.0,0.5925832616894433,10.73507016490874,0.6211959937466752,0.473726,-1.176221,0.4877759,227.569,-79.1987,10.780028
7585548932000.0,0.6583551853067963,10.835920194441895,0.5510392508025315,0.45142943,-1.0161743,0.44929138,227.769,-79.19019,10.797717
7585554176000.0,0.7094645787731501,10.877690570351128,0.4954867742210676,0.39614612,-0.84604836,0.37568212,227.92882,-79.19307,10.80156
7585559043000.0,0.7329005725383391,10.830818419676527,0.4681447651805916,0.31887165,-0.6948592,0.28985557,228.0447,-79.207085,10.791144
7585564245000.0,0.759516781536123,10.775865566523604,0.4307028300947783,0.26175576,-0.56169057,0.20341812,228.1305,-79.230835,10.768978
7585568989000.0,0.8082639690182403,10.64993578111588,0.2682122362607296,0.22327125,-0.44776422,0.1255328,228.17596,-100.725914,10.725832
7585573934000.0,0.8590765411301859,10.51867043776824,0.0988370283118741,0.19883664,-0.3359759,0.06352998,228.1834,-100.675575,10.674806
7585578970000.0,0.963258752718534,10.336101927305496,-0.2949334253769901,0.21624629,-0.1863139,0.0033597588,228.14558,-100.605736,10.603763
7585583972000.0,1.08317262479223,10.13944274036247,-0.7554026300310404,0.26175576,-0.021991149,-0.05100725,228.07037,-100.52222,10.51869
7585589779000.0,1.2882803078844935,9.90449017724269,-1.1199064028424006,0.37507126,0.14508049,-0.084910266,227.98819,-100.442726,10.435662
7585593975000.0,1.4483335316013397,9.733524542771791,-1.3527111333212636,0.52595496,0.21013765,-0.09285152,227.88814,-100.35949,10.346834
7585598924000.0,1.563909730223921,9.543233380993993,-1.313849984795194,0.6081163,0.269697,-0.12003502,227.80513,-100.30397,10.279293
7585603907000.0,1.621248194090661,9.36079244303659,-1.0219451644292736,0.77518797,0.25534168,-0.15088372,227.7252,-100.25656,10.210239
7585609004000.0,1.6932501298549107,9.253039701822916,-0.7029760842410715,0.9086621,0.22113322,-0.1853976,227.68398,-100.25919,10.177386
7585613947000.0,1.768096583482143,9.17819315625,-0.3859795082142857,1.0030408,0.22235495,-0.19303341,227.63705,-100.276474,10.145113
7585618936000.0,1.8554411478240032,9.16942198264954,-0.0735161244622316,1.0256428,0.204029,-0.17592919,227.58551,-100.30094,10.113891
7585623993000.0,1.952932322603528,9.211203796970858,0.2375272109336656,1.0103711,0.19333886,-0.13958271,227.53316,-100.3416,10.088233
7585628923000.0,2.0056187085074497,9.238140290134885,0.4089135225213788,0.9575313,0.21594086,-0.086437434,227.45149,-100.38668,10.072673
7585634039000.0,2.0142575005025125,9.251098748743718,0.4434687085427136,0.893085,0.2452624,-0.030848695,227.3737,-100.44578,10.069643
7585638943000.0,1.978712858826382,9.294366746605236,0.4482668441513094,0.86620694,0.26206118,0.00580322,227.26808,-100.50217,10.073307
7585643946000.0,1.7850790469447138,9.449274135790494,0.3514499139476236,0.8512407,0.24556783,0.040927973,227.16716,-100.570305,10.092351
7585648888000.0,1.5938061510184287,9.602292788069835,0.2558134420174587,0.88239485,0.22052236,0.074830994,227.06255,-100.64928,10.122728
7585653912000.0,1.4152320065948416,9.741698387365329,0.2212092262716291,0.89980453,0.20158553,0.11453723,226.96448,-100.7364,10.163858
7585659697000.0,1.2162701239634346,9.89544141993144,0.2076436467988899,0.91813046,0.18020524,0.14813483,226.87767,-100.83314,10.2115345
7585663909000.0,1.087060368109125,9.986168948824082,0.20111294,0.91446525,0.15821409,0.16737708,226.79875,-100.90257,10.225847
7585668949000.0,0.9690034650047036,10.045197163311382,0.20111294,0.8921687,0.15363261,0.18509217,226.72417,-100.9803,10.248984
7585673977000.0,0.8714894,10.104135823992134,0.1997553627589315,0.86467975,0.14508049,0.21044308,226.64455,-101.03088,10.244207
7585678908000.0,0.8714894,10.16217810619469,0.192016387758112,0.81306165,0.09773844,0.23579398,226.58015,-101.08128,10.243954
7585684045000.0,0.8714894,10.222645192723697,0.1839541053449688,0.7855727,0.06383542,0.25870144,226.51036,-101.11604,10.227653
7585688969000.0,0.916463784753171,10.20462474485773,0.1129986055638498,0.75594574,0.054061573,0.2764165,226.44948,-101.1502,10.2172
7585693984000.0,0.9782066097017484,10.159346618786424,0.0183262724000685,0.7284568,0.028405234,0.28680122,226.40486,-101.18534,10.210512
7585698910000.0,1.0746173076783554,10.113674828295045,-0.0587520300429262,0.72082096,-0.0106901415,0.30909783,226.36359,-101.22684,10.209888
7585703908000.0,1.2289579550181378,10.065443423216443,-0.1118066123941959,0.7079928,-0.05009095,0.33505958,226.33148,-101.267654,10.212864
7585709177000.0,1.297822658917736,10.0170393663583,-0.1631057923246792,0.69027776,-0.086437434,0.33567044,226.31877,-101.329956,10.229592
7585714022000.0,1.247052138625286,9.975499985576445,-0.2046452984124142,0.6640105,-0.13041973,0.3652974,226.32207,-101.40275,10.260474
7585718974000.0,1.2103367372659368,9.94832937122685,-0.2692951403970122,0.6392705,-0.16798794,0.37751472,226.3471,-101.494354,10.304451
7585723966000.0,1.1956613912309424,9.943437487056176,-0.3671308521416146,0.61636305,-0.1853976,0.3830125,226.38019,-101.587166,10.353467
7585729193000.0,1.1609838475942784,9.94480819774599,-0.4724184485739055,0.59040123,-0.19425514,0.38515055,226.41754,-101.67748,10.396364
7585734141000.0,1.1075795495448637,9.953024408582577,-0.5751190250455136,0.5742133,-0.19639318,0.41599923,226.45917,-101.773346,10.448023
7585738977000.0,1.058471076288264,9.950769979752424,-0.6725113217253622,0.5421429,-0.20677789,0.43493605,226.5074,-101.86858,10.491513
7585743946000.0,1.026505782045869,9.886839581997888,-0.7547077177046349,0.5213735,-0.1908954,0.44959682,226.54958,-101.96827,10.542478
7585749013000.0,0.994849398111888,9.822616202797205,-0.8363700043356643,0.49449542,-0.15332718,0.45845437,226.58693,-102.0724,10.595436
7585754636000.0,0.9750295958925286,9.767120897313212,-0.891865433993375,0.47036624,-0.1151481,0.4700608,226.62032,-102.17654,10.652859
7585759098000.0,0.9593020558778064,9.72308389694516,-0.9359025328965772,0.45631635,-0.06291912,0.47891834,226.63225,-102.29003,10.71056
7585763935000.0,0.9663978783502458,9.666782633225234,-0.9705836822366356,0.4288274,-0.014660766,0.48747048,226.63551,-102.398766,10.7712555
7585768955000.0,1.0217207833612303,9.59134241562925,-0.9806423779161,0.40469822,0.05222898,0.5335908,226.62088,-102.514984,10.845876
7585774026000.0,0.973416090592478,9.51563133446677,-0.9647806472766616,0.38789943,0.069027774,0.5561928,226.60524,-102.63142,10.912635
7585778925000.0,0.7945473664193714,9.443117048222565,-0.9164377695888716,0.3631594,0.073303826,0.5314528,226.5757,-102.73982,10.978678
7585784145000.0,0.6156135011374594,9.382323745547575,-0.8636304866122209,0.35430184,0.09407325,0.48533243,226.53555,-102.859055,11.051273
7585788962000.0,0.4612820727718193,9.341471196546296,-0.8136997245213028,0.34788775,0.106595986,0.4700608,226.49875,-102.973335,11.123313
7585793917000.0,0.310481418708783,9.30563054698485,-0.718083191160511,0.3475823,0.106901415,0.43463063,226.43767,-103.04527,11.147568
7585798965000.0,0.166871991874443,9.276908331716012,-0.5648997992048718,0.37415496,0.12156218,0.40286562,226.37027,-103.11509,11.1682625
7585803931000.0,0.0294878389723816,9.255284461441894,-0.3818957893741033,0.38606682,0.09193522,0.37293324,226.30179,-103.146965,11.15292
7585809318000.0,-0.1139212357110832,9.24140588387733,-0.136712527359218,0.41172317,0.050701816,0.34147367,226.2328,-103.17541,11.128026
7585813941000.0,-0.228948887055191,9.236605781165574,0.0515543429872636,0.42485678,-0.004886922,0.29046643,226.14908,-103.157715,11.064435
7585818974000.0,-0.3219632967705519,9.259859367811655,0.1678223636298726,0.42943826,-0.0580322,0.28099802,226.07805,-103.144646,11.003119
7585823954000.0,-0.4028495174565528,9.279301414639134,0.2675269605898589,0.41447207,-0.109650314,0.2782491,225.99033,-103.07109,10.898187
7585828929000.0,-0.4077201553629114,9.274431183602536,0.2626563074258842,0.3943135,-0.14110987,0.28252518,225.91258,-102.99759,10.793279
7585834113000.0,-0.3978112409000762,9.284340464022376,0.2478744354309687,0.38423425,-0.15851954,0.28710666,225.8193,-102.90043,10.669988
7585839046000.0,-0.3297444074879226,9.35240741867955,0.1958233334299516,0.355829,-0.15974127,0.31642818,225.7319,-102.805244,10.556622
7585844866000.0,-0.2494385144291889,9.432713454784302,0.1344129515840325,0.3484986,-0.14752395,0.35277468,225.64304,-102.71766,10.447902
7585848955000.0,-0.1536707946842896,9.897485473209338,-0.3610057882944202,0.33169982,-0.18081611,0.40958515,225.5699,-102.63668,10.353536
7585854075000.0,-0.0333676106526316,10.483478084210525,-0.9858061757894736,0.33322698,-0.26847526,0.4288274,225.51474,-102.57485,10.269602
7585859321000.0,0.1065503050752688,10.816975466160658,-1.4863130570524985,0.3109304,-0.36682457,0.419359,225.47386,-102.51333,10.193132
7585863971000.0,0.2591219884086022,10.655014681846932,-1.690524405091714,0.2312125,-0.44990227,0.398895,225.45422,-102.444916,10.117591
7585869220000.0,0.4313475294444445,10.472190562091502,-1.921041688071896,0.106901415,-0.5045747,0.35888332,225.51642,-102.4434,10.0583515
7585873962000.0,0.5869378353297491,10.3070253923677,-2.1292933466529624,0.01038471,-0.47769663,0.30390546,225.57591,-102.425644,9.991064
7585878947000.0,0.8899602452213741,10.098841535114504,-2.17670437448855,-0.033292156,-0.36193767,0.23762658,225.62135,-102.385376,9.912891
7585884360000.0,1.376695221832061,9.833709902671757,-2.0342453297328245,-0.0027488936,-0.16554448,0.18906279,225.63214,-102.33472,9.830737
7585890144000.0,1.905011223110465,9.566803335836564,-1.8736994186369509,0.058948494,0.01282817,0.2125811,225.67856,-102.389206,9.8245735
7585894010000.0,2.311604848982558,9.495051637031654,-1.712257830975452,0.115453534,0.082161374,0.23090707,225.69656,-102.43553,9.807181
7585899015000.0,2.8379889921511627,9.40216046979974,-1.5032523611757105,0.1282817,0.17715092,0.27000242,225.67677,-102.56824,9.898088
7585903828000.0,3.304327247115177,9.405733016038752,-1.2842713808008612,0.16371189,0.2275473,0.28680122,225.6514,-102.71046,9.986802
7585908910000.0,3.728677693466092,9.56813874714747,-1.0223266983810548,0.19822577,0.23640485,0.28344148,225.61366,-102.855225,10.080427
7585914516000.0,4.019621552593631,9.935654585569798,-0.9064285692759864,0.22602014,0.22204952,0.2611449,225.59187,-103.05931,10.264484
7585918862000.0,4.144659010354497,10.327438477718806,-0.914764389638494,0.25473082,0.20647246,0.22815818,225.56917,-103.261604,10.440242
7585923827000.0,4.265140441554559,10.87903227727952,-0.9927240716741406,0.26267207,0.2770274,0.1908954,225.52513,-103.47031,10.655506
7585928833000.0,4.3654664682610855,11.533539963876432,-1.1360469491529646,0.30298916,0.37812558,0.15485434,225.47542,-103.67807,10.858149
7585933886000.0,4.480975815828475,12.232917867305602,-1.2433820108981326,0.30573806,0.52015173,0.12675454,225.38504,-103.87237,11.058421
7585938904000.0,4.609177014524256,12.964138784606265,-1.3146048384645783,0.26847526,0.6728681,0.08307768,225.2605,-104.04989,11.244105
7585943835000.0,4.714801717227683,13.55358282980836,-1.3342609638169,0.15577064,0.79168135,0.020463986,225.10678,-104.19751,11.412718
7585948849000.0,4.800624858147155,14.01607516562407,-1.300885178969318,0.035430185,0.9086621,-0.07452556,224.90776,-104.31436,11.560471
7585953812000.0,4.840060198989899,14.145718121212122,-1.1536665454545456,-0.06872234,1.0183123,-0.16432275,224.66428,-104.3901,11.684459
7585959116000.0,4.826790823232323,13.884752453500523,-0.8573159373040753,-0.160963,1.1081096,-0.2321288,224.3928,-104.42685,11.786031
7585963897000.0,4.791868322114008,13.630827621884848,-0.6003787733142366,-0.21899518,1.1441506,-0.26816985,224.09338,-104.42331,11.863642
7585968902000.0,4.654566782679271,13.282997087176549,-0.3761198487081066,-0.2764165,1.16492,-0.28527406,223.77509,-104.39205,11.925269
7585973875000.0,4.515770983017455,12.953243115439358,-0.1561846666956326,-0.3295618,1.1777482,-0.29138273,223.42754,-104.32916,11.982916
7585978886000.0,4.350401901797888,12.791469161135666,0.0343492368447074,-0.38515055,1.1743884,-0.29871312,223.08311,-104.254135,12.031138
7585984349000.0,4.17011627204285,12.6151029443404,0.2420695950647988,-0.44043383,1.1239921,-0.3051272,222.73372,-104.15045,12.065832
7585988948000.0,3.96880935298436,12.487845367592296,0.438149868843494,-0.47586402,1.0937542,-0.30726522,222.38474,-104.04434,12.096594
7585993900000.0,3.691297091765082,12.376840800297904,0.6752968390913927,-0.505491,1.0454959,-0.29993483,222.0609,-103.93576,12.122218
7585998889000.0,3.4128341075906268,12.296952098337671,0.8627488997376327,-0.55863625,1.0070114,-0.31031954,221.72041,-103.78014,12.113506
7586003887000.0,3.134828540777088,12.24422635149209,1.0065448682475466,-0.6123924,0.97585726,-0.33414328,221.3969,-103.62478,12.099066
7586008920000.0,2.867314700203646,12.18696087412723,1.146316509173778,-0.6759224,0.9434814,-0.37048978,221.06075,-103.416824,12.041428
7586014004000.0,2.607630221809542,12.12558113867339,1.2832410729441426,-0.7254025,0.926988,-0.41691554,220.7335,-103.20324,11.9719925
7586018916000.0,2.361715622895954,12.054426259474358,1.437055553578108,-0.77671516,0.91538155,-0.47739118,220.39792,-102.9336,11.850559
7586023930000.0,2.115929431735407,11.969346196279162,1.6166684938675069,-0.8362745,0.9117164,-0.5375614,220.06927,-102.65561,11.715011
7586028915000.0,1.8889892973841207,11.889337666360715,1.8116329800458928,-0.9098838,0.9053023,-0.59528816,219.72481,-102.32701,11.52799
7586034219000.0,1.6698627769619092,11.810079500229463,2.0400840249655805,-0.9950995,0.88453287,-0.6640105,219.38992,-101.985054,11.32067
7586038962000.0,1.4928727007934914,11.76303727932905,2.241956878977501,-1.0690142,0.86070913,-0.7296785,219.03911,-101.59764,11.067183
7586043984000.0,1.352781650110486,11.772698424969867,2.449678168591804,-1.1417072,0.8344419,-0.79779,218.70004,-101.20049,10.794317
7586048887000.0,1.220555665426516,11.797155208427544,2.6388424163001027,-1.2379184,0.81061816,-0.8570439,218.3482,-100.76304,10.479322
7586054332000.0,1.0865738577183968,11.866826026002055,2.810339098828366,-1.3426818,0.79809546,-0.9108001,218.00667,-100.327065,10.148558
7586059155000.0,0.9754897593694228,11.93678618143962,2.9277512507436048,-1.4468343,0.7984009,-0.95081174,217.65704,-99.87545,9.786527
7586063999000.0,0.8754517220701963,12.019576149613323,2.993293473973825,-1.5448782,0.79320854,-0.9966267,217.31978,-99.43795,9.410429
7586068918000.0,0.7738647886525877,12.103647960812015,3.0598504921549674,-1.6190983,0.79626286,-1.0522153,216.97351,-99.006836,9.006464
7586073916000.0,0.5143462660674352,12.050535522574448,2.8041535888568685,-1.6853772,0.799928,-1.1059716,216.6367,-81.387764,8.593633
7586078915000.0,0.1694294390247839,11.921766853025938,2.3718577406340056,-1.7324139,0.81061816,-1.1652255,216.3051,-81.743065,8.16736
7586084121000.0,-0.066983419397568,11.782218750951452,2.0569982081128746,-1.7275269,0.8689558,-1.2403619,215.95485,-82.074844,7.7028193
7586088969000.0,-0.204893702723661,11.648618167270026,1.854442440917108,-1.7214183,0.8921687,-1.2840388,215.62007,-82.341545,7.2355423
7586094047000.0,-0.2851958926617543,11.530833335823155,1.625878259705259,-1.6982054,0.9254609,-1.385137,215.25137,-82.643684,6.692296
7586098955000.0,-0.280451476148178,11.44543354133441,1.3839128688906834,-1.6627752,0.95264435,-1.4672983,214.88287,-82.88621,6.148178
7586103918000.0,-0.198076153867978,11.3964,1.1323075266313598,-1.6239853,1.0033462,-1.5421293,214.48589,-83.12247,5.5674925
7586109123000.0,-0.0047965566105542,11.3964,0.8588876066389257,-1.577254,1.0742066,-1.5757269,214.07907,-83.3046,4.982181
7586113967000.0,0.2194096424245604,11.424896725268958,0.598612000624508,-1.5314392,1.1798862,-1.6206255,213.63383,-83.4631,4.3922167
7586119046000.0,0.5469987542482287,11.514239236158488,0.3135669223972711,-1.5048665,1.3362677,-1.6420058,213.15758,-83.56073,3.8046436
7586124292000.0,0.8781245394614962,11.612909252767093,0.0378764607884449,-1.4773777,1.534188,-1.6566665,212.66562,-83.60431,3.2532344
7586128983000.0,1.1144037910511029,11.753971404584346,-0.0538140012299238,-1.4547756,1.733941,-1.6664404,212.13367,-83.59702,2.6997938
7586136648000.0,1.4995743633587786,11.98201054961832,-0.2014419142748091,-1.4288138,1.9758437,-1.6713274,211.56116,-83.55413,2.213038
7586139001000.0,1.601584453151074,12.008013016687377,-0.2074425070548553,-1.3594806,2.0299053,-1.6722436,210.9927,-83.48898,1.7292011
7586143929000.0,1.815229044097284,12.062471222261673,-0.2200098343902006,-1.3142766,2.1142046,-1.6807957,210.3776,-83.38642,1.2942344
7586148892000.0,2.024818167867036,12.12248573961219,-0.2080899487728532,-1.2452488,2.1426098,-1.6814066,209.77176,-83.28117,0.86482525
7586154614000.0,2.244079666092131,12.212439195855136,-0.0956481971543039,-1.1569787,2.105958,-1.6853772,209.17001,-83.16826,0.43510845
7586159148000.0,2.3912779090397467,12.216124268026732,-0.0070065977252901,-1.0574077,2.0350976,-1.6762142,208.59035,-83.04646,0.05985808
7586163992000.0,2.4973402537108687,12.08966549718607,0.0868178132937038,-0.9682214,1.9333885,-1.679574,208.0394,-82.92898,-0.3148084
7586169974000.0,2.619183229017967,11.869796213676263,0.2307194090794979,-0.9016371,1.8264871,-1.6865989,207.52832,-82.79862,-0.6469915
7586173932000.0,2.6720492696283533,11.530831294732955,0.4110861315062761,-0.8231409,1.6905695,-1.7269161,207.06334,-82.68299,-0.9823292
7586178986000.0,2.7395543149150874,11.0980044376487,0.6413977573640167,-0.7495316,1.629483,-1.7715092,206.62218,-82.550934,-1.2935096
7586184146000.0,2.793496048786729,10.814364128121415,0.8947879393099797,-0.7067711,1.5201381,-1.806634,206.2404,-82.4209,-1.6038091
7586189024000.0,2.834717064175417,10.649480583075972,1.1462355607164916,-0.7021896,1.4495832,-1.8219056,205.87108,-82.28907,-1.9166393
7586193925000.0,2.8405421192614773,10.501535880938125,1.368878413522954,-0.7156286,1.409877,-1.8478674,205.53267,-82.10564,-2.2216513
7586198974000.0,2.763331218962076,10.390545054291415,1.5281257379241515,-0.7504479,1.3732251,-1.8500054,205.21745,-81.91291,-2.5179014
7586203932000.0,2.6372432256986205,10.301635862575168,1.68671546287584,-0.7984009,1.3213016,-1.8570304,204.93683,-81.658356,-2.8111916
7586209142000.0,2.381325381075345,10.257511659356208,1.85879819678104,-0.81092364,1.212873,-1.8915442,204.68703,-81.40041,-3.1053455
7586214056000.0,2.1305888568165368,10.220545644816214,2.023225769162712,-0.7828238,1.035722,-1.9324722,204.474,-81.10412,-3.4023283
7586218930000.0,1.7401404121933566,10.25433513102228,2.218449952272179,-0.7357872,0.82253003,-2.012801,204.30742,-80.80328,-3.7098897
7586223976000.0,1.3359133191345614,10.289317024209764,2.420563458216038,-0.7122689,0.5907067,-2.0916026,204.18625,-80.451004,-4.0548162
7586228968000.0,0.7454952196718395,10.3406663538582,2.490164691664294,-0.73761976,0.47647488,-2.159714,204.09555,-80.09281,-4.408829
7586234174000.0,-0.0281945926217253,10.408097913795558,2.454674395009966,-0.7623598,0.44959682,-2.2461514,204.04912,-79.73196,-4.7766757
7586240424000.0,-0.9364652396851484,10.486290869128968,2.4072494689905715,-0.8210029,0.50610185,-2.295937,203.98486,-79.279434,-5.212955
7586243989000.0,-1.0782162355981315,10.480384458783842,2.292076749156647,-0.8570439,0.5681047,-2.3313673,203.9278,-78.82212,-5.6591816
7586248986000.0,-1.276906200977424,10.472105543638094,2.1306411023094887,-0.9086621,0.64904433,-2.3350325,203.78581,-78.260765,-6.262092
7586253956000.0,-1.4108018907071886,10.415060005844534,2.0317998397428405,-0.9254609,0.7348709,-2.324953,203.62372,-77.69861,-6.861997
7586259148000.0,-1.4640797205922462,10.289129982856029,2.0124260834210013,-0.97097033,0.73914695,-2.3069327,203.46011,-77.12261,-7.448805
7586263956000.0,-1.4077620921568628,10.09990012913448,2.014126299187958,-1.0299188,0.70005155,-2.264172,203.27336,-76.537,-8.045524
7586269075000.0,-1.1747321637254902,9.779484592196477,2.0481098082392557,-1.0638218,0.62949663,-2.2085834,203.09134,-75.95852,-8.620782
7586274037000.0,-0.9187747566757548,9.442858564459591,2.0160809696494644,-1.1016954,0.4456262,-2.0934353,202.96017,-75.37312,-9.161674
7586278973000.0,-0.6149876417857838,9.06542566630964,1.8779959611197663,-1.1908818,0.3042109,-2.035403,202.83525,-74.77841,-9.69086
7586284230000.0,-0.3394820057043022,8.666813150251146,1.7034836977287615,-1.2452488,-0.054367006,-1.8576412,202.82425,-74.24384,-10.089585
7586289060000.0,-0.1711192763441799,8.306517020091723,1.494713918300939,-1.3924674,-0.14721853,-1.8008307,202.77887,-73.67036,-10.504716
7586294000000.0,0.0010778008895683,7.938015388003203,1.2811895476232076,-1.4321736,-0.30176744,-1.6978999,202.86832,-73.183784,-10.78781
7586298987000.0,0.0209880999443872,7.406451742945417,1.1430229898043256,-1.5131133,-0.4196644,-1.6016886,202.9658,-72.67876,-11.046453
7586303971000.0,-0.077324576868795,6.752672437569516,1.0643728007209063,-1.5882497,-0.643852,-1.6148223,203.13283,-72.17833,-11.283433
7586309840000.0,-0.3438983686334841,6.327102874298643,1.0304788246455503,-1.597718,-0.9007208,-1.7180585,203.35237,-71.711945,-11.476973
7586313958000.0,-0.5818307440542987,6.144688020844646,1.0265132879537455,-1.599856,-1.0552697,-1.7513506,203.59645,-71.254524,-11.639701
7586318961000.0,-0.7999300229875931,6.133729293697271,1.0038318457667494,-1.6050484,-1.0864239,-1.7852536,203.88797,-70.74295,-11.854826
7586323930000.0,-0.9746917997717122,6.247088336029776,0.9707688349081888,-1.6181821,-1.061073,-1.7901406,204.19846,-70.24385,-12.055631
7586328907000.0,-1.1267356343873516,6.4058995581207325,1.133765916313331,-1.643533,-1.0409144,-1.7876972,204.50203,-69.701126,-12.311095
7586333971000.0,-1.2661447521739129,6.59758719743083,1.4300102802371542,-1.6685784,-1.0348058,-1.7669277,204.79178,-69.17321,-12.555198
7586338937000.0,-1.3653689425925926,6.739660184814815,1.6653002503703704,-1.6719382,-1.0910053,-1.7873917,205.10846,-68.62299,-12.834444
7586343950000.0,-1.404882161574074,6.808808279351852,1.813474731296296,-1.6936239,-1.1206323,-1.7724255,205.40208,-68.087654,-13.092257
7586348927000.0,-1.423143901311834,6.8284152049740365,1.8772059049740368,-1.6630806,-1.1560625,-1.7110336,205.7124,-67.53956,-13.341034
7586354622000.0,-1.4132066788466793,6.778729611460326,1.8275203114603265,-1.6267341,-1.2754866,-1.6762142,206.04503,-67.00204,-13.574293
7586358969000.0,-1.4098730903953811,6.740194850682295,1.7889855615552834,-1.5858061,-1.3649784,-1.6184875,206.38245,-66.47804,-13.785564
7586363987000.0,-1.4182805229006297,6.693954366952414,1.742745121719734,-1.5442673,-1.4083499,-1.5607607,206.72574,-65.98431,-13.972839
7586369353000.0,-1.426310449893933,6.643610137462876,1.6935101772168009,-1.518611,-1.4340062,-1.4941764,207.09908,-65.50871,-14.1368885
7586373922000.0,-1.4114588543317776,6.580490866016122,1.6563812464658465,-1.5109752,-1.4358387,-1.4245378,207.46005,-65.06367,-14.275728
7586379356000.0,-1.3937955647093765,6.505421896648282,1.6122230915740348,-1.5152513,-1.4504995,-1.3432927,207.84021,-64.63135,-14.397241
7586383965000.0,-1.3680749469982236,6.442373920834814,1.61731852321492,-1.5265522,-1.4645494,-1.2889256,208.20474,-64.22006,-14.501143
7586388971000.0,-1.334013518365897,6.374251108028419,1.6471223177264651,-1.5161675,-1.488984,-1.1780536,208.5504,-63.84868,-14.560597
7586393934000.0,-1.26998340669907,6.275968631117921,1.675122557650042,-1.5027285,-1.5161675,-1.0748174,208.93292,-63.467182,-14.612027
7586398928000.0,-1.1486987554311072,6.119309162373204,1.7003901713440406,-1.4935656,-1.5387696,-0.9737192,209.2979,-63.116898,-14.628209
7586403919000.0,-1.0370757373997908,5.94506038410596,1.697334596619031,-1.452943,-1.557401,-0.8582657,209.67647,-62.786114,-14.605399
7586408980000.0,-0.9357131156326246,5.746558579470199,1.6593236024311606,-1.3946054,-1.534188,-0.7483099,210.02762,-62.48808,-14.557306
7586414041000.0,-0.8358801575154547,5.540873095775685,1.634386195805122,-1.3072516,-1.5045611,-0.6441574,210.38878,-62.22084,-14.46336
7586418952000.0,-0.7458872173800413,5.308968324455402,1.6689988789888135,-1.2027937,-1.5048665,-0.58184916,210.73314,-61.992077,-14.350911
7586423904000.0,-0.655142961719164,5.075127471761849,1.7039005297983516,-1.0888673,-1.5454891,-0.53969944,211.10455,-61.78449,-14.2067995
7586428911000.0,-0.5975011702078479,4.9416323,1.791931293391742,-0.9767735,-1.423316,-0.40775254,211.40388,-61.633022,-14.043801
7586433983000.0,-0.5839192155354647,4.9416323,1.950387305172896,-0.8359691,-1.3096951,-0.36163223,211.71292,-61.51768,-13.888146
7586438931000.0,-0.6163543936042672,4.940439558250783,2.0840610016425365,-0.6783658,-1.271516,-0.3200934,212.027,-61.42143,-13.705768
7586443952000.0,-0.7588470067157734,4.936368343891288,2.1695565882143764,-0.5494733,-1.3332134,-0.22143865,212.31744,-61.37334,-13.500667
7586449474000.0,-0.9162941794121175,4.933388325734852,2.266957128194361,-0.47678033,-1.3432927,-0.16401732,212.62521,-61.309814,-13.306479
7586453914000.0,-1.0584074118741966,4.962539785157254,2.41635827687891,-0.37873647,-1.325883,-0.12064589,212.92467,-61.301052,-13.089301
7586458980000.0,-1.2205573298140373,4.995801337732454,2.586823641571686,-0.27275133,-1.3060299,-0.07727446,213.23438,-61.268322,-12.897438
7586463964000.0,-1.3710651657181343,4.991602984946961,2.803940341353764,-0.16890424,-1.2797627,-0.04550946,213.5269,-61.268234,-12.703442
7586468948000.0,-1.515728346253578,4.963474015692878,3.053082394696077,-0.05009095,-1.2556335,-0.005192355,213.80229,-61.309017,-12.501455
7586473892000.0,-1.6680170922093855,4.921652309385544,3.3285605401697165,0.0852157,-1.2492194,0.016493361,214.0858,-61.320988,-12.338703
7586478904000.0,-1.8544970558531848,4.8284123531847465,3.711335194295062,0.16371189,-1.235475,0.06536258,214.34677,-61.360104,-12.165052
7586483991000.0,-2.07988893747373,4.759673,4.119118606478731,0.30787608,-1.2232577,0.13775012,214.61914,-61.374134,-12.030562
7586488951000.0,-2.393142645713457,4.759673,4.566623939908689,0.44440445,-1.1429288,0.21655174,214.85776,-61.415333,-11.893802
7586493934000.0,-2.707848941713168,4.759673,5.01620439887673,0.5549711,-0.9761627,0.31123585,215.06352,-61.407528,-11.801664
7586498932000.0,-3.005295429967755,4.754782334038694,5.138254222208786,0.6273586,-0.7031059,0.3998113,215.20752,-61.4345,-11.715708
7586503914000.0,-3.284142196936719,4.745166983675937,4.941138309834744,0.63346726,-0.37140608,0.47555858,215.27945,-61.48228,-11.638749
7586509001000.0,-3.346608116882751,4.810420962683202,4.9495113718996615,0.61544675,0.047036625,0.49480084,215.2341,-61.40537,-11.708417
7586513985000.0,-3.212079402639985,4.940465341187523,5.142335935672679,0.61086524,0.537256,0.38362336,215.09128,-61.32667,-11.841839
7586518942000.0,-2.9962909870663017,4.999869271978458,5.451465637944733,0.6963864,0.6792821,0.3830125,214.91672,-61.25384,-12.002481
7586523919000.0,-2.655444786827933,4.953581590165092,5.939591053456343,0.7819075,0.6169739,0.43982297,214.67819,-61.17304,-12.207484
7586529015000.0,-2.309324361261964,4.909470506246012,6.393087158702588,0.8961393,0.47403142,0.49327368,214.45148,-61.118618,-12.381587
7586533970000.0,-1.9897183599503725,4.885920573349876,6.561300889826303,1.0103711,0.32925636,0.5644395,214.23613,-61.094707,-12.5236635
7586538951000.0,-1.6684353140304855,4.8622470686565045,6.7303972762495565,1.1420126,0.26450464,0.6044512,214.0582,-61.08585,-12.578899
7586544010000.0,-1.6438315571968505,5.040356407128609,6.3077013252913385,1.2678508,0.32436943,0.5720753,213.88885,-61.102497,-12.630383
7586548923000.0,-2.2464776228346457,5.633122984251968,4.662773837795276,1.3720033,0.39095375,0.48655418,213.73946,-61.14286,-12.676637
7586554653000.0,-2.966127063906725,6.22480787056438,2.9532554847854007,1.4859297,0.36957347,0.35705075,213.6375,-61.22879,-12.652356
7586558994000.0,-3.525303142338628,6.590098839472795,1.8320933057573503,1.7635679,0.23732115,0.2519819,213.55766,-61.370796,-12.637799
7586564694000.0,-4.259535726319703,7.069748349442379,0.359938405858736,2.082745,0.1872302,0.27550024,213.513,-61.6651,-12.684797
7586568931000.0,-4.235262693246362,7.984442916457602,0.4964995057160061,2.2525656,0.27122417,0.33108896,213.48015,-61.975895,-12.744744
7586574134000.0,-3.5652206665228303,9.73455276567988,2.046596699299549,2.187203,0.4636467,0.38698313,213.4322,-62.303005,-12.79928
7586578918000.0,-3.0994379754942343,11.41532111923394,3.604693461408567,2.0793853,0.6792821,0.49571714,213.21968,-62.91821,-12.971998
7586584003000.0,-2.78655093047776,13.288631977759474,5.421845311861615,1.7434094,0.66828656,0.61636305,213.01396,-63.45567,-13.115666
7586589125000.0,-2.4753364272727274,15.119545810674069,7.1504345345193405,1.4025466,0.33261612,0.7495316,212.94322,-63.966232,-13.005974
7586594015000.0,-2.2383937,16.01381363913824,7.249797626570916,1.1856894,-0.20280726,0.93554014,212.9177,-64.437065,-12.827939
7586599018000.0,-1.995975609090909,16.928746552391054,7.351456839154562,1.0430524,-0.75808376,1.1630874,213.13712,-64.734116,-12.382881
7586603908000.0,-1.7909413250819672,16.554389844262296,6.16284801704918,0.9257663,-1.1994339,1.3023647,213.45251,-64.98851,-11.889477
7586608971000.0,-1.602681467713546,15.211469502157032,3.962299421259707,0.82527894,-1.2779301,1.2382239,213.80745,-65.20675,-11.393035
7586613937000.0,-1.3597486892989512,13.91366774899456,2.2638194898351864,0.8060367,-1.1820242,1.0965031,214.26631,-65.50959,-10.784294
7586618954000.0,-0.9429714455295324,12.65954712041637,1.9000865546408008,0.7993172,-1.0903945,0.9737192,214.73982,-65.77202,-10.20856
7586623892000.0,-0.5327569688037221,11.425174454696002,1.5420811262991876,0.7800749,-0.8875872,0.890947,215.09569,-66.25553,-9.70707
7586628911000.0,-0.0938342256494611,10.4778087878616,1.6687762275666478,0.766025,-0.57451874,0.87017757,215.40587,-66.718315,-9.255871
7586634774000.0,0.4293903176727979,9.51780513005429,2.0509576475002027,0.79351395,-0.2012801,0.9025534,215.65045,-67.17146,-8.850975
7586638935000.0,0.7913988956628398,8.897654541752527,2.3170816857815724,0.8167268,0.09621128,0.9627236,215.86302,-67.60019,-8.445245
7586644005000.0,1.2059051508880383,8.316393046315376,2.6267703301736827,0.8738427,0.23426682,1.0442741,216.01677,-68.04176,-8.054189
7586648913000.0,1.5655638194666213,7.828443153388823,2.843299839757092,0.95233893,0.24220806,1.1169671,216.2166,-68.365555,-7.624247
7586653984000.0,1.7759225438763375,7.613959751486326,2.74430753686088,1.0228939,0.19272798,1.1856894,216.38855,-68.70213,-7.1913905
7586658949000.0,1.9818841030745715,7.403959733650416,2.647384487387464,1.0974194,0.1572978,1.2409728,216.42937,-69.09397,-6.7156653
7586663957000.0,2.160257330800161,7.378283524225975,2.40993019030961,1.1774428,0.1853976,1.2907583,216.46365,-69.498344,-6.2323403
7586668899000.0,2.331530915279453,7.383041217631685,2.153019912947326,1.2226468,0.21135938,1.3057245,216.50972,-69.90064,-5.74822
7586673926000.0,2.4881688158913957,7.644132907047314,2.0007343693751247,1.2470814,0.3051272,1.3445144,216.50536,-70.34747,-5.2264543
7586678881000.0,2.639745767728089,7.942550081982432,1.868104431413456,1.2815952,0.43768495,1.3900238,216.48532,-70.79385,-4.7121663
7586683968000.0,2.646925819903677,8.403572025034732,1.809757459488747,1.2965615,0.58459806,1.457219,216.44362,-71.2808,-4.167371
7586688974000.0,2.629164789691581,8.8831202580439,1.765354837593776,1.3100005,0.6817256,1.5091426,216.38203,-71.758865,-3.6291292
7586693966000.0,2.54189868794562,9.568994866163145,1.7833605268580062,1.3087788,0.72601336,1.5577064,216.31046,-72.2626,-3.0579937
7586698916000.0,2.42732423326284,10.33282473021148,1.8263259785196373,1.317331,0.7333437,1.5931365,216.2258,-72.75051,-2.4902632
7586704464000.0,2.0779469725423065,11.768522071896705,1.6420518789005183,1.323745,0.72295904,1.6392568,216.1634,-73.23681,-1.9175731
7586708979000.0,1.7311190527046856,13.100848532818157,1.426341890981121,1.3295482,0.691194,1.6734654,216.11086,-73.69854,-1.3481766
7586713996000.0,1.474054141863196,13.785451860358156,1.196216210486349,1.3478742,0.6728681,1.7037032,216.10185,-74.14679,-0.79982406
7586719002000.0,1.2770150622272238,14.0997761461004,0.9710286363166653,1.3839152,0.66950834,1.7122552,216.20277,-74.627495,-0.32194602
7586723921000.0,1.0815700285839416,14.211981,0.7530246325464025,1.4312572,0.6740898,1.7110336,216.31216,-75.08859,0.15085174
7586728912000.0,0.8822046428759123,14.211981,0.5337227259624608,1.4669929,0.7086037,1.7015651,216.42087,-75.528656,0.6108132
7586734071000.0,0.6534245363835409,14.028452781049452,0.4625897700679501,1.4844025,0.7538077,1.6872098,216.46194,-76.01548,1.0629222
7586738961000.0,0.4280225246055115,13.785372339373348,0.4537504858946772,1.4993688,0.79045963,1.6588045,216.50607,-76.48005,1.4968609
7586743985000.0,0.203099826311787,13.474477472847813,0.4669722716301063,1.5149459,0.8035932,1.6285667,216.5048,-76.96774,1.9097158
7586748945000.0,-0.014560815513308,13.127146424783074,0.4947587216252315,1.5125023,0.7996226,1.582141,216.50989,-77.42368,2.300688
7586754604000.0,-0.1660896255531736,12.798443143256597,0.5376695407456427,1.4874569,0.7687739,1.5430456,216.47552,-77.853935,2.6589823
7586759005000.0,-0.2328719886550471,12.57845467275608,0.5769532958113525,1.4816537,0.7415904,1.5430456,216.45027,-78.25921,3.0088482
7586763994000.0,-0.2857324632303159,12.33463511306791,0.6286882073603783,1.4853189,0.70738196,1.5662584,216.39693,-78.63283,3.3300424
7586768995000.0,-0.305424210015761,12.0983338363599,0.6910454066566162,1.4908166,0.6963864,1.5760323,216.35341,-78.97893,3.6423068
7586774294000.0,-0.3262893502309326,11.84795181970808,0.7571183518817242,1.4914275,0.6221663,1.6291776,216.31187,-79.28204,3.9689245
7586778961000.0,-0.2973128656832496,11.577038360383389,0.8273819185084437,1.4724907,0.5864306,1.6536123,216.27135,-79.55555,4.283156
7586784015000.0,-0.2177855944755819,11.232420148242811,0.9157455516458238,1.4498887,0.50610185,1.711339,216.26773,-79.78922,4.621606
7586788936000.0,-0.1509507863535421,10.896700065734938,0.9768343,1.4263704,0.41416663,1.772731,216.25671,-79.96451,4.966891
7586794098000.0,-0.1080669969470843,10.544099891469878,0.9768343,1.382388,0.34269542,1.8237382,216.26756,-80.09409,5.321436
7586798898000.0,-0.0566375414105673,10.226610700086615,0.9673715545084453,1.3332134,0.2501493,1.8619173,216.30081,-80.15799,5.7014017
7586803843000.0,0.0407843843830662,9.939472496860112,0.921224339068861,1.2886202,0.15424347,1.8997909,216.35962,-80.1775,6.0908284
7586808824000.0,0.1269613348396253,9.67816352625603,0.8782907931819472,1.2421945,0.061391957,1.9135354,216.43286,-80.14558,6.4943013
7586813877000.0,0.1910622422953922,9.467546320370896,0.8416616827173811,1.1896601,-0.02321288,1.9123137,216.53572,-80.07535,6.8989472
7586818805000.0,0.2518280811883905,9.280456240633244,0.8004926684369393,1.149343,-0.11026118,1.8942931,216.66565,-79.973946,7.3150997
7586823810000.0,0.3074746272886544,9.153986889709762,0.7397873482997361,1.1096367,-0.20005837,1.8616118,216.8257,-79.84636,7.72096
7586828804000.0,0.3419812838851471,9.041398438851472,0.6768368365473236,1.0827587,-0.2828306,1.8197676,217.0009,-79.69345,8.132064
7586834009000.0,0.3331462530450195,8.953048130450195,0.6061565436990428,1.0512991,-0.3549127,1.7562376,217.2041,-79.530174,8.521726
7586838835000.0,0.3205931169607332,8.870751554265182,0.545878,1.0537425,-0.4025602,1.6716328,217.40805,-79.36213,8.907427
7586843872000.0,0.2552771139922924,8.780314031871681,0.545878,1.0720685,-0.4428773,1.5763378,217.63559,-79.19726,9.266009
7586848815000.0,0.169753872444577,8.69583685073069,0.5473365602544984,1.0836749,-0.49693888,1.4608842,217.85658,-79.04171,9.605686
7586853829000.0,-0.0355129222328263,8.633779441544885,0.5568838463067899,1.108415,-0.52106804,1.3219124,218.086,-78.90971,9.90484
7586859071000.0,-0.2025720329631111,8.585984847323358,0.553961985508522,1.1261301,-0.5360342,1.1777482,218.30745,-78.79757,10.16739
7586864008000.0,-0.1609550350284068,8.612468531887654,0.497211531983676,1.1560625,-0.5467244,1.0564915,218.53831,-78.710724,10.392092
7586868884000.0,-0.1198522434688325,8.638624992478196,0.4411622689925582,1.1670581,-0.5543602,1.006095,218.73167,-78.645676,10.578931
7586873838000.0,0.0106531883713185,8.680078661359142,0.4181573271349776,1.1670581,-0.5180137,0.9279043,218.91853,-78.614105,10.718993
7586878858000.0,0.1907677269497346,8.730110439900093,0.4131541388323446,1.1722504,-0.46303585,0.8918633,219.10184,-78.578445,10.8534775
7586884079000.0,0.3342952238748453,8.697823178584056,0.4052595772953862,1.1685852,-0.42455134,0.890947,219.271,-78.53802,10.987549
7586889404000.0,0.465009223521301,8.634719763567261,0.3962448238925225,1.1362094,-0.4202753,0.9034697,219.43414,-78.49399,11.112222
7586893862000.0,0.5568371831836223,8.527835487152705,0.3716369219845414,1.0732902,-0.38515055,0.91813046,219.56726,-78.41296,11.2637005
7586898871000.0,0.6420151706329642,8.352468953154377,0.3265427062607061,1.0082331,-0.33841935,0.9309586,219.69562,-78.32088,11.415135
7586903965000.0,0.7186453288101604,8.217341071821153,0.3329313158585859,0.95905846,-0.29871312,0.9193522,219.80884,-78.20151,11.586085
7586909282000.0,0.7905019537433156,8.111446919489008,0.3820963795959596,0.9098838,-0.3023783,0.893085,219.9218,-78.076126,11.752862
7586913950000.0,0.8535876647058824,8.018478346405228,0.4252602911111111,0.8680395,-0.3643811,0.8772025,220.02951,-77.92361,11.941798
7586918948000.0,0.9272735324232708,7.9100912013559315,0.4309563,0.80848014,-0.46303585,0.8561276,220.1506,-77.7761,12.118111
7586924019000.0,1.0029114348236372,7.798859246101695,0.4309563,0.75961095,-0.528093,0.82558435,220.28098,-77.6342,12.283709
7586928974000.0,1.0372152486924686,7.616827224476987,0.3609734864958159,0.7339546,-0.5488624,0.79504114,220.40182,-77.468735,12.467621
7586934317000.0,1.0563309649432158,7.387438948834429,0.2539256271906754,0.7153232,-0.55924714,0.7538077,220.53955,-77.31486,12.636388
7586939128000.0,1.0726024,7.189902630604689,0.164670656137392,0.68539083,-0.4841107,0.70646566,220.65016,-77.1485,12.814174
7586944014000.0,1.0726024,7.147556627313863,0.1993173404236939,0.6646214,-0.38881573,0.64721173,220.75879,-76.998955,12.973126
7586948941000.0,1.0726024,7.104855285067873,0.234254756199095,0.6356053,-0.33108896,0.57818395,220.85774,-76.844604,13.136423
7586953884000.0,1.0873025099776683,7.143187472746762,0.1681463088405538,0.6010914,-0.258396,0.52931476,220.9258,-76.702736,13.284702
7586959924000.0,1.118304138561858,7.262027156891469,-0.0023627670683341,0.5656612,-0.15577064,0.5018258,220.96938,-76.57573,13.416166
7586963970000.0,1.137173650713908,7.376430350608143,-0.1310315820624008,0.55955255,-0.1001819,0.48991394,220.98682,-76.45439,13.540814
7586969050000.0,1.157755468164992,7.577102654362771,-0.3162675791433104,0.56169057,0.013133603,0.47586402,220.95909,-76.34366,13.653572
7586973895000.0,1.1581408230516883,7.77437087550008,-0.4135076267514802,0.5882632,0.105374254,0.45173484,220.93402,-76.23324,13.76588
7586978908000.0,1.1350930160665706,7.985642071851497,-0.4173489292526804,0.6444628,0.16676621,0.42271876,220.88676,-76.13015,13.869801
7586983944000.0,1.111939464106257,8.197882595455273,-0.4212078559225476,0.7067711,0.22021692,0.38698313,220.8253,-103.967415,13.966872
7586988976000.0,1.169828722798038,8.536288021113243,-0.2888114967754318,0.768163,0.28130344,0.35979962,220.74538,-104.05861,14.05565
7586993957000.0,1.2254771462479757,8.864197633525285,-0.1599724877649811,0.78893244,0.35460728,0.33200526,220.63751,-104.12839,14.121345
7586998993000.0,1.2211376856757243,9.050794710005398,-0.12525677599964,0.7644979,0.4364632,0.30695978,220.51083,-104.19085,14.178238
7587003885000.0,1.216922308169876,9.232056206856218,-0.0915337295429188,0.7302894,0.5271767,0.28069258,220.33153,-104.24084,14.222666
7587008986000.0,1.12455455087153,9.39068046739832,-0.0365204627333763,0.6731735,0.6020077,0.2565634,220.13567,-104.282,14.258592
7587014001000.0,1.0182495936641152,9.541279395739188,0.0210613792204187,0.62858033,0.68600166,0.23365596,219.91345,-104.31377,14.285584
7587019014000.0,1.0071092860982866,9.586384,0.038307227,0.5815437,0.7583892,0.21105394,219.66235,-104.327,14.295765
7587023934000.0,1.036113864737868,9.586384,0.038307227,0.573297,0.7984009,0.20799962,219.4001,-104.336945,14.303055
7587029529000.0,0.9921054762948208,9.58240188135264,0.3250139787604703,0.56138515,0.8023715,0.19150625,219.10828,-104.30759,14.273052
7587033977000.0,0.9382944229083664,9.578262488096396,0.6230442736495967,0.56077427,0.7675522,0.17134771,218.82062,-104.27452,14.23938
7587038989000.0,0.8830934658286028,9.543550310748948,0.7701639466214979,0.5519168,0.72326446,0.15699236,218.52945,-104.24365,14.207684
7587044003000.0,0.8303359714447903,9.495189220289324,0.8317143544405787,0.54550266,0.67347896,0.14263703,218.25465,-104.20546,14.168507
7587048970000.0,0.80445176,9.507692942052314,0.8546664115895373,0.5537493,0.63285637,0.10262536,217.9385,-104.13311,14.099115
7587053917000.0,0.80445176,9.579186548088533,0.8403676903822938,0.5235115,0.59315014,0.0580322,217.64247,-104.05311,14.022526
7587058960000.0,0.8092779085218762,9.646484116574694,0.796986060888845,0.50762904,0.5684101,0.023518313,217.33438,-103.96076,13.9336
7587063962000.0,0.8187188138431217,9.707850296905796,0.7261792216890027,0.49327368,0.5403103,0.014966198,217.04424,-103.86213,13.83843
7587068956000.0,0.8326384918952838,9.814136165996668,0.6217816296499658,0.46089783,0.4990769,-0.01160644,216.76205,-103.74724,13.726527
7587073928000.0,0.8513132244455339,9.968202353662123,0.4817211745229924,0.43799037,0.49693888,-0.015882496,216.4815,-103.6364,13.618572
7587078911000.0,0.8424032802319005,10.116126072586727,0.3495507349604072,0.41813725,0.5002986,0.003970624,216.21495,-103.530304,13.51467
7587083966000.0,0.7967671805429865,10.257598405731525,0.2263333086877828,0.4092797,0.52015173,0.025961773,215.9485,-103.42391,13.410507
7587088905000.0,0.7524110788031723,10.346425129776495,0.0871924396899783,0.39767328,0.5311473,0.039095376,215.69139,-103.32742,13.315113
7587094008000.0,0.7071094315068494,10.326290643835616,-0.0990477972602739,0.3866777,0.55771995,0.06078109,215.4282,-103.239655,13.228613
7587099283000.0,0.6552455357754677,10.263040521995842,-0.2530459132931393,0.3735441,0.59315014,0.09407325,215.16656,-103.1511,13.140418
7587103918000.0,0.6035666155675675,10.155991101621622,-0.3416383396756757,0.36041048,0.63713247,0.10903945,214.8985,-103.06358,13.053494
7587109536000.0,0.5419998184388538,10.023565739378276,-0.4473199152010337,0.35613444,0.6973027,0.12705997,214.62509,-102.99004,12.979392
7587113960000.0,0.503357757117884,9.894758980390666,-0.5149434972942161,0.33841935,0.7296785,0.129198,214.35054,-102.91564,12.904808
7587119008000.0,0.4592652784677358,9.747784179448203,-0.5921053061564187,0.3381139,0.7651087,0.1518,214.06233,-102.85329,12.841373
7587123955000.0,0.4172814480811885,9.60555911466834,-0.641646,0.3286455,0.7733554,0.16432275,213.7762,-102.78766,12.77503
7587128911000.0,0.3775554421552626,9.4665183739276,-0.641646,0.3417791,0.77304995,0.17959438,213.48608,-102.7287,12.715198
7587134110000.0,0.3685855803542762,9.356783406310544,-0.6070541177276502,0.34055737,0.743423,0.19028452,213.20447,-102.67558,12.660396
7587138992000.0,0.3987800409576529,9.296394160808193,-0.5337247346388043,0.35430184,0.71868294,0.20463985,212.92511,-102.62721,12.609957
7587143927000.0,0.4538056371726071,9.285586438446137,-0.4012141355226272,0.3643811,0.6762278,0.20189096,212.65308,-102.57736,12.557617
7587148986000.0,0.5818648315178214,9.421407115338406,-0.0946481565678814,0.37720928,0.61941737,0.2012801,212.39603,-102.53138,12.508682
7587154684000.0,0.7260991247336803,9.57438324044854,0.2506400324189027,0.3979787,0.54458636,0.2312125,212.14377,-102.50091,12.475102
7587159296000.0,0.8530297489013557,9.776590145161292,0.3746953761570827,0.4343252,0.44684792,0.2507602,211.91841,-102.46673,12.436865
7587163993000.0,0.9834131109396914,9.99109152903226,0.4840491778401121,0.42302418,0.41386122,0.2510656,211.6514,-102.442604,12.41255
7587168965000.0,1.0792302451859668,10.246611276180428,0.5980919427793898,0.4260785,0.36193767,0.24923302,211.42381,-102.422615,12.390957
7587173960000.0,1.1507342433394885,10.520008799920866,0.7116570514710279,0.4392121,0.31398472,0.24984388,211.20949,-102.40171,12.3684
7587178887000.0,1.1841190469852103,10.762202208592653,0.7863799901432109,0.45265114,0.2648101,0.25870144,210.9962,-102.39595,12.36169
7587184304000.0,1.1424586810011377,10.97050385725758,0.7898516842876263,0.44440445,0.20616703,0.27122417,210.80464,-102.389656,12.354402
7587188984000.0,1.1064663397042092,11.15046540714716,0.7928510434524526,0.42821655,0.13530666,0.28680122,210.613,-102.38424,12.34842
7587193978000.0,0.9523577452185468,11.31733861104548,0.6637553043443591,0.39950588,0.06627888,0.2968805,210.44298,-102.37921,12.343035
7587198978000.0,0.5988134783845245,11.441079381866508,0.3066756048464265,0.355829,0.0030543262,0.3032946,210.29643,-102.37589,12.339737
7587203885000.0,0.2518451349136149,11.562518574350266,-0.0437624122408445,0.32650748,-0.064446285,0.28619036,210.1557,-102.35178,12.315803
7587209163000.0,0.0295610052423434,11.60402743870137,-0.4143199795061161,0.30024028,-0.11789699,0.2657264,210.03319,-102.327484,12.2922735
7587214010000.0,-0.1027835413841626,11.59975817364113,-0.7515851121567184,0.27580565,-0.1469131,0.24648413,209.92642,-102.29822,12.2640915
7587219054000.0,-0.0409370551569597,11.585453791359644,-1.0133647671469668,0.267559,-0.11911872,0.22174409,209.81245,-102.20724,12.170384
7587223928000.0,0.2158425823760976,11.561896042697082,-1.178269118479358,0.24190263,-0.03023783,0.17806722,209.68988,-102.10643,12.06793
7587228904000.0,0.477995942319572,11.537845292318565,-1.346624484140002,0.2415972,0.109650314,0.14294247,209.56233,-101.996826,11.9519415
7587234300000.0,0.7622763945412334,11.511764534874333,-1.5291899087993337,0.23793201,0.27458394,0.119729586,209.40161,-101.879745,11.829512
7587238945000.0,1.184037505766001,11.575285770292965,-1.4016860178204888,0.26419923,0.40408736,0.09712757,209.20078,-101.75934,11.70303
7587243953000.0,1.7926070678484791,11.718478685389066,-1.016855327169248,0.28771752,0.46822822,0.069027774,208.97261,-101.63227,11.570444
7587248920000.0,2.398217504154728,11.925833592272564,-0.565554734163682,0.29871312,0.45845437,0.05497787,208.79932,-101.60337,11.529278
7587253911000.0,3.0102420968481374,12.24682554745702,0.0079509132879656,0.29229903,0.419359,0.042760566,208.61743,-101.567566,11.480519
7587259122000.0,3.625961442779011,12.587388146520292,0.5763565914251744,0.29077184,0.28099802,0.05375614,208.45908,-101.623085,11.527374
7587263987000.0,4.091282303868104,12.930839369372226,0.9641238766899176,0.23396139,0.101098195,0.05681047,208.32855,-101.66781,11.565076
7587268966000.0,4.567506880921052,13.282338575657894,1.360977589605263,0.22113322,-0.073303826,0.06169739,208.2332,-101.77834,11.675038
7587273921000.0,4.966502370195489,13.674454760802004,1.665204545263158,0.16065755,-0.19853121,0.062308256,208.17984,-101.880646,11.779507
7587278933000.0,5.322584846827068,14.09790419518797,1.9154246884210528,0.10262536,-0.28924468,0.04642576,208.16986,-101.97591,11.876042
7587285149000.0,5.326756585599759,14.49503237168053,2.0606382504058525,0.029626964,-0.34483343,0.0106901415,208.1947,-102.10769,12.016526
7587288954000.0,5.20990404040485,14.70317567110933,2.1044580168153124,-0.10140363,-0.33261612,0.00580322,208.22653,-102.23695,12.157346
7587294073000.0,4.319537339006603,14.536312607174532,1.822942000078841,-0.14844026,-0.27580565,-0.015882496,208.26372,-102.37338,12.305831
7587298981000.0,3.059577848083177,14.128678708288165,1.3643538517394305,-0.2565634,-0.1695151,-0.0421497,208.28246,-102.49966,12.448049
7587303971000.0,2.203479370003476,13.73617573140424,1.083236088121307,-0.33536503,-0.028099801,-0.056505036,208.24927,-102.590675,12.553843
7587309334000.0,1.5875829058394162,13.330041259124089,0.9136413537956204,-0.43860126,0.129198,-0.07238753,208.18172,-102.67168,12.649407
7587313956000.0,1.072082111647289,12.95079987992592,0.7966229952793498,-0.52015173,0.29871312,-0.07819075,207.99843,-102.61508,12.602988
7587318937000.0,0.551820761657578,12.474711297664369,0.7377254967239428,-0.6105598,0.45814893,-0.105374254,207.77654,-102.549934,12.545858
7587323884000.0,0.1003047492964324,12.069756742323364,0.7279029829275564,-0.68936145,0.5858198,-0.15241088,207.49745,-102.40859,12.40835
7587328979000.0,-0.2342648988800556,11.788524691245156,0.8151820088144688,-0.7663304,0.7031059,-0.20311269,207.18005,-77.73654,12.261958
7587334068000.0,-0.5044819863187132,11.565595592073626,0.9272923094602438,-0.84116143,0.7901542,-0.26145032,206.80714,-77.941246,12.0492325
7587338945000.0,-0.651636547176851,11.453293579056464,1.078319384619849,-0.9309586,0.84207773,-0.33017266,206.41638,-78.155205,11.81849
7587343897000.0,-0.8010540959505845,11.339264551280989,1.231669000406268,-1.0137309,0.83658,-0.3933972,205.99841,-78.41052,11.53441
7587348922000.0,-0.9130027294463668,11.306522352076126,1.3667992244809688,-1.1099422,0.8054258,-0.45906523,205.57948,-78.67201,11.229758
7587353898000.0,-1.020183462235294,11.281787844117646,1.4987139314705882,-1.212873,0.77488256,-0.5030475,205.16835,-78.92853,10.913612
7587359351000.0,-1.1491999833750812,11.311910698116709,1.579141588282772,-1.2550226,0.68019843,-0.65301496,204.77225,-79.236725,10.524062
7587364013000.0,-1.265177170238427,11.365757468503572,1.616419941970498,-1.389413,0.65057147,-0.7067711,204.37157,-79.49796,10.150361
7587368930000.0,-1.3762107315193686,11.441434531519368,1.5790889855125143,-1.425454,0.59315014,-0.8258898,203.9906,-79.8063,9.703931
7587373981000.0,-1.4766830896043204,11.54190688960432,1.448474867545955,-1.4785993,0.5516113,-0.94806284,203.6202,-80.087746,9.244546
7587378977000.0,-1.545078810338822,11.636736000633311,1.3479704531190626,-1.4944818,0.51007247,-1.0555751,203.259,-80.37501,8.742073
7587384353000.0,-1.5899121053356553,11.734554346421788,1.2664554061272957,-1.5106697,0.44684792,-1.1609493,202.92311,-80.64775,8.212172
7587389185000.0,-1.6323629837929263,11.820566135520249,1.1902621451768325,-1.5131133,0.3652974,-1.2886202,202.60434,-80.91814,7.6454215
7587393934000.0,-1.7116212866324962,11.871850467247564,1.064381344187596,-1.493871,0.25686884,-1.4141531,202.31725,-81.166626,7.0593476
7587399001000.0,-1.780264175304878,11.931153329268293,0.91379669875,-1.4563028,0.18509217,-1.5244142,202.04742,-81.39665,6.4471817
7587403975000.0,-1.6150038096825063,12.056350457106811,0.5281892783189654,-1.4312572,0.18661933,-1.6081028,201.79152,-81.59349,5.818232
7587409113000.0,-1.4283364782759147,12.185453005359058,0.0953274184826213,-1.4077389,0.22602014,-1.6872098,201.55019,-81.77181,5.1612425
7587414067000.0,-1.17771625039657,12.30894725187567,-0.4749244570310825,-1.395827,0.32742378,-1.7379116,201.29196,-81.90031,4.4984884
7587418946000.0,-0.9308902326688102,12.430571884244372,-1.0365431289389069,-1.38025,0.46883908,-1.7757853,201.03543,-81.99238,3.860803
7587424357000.0,-0.649141396628306,12.635055309812236,-1.344417049263073,-1.3518448,0.63591075,-1.8035797,200.74275,-82.038765,3.2185817
7587428965000.0,-0.404123644671916,12.85334361023622,-1.40678516167979,-1.3170254,0.8393288,-1.820073,200.39984,-82.037224,2.5734968
7587434553000.0,-0.1190552293166592,13.058948781062972,-1.3088838508709244,-1.2745703,1.0577132,-1.8078557,200.1048,-82.02634,1.9799798
7587439051000.0,0.1041190172577043,13.193623200178653,-1.139579251406878,-1.2617421,1.2559389,-1.7873917,199.75682,-81.97428,1.3864675
7587443903000.0,0.3517093290999319,13.269557300963315,-0.8753967232129998,-1.2360858,1.4138476,-1.767844,199.38316,-81.89823,0.84155566
7587448986000.0,0.6264370263929162,13.19377030018488,-0.4159383141519898,-1.2232577,1.4923438,-1.7534887,198.97531,-81.78972,0.3043649
7587454017000.0,0.9267318643638294,13.107737888515308,0.0720141701610334,-1.1905763,1.4996742,-1.7556267,198.55869,-81.6453,-0.18200347
7587459304000.0,1.32096890599186,12.986778700937888,0.6768096215430898,-1.1746938,1.3304645,-1.7583756,198.17108,-81.47868,-0.6536632
7587464412000.0,1.7069183100164744,12.861654547611202,1.2408481206589783,-1.1239921,1.1026118,-1.7492126,197.79492,-81.26788,-1.0603663
7587468974000.0,2.095588346771005,12.678115968204285,1.5683385808401975,-1.112691,0.9596693,-1.7394388,197.44577,-81.040276,-1.4588922
7587473979000.0,2.522000782973641,12.476754593822076,1.9276305039456345,-1.0873401,0.63285637,-1.7342464,197.22903,-80.76784,-1.7610778
7587478966000.0,3.128500575638588,11.992001996032077,1.9500435073985287,-1.0818423,0.2770274,-1.7443258,197.06427,-80.49313,-2.0534632
7587484216000.0,3.905720522732909,11.264657179135323,1.717293218070596,-1.0567969,-0.03970624,-1.7528778,196.9817,-80.23297,-2.3266675
7587488979000.0,4.507734718825359,10.657001506106576,1.5142448596499416,-1.0650436,-0.20250183,-1.7660115,197.01505,-79.92309,-2.5114243
7587494066000.0,4.610058012329833,10.281816360404513,1.3399163969194865,-1.0977248,-0.25411993,-1.7809776,197.10406,-79.620705,-2.685669
7587498935000.0,4.707996309179308,9.922709524465189,1.1730586644574097,-1.1511755,-0.22449298,-1.7986927,197.31142,-79.34829,-2.7220416
7587503975000.0,4.667839830996456,9.694979297912564,1.0835476143757383,-1.2034045,-0.16401732,-1.8383989,197.5221,-79.07267,-2.764687
7587509474000.0,4.514352106853092,9.55808516904293,1.0503610735722726,-1.2232577,-0.16920967,-1.8512272,197.73817,-78.800385,-2.7997334
7587514029000.0,4.37592170088624,9.449003561472768,1.0287320427328392,-1.251052,-0.27366763,-1.8390098,197.98766,-78.51809,-2.812543
7587518948000.0,4.057109429511763,9.395868097043184,1.093253613003545,-1.2800682,-0.47250426,-1.8115209,198.26129,-78.23904,-2.8148482
7587523972000.0,3.73149185451982,9.341598413511118,1.15915244793748,-1.3219124,-0.6420194,-1.7913623,198.54729,-77.9341,-2.8309014
7587528973000.0,3.2677051951903806,9.282990093245314,1.0946099822904634,-1.3884968,-0.66248333,-1.7751744,198.84163,-77.62625,-2.8327124
7587533993000.0,2.695309503807615,9.220649747259223,0.9302587240445596,-1.4648548,-0.60994893,-1.7687603,199.15753,-77.31551,-2.8213832
7587538962000.0,2.128728987775551,9.158942739449486,0.7675771698166922,-1.539075,-0.5311473,-1.7867808,199.44206,-76.957565,-2.8685553
7587543995000.0,1.576040024238423,9.099468248325945,0.6151122405234368,-1.6526959,-0.4025602,-1.8408424,199.69531,-76.57845,-2.9254348
7587548988000.0,1.125063910393285,9.054370669904744,0.5204072646213336,-1.7232509,-0.3203988,-1.9074267,199.9373,-76.20196,-2.9882905
7587554005000.0,0.673364724873052,9.008746500437752,0.4354990372211522,-1.7391334,-0.1572978,-1.9370537,200.076,-75.783195,-3.237141
7587559026000.0,0.2439578766590789,8.958227908072141,0.5112767235580459,-1.7287487,-0.025961773,-1.9975294,200.2033,-75.35643,-3.508978
7587563941000.0,-0.1763836208457362,8.90877583050254,0.5854546419698827,-1.6975945,0.014049901,-2.0598376,200.32611,-74.89519,-3.8898916
7587569061000.0,-0.578643563694437,8.913570553012155,0.6635220867039304,-1.6267341,-0.019547688,-2.1001546,200.43257,-74.45091,-4.2762904
7587573976000.0,-0.9545019994144264,8.934451562682991,0.7386937912909236,-1.518611,-0.0729984,-2.1010711,200.53195,-74.02956,-4.66112
7587578919000.0,-1.342084888350618,8.943021509731496,0.8683656852109675,-1.4065173,-0.12003502,-2.0787745,200.62878,-73.57459,-5.135862
7587584220000.0,-1.7676044574016196,8.939415715158404,1.0630950095183975,-1.3307699,-0.20097467,-2.0305161,200.74437,-73.14444,-5.586522
7587589013000.0,-2.1523460711464697,8.936155467395938,1.2391632327603357,-1.3048081,-0.28313604,-1.9501873,200.85979,-72.68456,-6.0919867
7587593970000.0,-2.247248043214491,8.951200350201265,1.305700480161012,-1.3096951,-0.35124752,-1.8658879,200.98582,-72.24413,-6.5666695
7587598938000.0,-2.215329095543416,8.973999632547441,1.3239399060379529,-1.3060299,-0.39370266,-1.7669277,201.11586,-71.82655,-7.0002084
