timestamp,acc_x,acc_y,acc_z,gyro_x,gyro_y,gyro_z,ori_azimuth,ori_pitch,ori_roll
3138909499000.0,-0.8767573061685026,9.595961,-2.276476446781987,-1.1682798,0.745561,0.03145956,228.65782,-98.287155,2.3836892
3138914622000.0,-0.8801823472721562,9.595961,-2.280880066131453,-1.1682798,0.75961095,0.038789943,228.45183,-98.16952,2.3805478
3138919542000.0,-0.8834716703699456,9.595961,-2.2851091910971717,-1.1850786,0.7657196,0.029932396,228.22296,-97.86704,2.360741
3138924557000.0,-0.8868245068202331,9.595961,-2.28941997599617,-1.1905763,0.7556403,0.038789943,227.99727,-97.57578,2.3454058
3138929478000.0,-0.8901144984796279,9.595961,-2.293649960540133,-1.1951579,0.7501425,0.034208454,227.7693,-97.28419,2.3216612
3138934451000.0,-0.8934392553424951,9.595961,-2.29792464315284,-1.1737776,0.7593055,0.03176499,227.542,-97.00499,2.2987907
3138939481000.0,-0.8968021202168612,9.595961,-2.302248321725515,-1.1887437,0.77213365,0.034208454,227.31674,-96.72054,2.2736032
3138944482000.0,-0.9001455968046753,9.595961,-2.306547072529084,-1.2076806,0.7733554,0.03726278,227.09366,-96.446266,2.2455723
3138949487000.0,-0.9034917476389104,9.595961,-2.310849261645632,-1.2144,0.75533485,0.03726278,226.874,-96.17675,2.2149656
3138954312000.0,-0.906717557384202,9.595961,-2.314996726678069,-1.1960741,0.7266242,0.035124753,226.65863,-95.91452,2.1822114
3138959311000.0,-0.9100596968488056,9.595961,-2.319293758325147,-1.1554517,0.80481493,0.0711658,226.42044,-95.66607,2.1607218
3138964383000.0,-0.9134506413105916,9.595961,-2.3236535391841158,-1.2663237,0.7715228,0.051618114,226.22203,-95.381516,2.1169848
3138969325000.0,-0.9167546727636966,9.595961,-2.3279015748712246,-1.2437216,0.7669413,0.05375614,225.9964,-95.154335,2.0905612
3138974785000.0,-0.9204050191283166,9.595961,-2.332594872089277,-1.2476922,0.7516697,0.06688975,225.78455,-94.89584,2.0585341
3138979313000.0,-0.9234322660768514,9.595961,-2.3364870423829305,-1.2394456,0.7357872,0.06811147,225.57542,-94.650826,2.0217595
3138984304000.0,-0.926769057048613,9.595961,-2.340777197404048,-1.2366967,0.7162395,0.07971791,225.37364,-94.41181,1.9894702
3138989400000.0,-0.9301760469889252,9.595961,-2.3451576081408976,-1.2385293,0.70096785,0.09865474,225.17668,-94.18044,1.9577049
3138994316000.0,-0.9334626958402936,9.595961,-2.3493832947936357,-1.2479976,0.6585127,0.09987647,224.99423,-93.95257,1.9216802
3138999339000.0,-0.9368208807834232,9.595961,-2.353700956318595,-1.2003502,0.58459806,0.10170906,224.82678,-93.746666,1.8888841
3139004341000.0,-0.9401650259328423,9.595961,-2.3580005667004085,-1.10139,0.5036584,0.100792766,224.67455,-93.556175,1.8534662
3139009320000.0,-0.9434937941653412,9.595961,-2.3622804067825856,-0.9746355,0.41905355,0.10262536,224.54541,-93.38954,1.8170577
3139014499000.0,-0.9469562747188882,9.595961,-2.366732162513775,-0.84116143,0.34880406,0.09040806,224.40395,-93.258995,1.7942424
3139019518000.0,-0.9503117854155968,9.595961,-2.3710463857257547,-0.7101309,0.3118467,0.09101892,224.27795,-93.16328,1.7738805
3139024657000.0,-0.9537475235049342,9.595961,-2.375463758327142,-0.5873469,0.21227567,0.043066,224.18959,-93.0892,1.733693
3139029481000.0,-0.9569726646886204,9.595961,-2.379610363781334,-0.16371189,-0.049480084,0.024740042,224.15904,-93.12384,1.6991442
3139034432000.0,-0.9602827131961724,9.595961,-2.383866135672649,0.022296581,-0.08155051,0.009162978,224.09071,-93.12545,1.653453
3139039508000.0,-0.9636763319043796,9.595961,-2.388229354844597,0.07360926,-0.04886922,0.018020526,224.07828,-93.19885,1.607744
3139045585000.0,-0.967739180779434,9.595961,-2.393453011839855,0.026267206,-0.04734206,0.022907447,224.0831,-93.29206,1.5565611
3139049500000.0,-0.9703565994639554,9.595961,-2.396818260669283,0.022602014,-0.043982297,0.018936822,224.07765,-93.41036,1.5067731
3139054488000.0,-0.9736913847509012,9.595961,-2.401105836955665,0.029932396,-0.038179077,0.018936822,224.07082,-93.521454,1.4604559
3139059478000.0,-0.9770275071610578,9.595961,-2.405395132398538,0.025045475,-0.03604105,0.01740966,224.06366,-93.62811,1.4134581
3139064517000.0,-0.980396389089871,9.595961,-2.409726547175419,0.026572637,-0.028099801,0.022602014,224.053,-93.73907,1.3694755
3139069708000.0,-0.9838668923826812,9.595961,-2.4141886178455496,0.023823744,-0.02076942,0.018325957,224.04147,-93.84609,1.3232772
3139074442000.0,-0.9870318630218956,9.595961,-2.4182578612576853,0.032070424,-0.017104227,0.016798794,224.02867,-93.95671,1.2802836
3139079432000.0,-0.990367985432052,9.595961,-2.422547156700558,0.025961773,-0.02107485,0.022602014,224.01588,-94.062096,1.2390362
3139084419000.0,-0.9937021021573929,9.595961,-2.4268338734086954,0.027488936,-0.03023783,0.022907447,224.00331,-94.170135,1.1966181
3139089511000.0,-0.9971064178512838,9.595961,-2.4312108458325645,0.032375857,-0.038789943,0.021991149,223.9917,-94.276634,1.1562724
3139094472000.0,-1.0004231519748883,9.595961,-2.4354752135063302,0.029932396,-0.04917465,0.02565634,223.98325,-94.38059,1.1179287
3139099431000.0,-1.003738548975282,9.595961,-2.439737862023606,0.01863139,-0.047647487,0.021380283,223.97354,-94.48134,1.0779784
3139104425000.0,-1.0070773456318596,9.595961,-2.444030595779459,0.015271631,-0.07360926,0.015271631,223.9746,-94.582306,1.0385376
3139109421000.0,-1.0104174794116474,9.595961,-2.448325048691802,0.017715093,-0.07422013,0.016493361,223.96791,-94.68045,1.0013908
3139114490000.0,-1.013806418188618,9.595961,-2.4526822508160344,0.021991149,-0.09193522,0.019547688,223.97325,-94.77643,0.96292776
3139119563000.0,-1.0171980312120097,9.595961,-2.457042891253248,0.02107485,-0.10048734,0.018325957,223.9759,-94.86996,0.92463595
3139124609000.0,-1.0205715930720594,9.595961,-2.461380323077844,0.022296581,-0.110872045,0.016493361,223.98398,-94.963875,0.88743585
3139129422000.0,-1.023789380078088,9.595961,-2.46551747317134,0.02443461,-0.12156218,0.019547688,223.99445,-95.0564,0.8519182
3139134419000.0,-1.0271301824194812,9.595961,-2.469812785661928,0.03359759,-0.12858713,0.01740966,224.0064,-95.14934,0.81508934
3139139518000.0,-1.030539178044609,9.595961,-2.4741957751335124,0.040317107,-0.13775012,0.020158553,224.02194,-95.24097,0.78104955
3139144652000.0,-1.0339715733259205,9.595961,-2.4786088498436745,0.04153884,-0.1441642,0.0143553335,224.03815,-95.33153,0.7447097
3139149435000.0,-1.0371693034837917,9.595961,-2.4827202125898187,0.052839845,-0.1414153,0.02107485,224.05446,-95.42577,0.7135632
3139154421000.0,-1.040502751647527,9.595961,-2.487006069719711,0.050396383,-0.14355333,0.021685716,224.07336,-95.51431,0.67959404
3139159417000.0,-1.043842885427315,9.595961,-2.491300522632054,0.05497787,-0.13316862,0.025350908,224.08794,-95.60664,0.6496485
3139164612000.0,-1.047316062966546,9.595961,-2.495766031615165,0.062002823,-0.1423316,0.020463986,224.1082,-95.696976,0.6176334
3139169438000.0,-1.0505425412734426,9.595961,-2.499914356225847,0.061391957,-0.14752395,0.018325957,224.12434,-95.784874,0.588595
3139174553000.0,-1.0539622338842545,9.595961,-2.5043110989493527,0.063224554,-0.14844026,0.01863139,224.14159,-95.87359,0.5595089
3139179426000.0,-1.0572201345865977,9.595961,-2.5084998237375524,0.065973446,-0.14630222,0.022907447,224.15926,-95.960686,0.5316644
3139184436000.0,-1.0605696282288588,9.595961,-2.5128063107453267,0.06078109,-0.13927728,0.021380283,224.17538,-96.04414,0.50314885
3139190509000.0,-1.064629802857492,9.595961,-2.5180265294276043,0.055588737,-0.14049901,0.020463986,224.19319,-96.12675,0.47656992
3139194555000.0,-1.0673348031123002,9.595961,-2.5215043830071355,0.05497787,-0.1255328,0.016187929,224.20407,-96.207375,0.4500133
3139199426000.0,-1.0705913666914328,9.595961,-2.5256913886388457,0.043066,-0.12370021,0.021685716,224.21912,-96.28184,0.42623842
3139204429000.0,-1.0700284797002235,9.596246986897254,-2.525512419512414,0.040927973,-0.11301007,0.015882496,224.22678,-96.35697,0.39946
3139209432000.0,-1.0635736810737666,9.596964176093726,-2.518579489096679,0.04184427,-0.10293079,0.014660766,224.23428,-96.428246,0.37622657
3139214498000.0,-1.0570376007536324,9.597690396455372,-2.5115592561392304,0.03726278,-0.10140363,0.021991149,224.2164,-96.508446,0.35526946
3139219708000.0,-1.0503157337050937,9.59843725948028,-2.504339474515009,0.038179077,-0.0870483,0.018325957,224.19144,-96.5886,0.33195582
3139224423000.0,-1.0442325085354462,9.599113163350232,-2.49780564143282,0.020463986,-0.08674286,0.015882496,224.17023,-96.66055,0.31103462
3139230155000.0,-1.0368371645964394,9.59993485602946,-2.4898624958915456,0.03359759,-0.090713486,0.019547688,224.14618,-96.73993,0.29149663
3139234429000.0,-1.0313229112825324,9.600547541743175,-2.483939780601349,0.03848451,-0.09162979,0.02076942,224.12094,-96.8103,0.27102116
3139239561000.0,-1.0247016787118794,9.601283223325485,-2.4768280878382964,0.032070424,-0.080634214,0.016493361,224.09337,-96.87963,0.25061408
3139244540000.0,-1.0182778445401566,9.601996972078078,-2.46992841553369,0.026572637,-0.09101892,0.022602014,224.07248,-96.949196,0.23305011
3139249579000.0,-1.0117765992315984,9.602719321940365,-2.4629455979512613,0.02443461,-0.09162979,0.026572637,224.04549,-97.01632,0.21468528
3139254502000.0,-1.0054250154542552,9.60342504299058,-2.456123527905956,0.021685716,-0.110872045,0.02565634,224.0268,-97.08027,0.19593799
3139259490000.0,-0.998989569612007,9.604140081909629,-2.449211383809676,0.026572637,-0.11453723,0.025045475,224.00398,-97.14444,0.17918344
3139264482000.0,-0.9925489630273032,9.60485569423599,-2.4422936966948745,0.021380283,-0.13500121,0.025045475,223.99138,-97.2036,0.16135317
3139269499000.0,-0.9860761018022514,9.605574890358056,-2.435341365714314,0.027488936,-0.13255776,0.032986723,223.97354,-97.26608,0.14658968
3139274514000.0,-0.9796058209484272,9.606293799776466,-2.4283918062430145,0.022296581,-0.1337795,0.03970624,223.9624,-97.32258,0.130928
3139279501000.0,-0.9731716652917932,9.607008695343684,-2.421481047901365,0.02107485,-0.13927728,0.03359759,223.95152,-97.38064,0.11407788
3139284491000.0,-0.9667336390783172,9.60772402096639,-2.4145661322958247,0.019547688,-0.13469578,0.033292156,223.93855,-97.43595,0.101336144
3139289503000.0,-0.9602672287813347,9.608442500329316,-2.407620730088416,0.014966198,-0.13591751,0.034208454,223.92853,-97.488815,0.08706103
3139294501000.0,-0.9538188810829475,9.609158972766648,-2.4006947284458326,0.013744468,-0.12644911,0.025961773,223.91376,-97.54101,0.070922986
3139300550000.0,-0.9460145483043272,9.610026107975411,-2.392312298686732,0.01038471,-0.10842858,0.026267206,223.8972,-97.590195,0.05800538
3139304502000.0,-0.9409157347581032,9.610592634400447,-2.3868357963875138,0.012217305,-0.10354166,0.022296581,223.8812,-97.63939,0.041674398
3139309486000.0,-0.9344854496583108,9.611307099912183,-2.379929195309756,0.018020526,-0.10140363,0.025961773,223.86119,-97.687706,0.028416999
3139314512000.0,-0.9280009767627336,9.612027586200703,-2.372964392537522,0.008552114,-0.08552113,0.0143553335,223.83522,-97.731094,0.010675584
3139319566000.0,-0.9214803786699666,9.612752086340413,-2.365960788635638,0.0076358155,-0.08277224,0.008552114,223.81282,-97.77752,-0.004567688
3139324475000.0,-0.9151468574912184,9.613455800465031,-2.359158119155157,0.00061086525,-0.087964594,0.008552114,223.78807,-97.81848,-0.020895258
3139329491000.0,-0.9086752864517804,9.614174853235273,-2.352207173929227,0.0015271631,-0.08368854,0.007941248,223.75972,-97.86046,-0.038272966
3139334422000.0,-0.902313381189526,9.614881721100112,-2.3453740178468783,0.008246681,-0.07513642,0.004886922,223.73164,-97.90118,-0.0560861
3139339469000.0,-0.8958018143960562,9.615605217777023,-2.338380114227407,-0.0027488936,-0.07391469,0.0076358155,223.70477,-97.93617,-0.072261706
3139344558000.0,-0.8892360598068019,9.61633473523072,-2.33132800891346,0.0033597588,-0.0842994,0.004886922,223.6786,-97.97707,-0.090703234
3139349511000.0,-0.8828457704610411,9.617044756835782,-2.3244643662292432,-0.0015271631,-0.07574729,0.0061086523,223.64716,-98.01081,-0.106183894
3139354488000.0,-0.8764245166605461,9.61775821888472,-2.3175674654338976,-0.015577064,-0.08857546,-0.00030543262,223.62442,-98.04286,-0.12558848
3139359475000.0,-0.8699903610039119,9.61847311445194,-2.310656707092248,-0.004276057,-0.082161374,0.0067195175,223.59457,-98.07988,-0.13946578
3139364513000.0,-0.8634904058809676,9.6191953209624,-2.3036752752644496,0.0033597588,-0.08277224,-0.0036651916,223.5695,-98.111244,-0.16059329
3139369588000.0,-0.8569427138903082,9.6199228314905,-2.296642570515328,0.004276057,-0.07422013,0.0015271631,223.54108,-98.14304,-0.1744262
3139374501000.0,-0.8506040319691043,9.620627119022434,-2.289834358016326,0.0027488936,-0.0729984,0.00580322,223.51462,-98.1756,-0.19147445
3139379483000.0,-0.8441763272405397,9.621341297830512,-2.2829305284478285,0.0009162979,-0.06872234,-0.00061086525,223.48483,-98.207565,-0.20934235
3139384474000.0,-0.8377370108414498,9.622056766805049,-2.276014227087657,-0.0027488936,-0.05955936,0.00580322,223.4542,-98.237686,-0.22188435
3139389543000.0,-0.8311970599644739,9.62278341722218,-2.268989836866318,0.009773844,-0.03023783,0.0070249503,223.41637,-98.27126,-0.23645496
3139394493000.0,-0.8248106411755549,9.623493008771757,-2.2621303514459923,0.0018325958,-0.01740966,-0.00580322,223.38055,-98.297295,-0.25330177
3139399507000.0,-0.8183416505073448,9.624211774838336,-2.255182177729323,-0.01160644,-0.0076358155,-0.0015271631,223.33842,-98.32437,-0.26372817
3139404496000.0,-0.8141072747348447,9.624376142704484,-2.252045181605912,-0.0061086523,0.015882496,-0.002443461,223.28839,-98.35401,-0.27798295
3139409433000.0,-0.8143433711175472,9.623431762104264,-2.2565310178078497,-0.007330383,0.02107485,-0.0070249503,223.24123,-98.37723,-0.29228893
3139414493000.0,-0.8145853495855389,9.622463853285728,-2.261128613753121,-0.009468411,0.025045475,-0.010079277,223.13808,-98.377625,-0.26847863
3139419585000.0,-0.8148288583521422,9.621489823304705,-2.265755285403974,-0.01282817,0.043066,-0.009773844,223.03036,-98.37711,-0.24512768
3139424504000.0,-0.8150640939418756,9.620548885858383,-2.270224766521522,-0.012217305,0.050701816,-0.0036651916,222.92552,-98.37686,-0.222132
3139429475000.0,-0.815301816266853,9.61959800152302,-2.274741495660641,-0.0125227375,0.053450707,-0.0030543262,222.81773,-98.37519,-0.20094967
3139434433000.0,-0.8155389169080196,9.618649603909915,-2.2792464127943672,-0.020158553,0.045814894,-0.003970624,222.71196,-98.37136,-0.17952155
3139439791000.0,-0.8157951462818336,9.617624691765704,-2.2841147762478777,-0.030543262,0.04153884,-0.003970624,222.60553,-98.36649,-0.15834959
3139444487000.0,-0.816019717603116,9.61672641117048,-2.288381636042145,-0.03176499,0.04184427,-0.0036651916,222.50093,-98.36196,-0.13838147
3139449444000.0,-0.8162567704224508,9.615778204843703,-2.292885644560072,-0.03268129,0.03481932,0.0018325958,222.40082,-98.35451,-0.118321165
3139454416000.0,-0.81649454056926,9.614827129222013,-2.2974032823149906,-0.034513887,0.035124753,0.007330383,222.2995,-98.346436,-0.098727
3139459419000.0,-0.8167337931928493,9.613870123724158,-2.3019490871596924,-0.03390302,0.027488936,0.011911872,222.20358,-98.33878,-0.07932071
3139464492000.0,-0.816976393344652,9.61289972818336,-2.3065584951103566,-0.029932396,0.025961773,0.0143553335,222.10692,-98.33159,-0.059584867
3139469523000.0,-0.8172169849795267,9.611937366668332,-2.311129741197443,-0.030848695,0.01160644,0.013744468,222.01704,-98.32319,-0.041146766
3139474468000.0,-0.817453463936882,9.610991455777487,-2.3156228463257764,-0.022296581,0.017715093,0.009773844,221.92268,-98.31866,-0.02304164
3139479427000.0,-0.8176906123998802,9.61004286687806,-2.320128672075302,-0.014966198,0.024129177,0.02107485,221.83379,-98.31352,-0.0021805377
3139484421000.0,-0.8179294346269849,9.609087582957155,-2.324666299377809,-0.016798794,0.02565634,0.03023783,221.74518,-98.30817,0.016238775
3139489491000.0,-0.8181718913132927,9.608117761275343,-2.329272981481074,-0.015271631,0.027794369,0.027488936,221.65547,-98.30579,0.03394092
3139494628000.0,-0.8184175520623189,9.607135123409568,-2.333940540842904,-0.014966198,0.029321533,0.022907447,221.56671,-98.30248,0.052881036
3139499500000.0,-0.8186505400259663,9.606203176420651,-2.3383673170178767,-0.0143553335,0.033292156,0.032375857,221.47807,-98.29964,0.074384205
3139504485000.0,-0.8188889318565864,9.6052496140767,-2.342896766778188,-0.018020526,0.028099801,0.026267206,221.39166,-98.29553,0.089065686
3139509630000.0,-0.8191349751802657,9.604265445920303,-2.3475715950664138,-0.020158553,0.03023783,0.032986723,221.30392,-98.292015,0.109701425
3139514485000.0,-0.8193671501727754,9.60333675079896,-2.3519829247727952,-0.03481932,0.024129177,0.034208454,221.22044,-98.28376,0.12571827
3139519727000.0,-0.8196178322141217,9.602334027868771,-2.356745888793568,-0.040011674,0.021380283,0.029932396,221.13635,-98.27757,0.14150798
3139524491000.0,-0.819845655419954,9.601422739803256,-2.3610745344621997,-0.038789943,0.021685716,0.028099801,221.05417,-98.269104,0.15742922
3139529489000.0,-0.8200846689343853,9.600466690737042,-2.365615796227904,-0.04795292,0.0067195175,0.023518313,220.97763,-98.25624,0.16987215
3139534426000.0,-0.8203207653170878,9.599522310136823,-2.370101632429841,-0.03940081,0.006414085,0.016493361,220.89754,-98.24885,0.18101224
3139539522000.0,-0.8205644653710177,9.598547515010488,-2.374731938543893,-0.040011674,-0.004581489,0.014966198,220.82553,-98.236374,0.19072482
3139544698000.0,-0.8208119911714771,9.59755741697793,-2.3794349339219014,-0.03940081,0.0021380284,0.003970624,220.74869,-98.22667,0.19590215
3139549499000.0,-0.8210415837850794,9.596639051318286,-2.3837971983751123,-0.03481932,0.0027488936,0.0018325958,220.6777,-98.21806,0.20194004
3139555330000.0,-0.8213204328852491,9.595523660741035,-2.389095337101768,-0.03145956,-0.005192355,-0.005192355,220.60735,-98.20926,0.20295094
3139559493000.0,-0.8215195151702787,9.594727335758517,-2.3928779046749225,-0.028405234,0.00030543262,-0.009468411,220.53375,-98.20172,0.20428625
3139564499000.0,-0.8217589112593628,9.59376975640168,-2.3974264353670227,-0.017104227,0.014049901,-0.015271631,220.46042,-98.197464,0.20286557
3139569544000.0,-0.8220001723998801,9.592804716878058,-2.402010402075302,-0.018936822,0.025045475,-0.031154128,220.38644,-98.19022,0.19717255
3139574501000.0,-0.8222372252192149,9.591856510551285,-2.406514410593229,-0.008857546,0.03634648,-0.025961773,220.30986,-98.18964,0.1960917
3139579488000.0,-0.8224757126934984,9.590902565634677,-2.411045677585139,-0.009468411,0.04062254,-0.025350908,220.23212,-98.185234,0.18917264
3139584483000.0,-0.8227145827424348,9.589947090427446,-2.415584213503445,-0.007330383,0.056505036,-0.028405234,220.14876,-98.18437,0.1833704
3139589505000.0,-0.8229547439808249,9.588986450489363,-2.420147282048337,-0.006414085,0.07880162,-0.023518313,220.06357,-98.18288,0.18018581
3139594455000.0,-0.8231914620473384,9.588039583166884,-2.424644930255668,-0.0018325958,0.08857546,-0.027183503,219.97784,-98.18279,0.17359121
3139599547000.0,-0.8234349708139418,9.58706555318586,-2.429271601906521,0.003970624,0.098043874,-0.027488936,219.88718,-98.18319,0.16991484
3139604436000.0,-0.8217036901910828,9.586130445490486,-2.42895921502406,0.004276057,0.10140363,-0.027488936,219.79637,-98.18306,0.16513371
3139609416000.0,-0.8145616723566879,9.585178181947969,-2.4156274433949645,-0.01160644,0.10262536,-0.020463986,219.70479,-98.17973,0.16224964
3139614499000.0,-0.807271938089172,9.58420622299483,-2.402019934320528,-0.0009162979,0.11026118,-0.01282817,219.583,-98.19847,0.17234811
3139619652000.0,-0.7998818140127388,9.583220878811174,-2.3882250308657627,-0.004276057,0.110872045,-0.01282817,219.46379,-98.20813,0.18136573
3139625168000.0,-0.7919710970700636,9.582166122646408,-2.373458353695865,-0.01160644,0.11575896,-0.011911872,219.34253,-98.219185,0.19258946
3139629431000.0,-0.7858573577070064,9.5813509621079,-2.36204603593385,-0.0061086523,0.124311075,-0.01160644,219.22102,-98.23241,0.20312855
3139634410000.0,-0.7787167740127389,9.58039888978296,-2.3487169413673303,-0.0143553335,0.1337795,-0.00030543262,219.09937,-98.2392,0.21658754
3139639502000.0,-0.7714141324840764,9.579425209871614,-2.3350853387297086,-0.020463986,0.13041973,0.0018325958,218.9796,-98.247604,0.2266604
3139644792000.0,-0.7638275312101911,9.57841366887966,-2.3209236777020146,-0.02443461,0.12461651,0.009468411,218.85959,-98.25394,0.24101417
3139649477000.0,-0.7571085847133757,9.577517814522892,-2.308381639532876,-0.03481932,0.11636983,0.0067195175,218.74196,-98.25622,0.25201768
3139654431000.0,-0.750003854522293,9.576570522637422,-2.295119471530759,-0.037873644,0.10629055,0.015882496,218.62836,-98.25929,0.2674609
3139659420000.0,-0.7428489294267515,9.575616538136693,-2.2817636063384783,-0.02687807,0.09101892,0.01985312,218.51926,-98.26307,0.27935416
3139664494000.0,-0.7355721024203822,9.574646300141763,-2.268180190827227,-0.021991149,0.08002335,0.019547688,218.41298,-98.26405,0.29161957
3139669675000.0,-0.7281418224203822,9.573655601865903,-2.2543103296203304,-0.0290161,0.07544186,0.025350908,218.31058,-98.2646,0.30564725
3139674459000.0,-0.7212808960509554,9.572740816968832,-2.241503262256155,-0.03176499,0.0711658,0.030848695,218.2121,-98.26748,0.3183772
3139679425000.0,-0.7141589561783439,9.571791230472416,-2.228208969503125,-0.02443461,0.06811147,0.03604105,218.11569,-98.27105,0.33181244
3139684420000.0,-0.7069954262420381,9.570836098666216,-2.2148370419353878,-0.023823744,0.06963864,0.03390302,218.02,-98.2717,0.34403357
3139689498000.0,-0.6997128626751592,9.56986509580097,-2.2012429181738318,-0.02321288,0.077579886,0.03756821,217.9247,-98.27433,0.358787
3139695651000.0,-0.6908885984713375,9.568688534038497,-2.1847709521429426,-0.014966198,0.09254608,0.03634648,217.82755,-98.27901,0.3712148
3139699443000.0,-0.6854503391082802,9.567963436979614,-2.1746195308542817,-0.014966198,0.103847094,0.040317107,217.73048,-98.281364,0.38561833
3139704421000.0,-0.67831118955414,9.567011555872252,-2.1612931133503386,-0.018936822,0.12034045,0.03145956,217.62805,-98.28444,0.39616606
3139709418000.0,-0.6711447913375796,9.566056041630892,-2.1479158316574485,-0.018325957,0.1563815,0.029626964,217.51834,-98.28868,0.4103578
3139714480000.0,-0.6638851740127388,9.56508809824691,-2.134364540897111,-0.013744468,0.18203785,0.035430185,217.40788,-98.29261,0.42376068
3139719549000.0,-0.6566155177070063,9.564118816339876,-2.1207945106987403,-0.02565634,0.22082779,0.03848451,217.28445,-98.2916,0.43714148
3139724444000.0,-0.6495954017834396,9.563182806291556,-2.1076902893886147,-0.027183503,0.2648101,0.040927973,217.15372,-98.2946,0.45246544
3139729427000.0,-0.6424490815286624,9.5622299690963,-2.094350486571791,-0.04062254,0.2947425,0.036957346,217.0172,-98.290436,0.46695268
3139734418000.0,-0.6352912881528663,9.561275602160414,-2.080989267254358,-0.043676864,0.32834008,0.040927973,216.8691,-98.28866,0.48536748
3139739571000.0,-0.6279011640764331,9.560290257976758,-2.067194363799593,-0.060170226,0.35643986,0.05009095,216.71568,-98.27898,0.50412905
3139744509000.0,-0.6208193801273886,9.55934602557255,-2.053975028798694,-0.06047566,0.38362336,0.048563786,216.55443,-98.272705,0.52125305
3139749442000.0,-0.6137447668789808,9.558402749256237,-2.0407690791106763,-0.077579886,0.39950588,0.054367006,216.39085,-98.25708,0.5425454
3139754426000.0,-0.6065970124840765,9.5574497208434,-2.027426599231276,-0.07696902,0.41813725,0.054367006,216.22032,-98.24614,0.5617954
3139759421000.0,-0.5994334825477707,9.556494589037198,-2.0140546716635384,-0.096516706,0.40194935,0.061391957,216.05756,-98.224785,0.5826303
3139764460000.0,-0.5922068504458599,9.555531043657528,-2.0005649533424514,-0.103847094,0.40378192,0.0720821,215.88647,-98.20711,0.604751
3139769486000.0,-0.584998862165605,9.554569984106385,-1.9871100368348544,-0.1001819,0.3943135,0.07971791,215.72519,-98.18721,0.6256031
3139774437000.0,-0.5778984343949045,9.553623265873648,-1.973855900020466,-0.10995574,0.37048978,0.08552113,215.56964,-98.16173,0.6471468
3139779424000.0,-0.5707463775796178,9.55266966380808,-1.9605053889533373,-0.11728613,0.33750305,0.08979719,215.42143,-98.138275,0.66837984
3139784418000.0,-0.5635842817834396,9.551714723219456,-1.947136138448176,-0.1142318,0.28802297,0.087659165,215.2863,-98.11524,0.6865545
3139789530000.0,-0.5562529574522292,9.550737218956533,-1.933450994559032,-0.11301007,0.23304509,0.09407325,215.1642,-98.090195,0.70564294
3139794489000.0,-0.5491410565605095,9.549788970983167,-1.9201754412440348,-0.112704635,0.18173242,0.0983493,215.05626,-98.065994,0.72065514
3139799585000.0,-0.5418326784713376,9.548814526201506,-1.9065331303561088,-0.099571034,0.12522738,0.092240654,214.96642,-98.04604,0.73122054
3139804445000.0,-0.5356291382201632,9.548028994627606,-1.900768118146199,-0.10048734,0.103847094,0.09682214,214.88274,-98.02296,0.74457806
3139809413000.0,-0.5323003217473525,9.547791217269625,-1.9233565103199948,-0.1020145,0.07452556,0.10293079,214.81796,-98.003654,0.7534548
3139815326000.0,-0.5283383064889529,9.547508210522896,-1.9502416075268492,-0.095294975,0.043982297,0.10903945,214.70422,-97.93913,0.80238736
3139819653000.0,-0.5254389931077428,9.547301112570402,-1.9699155151226653,-0.0983493,0.040011674,0.10751228,214.59248,-97.87305,0.84909016
3139824433000.0,-0.5222361463404249,9.547072333228384,-1.991649113067662,-0.094989546,0.045814894,0.106595986,214.48808,-97.812515,0.89527434
3139829424000.0,-0.5188919186802401,9.5468334550493,-2.014342081131151,-0.09407325,0.059253927,0.09407325,214.38327,-97.75156,0.93632233
3139834658000.0,-0.5153848684751896,9.546582946455969,-2.038139916203141,-0.08674286,0.06963864,0.10140363,214.27954,-97.69556,0.9813241
3139839490000.0,-0.5121471790233737,9.546351678301024,-2.0601099465944017,-0.0729984,0.090713486,0.09621128,214.16919,-97.642166,1.0186943
3139844688000.0,-0.5086642506768217,9.546102892732025,-2.083744097665132,-0.07696902,0.12308934,0.08857546,214.05406,-97.58732,1.0567908
3139849700000.0,-0.5053059519325127,9.545863009455411,-2.106532548062689,-0.06566802,0.14721853,0.083383106,213.93645,-97.54174,1.0931458
3139854486000.0,-0.5020990848554452,9.545633942942672,-2.128293426674563,-0.064751714,0.15699236,0.08032878,213.81488,-97.49297,1.1271768
3139859489000.0,-0.4987468165757607,9.545394490422144,-2.151040956071805,-0.064446285,0.18234327,0.07849618,213.68332,-97.44804,1.1601391
3139864473000.0,-0.4954072792769507,9.545155947275571,-2.173702096690605,-0.06078109,0.20250183,0.08032878,213.55191,-97.40526,1.1920648
3139869562000.0,-0.4919973865575196,9.544912378641358,-2.196840648979745,-0.06169739,0.21166481,0.07269296,213.41754,-97.36159,1.219921
3139874482000.0,-0.4887007325627071,9.544676898649154,-2.219210795818528,-0.064751714,0.2144137,0.069027774,213.28107,-97.3194,1.2485206
3139879486000.0,-0.4853477942313978,9.54443739826684,-2.241962871993583,-0.0729984,0.20769419,0.07819075,213.14648,-97.27651,1.2772557
3139884498000.0,-0.4819894954870888,9.54419751499023,-2.2647513223911404,-0.076052725,0.1908954,0.08277224,213.01523,-97.23457,1.3021032
3139889473000.0,-0.4786559886529034,9.54395940259974,-2.287371542009625,-0.070554934,0.17806722,0.09162979,212.88681,-97.19419,1.329385
3139894546000.0,-0.4752568167594717,9.54371659975412,-2.310437345853761,-0.06811147,0.15607607,0.09254608,212.76712,-97.152725,1.3535447
3139899684000.0,-0.4718140915104175,9.543470685892345,-2.333798690255726,-0.07147124,0.13103059,0.110872045,212.6543,-97.11338,1.3833808
3139904504000.0,-0.4685844426781011,9.543239992078842,-2.355714159313233,-0.070554934,0.12217305,0.1151481,212.544,-97.075966,1.4081218
3139909489000.0,-0.4652442353276661,9.54300140107048,-2.3783798467098456,-0.06872234,0.08979719,0.12034045,212.44943,-97.039734,1.435468
3139914474000.0,-0.461904027977231,9.54276281006212,-2.4010455341064585,-0.06719518,0.055283304,0.12858713,212.35945,-97.004875,1.4633766
3139919541000.0,-0.4585088763935491,9.542520294387222,-2.424084057283717,-0.06811147,0.019547688,0.13836098,212.28033,-96.97104,1.4909627
3139924644000.0,-0.4550896029513686,9.542276055687992,-2.447286264462236,-0.06658431,-0.009468411,0.14508049,212.21024,-96.93939,1.5180573
3139929490000.0,-0.4518425327768032,9.542044117468029,-2.4693199497428746,-0.05681047,-0.040011674,0.1572978,212.15208,-96.91155,1.5472494
3139934433000.0,-0.4485304675946166,9.541807536654725,-2.491794672471352,-0.064446285,-0.06566802,0.15760323,212.10133,-96.87975,1.5732192
3139939491000.0,-0.4451413464755593,9.541565451735908,-2.514792274648296,-0.058337633,-0.096516706,0.15332718,212.06163,-96.85571,1.5992486
3139944572000.0,-0.4417368141691279,9.541322265995992,-2.537894452714933,-0.05955936,-0.106595986,0.15393804,212.02397,-96.82863,1.6257473
3139950714000.0,-0.437621357088612,9.541028298900034,-2.56582076204091,-0.069027774,-0.112704635,0.15485434,211.99423,-96.801414,1.6494904
3139954492000.0,-0.435089902049506,9.540847477068622,-2.582998488617521,-0.07544186,-0.11484267,0.14569137,211.96626,-96.77478,1.6696378
3139959482000.0,-0.4317463444409461,9.540608646751329,-2.6056869099031967,-0.07086037,-0.111177474,0.13958271,211.93883,-96.7496,1.6902308
3139964466000.0,-0.4284068071421361,9.540370103604753,-2.6283480505219967,-0.0852157,-0.09468412,0.12675454,211.9081,-96.71704,1.7060404
3139969565000.0,-0.4249902139064553,9.540126056352667,-2.651532070589264,-0.094989546,-0.065973446,0.11178834,211.87288,-96.68713,1.7194533
3139974675000.0,-0.4215662501029,9.53988148262093,-2.674766105212472,-0.10048734,-0.024129177,0.099265605,211.82922,-96.65444,1.730354
3139979488000.0,-0.4183412916319585,9.539651123839938,-2.69664974682529,-0.10934488,0.022296581,0.08246681,211.77588,-96.617485,1.736362
3139984481000.0,-0.4149957238685237,9.53941214993728,-2.7193518084444044,-0.11911872,0.07422013,0.06414085,211.70915,-96.57846,1.7394011
3139989471000.0,-0.4116521662599639,9.539173319619984,-2.742040229730081,-0.12492194,0.13194689,0.051618114,211.6279,-96.538055,1.7404882
3139994560000.0,-0.4082422735405328,9.538929750985773,-2.7651787820192206,-0.13744467,0.19394971,0.03726278,211.53084,-96.49235,1.7371395
3139999513000.0,-0.4049235078420966,9.538692691554596,-2.787698972525825,-0.13775012,0.23945917,0.027183503,211.42282,-96.448555,1.7322401
3140004484000.0,-0.4044235142697993,9.538141200002974,-2.803313319691556,-0.14294247,0.2932153,0.024129177,211.2958,-96.4002,1.7268862
3140009474000.0,-0.4160279534299038,9.53624658414566,-2.789103804623688,-0.14660765,0.33169982,0.021991149,211.16127,-96.35225,1.7192996
3140014478000.0,-0.427664950134746,9.534346652732832,-2.774854423180879,-0.1414153,0.37782016,0.016187929,211.01341,-96.39498,1.742638
3140020986000.0,-0.4427995573599885,9.531875678785056,-2.75632225403024,-0.1337795,0.4034765,0.014049901,210.86153,-96.43621,1.7659278
3140024682000.0,-0.4513947491707592,9.53047237213002,-2.745797531046103,-0.1459968,0.3998113,0.019242255,210.70609,-96.47219,1.7891089
3140029485000.0,-0.4625643125547235,9.528648756907035,-2.732120516843503,-0.14019357,0.39370266,0.018020526,210.54503,-96.51316,1.8095262
3140034428000.0,-0.4740594513860655,9.52677198612894,-2.7180448388915046,-0.1301143,0.3659083,0.025961773,210.39293,-96.55181,1.8321638
3140039509000.0,-0.4858755145869654,9.5248428191608,-2.7035761923865267,-0.12370021,0.32559118,0.030848695,210.24725,-96.58955,1.851942
3140044522000.0,-0.4975334411419962,9.522939470605143,-2.689301182559828,-0.10140363,0.28038713,0.03604105,210.11234,-96.63386,1.8720139
3140049499000.0,-0.5091076482962728,9.521049790620804,-2.6751286862686894,-0.101098195,0.22479841,0.046120327,209.99324,-96.67349,1.8922806
3140054481000.0,-0.5206934831450986,9.51915821222378,-2.6609419519865005,-0.08674286,0.15210545,0.059253927,209.89311,-96.72248,1.9120144
3140059472000.0,-0.5323002478441128,9.51726321668393,-2.6467295893204223,-0.07147124,0.09773844,0.06627888,209.80453,-96.77092,1.9308379
3140064494000.0,-0.5439791042493322,9.515356450985443,-2.632428951109833,-0.06627888,0.031154128,0.080634214,209.74142,-96.82095,1.9519536
3140069533000.0,-0.5556974948160188,9.51344323068384,-2.618079903729676,-0.06414085,-0.026267206,0.09621128,209.69191,-96.873726,1.9732336
3140074498000.0,-0.5672437955033773,9.51155810688994,-2.6039415786170568,-0.041233405,-0.082161374,0.11484267,209.66182,-96.93381,1.9966595
3140079482000.0,-0.5788342814300227,9.509665769127844,-2.589749149138448,-0.03756821,-0.14538592,0.12797627,209.65065,-96.9888,2.0201457
3140084481000.0,-0.5904596504403157,9.5077677361277,-2.575514005686689,-0.023518313,-0.19150625,0.14385876,209.65126,-97.05339,2.0477602
3140089460000.0,-0.6020385086724119,9.505877296778287,-2.561335814199131,-0.015577064,-0.22052236,0.15149458,209.66504,-97.116455,2.0745971
3140094472000.0,-0.6136941096885329,9.503974327905167,-2.5470636519706424,0.002443461,-0.22632557,0.1685988,209.68596,-97.18694,2.1072533
3140099446000.0,-0.6252613402260799,9.502085786968438,-2.5328996984741337,0.01863139,-0.23976462,0.17256944,209.71683,-97.25732,2.136494
3140104421000.0,-0.6368308963025369,9.500196866349173,-2.518732897379415,0.018020526,-0.23365596,0.17348573,209.74397,-97.327805,2.16952
3140109419000.0,-0.64845393977392,9.498299213031563,-2.5045006015258666,0.04184427,-0.22999077,0.1881465,209.77594,-97.40942,2.2063725
3140114484000.0,-0.6602327943522626,9.496376120984008,-2.4900775165922484,0.0580322,-0.22388211,0.19394971,209.80493,-97.48665,2.24061
3140119481000.0,-0.6718535122847358,9.49447884734894,-2.47584806833691,0.07147124,-0.23945917,0.20433442,209.83951,-97.569695,2.278932
3140124443000.0,-0.6833928363553647,9.492594862602646,-2.461718286018921,0.10170906,-0.25595254,0.21594086,209.87268,-97.66068,2.3186588
3140129422000.0,-0.694971694587461,9.490704423253232,-2.4475400945313623,0.12614368,-0.2724459,0.20922135,209.90976,-97.75132,2.354775
3140134415000.0,-0.706583110364295,9.488808668348309,-2.433322036668864,0.14477506,-0.26847526,0.19120082,209.94548,-97.84676,2.390321
3140139529000.0,-0.7184759163492197,9.486866971856465,-2.418759419422956,0.15851954,-0.25595254,0.1863139,209.98341,-97.94609,2.4266868
3140144539000.0,-0.7301268662875209,9.484964762348415,-2.404492952390888,0.1572978,-0.24465153,0.18112154,210.0196,-98.04274,2.45736
3140149437000.0,-0.7415173558679201,9.483105077284463,-2.3905454163583384,0.1591304,-0.22693644,0.16493362,210.04953,-98.14045,2.483681
3140154424000.0,-0.753114818411295,9.481211600474758,-2.3763444440851,0.17379116,-0.18417588,0.16737708,210.06941,-98.24045,2.5146887
3140159768000.0,-0.765542498345483,9.47918257699951,-2.361126879250893,0.16310102,-0.13622294,0.14355333,210.08095,-98.32828,2.5341198
3140165898000.0,-0.7797980518628058,9.476855123050544,-2.343671102223632,0.15821409,-0.08032878,0.13622294,210.0788,-98.421234,2.5604236
3140169555000.0,-0.7883025476560928,9.475466624014432,-2.333257435569685,0.14630222,-0.020463986,0.13255776,210.06116,-98.50559,2.5826619
3140174432000.0,-0.7996442009193853,9.473614912283743,-2.319369699099546,0.13652839,0.03023783,0.121256754,210.02989,-98.58592,2.602083
3140179429000.0,-0.8112649188518586,9.471717638648675,-2.305140250844208,0.1301143,0.08827003,0.11453723,209.98001,-98.66212,2.6239607
3140184429000.0,-0.8228926134010615,9.469819225965994,-2.2909022597942386,0.14355333,0.13744467,0.09560041,209.91786,-98.737206,2.6403558
3140189496000.0,-0.8346761190572236,9.467895374553366,-2.2764734796642005,0.14660765,0.18661933,0.09132435,209.8403,-98.80663,2.660807
3140194661000.0,-0.8466875275265502,9.465934314252156,-2.261765634909583,0.15668693,0.22296582,0.086437434,209.75249,-98.878105,2.6766934
3140199557000.0,-0.8580733660291296,9.464075388553278,-2.247823794073454,0.16707164,0.23732115,0.08246681,209.65784,-98.94838,2.6921718
3140204393000.0,-0.8693196721971187,9.46223924380659,-2.234052809129924,0.17867808,0.2660318,0.06566802,209.54918,-99.01833,2.7041626
3140209430000.0,-0.8433270526111138,9.462278886936916,-2.2325776340772663,0.2012801,0.28863382,0.059864793,209.43965,-99.09282,2.7179203
3140214493000.0,-0.8085838837929047,9.462764815192664,-2.234035385864108,0.22174409,0.30940324,0.049785517,209.32283,-99.16619,2.7263415
3140219529000.0,-0.7740259935759383,9.463248152086988,-2.2354853637425465,0.23548855,0.321926,0.04184427,209.09738,-99.16991,2.7001364
3140224431000.0,-0.7403876341947687,9.463718628150524,-2.2368967600015037,0.26053402,0.3222314,0.03145956,208.8708,-99.180504,2.6704676
3140229469000.0,-0.7058160196369695,9.464202156997546,-2.2383473137250087,0.28527406,0.3295618,0.022907447,208.64032,-99.19344,2.6396785
3140234415000.0,-0.6718757247574786,9.464676856020445,-2.2397713785754374,0.3051272,0.29810223,0.025961773,208.42268,-99.21112,2.6074028
3140240736000.0,-0.6284999455554442,9.465283522523428,-2.241591336909355,0.32925636,0.27152961,0.018936822,208.20265,-99.23429,2.5702965
3140244729000.0,-0.6010992990827779,9.465666756085584,-2.2427410115854087,0.35918877,0.22876903,0.01160644,207.99808,-99.26377,2.5318537
3140249431000.0,-0.5688333737848875,9.46611803687929,-2.2440948233376763,0.37415496,0.18417588,0.020463986,207.8037,-99.29545,2.4948435
3140254435000.0,-0.5344950730212457,9.46659830253044,-2.2455355876950445,0.38331795,0.119729586,0.026572637,207.62819,-99.33188,2.4524605
3140259422000.0,-0.5002734291546825,9.467076936583656,-2.2469714573693444,0.40103304,0.04642576,0.027488936,207.46947,-99.37394,2.4090214
3140265168000.0,-0.4608433979420754,9.467628416685876,-2.24862586024653,0.408058,-0.0061086523,0.028099801,207.32468,-99.41489,2.365654
3140269567000.0,-0.4306567102803527,9.468050616645789,-2.2498924314711632,0.40103304,-0.06566802,0.0290161,207.20374,-99.455826,2.319549
3140275147000.0,-0.3923657993568673,9.46858616467405,-2.251499039207797,0.41905355,-0.10903945,0.028099801,207.09393,-99.50448,2.2720761
3140279440000.0,-0.3629065017592824,9.468998191140953,-2.2527350906438843,0.4120286,-0.15699236,0.03604105,207.00346,-99.54391,2.225167
3140284407000.0,-0.3288221013010473,9.469474905667186,-2.254165201867515,0.40561453,-0.20463985,0.023823744,206.9248,-99.58609,2.171127
3140290658000.0,-0.2859266740281605,9.470074853825723,-2.255965005624092,0.3998113,-0.23762658,0.02107485,206.85681,-99.6267,2.1213083
3140294681000.0,-0.2583201624430025,9.47046096667836,-2.257123317976149,0.38698313,-0.27091873,0.015271631,206.80199,-99.66178,2.0659378
3140299527000.0,-0.2250660846051511,9.470926068066344,-2.258518590573233,0.3839288,-0.29565877,0.01038471,206.75417,-99.69716,2.0099485
3140304428000.0,-0.191434587394398,9.47139644815353,-2.259929698909656,0.3735441,-0.32650748,0.008246681,206.71744,-99.72612,1.9523687
3140309412000.0,-0.157233530039084,9.471874794277698,-2.2613647048163554,0.3622431,-0.355829,-0.0021380284,206.68666,-99.7527,1.8911564
3140314522000.0,-0.1221678392113043,9.472365233421858,-2.262835988962269,0.3594942,-0.3680463,-0.009468411,206.65973,-99.77842,1.8307697
3140319662000.0,-0.0868962832710327,9.472858551856492,-2.264315910784186,0.3417791,-0.3830125,-0.022296581,206.64093,-99.79563,1.7656927
3140324440000.0,-0.0541088330214962,9.473317126852734,-2.265691604648996,0.35246924,-0.3848451,-0.03176499,206.62144,-99.81966,1.7008864
3140329420000.0,-0.0199352243478478,9.473795089071505,-2.267125458865561,0.3491095,-0.39187005,-0.0421497,206.60675,-99.833984,1.6326683
3140334417000.0,0.0143550412228791,9.474274682888211,-2.2685642077651957,0.34391713,-0.38728857,-0.05222898,206.5886,-99.85028,1.5637823
3140339501000.0,0.0492423156198326,9.474762626647292,-2.27002800592524,0.3417791,-0.39522982,-0.063224554,206.57509,-99.86595,1.4922607
3140345895000.0,0.0931190332622637,9.47537629942376,-2.271868982604099,0.3399465,-0.40622538,-0.08460484,206.55989,-99.879395,1.416545
3140349434000.0,0.1174042543658866,9.475715959723406,-2.272887940449968,0.3387248,-0.4184427,-0.102319926,206.54663,-99.89221,1.3398695
3140354417000.0,0.151598449550784,9.476194209871224,-2.2743226584341336,0.32742378,-0.41996986,-0.12003502,206.53207,-99.90099,1.2588205
3140359419000.0,0.1859230259735931,9.476674283569675,-2.275762846946435,0.30665436,-0.40103304,-0.14569137,206.51353,-99.906075,1.1726962
3140364468000.0,0.2205701244059728,9.477158868156538,-2.2772165678178085,0.2855795,-0.37873647,-0.15088372,206.49425,-99.90834,1.0892793
3140369676000.0,0.2563083079345591,9.477658712982914,-2.278716068372,0.26511553,-0.33964106,-0.17592919,206.46228,-99.90399,0.9966439
3140374456000.0,0.2891094825249285,9.478117479931852,-2.280092338081876,0.22113322,-0.3042109,-0.1881465,206.42517,-99.88788,0.9089041
3140379427000.0,0.3232213316648293,9.478594578363484,-2.2815236009956408,0.1966986,-0.25411993,-0.20189096,206.37143,-99.87165,0.81810004
3140384420000.0,0.3574841485538909,9.47907378827479,-2.282961198205141,0.16401732,-0.19761491,-0.21319197,206.30536,-99.841415,0.72831666
3140389483000.0,0.3922273173721,9.479559716530542,-2.284418949991983,0.13744467,-0.1591304,-0.23151793,206.22934,-99.80677,0.63587546
3140394477000.0,0.4264969964315779,9.4800390224182,-2.285856835124017,0.113926366,-0.08582657,-0.23609942,206.12794,-99.76513,0.5500674
3140399505000.0,0.4609999892852132,9.480521591501727,-2.287304509622188,0.08674286,-0.0012217305,-0.23854288,206.0121,-99.71613,0.46355033
3140404437000.0,0.4948442137788744,9.48099494685574,-2.288724543557148,0.07422013,0.08277224,-0.24587326,205.8759,-99.66613,0.37910128
3140409491000.0,0.4944753102989975,9.477520358232304,-2.309748626597436,0.050701816,0.16462818,-0.2648101,205.71664,-99.60681,0.29562724
3140415734000.0,0.4896947079805299,9.472739753105916,-2.3381334574457027,0.04428773,0.22815818,-0.27183503,205.54022,-99.55059,0.21736957
3140419462000.0,0.4868399770109244,9.469885020459566,-2.3550834253140898,0.03848451,0.26053402,-0.2828306,205.36024,-99.50131,0.2856559
3140424504000.0,0.4829790452650148,9.466024086445913,-2.3780077112562594,0.04795292,0.28038713,-0.30909783,205.16777,-99.455734,0.3476408
3140429487000.0,0.4791632930060169,9.462208331945709,-2.400663743951585,0.05222898,0.2855795,-0.2941316,204.97472,-99.40866,0.4166307
3140434423000.0,0.4753835311857453,9.458428567905369,-2.423106083382475,0.056505036,0.24740042,-0.29046643,204.7895,-99.36504,0.47171184
3140439523000.0,0.4714781857069395,9.454523220132732,-2.446294075906288,0.058337633,0.19761491,-0.28985557,204.60959,-99.32319,0.52763695
3140444464000.0,0.4676945951165905,9.450739627320068,-2.4687591486631817,0.06811147,0.1386664,-0.28344148,204.4462,-99.28611,0.5819669
3140449505000.0,0.4638344291246964,9.44687945906088,-2.4916788879401506,0.08552113,0.059253927,-0.27488935,204.30527,-99.252884,0.63194954
3140454482000.0,0.4600232713897912,9.443068299087466,-2.5143076406442715,0.09896017,-0.018020526,-0.2733622,204.18262,-99.22232,0.6774262
3140459484000.0,0.4561929698044997,9.43923799525242,-2.537050059978411,0.122478485,-0.09101892,-0.2770274,204.08328,-99.20059,0.71888435
3140464524000.0,0.452333569566621,9.4353785927477,-2.559965252590179,0.14966199,-0.15241088,-0.26389378,204.00497,-99.18495,0.7612359
3140469469000.0,0.4485469159602103,9.431591936917172,-2.582448512007876,0.183565,-0.19883664,-0.25778514,203.94386,-99.17834,0.79685605
3140474503000.0,0.4446921102464243,9.427737128939242,-2.6053364246284394,0.21655174,-0.22693644,-0.26725355,203.89589,-99.17958,0.82886195
3140479485000.0,0.4408771237414419,9.423922140193502,-2.627987910658564,0.2556471,-0.24312437,-0.27030787,203.85905,-99.192764,0.8619723
3140484946000.0,0.4366953410630578,9.41974035505892,-2.6528172493198467,0.2919936,-0.25686884,-0.2687807,203.82996,-99.21437,0.8918068
3140489499000.0,0.4332088630307044,9.41625387497876,-2.673518215978851,0.32803464,-0.2724459,-0.27183503,203.80615,-99.24649,0.91800535
3140494472000.0,0.4294007683118609,9.412445778023208,-2.6961287820221687,0.34208453,-0.28069258,-0.28802297,203.78412,-99.28174,0.94001275
3140499507000.0,0.4255451968440595,9.408590204290812,-2.719021241307933,0.3567453,-0.2938262,-0.29993483,203.7683,-99.3266,0.96087414
3140504483000.0,0.4217348048631698,9.404779810071863,-2.741645447346853,0.37110063,-0.31612277,-0.31215215,203.75696,-99.373924,0.9758421
3140509493000.0,0.4178983772457547,9.400943380201095,-2.7644242400025987,0.37812558,-0.33933565,-0.32498032,203.74927,-99.42192,0.98630494
3140514505000.0,0.4140604181203087,9.3971054188214,-2.787212125988746,0.37232238,-0.35063666,-0.34483343,203.74377,-99.46865,0.9906631
3140519458000.0,0.4102676384817743,9.393312636955152,-2.8097317587280486,0.3622431,-0.35063666,-0.36102137,203.74127,-99.51477,0.9918296
3140524720000.0,0.4062382408524653,9.389283236959152,-2.833656311014382,0.34697145,-0.3387248,-0.3717115,203.73795,-99.55628,0.98907405
3140529486000.0,0.4025886572148204,9.3856336511779,-2.8553257173611457,0.31642818,-0.31123585,-0.39553526,203.72885,-99.58876,0.9789681
3140534429000.0,0.3988035351164406,9.381848526856304,-2.877799883448441,0.27763826,-0.26633725,-0.41263947,203.71135,-99.6136,0.96936774
3140539535000.0,0.3948935951135421,9.377938584556876,-2.9010151559634587,0.23304509,-0.21594086,-0.42394048,203.68384,-99.626976,0.95655507
3140544538000.0,0.3910625277742351,9.374107514967369,-2.923762121962799,0.20066923,-0.14905111,-0.43463063,203.63853,-99.63196,0.9422934
3140549502000.0,0.3872613248415308,9.370306309802,-2.94633176801931,0.14385876,-0.09712757,-0.43951756,203.58351,-99.61709,0.9283852
3140554624000.0,0.3833391327743851,9.36638411543113,-2.9696197871775394,0.082161374,-0.041233405,-0.44104472,203.5089,-99.59153,0.91587853
3140559484000.0,0.3796175682592878,9.362662548730148,-2.991716580053173,0.026267206,0.0015271631,-0.43890667,203.42426,-99.55191,0.9048472
3140564477000.0,0.3757941584601353,9.35883913668529,-3.0144180794005058,-0.0070249503,0.03573562,-0.4343252,203.32747,-99.50206,0.89613605
3140569465000.0,0.3719745774310602,9.35501955341276,-3.037096845421835,-0.034208454,0.063224554,-0.42424592,203.2222,-99.439476,0.89095277
3140574490000.0,0.3681266635034133,9.351171637225017,-3.059943838055592,-0.05955936,0.07147124,-0.4071417,203.1147,-99.369644,0.88930917
3140579496000.0,0.3642932989020599,9.34733827037211,-3.082704444050534,-0.07391469,0.047647487,-0.3933972,203.01035,-99.29696,0.8887925
3140584480000.0,0.3604767808890466,9.34352175011744,-3.10536502341106,-0.07544186,0.03390302,-0.36560285,202.90381,-99.22326,0.8972579
3140589480000.0,0.356648010811786,9.339692977791326,-3.128098349414798,-0.082161374,-0.014660766,-0.35705075,202.81505,-99.14563,0.9008151
3140594474000.0,0.3528238352586181,9.335868799992005,-3.150804395427332,-0.08368854,-0.0852157,-0.3277292,202.74,-99.07221,0.9157342
3140600208000.0,0.3484330017340157,9.331477963888416,-3.1768749736884185,-0.062002823,-0.15821409,-0.29871312,202.68092,-99.00556,0.93004435
3140604472000.0,0.3451678266121278,9.328212786848706,-3.1962619541044064,-0.048563786,-0.24953845,-0.2678644,202.64934,-98.93895,0.94859093
3140609492000.0,0.4160897442113472,9.323614563170208,-3.307738318541626,-0.02565634,-0.35796702,-0.23579398,202.64526,-98.88389,0.97114825
3140614620000.0,0.4974767231156171,9.318827246734257,-3.4322124951062585,0.00580322,-0.46822822,-0.19822577,202.6695,-98.83797,0.9994072
3140619451000.0,0.5382296952132024,9.383383654774397,-3.543459590021941,0.03604105,-0.58001655,-0.16584991,202.69629,-98.88693,1.0200084
3140624452000.0,0.5747792625603358,9.4610513363064,-3.657676934312697,0.06414085,-0.6771441,-0.12797627,202.75183,-98.94474,1.0482508
3140629485000.0,0.5699251862347213,9.584424207393422,-3.7761959174202526,0.10567969,-0.77304995,-0.09896017,202.80257,-99.03518,1.1073853
3140634427000.0,0.5511122696015105,9.720817612342245,-3.893776621822518,0.14446963,-0.8570439,-0.076358154,202.87854,-99.132576,1.1703967
3140639521000.0,0.5189482064076283,9.875461614971016,-3.9773581153406714,0.18509217,-0.93951076,-0.05131268,202.93924,-99.25802,1.25707
3140644520000.0,0.4827497557036041,10.032321356632782,-4.045732869142233,0.21685717,-0.9975429,-0.028405234,203.01732,-99.39079,1.3447589
3140649476000.0,0.4282475289957475,10.211783843583031,-4.109639395224076,0.2507602,-1.0354166,-0.019242255,203.05788,-99.54537,1.440518
3140654481000.0,0.3393976131141642,10.436522314578562,-4.167130751292116,0.25900686,-1.0418307,0.00030543262,203.10713,-99.70034,1.5416145
3140659469000.0,0.2403199629239821,10.659543313277023,-4.1899281820632055,0.2519819,-1.0543534,0.009773844,203.09833,-99.860634,1.6439259
3140664484000.0,0.130927868347727,10.882885483961278,-4.180812180924361,0.25473082,-1.0506883,0.014966198,203.08754,-100.023315,1.7473079
3140670648000.0,-0.0177536050962627,11.209225018686295,-4.163792510239713,0.2501493,-1.0412198,0.017104227,202.99529,-100.17126,1.8507438
3140674442000.0,-0.1171965793884484,11.438972557757644,-4.150076068771234,0.24770586,-1.0259482,0.013439035,202.9012,-100.31696,1.9499999
3140679413000.0,-0.2581507242860199,11.787289398866188,-4.1357420897957,0.2489276,-1.0070114,0.0015271631,202.69006,-100.43236,2.047473
3140684409000.0,-0.4270360715317146,12.258121117338751,-4.130624356048775,0.25320363,-0.9746355,-0.01282817,202.47307,-100.54431,2.1391299
3140689561000.0,-0.6036135157740453,12.903770652353034,-4.060743427404532,0.25717425,-0.91996306,-0.046731193,202.08487,-100.61723,2.2270305
3140694495000.0,-0.7758200056647124,13.72736712929805,-3.9109987164712408,0.27916542,-0.84696466,-0.08735373,201.68735,-100.6922,2.304129
3140699523000.0,-0.9513072839724293,14.566654337664394,-3.758401147242909,0.30085114,-0.77579886,-0.12583824,201.25378,-100.74017,2.3367472
3140704477000.0,-1.054791835911425,14.974647072528883,-3.555641572946085,0.3387248,-0.698219,-0.15332718,200.80208,-100.794205,2.359001
3140709730000.0,-1.1533037185292414,15.334697233931674,-3.3281040642154025,0.3622431,-0.643852,-0.1777618,200.34074,-100.84529,2.368187
3140714525000.0,-1.2020519134240495,15.361287225728624,-3.044478194595638,0.39645153,-0.571159,-0.19914207,199.70491,-100.81797,2.3549817
3140719857000.0,-1.2544189540521242,15.390357231881472,-2.723264635299893,0.4184427,-0.47616947,-0.21502456,199.01498,-100.74211,2.3259878
3140724439000.0,-1.2505024155301678,15.402106683862906,-2.2924451116119244,0.40653083,-0.39950588,-0.22785273,198.3221,-100.667984,2.288449
3140729449000.0,-1.246220037093895,15.414953640307033,-1.8213831706087111,0.34880406,-0.38759398,-0.24678956,197.54381,-100.5319,2.2505326
3140734413000.0,-1.1622690899193548,15.451154534274194,-1.661884898185484,0.21502456,-0.3933972,-0.24801129,196.76927,-100.37666,2.2102985
3140739477000.0,-1.0432373018408134,15.49791707634993,-1.6278757968530857,0.027794369,-0.3576616,-0.21655174,196.00009,-100.19667,2.1706326
3140744465000.0,-0.8862616310461768,15.521794865841953,-1.6508762185880346,-0.15363261,-0.24770586,-0.16920967,195.06882,-99.89715,2.1672888
3140749443000.0,-0.6778146841889731,15.51671069115922,-1.747473626415698,-0.31856623,-0.10873401,-0.1142318,194.15599,-99.56598,2.1682563
3140754418000.0,-0.5256994482274248,15.47986735451505,-1.82010577090301,-0.4569272,0.0070249503,-0.07238753,193.26611,-99.21122,2.1917684
3140759414000.0,-0.4190199974440053,15.416829753623189,-1.8734454507246376,-0.56046885,0.07727446,-0.0067195175,192.3892,-98.841576,2.2305992
3140764484000.0,-0.395374667815794,15.341308323829272,-1.8889146366511145,-0.63713247,0.101098195,0.049785517,191.62936,-98.49603,2.2822368
3140769595000.0,-0.4334361488050803,15.256726882063246,-1.8762274866251945,-0.6835582,0.05497787,0.10903945,190.90077,-98.150635,2.3436801
3140774432000.0,-0.5022512401781226,15.154454408917058,-1.844135470866572,-0.72173727,-0.025961773,0.17837265,190.24928,-97.82327,2.4240642
3140779412000.0,-0.6638147010676428,14.987679101300404,-1.7555361499180415,-0.7678576,-0.090713486,0.24465153,189.63226,-97.501495,2.5108194
3140784412000.0,-0.8099891518768696,14.759369882948953,-1.649271577361768,-0.78801614,-0.23671028,0.27763826,189.08879,-97.195946,2.5865011
3140790247000.0,-0.95558194575895,14.398084678374987,-1.4982864619511724,-0.80939645,-0.4978552,0.3680463,188.62164,-96.906235,2.6846359
3140794581000.0,-1.0466695378555797,14.040720225382932,-1.3771741393873085,-0.8772025,-0.5900958,0.39370266,188.14314,-96.59486,2.749479
3140799483000.0,-1.1260482957230953,13.513084820568928,-1.2277553870897155,-0.89552844,-0.7816021,0.4456262,187.78883,-96.320816,2.8316464
3140804379000.0,-1.1940972704728663,13.002571862378458,-1.0869966158198288,-0.94134337,-0.97249746,0.4801401,187.45341,-96.01946,2.8953278
3140810214000.0,-1.2498246966758082,12.431365949887809,-0.9383901588764232,-0.97433007,-1.1414018,0.5177083,187.18398,-95.743164,2.9669852
3140814514000.0,-1.2908920373223636,12.01042586013463,-0.8288772600149588,-1.0180069,-1.3090842,0.5580254,186.96468,-95.46051,3.036423
3140819475000.0,-1.35915061837593,11.625612791329669,-0.6652658306632158,-1.0512991,-1.4648548,0.59712076,186.80507,-95.20136,3.1108158
3140824480000.0,-1.428931750048528,11.241816243286962,-0.4985663472112585,-1.1023064,-1.6224581,0.6395759,186.70688,-94.96101,3.1929908
3140829420000.0,-1.501423906578238,10.875664635932278,-0.3442806693993314,-1.1505647,-1.7647897,0.6808093,186.6431,-94.7294,3.2823827
3140834431000.0,-1.579051499924512,10.51857806319422,-0.1993758320888601,-1.1908818,-1.8716911,0.7254025,186.625,-94.53214,3.3823802
3140839495000.0,-1.7087391871115505,10.249044057661218,0.0209418439913777,-1.2455542,-1.9953914,0.77091193,186.67404,-94.346695,3.4785752
3140844497000.0,-1.8679288928597089,10.038225077240885,0.2833896947548052,-1.2980887,-2.1132884,0.81245077,186.75897,-94.20764,3.5858788
3140849426000.0,-2.027360674981643,9.875080208643658,0.4152755671855659,-1.357648,-2.223244,0.84849185,186.8871,-94.0994,3.6940203
3140854342000.0,-2.1903341454106786,9.781247160914717,0.3510738963914822,-1.4071281,-2.339003,0.8897252,187.0546,-94.050575,3.8159854
3140859335000.0,-2.3695127318941505,9.633200763231198,0.1861875275905292,-1.4248432,-2.4196372,0.9193522,187.30774,-94.007256,3.8994417
3140864366000.0,-2.566032590837644,9.42230116315161,-0.0966093217220454,-1.4208726,-2.4266622,0.9285152,187.57066,-94.02211,3.9917133
3140869313000.0,-2.667700898835028,9.234662479612991,-0.4350379603327081,-1.396438,-2.364354,0.9086621,187.80638,-94.0659,4.065163
3140874317000.0,-2.658238502310198,9.069070540428472,-0.8513837186622568,-1.3203852,-2.3026567,0.8717047,188.04231,-85.84949,4.1389112
3140879310000.0,-2.497078634330156,8.985600257300552,-1.207012106532865,-1.2773192,-2.1035144,0.86467975,188.17365,-85.75104,4.195912
3140884312000.0,-2.126928576307075,9.014443199799295,-1.48101925713999,-1.1716396,-1.8570304,0.87109387,188.27351,-85.641655,4.246803
3140889773000.0,-1.4541136594516992,9.274173947232711,-1.7684355222672437,-1.0500773,-1.5894713,0.9053023,188.32402,-85.52114,4.3079667
3140894324000.0,-0.6473732800376648,9.699618895294224,-1.997212687116677,-0.904386,-1.3240504,0.93584555,188.30649,-85.40424,4.3674054
3140899307000.0,0.4022640608563248,10.31244705491359,-2.1184809806728704,-0.76083267,-1.0381655,1.03786,188.34058,-85.23592,4.495788
3140904362000.0,1.956715171462215,11.366899688107168,-1.8610559198282035,-0.6411031,-0.77091193,1.221425,188.30339,-85.05123,4.652124
3140909366000.0,3.3249185155031205,12.293836258580342,-1.4223640448689547,-0.5326745,-0.5900958,1.5204436,188.37294,-84.68914,5.0222564
3140914904000.0,4.421223824980499,13.033325571372854,-0.4863675108190326,-0.47800204,-0.5522222,1.9162843,188.40613,-84.261566,5.465926
3140919387000.0,4.9705899462826,13.310032208836123,0.1883376510829116,-0.4905248,-0.68936145,2.3215933,188.57062,-83.49122,6.2597446
3140924379000.0,4.682145035422344,12.761056489100817,0.718704115880109,-0.59681535,-0.9462303,2.5525005,188.75966,-82.6709,7.098868
3140929367000.0,4.350883788115173,12.15078591014907,1.1015166098019196,-0.7415904,-1.2049317,2.5100453,188.98715,-81.6198,8.142986
3140934351000.0,3.853789480089851,11.302801107208497,0.9163246246681642,-0.8445212,-1.3692545,2.2736404,189.26584,-80.59127,9.16327
3140939464000.0,3.366759771242067,10.635907908975522,0.6891784911840435,-0.9306532,-1.3796391,1.9324722,189.53978,-79.64754,10.071513
3140944441000.0,2.9562376793472347,10.549482281414324,0.3650821351441523,-0.95569867,-1.1914927,1.6789632,189.80598,-78.770065,10.912081
3140949555000.0,2.5152567344199426,10.482569635666346,0.0530840955576861,-0.9755518,-0.95356065,1.5876387,190.0374,-78.00819,11.629408
3140954466000.0,1.8689280132310644,10.67296074017258,-0.0020292171505273,-0.97433007,-0.76174897,1.6142114,190.23125,-77.2996,12.2922125
3140959456000.0,1.2442558677414952,10.861747916171169,-0.0470401454886441,-0.97005403,-0.61391956,1.675298,190.35352,-76.69987,12.849032
3140965499000.0,0.6632165227877961,11.064829590310946,-0.0413989882008967,-0.9630291,-0.52687126,1.7296649,190.44034,-76.107925,13.3980665
3140969621000.0,0.2885954541573033,11.189045606741573,-0.0434722463033707,-0.9810496,-0.44898596,1.7580702,190.42708,-75.626465,13.82666
3140974558000.0,-0.0537616388123179,11.267748741905953,-0.0749533577857677,-1.0161743,-0.39278635,1.7531832,190.3972,-75.1493,14.249884
3140979391000.0,-0.3889068343404079,11.34479396213067,-0.1057713062958801,-1.0748174,-0.36346483,1.7327193,190.29279,-74.76069,14.573639
3140984479000.0,-0.6756488928809452,11.36767,-0.2738920361506614,-1.108415,-0.32742378,1.690875,190.17416,-74.38724,14.879875
3140990830000.0,-0.9989073725429164,11.36611902791926,-0.5512607760422562,-1.1682798,-0.24770586,1.6255124,190.03879,-74.02699,15.163452
3140995792000.0,-1.1423373008394644,11.289921765893228,-0.8157096346727033,-1.2073752,-0.16126843,1.5974126,189.84787,-73.742615,15.360158
3140999556000.0,-1.2511382379833995,11.232121182607056,-1.0163113081682702,-1.2324207,-0.09865474,1.5830573,189.63084,-73.5143,15.494416
3141004418000.0,-1.3409555063627254,11.115995518236474,-1.3034581008817636,-1.2415836,0.015271631,1.566564,189.37758,-73.29593,15.610988
3141009415000.0,-1.4032920799599198,10.97214200240481,-1.6151409187975951,-1.237613,0.14110987,1.5577064,189.1064,-73.08225,15.71818
3141014503000.0,-1.4328212865615688,10.82646664692877,-1.8832652800538308,-1.2260065,0.29932398,1.5720617,188.79903,-72.89644,15.800801
3141019540000.0,-1.442095215543593,10.682720650869944,-2.119750662770355,-1.212873,0.4654793,1.5855007,188.45644,-72.718,15.871163
3141024444000.0,-1.4074490153050163,10.533074707105548,-2.286233989888637,-1.1988231,0.61178154,1.6197093,188.0929,-72.544044,15.944444
3141030225000.0,-1.3256068166157486,10.347565396767518,-2.4226376163890806,-1.1905763,0.7189884,1.6508633,187.69551,-72.37343,16.01047
3141034423000.0,-1.2195786356074496,10.245346696419956,-2.468342193447844,-1.1743884,0.8142834,1.7018706,187.27472,-72.19374,16.094906
3141040166000.0,-1.0338229271349997,10.133893260252822,-2.4842640970664864,-1.151481,0.89858276,1.74738,186.82881,-72.01578,16.176403
3141044484000.0,-0.8840971186450961,10.069881229524771,-2.4790275523761376,-1.1575897,0.9569204,1.8020525,186.3749,-71.80444,16.293417
3141049445000.0,-0.7015490425824065,10.017038302831144,-2.455008085844287,-1.1777482,0.98624194,1.8698585,185.90666,-71.5869,16.41729
3141054408000.0,-0.5305293416707282,9.988609,-2.386407867014329,-1.2040154,0.9972375,1.9346102,185.4381,-71.32269,16.588318
3141059415000.0,-0.3716116615771517,9.988609,-2.2648826230041914,-1.2290609,0.9975429,1.9926424,184.96585,-71.04961,16.767149
3141064497000.0,-0.1983707555797496,9.953544500272184,-2.0140749697332607,-1.2574661,0.98563105,2.0598376,184.50435,-70.7239,16.999924
3141069501000.0,-0.0114118814371257,9.870934916167664,-1.5923305221556885,-1.2745703,0.9645562,2.1065688,184.04831,-70.39711,17.234161
3141074478000.0,0.1469740634583894,9.76042950399005,-1.1931952914384911,-1.3041973,0.9431759,2.1270328,183.59052,-70.02404,17.50277
3141079431000.0,0.2059653611586693,9.54904435464815,-0.8687431104549694,-1.3093897,0.9083566,2.1707096,183.14413,-69.64555,17.782356
3141084432000.0,0.2423771454714475,9.338579392430278,-0.5636643777287517,-1.2953397,0.8713993,2.1917844,182.67912,-69.21346,18.08513
3141089499000.0,0.2182109704814077,9.133166543326691,-0.3139472405108732,-1.284955,0.8216137,2.195755,182.23245,-68.78625,18.386198
3141095207000.0,0.1909721538170831,8.901918193363375,-0.031990693268435,-1.2739595,0.66950834,2.16399,181.79152,-68.32982,18.694056
3141100242000.0,0.1662798052867677,8.704379528881606,0.24456363141356,-1.2119566,0.6020077,2.141999,181.34605,-67.8922,18.992115
3141104431000.0,0.1457363598064318,8.540032068004916,0.4746502383833469,-1.1566733,0.45051312,2.1267273,180.92093,-67.43556,19.29142
3141109414000.0,0.1208736595129587,8.352519617063837,0.6878142939989564,-1.119716,0.30115658,2.0821342,180.5268,-67.01182,19.569096
3141114463000.0,0.0956414642476952,8.16327806475039,0.8980825951948166,-1.0280862,0.15454891,2.0146337,180.18716,-66.626724,19.834812
3141119750000.0,0.1603339141540291,7.9408927417484385,1.0219646121022896,-0.9254609,0.022602014,1.956296,179.83847,-66.23173,20.09182
3141124430000.0,0.2625093032708891,7.732099753345228,1.0841583284269998,-0.81489426,-0.0720821,1.9007072,179.53601,-65.88042,20.328772
3141129415000.0,0.34075659816429,7.53939567744527,1.1709324796947178,-0.7110472,-0.10873401,1.8524488,179.21286,-65.53006,20.550568
3141134418000.0,0.3984944134926692,7.366182251556538,1.2719736866639888,-0.63621616,-0.13652839,1.7941113,178.92955,-65.219925,20.75219
3141140165000.0,0.4903151870410292,7.266192616133519,1.3276897919332409,-0.5552765,-0.1572978,1.7467692,178.64523,-64.89045,20.986229
3141144639000.0,0.5722541519245481,7.228947655076495,1.3463122724617524,-0.50518554,-0.17287487,1.6942347,178.38135,-64.59438,21.196573
3141149431000.0,0.6505467843588664,7.183281392582447,1.3568270094826678,-0.45142943,-0.16982053,1.6829338,178.0899,-64.275475,21.424969
3141154422000.0,0.7109802534316721,7.122847749973659,1.3467547707723106,-0.40225476,-0.16432275,1.6771306,177.8149,-63.985756,21.634022
3141159415000.0,0.7451000766868766,7.052802160619988,1.327517217064346,-0.355829,-0.15363261,1.6688838,177.52278,-63.674908,21.872532
3141165164000.0,0.7397160532955211,6.955889683356151,1.2898289971054178,-0.30970868,-0.1459968,1.6545285,177.23985,-63.385395,22.099558
3141169899000.0,0.7785794132615411,6.901356474643899,1.2606172551055432,-0.26236662,-0.13225232,1.645671,176.92451,-63.07489,22.349768
3141174441000.0,0.8606930947871975,6.87522945173331,1.2344901932212116,-0.2302962,-0.112704635,1.6633861,176.6133,-62.7773,22.593657
3141179680000.0,0.9527737733899474,6.843080643934822,1.202007778351582,-0.2125811,-0.07971791,1.6639969,176.27502,-62.47755,22.834894
3141184417000.0,1.0075297810587118,6.792235795715148,1.1472517911026814,-0.18234327,-0.067500606,1.6426166,175.94678,-62.196877,23.065989
3141189561000.0,1.066990389766359,6.737022390766445,1.0877912045693594,-0.14630222,-0.043066,1.6227635,175.58383,-61.884766,23.32867
3141194582000.0,1.1562944350730688,6.648803117516652,1.0302508002485338,-0.124311075,0.004276057,1.6081028,175.22133,-61.590668,23.574194
3141199443000.0,1.253481960751566,6.551615398538622,0.9747150229645094,-0.087964594,0.040317107,1.6126842,174.86414,-61.315567,23.808954
3141204422000.0,1.3145074089087323,6.5218053,0.9576807,-0.07269296,0.07086037,1.6129897,174.47887,-61.01846,24.062243
3141209421000.0,1.3592453186377322,6.5218053,0.9576807,-0.04428773,0.09560041,1.5958854,174.09525,-60.74359,24.299244
3141214502000.0,1.4530395504919775,6.531832033871111,0.9443117040554916,-0.031154128,0.116675265,1.5812247,173.70023,-60.43679,24.574608
3141219517000.0,1.5594744234199096,6.544604213287829,0.9272821092722277,-0.01740966,0.13164146,1.5589281,173.31099,-60.15184,24.83074
3141224448000.0,1.669972620213106,6.547880550996271,0.903442375764518,-0.009468411,0.14019357,1.534799,172.90207,-59.85833,25.0954
3141229425000.0,1.7867831549174211,6.5428018897389455,0.8729700635162494,-0.008552114,0.16554448,1.5238034,172.4939,-59.579533,25.34389
3141234413000.0,1.8707679553627143,6.520160056805772,0.8024871056357255,-0.03268129,0.19211712,1.5027285,172.08936,-59.286133,25.613136
3141239755000.0,1.940603198400936,6.485242409243369,0.702722495046802,-0.05467244,0.22815818,1.4764613,171.68423,-59.00799,25.864096
3141244668000.0,1.9958714158504527,6.432397248856002,0.6258864474150521,-0.08093964,0.29077184,1.455081,171.26779,-58.709698,26.134186
3141249433000.0,2.044743772193555,6.370196021662935,0.5592422787362477,-0.11728613,0.34513888,1.4049901,170.8562,-58.430527,26.376253
3141254419000.0,2.095209043889469,6.284188447184502,0.4541276352654069,-0.16798794,0.42241332,1.3390167,170.42926,-58.14306,26.6214
3141259413000.0,2.1451656415535085,6.179733799021935,0.3178825232456557,-0.21013765,0.49938235,1.2959507,169.99568,-57.868042,26.844545
3141264489000.0,2.2163499785547787,6.059305803496503,0.2014701273193473,-0.25686884,0.5766568,1.2382239,169.55362,-57.59065,27.066158
3141269696000.0,2.3167380476160204,5.916649396090273,0.1116492526338207,-0.30543262,0.66920286,1.1878275,169.09451,-57.32513,27.260597
3141274423000.0,2.398977013427562,5.787512214369847,0.0892857693765214,-0.34300083,0.70921457,1.1578951,168.66039,-57.055523,27.467941
3141279479000.0,2.479772518727916,5.649684106007067,0.1130491857502944,-0.36071593,0.7486154,1.1065824,168.21233,-56.807964,27.63945
3141284416000.0,2.509449732412861,5.497711948894468,0.2262528739441923,-0.39645153,0.77457714,1.0497719,167.78247,-56.53755,27.837543
3141289453000.0,2.4908195438737084,5.32538240094622,0.4311856336110842,-0.42119157,0.7901542,1.0253373,167.35182,-56.27906,28.020456
3141294576000.0,2.489331581972858,5.166366392849909,0.6464373797042738,-0.44806966,0.7330383,0.9324858,166.94685,-56.011402,28.208855
3141299502000.0,2.508442456451286,5.032589772614948,0.8614354284990886,-0.46120325,0.6258314,0.8206975,166.56403,-55.760933,28.382025
3141304476000.0,2.527681361420809,4.893426539343932,1.0397031768363856,-0.46883908,0.50885075,0.7162395,166.16072,-55.48747,28.557045
3141309481000.0,2.5469737276916886,4.748733792312336,1.1747498414570337,-0.44868052,0.40408736,0.6533204,165.80305,-55.241585,28.716509
3141314514000.0,2.5613101320236664,4.619697048996949,1.272953038578164,-0.4202753,0.29779682,0.59803706,165.42603,-54.963825,28.895672
3141319834000.0,2.5707303239437924,4.501945633632245,1.3341836958768605,-0.36193767,0.21899518,0.5183192,165.09485,-54.72435,29.052908
3141324431000.0,2.6048072316715545,4.412576904985338,1.372348014662757,-0.2874121,0.15149458,0.44226643,164.76627,-54.46502,29.23151
3141329491000.0,2.6995454187683285,4.341523277028348,1.3818218383186704,-0.20586158,0.11026118,0.38912117,164.47226,-54.238537,29.3942
3141334384000.0,2.7898663034075746,4.2916412258236685,1.4034165098840192,-0.11575896,0.110872045,0.3399465,164.18028,-54.01693,29.560457
3141339539000.0,2.8810736131171097,4.296708289767012,1.4642212772041463,-0.0012217305,0.056505036,0.25289822,163.9385,-53.84148,29.70663
3141344414000.0,2.9957612191256837,4.351271980327868,1.522607550819672,0.10445796,0.014660766,0.17898351,163.6903,-53.650715,29.883759
3141349435000.0,3.1773046655737707,4.518482953591654,1.5847145521609538,0.21471913,-0.0580322,0.1020145,163.48688,-53.507114,30.039154
3141355214000.0,3.3576861678114893,4.663696065747728,1.6196683659787463,0.33750305,-0.10445796,0.06047566,163.28685,-53.369038,30.207748
3141359424000.0,3.457038407146157,4.716477003680887,1.60414459884491,0.4447099,-0.13561209,0.021685716,163.11856,-53.269054,30.35557
3141364439000.0,3.575387927398737,4.77935025872478,1.5856525104420145,0.5510005,-0.14874569,-0.053450707,162.97057,-53.191086,30.504723
3141369486000.0,3.700285389708372,4.923099602699906,1.551299419915334,0.6407976,-0.17684549,-0.09162979,162.83942,-53.13207,30.650005
3141374430000.0,3.825001905832549,5.096811996001882,1.511211951693321,0.6786713,-0.23243423,-0.15760323,162.73491,-53.11006,30.764439
3141379425000.0,3.945468750692365,5.2640540690494015,1.3911171654565868,0.7666359,-0.29229903,-0.22815818,162.64119,-53.0972,30.891684
3141384421000.0,4.06185979796033,5.425210874962575,1.212053850411677,0.82863873,-0.33933565,-0.2996294,162.5687,-53.10543,30.997522
3141389513000.0,4.169152151463817,5.637109156858656,0.9239409780210234,0.8894198,-0.38606682,-0.38515055,162.51979,-53.143955,31.09709
3141394615000.0,4.262535948718617,5.908770556459039,0.5037145862427244,0.9483683,-0.42302418,-0.4990769,162.49167,-53.21754,31.165432
3141399458000.0,4.358739126337071,6.152079797831281,0.1442188642896526,1.0048733,-0.43554693,-0.6123924,162.5295,-53.349567,31.199736
3141404492000.0,4.504936256423451,6.315997977210071,0.0113122852471971,1.0464121,-0.4456262,-0.74189585,162.5862,-53.518322,31.196934
3141409850000.0,4.658689619494338,6.494140341874521,-0.1258942074001872,1.0800097,-0.45540005,-0.86498517,162.73148,-53.787754,31.144728
3141414537000.0,4.754217238980165,6.7272275211543375,-0.1564630272818591,1.104139,-0.4841107,-0.9969321,162.89046,-54.091022,31.05427
3141419430000.0,4.85394342676428,6.970559197752618,-0.1883753882123095,1.1136073,-0.5476407,-1.0968086,163.09091,-54.42174,30.951756
3141425334000.0,4.944245495195565,7.397857374191561,-0.0962340769695103,1.1233811,-0.58246,-1.2027937,163.29321,-54.78382,30.80905
3141429499000.0,4.997477795370085,7.745915149060671,0.0143253926639975,1.1551461,-0.5900958,-1.3127494,163.50409,-55.169025,30.639317
3141434419000.0,5.000480630139814,8.319942671389697,0.2499270739964342,1.1771374,-0.63041294,-1.3988814,163.73,-55.58426,30.4433
3141439573000.0,4.972691153945763,9.005417900628695,0.5509804791611148,1.1688906,-0.72082096,-1.462106,163.96751,-56.013065,30.227299
3141444717000.0,4.674393471399758,9.76127693465107,0.7026378379588544,1.1560625,-0.8567385,-1.4874569,164.18243,-56.470535,29.973703
3141449491000.0,4.208712977006858,10.512820851553046,0.7395233911657926,1.1215485,-1.0045679,-1.5711454,164.42485,-56.94528,29.695438
3141454480000.0,3.8576748060334967,11.434011037553311,0.8868762540414022,1.1151345,-1.1527027,-1.7104226,164.58032,-57.474186,29.338469
3141459416000.0,3.616721396109435,12.451916110267346,1.117994839290544,1.1395692,-1.3038919,-1.8096883,164.77147,-58.001198,28.984676
3141465302000.0,3.650138467312969,13.657179985732578,1.4724108719041522,1.1472049,-1.3762794,-1.8438967,164.80074,-58.661694,28.474255
3141469480000.0,3.781876989866472,14.50982060106091,1.7505253990122551,1.1517864,-1.4944818,-1.8335121,164.881,-59.31949,27.973955
3141474513000.0,4.1486410683391,15.621367780709342,1.6314071951881488,1.1578951,-1.5519031,-1.7650951,164.86758,-60.077206,27.358301
3141479428000.0,4.754321280276817,16.807279474048443,0.974829469031142,1.14018,-1.4697418,-1.6771306,164.83362,-60.797768,26.77024
3141484410000.0,5.405289069584073,17.6275429221368,0.2694361828050463,1.1722504,-1.162782,-1.534799,164.70184,-61.53116,26.155474
3141490100000.0,6.178682663118471,18.255925076680462,-0.5684069908890202,1.2644911,-0.7275405,-1.3439035,164.49112,-62.202507,25.592695
3141494473000.0,6.536298695403443,18.5419300483534,-0.90292492080589,1.4049901,-0.25595254,-1.1716396,164.20604,-62.87943,25.05493
3141499447000.0,6.796962078449905,18.745722018903592,-1.0924982736483932,1.541213,0.14508049,-1.0876455,163.79868,-63.512634,24.54587
3141504415000.0,6.919638934614238,18.259512089365504,-1.0094521599940425,1.6169603,0.4636467,-1.0986412,163.45709,-64.147354,24.078663
3141509416000.0,6.929150070896634,17.199014062555854,-0.7003383686624962,1.6102408,0.6618725,-1.1823297,163.02185,-64.76039,23.615038
3141514560000.0,6.766923406018748,15.908215404045386,-0.4099364710409472,1.5103643,0.76174897,-1.2968669,162.57925,-65.36496,23.155153
3141519506000.0,6.472486976793291,14.506136402762705,-0.1528887371011347,1.3344351,0.8371908,-1.4385877,162.08392,-65.970535,22.66962
3141524450000.0,6.053813347774423,13.280763575338462,0.073748965156326,1.1267409,0.88147855,-1.5885551,161.62617,-66.50243,22.223999
3141529421000.0,5.515941512739846,12.21429355342359,0.2731325360416869,0.88331115,0.8943067,-1.7183639,161.15834,-67.0359,21.752157
3141534411000.0,4.969203760222691,11.32440242436168,0.3789374504012286,0.6826419,0.9074403,-1.8051068,160.70993,-67.51419,21.302761
3141539528000.0,4.400039918986369,10.637642378767517,0.3695297933461317,0.50854534,0.94042706,-1.8597792,160.25699,-67.99142,20.833433
3141544482000.0,3.8790866425226658,10.051994039354389,0.3167340175809505,0.38973203,0.9786061,-1.8860464,159.78847,-68.45782,20.347687
3141549441000.0,3.405923585882236,9.593025916409283,0.1937115981508418,0.31520647,1.0302242,-1.9058995,159.31302,-68.91738,19.855701
3141554415000.0,2.9096098752857142,9.193656022040816,0.0235550367224489,0.28710666,1.0903945,-1.9257526,158.81807,-69.40655,19.320913
3141559415000.0,2.3721359467142857,8.900488675102041,-0.2305235040938775,0.30818152,1.1319333,-1.958434,158.32082,-69.89375,18.784779
3141564858000.0,1.8452326892675823,8.663384400925787,-0.4633575591712707,0.34972036,1.2950343,-1.9850066,157.75728,-70.421776,18.205008
3141569493000.0,1.4574878608182769,8.547392435866806,-0.6158042456353591,0.42241332,1.346347,-1.9981402,157.2215,-70.95243,17.631504
3141574449000.0,1.0428895070329998,8.423367370315066,-0.7788087285082872,0.45540005,1.4199562,-1.9990565,156.6095,-71.55252,16.990488
3141579421000.0,0.900629733463035,8.304321210116733,-0.7775845284824903,0.52564955,1.4627168,-1.9566014,155.99539,-72.149666,16.366453
3141584418000.0,0.8614281763618676,8.186716206225682,-0.7138820090661478,0.60048056,1.4532484,-1.9034561,155.37996,-72.74191,15.753553
3141589471000.0,0.8451580386295833,8.087661386295833,-0.645273652247137,0.65148777,1.4016303,-1.844813,154.71489,-73.40238,15.086505
3141594432000.0,0.8360134895390241,7.996215895390241,-0.5766894863247041,0.6908886,1.2962561,-1.765706,154.0706,-74.045525,14.451426
3141599494000.0,0.7844300593585645,7.971385365886356,-0.5833131562111994,0.70463306,1.1664472,-1.6890424,153.4746,-74.67289,13.836623
3141604395000.0,0.7166665195730638,7.9762257162008865,-0.62203516522739,0.72265357,1.0213667,-1.606881,152.91403,-75.2779,13.25839
3141609441000.0,0.6089452801815098,8.089280404507829,-0.8051795564705295,0.711658,0.8753699,-1.527774,152.41364,-75.85356,12.713448
3141614442000.0,0.4895336645267777,8.237350802533161,-1.0344498802732622,0.6960809,0.7257079,-1.4544702,151.95558,-76.40513,12.202763
3141619483000.0,0.2597656137821219,8.43763007342144,-1.3683135207323789,0.68691796,0.6010914,-1.3863586,151.55199,-76.95248,11.699316
3141624455000.0,-0.0024363882846916,8.651761920704846,-1.731026259609031,0.6814202,0.52778757,-1.3368785,151.17456,-77.477776,11.221877
3141629418000.0,-0.3132921309911558,8.862096044017484,-2.032653635285148,0.72143185,0.49205196,-1.2950343,150.81348,-78.03598,10.732905
3141634423000.0,-0.6641204374260445,9.071618155433567,-2.290902324367185,0.7834347,0.48380527,-1.2959507,150.46301,-78.58712,10.254642
3141639490000.0,-0.9331690867038188,9.241238599671112,-2.447834035793897,0.8378017,0.4700608,-1.3225232,150.09227,-79.22681,9.721073
3141644526000.0,-1.14466026363055,9.382232797368902,-2.5359553863511786,0.8885035,0.46395215,-1.3652838,149.71793,-79.86739,9.191158
3141649550000.0,-1.2821591143446556,9.543978856361544,-2.5637127884283246,0.9233228,0.43188173,-1.3930782,149.32219,-80.591774,8.594164
3141654421000.0,-1.3224429199769718,9.727493851468047,-2.5144769896373056,0.9431759,0.40225476,-1.4095715,148.92284,-81.3133,7.999093
3141659417000.0,-1.3081475949573078,9.923275285384229,-2.458520762451029,0.93951076,0.37873647,-1.3955216,148.51352,-82.07162,7.3699923
3141664506000.0,-1.175964564500251,10.13868439949774,-2.3899814663385235,0.9266826,0.32070425,-1.3716979,148.1174,-82.8131,6.752571
3141669409000.0,-1.0059904829745676,10.327696153509663,-2.354408880773144,0.904386,0.28221974,-1.3161092,147.72548,-83.53045,6.147797
3141674664000.0,-0.7346492475930824,10.491525456154628,-2.380007092370295,0.8738427,0.24648413,-1.2315043,147.34453,-84.2081,5.5717907
3141680216000.0,-0.4599908766453643,10.562500761183758,-2.41407285726084,0.82772243,0.23854288,-1.1227703,146.98041,-84.81794,5.043733
3141684426000.0,-0.2617883483197326,10.530788132140398,-2.445785196558844,0.77824235,0.24801129,-1.0329732,146.61812,-85.38135,4.5463758
3141689497000.0,-0.0292603138741231,10.441250428712577,-2.4807401839047523,0.72509706,0.29229903,-0.95172805,146.2685,-85.856026,4.1168737
3141694485000.0,0.1878505647505187,10.257177901491946,-2.509059022873234,0.66798115,0.35827246,-0.89552844,145.90813,-86.28183,3.7149398
3141699465000.0,0.385515512190561,10.068331894479076,-2.5105944578806767,0.6093381,0.43463063,-0.86620694,145.57208,-93.364044,3.3609598
3141704427000.0,0.5420822360837043,9.869450250845947,-2.4555845682279607,0.56596667,0.50823987,-0.83291477,145.21725,-93.06062,3.0310347
3141709494000.0,0.7027422769617526,9.672666320883462,-2.392937841048662,0.5363397,0.56505036,-0.8313876,144.88625,-92.81707,2.7306364
3141714605000.0,0.8741317095798169,9.549617320973246,-2.2523106354641764,0.50793445,0.59315014,-0.8155051,144.54233,-92.62481,2.4492593
3141719973000.0,1.054139237322679,9.420380961842342,-2.1046121734063563,0.50518554,0.59895337,-0.79290307,144.2182,-92.49479,2.2000937
3141724522000.0,1.1961158812327068,9.367027824921289,-1.8546266615780935,0.49632803,0.55833083,-0.7699956,143.89955,-92.40624,1.9596149
3141729394000.0,1.347473455967942,9.313607351302355,-1.5786215629806315,0.47983465,0.46609017,-0.7348709,143.59454,-92.36611,1.7326765
3141734421000.0,1.47399814532504,9.29552221288122,-1.140773667375602,0.44043383,0.29932398,-0.6994407,143.3599,-92.35892,1.5429826
3141739710000.0,1.595952520696228,9.29044067666533,-0.6224674791934188,0.39645153,0.058643065,-0.6731735,143.17307,-92.3788,1.3621944
3141744481000.0,1.6542214146370255,9.243038748770411,-0.2122026882274247,0.35277468,-0.22143865,-0.6563747,143.08574,-92.38396,1.2209477
3141750438000.0,1.7103389211981113,9.17008630080661,0.2816312171571906,0.3145956,-0.5323691,-0.64476824,143.0756,-92.39423,1.0856037
3141754429000.0,1.6909082369000097,9.088314798169604,0.412729513770811,0.3200934,-0.68111473,-0.66645396,143.14474,-92.335205,0.9756165
3141759410000.0,1.6583977915977024,8.981494631973517,0.547415550088599,0.37323865,-0.9602802,-0.6774496,143.33815,-92.28702,0.8712444
3141764593000.0,1.628268239180842,8.881595628765561,0.420122687257436,0.410196,-1.1728612,-0.71776664,143.57738,-92.15273,0.77243066
3141769506000.0,1.6014408220564478,8.792171138458613,0.1742045148664829,0.5357288,-1.2623531,-0.7602218,143.85721,-92.06109,0.67426616
3141774437000.0,1.5693593195363922,8.732810919536393,-0.3203831525851378,0.6759224,-1.2727377,-0.79504114,144.19405,-91.95574,0.5614231
3141779421000.0,1.532933995869503,8.696385595869502,-1.0124638981350758,0.81489426,-1.210124,-0.81031275,144.52928,-91.88974,0.44939858
3141784423000.0,1.523383509137577,8.68478542738473,-1.4706217446891916,0.93126404,-1.0925325,-0.81581056,144.8356,-91.91348,0.32108545
3141789578000.0,1.546422760164271,8.703216693485158,-1.6549354642150458,1.0461067,-0.93309665,-0.8179486,145.10518,-91.98252,0.19641441
3141794453000.0,1.5722354195591142,8.72771229416658,-1.7957433468025372,1.1151345,-0.75411314,-0.8026769,145.30681,-92.23554,0.04322998
3141799435000.0,1.6069636428304044,8.767402003015492,-1.8701610717063533,1.1545353,-0.5751296,-0.77396625,145.45758,-92.5159,-0.10109879
3141804396000.0,1.6464448032645365,8.824606754514784,-1.9411041576900177,1.1472049,-0.37110063,-0.74006325,145.54987,-92.84092,-0.24263977
3141809418000.0,1.6941673075511017,8.91050697320897,-2.0079155939273665,1.0931433,-0.16432275,-0.6969972,145.58684,-93.158424,-0.36751276
3141814465000.0,1.7222562210275605,9.001546462572303,-2.04786762102756,1.0067059,0.05497787,-0.65393126,145.56502,-93.47373,-0.47580668
3141820256000.0,1.717538693909493,9.114767014886016,-2.043150093909493,0.872621,0.2501493,-0.60994893,145.48972,-93.751884,-0.5658886
3141824643000.0,1.7139448177081436,9.201627177627982,-2.0340917332847512,0.7144069,0.42363504,-0.56413406,145.36903,-94.00159,-0.63714164
3141829432000.0,1.709767071743487,9.310249096192384,-1.9547145163326651,0.5335908,0.56688297,-0.52656585,145.20181,-94.19993,-0.69345707
3141834387000.0,1.705444513536163,9.422636151211512,-1.8725858652577885,0.3463606,0.6750061,-0.4999932,145.00656,-94.34791,-0.73879254
3141839468000.0,1.6933078409956628,9.491974797473128,-1.7518386701866868,0.1554652,0.73364913,-0.49968776,144.78625,-94.44058,-0.778592
3141844433000.0,1.679858243032246,9.550256201395436,-1.626308995568546,-0.004581489,0.71959925,-0.5039638,144.5583,-94.48697,-0.8115185
3141849435000.0,1.7089499242415431,9.534221275758457,-1.536935906746147,-0.1282817,0.679893,-0.5332854,144.33699,-94.47183,-0.85168934
3141854426000.0,1.7552790982262287,9.487892101773772,-1.4628091799941842,-0.22632557,0.659429,-0.5665775,144.11647,-94.42205,-0.89455193
3141859488000.0,1.79868289825462,9.420211801505818,-1.5012578645448322,-0.26206118,0.6001751,-0.58123827,143.94034,-94.335464,-0.9437015
3141864489000.0,1.8396596494609856,9.34235571321013,-1.5996020503251198,-0.29626966,0.5467244,-0.59864795,143.77008,-94.22998,-1.0033429
3141869516000.0,1.8674773,9.253688600562445,-1.7233404589938548,-0.31123585,0.5045747,-0.6026186,143.63596,-94.11148,-1.0575835
3141874586000.0,1.8674773,9.142430061868556,-1.9003432893240289,-0.29260445,0.46578476,-0.57879484,143.51825,-93.99847,-1.1090547
3141879482000.0,1.8456769098134715,9.068903741139897,-2.088754140051813,-0.25809056,0.44593164,-0.5549711,143.4064,-93.91475,-1.157661
3141884472000.0,1.7912032257720207,9.044142999170983,-2.3066488245077723,-0.22296582,0.41874814,-0.52839845,143.30984,-93.83852,-1.1986114
3141889482000.0,1.7064919209795777,9.050800584828927,-2.486521233701706,-0.16829337,0.38423425,-0.5036584,143.21243,-93.818474,-1.2373215
3141894551000.0,1.586320813968703,9.093718805322252,-2.623859673724693,-0.09743301,0.3268129,-0.49571714,143.13094,-93.813156,-1.2732587
3141899469000.0,1.4702505024727492,9.140540230218006,-2.754110090835688,-0.012217305,0.2706133,-0.4914411,143.04105,-93.87042,-1.3208604
3141904482000.0,1.3539601852644327,9.208376117884535,-2.8752457852240614,0.08979719,0.20647246,-0.49571714,142.97083,-93.9508,-1.3687055
3141909467000.0,1.2420503285881612,9.27613769754032,-2.989937836624921,0.21380283,0.15485434,-0.5006041,142.89413,-94.10019,-1.444731
3141914471000.0,1.142742862510136,9.34522121101,-3.0849276789170195,0.3359759,0.09162979,-0.49632803,142.83951,-94.27309,-1.519111
3141919739000.0,1.043872,9.414919441445218,-3.1774334499035963,0.47739118,0.036651913,-0.4877759,142.78185,-94.5136,-1.6181332
3141924513000.0,1.043872,9.430250348646156,-3.1429396290636267,0.6218608,-0.004886922,-0.4578435,142.73866,-94.77956,-1.7086627
3141929481000.0,1.043872,9.446204254589656,-3.107044090326096,0.7684685,-0.021685716,-0.419359,142.69221,-95.10581,-1.8173774
3141934416000.0,1.1032121315041732,9.416188855531876,-3.021068491884213,0.89461213,-0.019242255,-0.38881573,142.65205,-95.45498,-1.9178431
3141939503000.0,1.2027056216036227,9.35562749267448,-2.89994590167821,0.9914343,-0.01038471,-0.3481932,142.61548,-95.82201,-2.0025322
3141944458000.0,1.308132428423825,9.293596671495138,-2.7494884379659643,1.0659598,0.013439035,-0.3210097,142.58488,-96.20089,-2.0796943
3141949587000.0,1.432523199584684,9.223937193324554,-2.53553629702188,1.1169671,0.029321533,-0.3036,142.55444,-96.58723,-2.1464193
3141954385000.0,1.539139671245403,9.164587579862838,-2.336856102395388,1.138042,0.052839845,-0.28710666,142.54297,-96.94319,-2.182731
3141959481000.0,1.6361547269257528,9.111229760163006,-2.1282737478779445,1.1307116,0.059864793,-0.258396,142.53224,-97.29417,-2.2099295
3141964478000.0,1.7089261366001898,9.085728632193732,-1.9289380286894589,1.1169671,0.055588737,-0.23854288,142.55177,-97.59344,-2.210996
3141969919000.0,1.7485138811775878,9.1055224011396,-1.7211022146438748,1.0852021,0.046731193,-0.21594086,142.57126,-97.87611,-2.2033627
3141974462000.0,1.774781071498461,9.137599072042926,-1.5645122561429812,1.0097603,0.021991149,-0.20525073,142.62666,-98.08937,-2.1759348
3141979495000.0,1.78619120378758,9.213666355874691,-1.4351977942002685,0.9819659,-0.0036651916,-0.18020524,142.68561,-98.298836,-2.1392972
3141984388000.0,1.7972839471395885,9.287617720823798,-1.3094803965675057,0.91721416,-0.032986723,-0.14385876,142.7869,-98.426414,-2.0933037
3141990484000.0,1.7559605320976572,9.454224132124583,-1.1766698926577506,0.86254174,-0.07147124,-0.11178834,142.8978,-98.54389,-2.0436635
3141994546000.0,1.717551862875864,9.579925184992373,-1.092869202899201,0.82650065,-0.10293079,-0.0729984,143.01566,-98.64251,-1.9836489
3141999627000.0,1.6074837382121905,9.741032088694444,-0.9098785860594608,0.77579886,-0.15241088,-0.037873644,143.16962,-98.676506,-1.9161534
3142005141000.0,1.4289592021079844,9.919556679626131,-0.636841008650691,0.745561,-0.2284636,-0.014966198,143.33952,-98.703354,-1.8444968
3142009479000.0,1.2443419793769717,10.030977929761436,-0.3617076193868296,0.70707655,-0.3368922,-0.008857546,143.54893,-98.679665,-1.7850393
3142014494000.0,0.993408662933754,10.135138797515772,0.0075904448974764,0.65118235,-0.47342056,-0.01863139,143.78554,-98.642654,-1.7281309
3142019482000.0,0.7425356880243779,10.210383326561706,0.2975327596038598,0.5830709,-0.5684101,-0.03359759,144.07104,-98.52928,-1.71374
3142024507000.0,0.4883539157034027,10.254376193499237,0.5028334348197054,0.49418998,-0.62796944,-0.047036625,144.3792,-98.39856,-1.7023624
3142029453000.0,0.2800639387664921,10.289511337172774,0.5330821797696336,0.41386122,-0.63346726,-0.065973446,144.71928,-98.1972,-1.7332677
3142034427000.0,0.1122870347377439,10.316718951451689,0.3925123374583532,0.33169982,-0.5882632,-0.08246681,145.05302,-97.97959,-1.7610779
3142039963000.0,-0.1716230642819423,10.33553218482684,0.2417435802725381,0.2593123,-0.49510628,-0.100792766,145.37433,-97.746155,-1.8184435
3142044541000.0,-0.5046351119450221,10.33949669391446,0.1228107061367212,0.18600847,-0.3726278,-0.11942416,145.66466,-97.50168,-1.8708292
3142049482000.0,-0.8241176076958174,10.342182441318124,-0.0139367418930291,0.12217305,-0.30787608,-0.13713925,145.9237,-97.29323,-1.9578155
3142054490000.0,-0.9781103832801016,10.338129917786228,-0.1881917390668356,0.069027774,-0.16523905,-0.14538592,146.11774,-97.079636,-2.034073
3142059451000.0,-1.1306579391254754,10.33411542712294,-0.3608113558757921,0.041233405,-0.015577064,-0.14844026,146.24203,-96.93046,-2.174282
3142064644000.0,-1.1780444391880462,10.31027355878207,-0.5697565593120948,-0.025350908,0.09743301,-0.14385876,146.32993,-96.76921,-2.3049688
3142069512000.0,-1.1999502561977258,10.283986084296588,-0.7712898013156658,-0.09712757,0.18020524,-0.14630222,146.37862,-96.612976,-2.4294748
3142075388000.0,-1.091920642497802,10.210337728094167,-1.0258100239523298,-0.16310102,0.23793201,-0.1432479,146.38393,-96.50994,-2.5837166
3142079472000.0,-0.984943280516753,10.149207983637783,-1.205379079652242,-0.24770586,0.22693644,-0.14508049,146.38152,-96.39712,-2.7348025
3142084484000.0,-0.7909999941878518,10.044404987094897,-1.4398513716281778,-0.2706133,0.19883664,-0.1423316,146.34898,-96.335655,-2.8893962
3142089676000.0,-0.5545924405530759,9.918964483698815,-1.6907329325829614,-0.3118467,0.13775012,-0.13836098,146.32658,-96.259865,-3.0410528
3142094507000.0,-0.3320304447510348,9.762186261988894,-1.918519171367996,-0.33017266,0.046731193,-0.13072516,146.31631,-96.216675,-3.175799
3142099428000.0,-0.1036489894584553,9.576626555275112,-2.1469006202019183,-0.3368922,-0.04917465,-0.14080444,146.32245,-96.17677,-3.3123555
3142104417000.0,0.1248751438404598,9.40292971399758,-2.389728138019363,-0.31856623,-0.14813483,-0.12889257,146.35942,-96.15803,-3.4091237
3142109420000.0,0.3519727502060306,9.238646047599838,-2.640985044201291,-0.2947425,-0.24984388,-0.13469578,146.4218,-96.14727,-3.5132642
3142114593000.0,0.5345799569462196,9.104804156621768,-2.8390810920165177,-0.2660318,-0.35155296,-0.12583824,146.50946,-96.15457,-3.5750265
3142119572000.0,0.6799118317864516,8.996977060662669,-2.993789210529938,-0.2443461,-0.453262,-0.124005646,146.62413,-96.16828,-3.6408167
3142124473000.0,0.7816312981648125,8.946023399428965,-3.146199262557842,-0.21533,-0.52320606,-0.115453534,146.75076,-96.19867,-3.670597
3142129423000.0,0.8563072213704834,8.932021873387813,-3.30021833954908,-0.1826487,-0.593761,-0.105374254,146.90524,-96.233215,-3.7003605
3142134420000.0,0.8882477446162331,8.94235095256917,-3.4189420575604377,-0.1600467,-0.6740898,-0.09193522,147.07927,-96.27699,-3.7056234
3142139844000.0,0.8834729593749425,8.975773940711463,-3.514437263811012,-0.1151481,-0.74067414,-0.082161374,147.2682,-96.331,-3.709276
3142145214000.0,0.8365387228055613,9.04500623511102,-3.612338173355468,-0.07513642,-0.81153446,-0.089491755,147.4757,-96.40297,-3.707498
3142149439000.0,0.7651697580307117,9.128969671508612,-3.692103437933181,-0.03756821,-0.8368854,-0.096516706,147.68777,-96.48158,-3.7023592
3142154432000.0,0.6613305969379036,9.251629741579732,-3.765616579453552,-0.014049901,-0.8915578,-0.10445796,147.91672,-96.57964,-3.7038603
3142159415000.0,0.5333153862165921,9.403352066169896,-3.81302968830601,0.011911872,-0.93859446,-0.113926366,148.14853,-96.68651,-3.7072575
3142164492000.0,0.4070530852117474,9.584186773890629,-3.8695404922850303,0.042455133,-0.9776898,-0.12950343,148.37932,-96.821625,-3.7321393
3142169497000.0,0.2879072723826182,9.79600121229976,-3.935732561885472,0.0729984,-0.9969321,-0.14385876,148.61517,-96.96105,-3.7587993
3142174452000.0,0.1615791420105798,10.016616898779247,-4.0043561135605295,0.09162979,-0.999681,-0.16065755,148.84323,-97.12226,-3.8148816
3142179423000.0,0.0114473545350966,10.26845139979654,-4.0818433839267545,0.11178834,-0.9798279,-0.17165314,149.06715,-97.2878,-3.8713963
3142184406000.0,-0.1212366836999414,10.513979152666536,-4.151925349316272,0.11209377,-0.9465357,-0.18906279,149.27383,-97.47345,-3.9556658
3142189556000.0,-0.2127673127681187,10.75003155059582,-4.204916978052354,0.11942416,-0.893085,-0.21227567,149.46564,-97.66242,-4.040975
3142194510000.0,-0.3049242025742394,10.979885967935871,-4.241392424248496,0.11484267,-0.84238315,-0.24404067,149.63379,-97.867905,-4.1588206
3142199435000.0,-0.408037561063946,11.216187270541084,-4.237096126653306,0.12736541,-0.77763146,-0.28344148,149.77892,-98.07733,-4.279926
3142204587000.0,-0.5246356505756317,11.486032093540134,-4.207656354557083,0.1459968,-0.72173727,-0.32742378,149.90079,-98.296715,-4.4220557
3142209423000.0,-0.7319871770674768,11.993302898464982,-3.900331647617525,0.1459968,-0.6835582,-0.35735616,150.00606,-98.511635,-4.565879
3142214681000.0,-0.95743265396866,12.54483926990726,-3.566189110585225,0.15118915,-0.675617,-0.39400807,150.10013,-98.73779,-4.737554
3142219598000.0,-1.1318644239776432,12.965935935351654,-3.2853808499673964,0.13897185,-0.691194,-0.42149702,150.18713,-98.95605,-4.909916
3142224496000.0,-1.2804293645645086,13.31986993237075,-3.027576958323241,0.12705997,-0.7324274,-0.4550946,150.27536,-99.17566,-5.0903883
3142229479000.0,-1.4221562791382785,13.637373758276558,-2.8429431838595143,0.09101892,-0.7770206,-0.4868596,150.39412,-99.325356,-5.3059015
3142234422000.0,-1.5493482877267055,13.891757775453412,-2.7702619683331733,0.05100725,-0.8002335,-0.5180137,150.51385,-99.47347,-5.5240765
3142239468000.0,-1.6556531762621358,14.120885333495146,-2.7333274611165046,0.018936822,-0.7654142,-0.54519725,150.65018,-99.578,-5.7609463
3142244829000.0,-1.7154682474951457,14.295346326601942,-2.778188777553398,-0.00061086525,-0.6789767,-0.5720753,150.77234,-99.682396,-5.9960155
3142249427000.0,-1.748788745044767,14.42863036636822,-2.8135380361325515,0.0021380284,-0.6188065,-0.571159,150.8999,-99.77942,-6.2432766
3142254493000.0,-1.7338100266748997,14.528488488834002,-2.843495577143152,0.0021380284,-0.47708577,-0.57360244,150.97366,-99.87933,-6.482866
3142259388000.0,-1.6870784134940695,14.620494003499902,-2.849331887653121,0.016493361,-0.3200934,-0.5842926,151.02762,-99.993286,-6.7240686
3142264504000.0,-1.5632335124635426,14.706232513319074,-2.801699122457709,0.008552114,-0.15393804,-0.57635134,151.03566,-100.10085,-6.9465528
3142269449000.0,-1.4274234092425484,14.782108856986602,-2.7327077552912225,0.0009162979,-0.03023783,-0.56596667,151.01817,-100.213806,-7.1589074
3142274493000.0,-1.2424970638592654,14.839347751526752,-2.596214522258682,-0.026572637,0.06627888,-0.5497787,150.95988,-100.319115,-7.355794
3142279548000.0,-1.0549102845051197,14.895865577571914,-2.4605939942077035,-0.064751714,0.14660765,-0.5271767,150.89853,-100.397125,-7.5193796
3142284478000.0,-0.847731829897611,14.94190519141882,-2.340890950131643,-0.11056661,0.18845193,-0.50488013,150.82056,-100.46634,-7.6720276
3142289881000.0,-0.6193432631667477,14.987237398736024,-2.205092142644628,-0.1731803,0.19547687,-0.47158796,150.77795,-100.48055,-7.780159
3142294679000.0,-0.4048973086057365,14.982770150510452,-2.0442576312396694,-0.22876903,0.18295415,-0.4361578,150.72932,-100.48541,-7.878145
3142299912000.0,-0.1717027375145711,14.9698230295587,-1.8641112584616983,-0.3042109,0.14019357,-0.38056904,150.73042,-100.42527,-7.9324417
3142304488000.0,0.0198652919275603,14.8147438755204,-1.622370675281016,-0.38087448,0.04337143,-0.30268374,150.75162,-100.3475,-7.971478
3142309679000.0,0.2289754642885104,14.62600862673713,-1.3513082734625173,-0.44501534,-0.05955936,-0.21624629,150.83086,-100.20603,-7.961241
3142314486000.0,0.3325986102906635,14.310634049324722,-1.1350512604286551,-0.52015173,-0.20005837,-0.1133155,150.94968,-100.03541,-7.9284906
3142319874000.0,0.4436012944594973,13.95350152312436,-0.8920693212744091,-0.5858198,-0.3640757,-0.019242255,151.15704,-99.803734,-7.8564177
3142324502000.0,0.4808705961879846,13.605654764645427,-0.6767356634737924,-0.6478226,-0.50335294,0.09407325,151.39735,-99.54157,-7.7530856
3142330161000.0,0.5264425448659255,13.180316647482014,-0.4134311756834532,-0.7315111,-0.65393126,0.20433442,151.71828,-99.2298,-7.6209435
3142334433000.0,0.5597615163271213,12.89870595938122,-0.2466170623341776,-0.79779,-0.79626286,0.31520647,152.07405,-98.8951,-7.4593024
3142339550000.0,0.5996602475628732,12.561783403835715,-0.0471233626419395,-0.8707884,-0.9407325,0.42821655,152.5027,-98.51889,-7.270444
3142344461000.0,0.6362229854343913,12.24008293368072,0.1386037467262908,-0.93279123,-1.0216721,0.54000485,152.94846,-98.12048,-7.050875
3142349536000.0,0.6730603501430602,11.90854671861677,0.3273952209044055,-0.9560041,-1.16492,0.59986967,153.44643,-97.71557,-6.817118
3142354467000.0,0.7332440997642268,11.610051938591791,0.474641556444111,-1.0115929,-1.2956452,0.70524395,153.97035,-97.2575,-6.5362806
3142359472000.0,0.8154336447754796,11.327525025613546,0.5927890307501875,-1.033584,-1.4016303,0.8179486,154.51968,-96.79952,-6.2367144
3142364516000.0,0.8813614153747363,11.141542098339604,0.5934668177258967,-1.0500773,-1.4785993,0.93309665,155.10347,-96.313324,-5.9032173
3142369535000.0,0.9386825759563344,11.00485319466104,0.5361456617484635,-1.0650436,-1.5149459,1.0396926,155.69637,-95.81712,-5.5394287
3142374486000.0,0.9798859639241868,10.881147916971786,0.4141200463030368,-1.0555751,-1.4932601,1.1407908,156.29675,-95.301506,-5.137334
3142379487000.0,1.005674019491708,10.767680795606289,0.2232883112362696,-1.0519099,-1.4306464,1.2202033,156.8855,-94.7874,-4.7108836
3142384469000.0,0.9621691867682518,10.589809364367047,-0.0410029148409243,-1.0546589,-1.3179418,1.2773192,157.44661,-94.279274,-4.2591734
3142389550000.0,0.8766153649212993,10.369813635298058,-0.354700277211152,-1.0516045,-1.1609493,1.31672,157.9681,-86.20826,-3.7917354
3142394499000.0,0.8043585451736502,10.197997203975005,-0.6059427638930438,-1.0543534,-0.9950995,1.359786,158.43993,-86.66512,-3.311938
3142400567000.0,0.7567305825386743,10.14441560147526,-0.7131056331974183,-1.0519099,-0.8151997,1.4001031,158.8566,-87.07378,-2.826177
3142404465000.0,0.7321159819634263,10.113412807266602,-0.7698130089220404,-1.061073,-0.64751714,1.4575244,159.19862,-87.407715,-2.3571446
3142409532000.0,0.7134343089701636,10.08071992829644,-0.8165172401732435,-1.0571023,-0.49296826,1.5066991,159.4906,-87.662025,-1.8853722
3142414494000.0,0.7307582269467042,10.081310305661631,-0.8831316864021251,-1.0436633,-0.36346483,1.5610662,159.72337,-87.821465,-1.4068426
3142419501000.0,0.8780427938817865,10.200730539349165,-1.026435592736178,-1.0186177,-0.25900686,1.6111571,159.91896,-87.859955,-0.92387414
3142424452000.0,1.0236800798605346,10.318815136310809,-1.1681367391831312,-0.9795224,-0.15851954,1.6780468,160.07564,-87.77932,-0.43503597
3142429510000.0,1.516262106436629,10.644147531519575,-1.1897546619110817,-0.9221011,-0.03756821,1.8005253,160.19707,-87.59369,0.07408452
3142434419000.0,2.07779214135937,11.009587191487345,-1.1808414926628117,-0.8426886,0.034208454,1.9898936,160.30444,-87.32043,0.6115603
3142439596000.0,2.826850151356339,11.482846985421665,-0.9563234566266838,-0.7657196,0.020463986,2.2379048,160.40303,-86.96536,1.2211474
3142444506000.0,3.603465730245433,11.968773892600112,-0.6526189991991141,-0.6966918,-0.030848695,2.5231788,160.49252,-86.52331,1.8833487
3142449654000.0,4.346922311059308,12.433693289385232,-0.0855443556543423,-0.6713409,-0.23671028,2.6746736,160.68803,-85.93443,2.6682913
3142454485000.0,4.989011867223246,12.834999425674942,0.6418225593559581,-0.6719518,-0.59498274,2.9547553,160.94,-85.22034,3.5575297
3142459478000.0,4.936804927871416,12.782898452823632,1.008518466342311,-0.70616025,-1.056186,3.143207,161.39023,-84.31772,4.585079
3142464501000.0,4.548125406072979,12.511240997046048,1.1965891872111207,-0.7641924,-1.5216653,3.1407638,161.94376,-83.37431,5.619605
3142469441000.0,3.918365866206599,12.231363561785638,1.154776669721803,-0.79229224,-1.8555032,2.9410107,162.64018,-82.30225,6.7370796
3142474492000.0,2.854318088721156,11.923624006901012,0.727071126461074,-0.7672467,-1.9804251,2.6465738,163.40286,-81.26997,7.8026915
3142479478000.0,1.8949993911350704,11.759433197963462,0.28375247890586,-0.7162395,-1.8054122,2.366492,164.1172,-80.347244,8.730635
3142484482000.0,1.014724725043426,11.72116061575322,-0.1803053429090546,-0.6444628,-1.3753631,2.1615467,164.78763,-79.50415,9.574365
3142489511000.0,0.258255608460224,11.64773922498576,-0.4837060113005506,-0.6047566,-0.79351395,2.0399845,165.25908,-78.88198,10.190353
3142494538000.0,-0.3815739937212834,11.542624626352763,-0.6390931964476932,-0.6310238,-0.22327125,1.9737056,165.6076,-78.31035,10.743972
3142499669000.0,-0.9526731241503976,11.301502058878215,-0.6741810691354199,-0.73945236,0.22907446,1.9376645,165.73094,-77.916756,11.107867
3142504481000.0,-1.390612443890094,10.91592471521537,-0.5599360324449953,-0.890947,0.5332854,1.9104811,165.73442,-77.538895,11.437908
3142509470000.0,-1.676462311220246,10.51728291921069,-0.4032004268746129,-1.0354166,0.6750061,1.8594738,165.57559,-77.27085,11.635431
3142514710000.0,-1.7830351292009556,10.09987270772498,-0.1944953591531723,-1.1407908,0.6826419,1.8026633,165.37335,-77.006065,11.812443
3142519488000.0,-1.8318585448461064,9.74588546818839,-0.0337779754887419,-1.2165382,0.6017023,1.733941,165.10724,-76.7936,11.907398
3142524453000.0,-1.7139931780830406,9.470866415823176,0.030065753388556,-1.2525792,0.5006041,1.6899587,164.85155,-76.58705,11.987651
3142529391000.0,-1.5915578374780543,9.239063820613444,0.0414187246483527,-1.2718215,0.41263947,1.6542231,164.5945,-76.377335,12.046974
3142534423000.0,-1.4522070870907775,9.119619949086026,-0.0929552587336569,-1.2641857,0.36926803,1.6236799,164.36023,-76.18083,12.091806
3142539558000.0,-1.3091350747081711,9.045418472715191,-0.2507465644898928,-1.2290609,0.36651915,1.5974126,164.14136,-75.959274,12.16347
3142544461000.0,-1.1709925727626458,9.0587873721173,-0.4379073917395844,-1.1914927,0.37720928,1.5900823,163.9363,-75.74777,12.2278595
3142549436000.0,-1.0178930656777956,9.090151037912308,-0.6205114236946903,-1.1756102,0.40683624,1.591304,163.72957,-75.521324,12.316731
3142554478000.0,-0.8188044934533387,9.182411423873692,-0.780753434358407,-1.1218541,0.4831944,1.6190983,163.5102,-75.30837,12.403763
3142559438000.0,-0.6314936199620713,9.273007390089049,-0.9191871179271108,-1.0897835,0.5757405,1.6441438,163.28235,-75.08163,12.519715
3142564571000.0,-0.4653105864610818,9.366232201352243,-1.000252009633905,-1.0509937,0.6597345,1.6985108,163.03787,-74.85862,12.643225
3142570291000.0,-0.2801231811180739,9.470118022592349,-1.0905873263225594,-1.0213667,0.7330383,1.7864754,162.76804,-74.603424,12.815414
3142574477000.0,0.1156154390873724,9.674343868993796,-1.0503514760592998,-0.9630291,0.79290307,1.813659,162.48465,-74.36983,12.975619
3142579421000.0,0.5885451561223847,9.91827576595521,-1.0005693830722322,-0.94959,0.82253003,1.8936822,162.18954,-74.109955,13.1660795
3142584453000.0,0.7870867280624789,9.94810693482654,-0.9074064549174806,-0.91538155,0.8197812,1.9679024,161.89162,-73.8361,13.39473
3142589511000.0,0.9583951189735602,9.9562646421354,-0.8095159263556753,-0.89827734,0.78893244,2.0415115,161.59729,-73.55294,13.636809
3142594476000.0,1.1184885985623472,9.91650652625917,-0.6896049885476773,-0.88208944,0.74189585,2.0845776,161.31718,-73.19336,13.969742
3142599493000.0,1.2735542308264058,9.836624110415649,-0.5486362921613692,-0.895223,0.68019843,2.1389446,161.05388,-72.82241,14.317853
3142604476000.0,1.3958816259067357,9.693316274611398,-0.4105125582901554,-0.9062186,0.61911196,2.1609359,160.80743,-72.41423,14.706323
3142609483000.0,1.4871493299143492,9.485429150153326,-0.2736108963889182,-0.91782504,0.56779927,2.1587977,160.58212,-72.008194,15.093673
3142614470000.0,1.561236988415673,9.25307755536627,-0.1624794144997161,-0.9401216,0.5345071,2.1398609,160.37024,-71.56273,15.51188
3142619468000.0,1.6246582310051108,9.003922572402045,-0.0673476281919364,-0.9599747,0.50976706,2.115121,160.17839,-71.12997,15.917467
3142624486000.0,1.6522912734466475,8.758548062322946,0.0348020614394712,-0.9984592,0.49754974,2.083356,159.97902,-70.66563,16.334293
3142629486000.0,1.643247977884797,8.518902169971671,0.143321119040982,-1.0256428,0.49388456,2.0405953,159.79347,-70.22146,16.729702
3142634423000.0,1.6147492479241876,8.27859120788207,0.2635004799037304,-1.047023,0.4877759,1.9862283,159.60387,-69.74889,17.143597
3142639501000.0,1.5513513956377858,8.02499928951063,0.4098032002807862,-1.0436633,0.462425,1.9532416,159.4295,-69.29411,17.540974
3142644538000.0,1.4538074471049278,7.794267009797198,0.5573219241902616,-1.0363328,0.41905355,1.88849,159.24182,-68.83539,17.925097
3142649500000.0,1.30482703097874,7.598730082982267,0.7063023937915156,-1.0219775,0.33475417,1.8209893,159.08337,-68.39957,18.29218
3142654451000.0,1.1374918655878878,7.40591221415226,0.852881844449694,-0.9776898,0.22174409,1.7708983,158.91301,-67.96311,18.650896
3142659482000.0,0.930551358496725,7.214492577053581,0.9977402004939332,-0.9049969,0.110872045,1.733941,158.77748,-67.55792,18.98999
3142664469000.0,0.774227219436426,7.028033656219932,1.0995359393127149,-0.8179486,-0.0061086523,1.704925,158.64119,-67.16988,19.31361
3142669465000.0,0.6708785850603829,6.844824572547864,1.1559079386450664,-0.7110472,-0.106595986,1.6841555,158.54085,-66.81288,19.626785
3142674496000.0,0.6256472758787276,6.6699260722167,1.1641827697713718,-0.59650993,-0.16768251,1.6639969,158.41753,-66.48526,19.90716
3142679487000.0,0.6541549450894633,6.508382633200796,1.1119187145129223,-0.47983465,-0.21533,1.6380352,158.32709,-66.1891,20.17829
3142684437000.0,0.7056898082524272,6.363490588834952,1.0449040342330096,-0.36346483,-0.22815818,1.6084082,158.21301,-65.9089,20.441454
3142689506000.0,0.7905254288834952,6.23623728092233,0.955355306615534,-0.258396,-0.20647246,1.5735888,158.10953,-65.65959,20.689455
3142694474000.0,0.876981932651557,6.159516695872489,0.8985901981610466,-0.16126843,-0.1572978,1.5402967,157.98293,-65.40788,20.951588
3142699495000.0,0.9700156873042196,6.163946962778699,0.8941600237737239,-0.058643065,-0.12583824,1.509448,157.86165,-65.18737,21.19658
3142704486000.0,1.068485330258471,6.179770637592474,0.8730621082418486,0.020463986,-0.10903945,1.4785993,157.7269,-64.95898,21.458496
3142709482000.0,1.1908417461503331,6.240948708649191,0.785664660496849,0.087659165,-0.093462385,1.4581354,157.58858,-64.75538,21.70425
3142714904000.0,1.3226701487620536,6.304299470419599,0.6916141768100078,0.15118915,-0.073303826,1.4300356,157.43143,-64.54426,21.964787
3142719539000.0,1.4267870021631484,6.331292678003648,0.6183467253635653,0.20463985,-0.051923547,1.4013249,157.27466,-64.35288,22.209343
3142725524000.0,1.561229152671358,6.366147984884024,0.5237392395152463,0.23640485,-0.05131268,1.3735305,157.10626,-64.14934,22.47399
3142729477000.0,1.7077575490369037,6.426488987056706,0.4439948802124212,0.2660318,-0.03940081,1.3405437,156.93423,-63.96784,22.717434
3142734422000.0,1.8995738319801985,6.507478027920792,0.3416928715445544,0.27916542,-0.042760566,1.3069462,156.77219,-63.80163,22.94474
3142739519000.0,2.0432085166020446,6.540121731723652,0.2852214063447303,0.28344148,-0.025350908,1.2925909,156.59709,-63.61317,23.203964
3142744539000.0,2.1279381362707084,6.5189393489249206,0.2809849297849841,0.28344148,-0.022602014,1.2345587,156.4361,-63.451626,23.432972
3142749416000.0,2.20477971661938,6.482458279397643,0.2745389618387167,0.24495697,-0.004886922,1.1707232,156.26814,-63.26071,23.688536
3142754484000.0,2.2630388763312963,6.381828726189437,0.2586500684253601,0.21013765,0.005497787,1.1117748,156.10823,-63.090397,23.919497
3142759472000.0,2.3112701027071303,6.289314187470744,0.2532758271438602,0.15424347,0.018325957,1.026559,155.94385,-62.90897,24.152431
3142764724000.0,2.3465858897253864,6.202986844671556,0.2650477274684038,0.11209377,0.05681047,0.929126,155.77654,-62.74996,24.3539
3142770868000.0,2.3859432310910123,6.101214297314868,0.2830003280346712,0.053450707,0.09987647,0.7877107,155.6022,-62.591152,24.541197
3142774522000.0,2.395834024533635,6.0352757087902775,0.3225635293461466,-0.0070249503,0.1133155,0.73853606,155.42929,-62.43473,24.71873
3142779474000.0,2.409238296325608,5.945913943499153,0.3761806538383267,-0.03390302,0.14966199,0.63621616,155.23509,-62.295616,24.868029
3142784481000.0,2.441544786084607,5.873363594038673,0.4180195745723212,-0.06627888,0.19608775,0.54061574,155.04117,-62.16558,24.99761
3142789677000.0,2.4835620121590813,5.806136049869121,0.4558351482377776,-0.08674286,0.24037547,0.453262,154.8478,-62.06352,25.0935
3142794446000.0,2.5045873822385865,5.716854645655376,0.4909361806921944,-0.08735373,0.258396,0.35643986,154.64087,-61.9601,25.186115
3142799508000.0,2.490308267992145,5.564543364752087,0.5290139760677467,-0.08735373,0.2556471,0.2733622,154.43733,-61.878223,25.252562
3142804395000.0,2.525620963808025,5.421305387922895,0.5593314880094414,-0.059253927,0.24953845,0.21166481,154.23123,-61.795715,25.319738
3142809482000.0,2.69331385877262,5.282359796351298,0.5737051847324941,-0.03573562,0.23762658,0.17898351,154.03683,-61.730633,25.369335
3142814580000.0,2.8343464513965952,5.146023891357096,0.5979465501232014,0.014660766,0.21624629,0.14844026,153.84152,-61.661396,25.430763
3142819545000.0,2.901423820859588,5.020812923097903,0.6471365463519233,0.06566802,0.183565,0.10170906,153.66173,-61.61147,25.477022
3142824487000.0,2.985832505027077,4.907711909727189,0.6921251417492592,0.13347405,0.15515977,0.06078109,153.50125,-61.52384,25.573202
3142829487000.0,3.1864298280065397,4.868570957443548,0.711695592346991,0.19761491,0.1151481,0.049480084,153.35928,-61.45016,25.663519
3142834425000.0,3.3878382859273795,4.835522483788028,0.7324274028635918,0.258396,0.09468412,0.038789943,153.22176,-61.35869,25.776165
3142839577000.0,3.61541102437684,4.830680513856722,0.7614792578429833,0.29138273,0.02321288,0.01863139,153.11656,-61.28061,25.884315
3142844488000.0,3.83783276229572,4.829270730651751,0.7833781473453307,0.36193767,-0.05100725,0.003970624,153.032,-61.168076,26.04413
3142849491000.0,4.098836157587549,4.847913865077821,0.769395798959144,0.43493605,-0.10995574,-0.018325957,152.96817,-61.070766,26.193798
3142854484000.0,4.373470462049862,4.87226028199446,0.7482907944598337,0.5012149,-0.15577064,-0.031154128,152.93149,-60.932693,26.39507
3142859477000.0,4.809296943972835,4.961989100848896,0.6457434263157894,0.5671884,-0.18509217,-0.04795292,152.90953,-60.81389,26.584135
3142864515000.0,5.249051363345545,5.052526611241176,0.5422718379501384,0.6197228,-0.20005837,-0.08246681,152.92644,-60.663837,26.816051
3142869556000.0,5.505681652261712,5.165550067972537,0.5142969719103393,0.6719518,-0.20433442,-0.12034045,152.9484,-60.530407,27.034634
3142874445000.0,5.723145892669629,5.27900986697294,0.5001145032057754,0.7122689,-0.20372356,-0.18112154,152.97498,-60.420147,27.229353
3142879486000.0,5.827881269246603,5.461656315953067,0.5489730035096748,0.745561,-0.19364429,-0.2519819,153.05754,-60.266068,27.479156
3142884443000.0,5.910942957101688,5.652209854950597,0.6076048290891313,0.7684685,-0.19883664,-0.32620203,153.14449,-60.13536,27.703259
3142889571000.0,5.9763604594315245,5.865418354303319,0.6574494059252634,0.77763146,-0.24709499,-0.40042216,153.25432,-59.997864,27.936985
3142894417000.0,6.036320631007752,6.068360377161598,0.7035726437268933,0.7828238,-0.33322698,-0.462425,153.37674,-59.88199,28.147175
3142899494000.0,6.055361460938985,6.268532354685421,0.6673619938224672,0.79290307,-0.40653083,-0.54153204,153.50307,-59.794304,28.324976
3142904402000.0,6.068762745143509,6.460618236799088,0.6226908630032313,0.80756384,-0.47861293,-0.6151413,153.65398,-59.72526,28.483814
3142909420000.0,6.082864614696895,6.722314927915229,0.5384534875938887,0.8151997,-0.54458636,-0.68294734,153.81569,-59.683006,28.61512
3142914667000.0,6.097723994568753,7.014549450448497,0.4393908827067521,0.8060367,-0.6087272,-0.75777835,153.99747,-59.663822,28.720806
3142919487000.0,6.1004257,7.282736982724377,0.2306059893123478,0.8035932,-0.63255095,-0.8344419,154.17673,-59.68497,28.788795
3142924464000.0,6.1004257,7.559592562656924,-0.014991466117669,0.8035932,-0.605062,-0.9092729,154.35472,-59.760887,28.803492
3142929418000.0,5.996424106859852,7.85053926809273,-0.259771642166491,0.8213083,-0.58001655,-0.99204516,154.53656,-59.85962,28.791775
3142934519000.0,5.82655150788198,8.15939831418335,-0.5120069651928346,0.8240572,-0.5006041,-1.0323622,154.68484,-59.963955,28.764269
3142939618000.0,5.541917085944954,8.48189529027523,-0.5847114987633028,0.870483,-0.3811799,-1.1279627,154.81352,-60.15514,28.661947
3142944495000.0,5.233399676697248,8.794698016513761,-0.5975663937981652,0.91721416,-0.24953845,-1.248914,154.90643,-60.36059,28.536127
3142949425000.0,4.875740041318728,9.194122051946644,-0.500892652840256,0.93279123,-0.100792766,-1.3588698,154.9421,-60.65786,28.321817
3142954425000.0,4.475884277301811,9.666678716082854,-0.3139470558334237,0.9221011,0.03481932,-1.4712689,154.93594,-60.983974,28.070059
3142959420000.0,4.1453970876703,10.15624572377384,-0.2270528369243869,0.8698721,0.16310102,-1.5613716,154.82637,-61.41383,27.705282
3142965532000.0,3.776572652792916,10.764307494891009,-0.1722275828099455,0.79901177,0.28496864,-1.6426166,154.67274,-61.861137,27.312954
3142969448000.0,3.5040189091934453,11.209542679080656,-0.1550611194466908,0.7538077,0.38789943,-1.7290541,154.39822,-62.402534,26.81373
3142974665000.0,3.0840344773036814,11.890023667269633,-0.1603773801159821,0.7254025,0.45234573,-1.8197676,154.0992,-62.952705,26.298372
3142979414000.0,2.747139295772788,12.463334188903566,-0.0476816224042272,0.7296785,0.4801401,-1.897042,153.74687,-63.623314,25.662226
3142984421000.0,2.4401665924906006,13.018808967787828,0.1959474378924905,0.7498371,0.46731192,-1.9410243,153.39012,-64.29249,25.025852
3142989748000.0,2.286175561603996,13.517825920975325,0.3884261629905993,0.7629707,0.41080686,-1.9511036,153.00331,-65.07192,24.285688
3142994466000.0,2.2817510736878184,13.889486694379162,0.5078886673031727,0.7809912,0.31642818,-1.9260582,152.63426,-65.83272,23.5668
3142999428000.0,2.527287354680048,14.258706653914944,0.5081778680643879,0.8032878,0.2312125,-1.8628336,152.25368,-66.6427,22.79802
3143004487000.0,3.066466214725755,14.610135739069952,0.3637549797694753,0.86070913,0.17287487,-1.7379116,151.89478,-67.40454,22.081844
3143009472000.0,3.588766788282596,14.80039616255026,0.2048176954796094,0.9560041,0.13622294,-1.5943583,151.5599,-68.14726,21.387827
3143014783000.0,4.134103786578595,14.810134521156424,0.0149235361784414,1.0659598,0.11728613,-1.4932601,151.23836,-68.84433,20.742527
3143019447000.0,4.533338020939548,14.792909065914056,-0.1534242110233066,1.169807,0.1337795,-1.416902,150.94489,-69.44122,20.202148
3143024504000.0,4.8331589599326295,14.731181346048798,-0.3386077803723598,1.2565498,0.20341812,-1.3710871,150.63951,-70.000984,19.69866
3143029425000.0,5.104179547914033,14.667846341129373,-0.4708314200695322,1.3029755,0.22937989,-1.3570372,150.37987,-70.469376,19.286652
3143034451000.0,5.276590409860935,14.586711811630847,-0.3643424096713021,1.319469,0.24617869,-1.3298537,150.09909,-70.90667,18.901047
3143039735000.0,5.40275943953637,14.46319742411244,-0.231128192143835,1.3151928,0.21105394,-1.3197744,149.8585,-71.295586,18.561495
3143044610000.0,5.407020448480424,14.271455580998447,-0.0649521980304828,1.2559389,0.14446963,-1.3231341,149.61945,-71.664825,18.232958
3143050766000.0,5.365427888502895,13.957623685966364,0.1255969028232699,1.1609493,0.034208454,-1.351234,149.42651,-72.002014,17.927124
3143054503000.0,5.266755221450234,13.655028001562355,0.2111130974983917,0.97097033,0.0012217305,-1.3643675,149.22742,-72.32115,17.630167
3143059388000.0,5.13777048006617,13.259475441135924,0.3228997207223601,0.89919364,-0.027794369,-1.3845261,149.07358,-72.62469,17.344236
3143064597000.0,4.908237993884485,12.764173209890524,0.3478560884560212,0.7629707,-0.03481932,-1.3891076,148.9209,-72.91449,17.064737
3143069431000.0,4.685417282163081,12.296686723291808,0.3609631902189505,0.60903263,-0.008552114,-1.3811663,148.7649,-73.19756,16.78884
3143074499000.0,4.326668381748339,11.744336870639534,0.2650385274979236,0.4877759,0.032986723,-1.3805555,148.62154,-73.48069,16.509632
3143079393000.0,3.9471238960963455,11.194483877906976,0.1433896163704319,0.3726278,0.11209377,-1.3735305,148.45863,-73.751724,16.240496
3143084503000.0,3.5387920945485045,10.705354708414871,-0.0463151218255521,0.3005457,0.20250183,-1.3778065,148.29424,-74.03388,15.9594555
3143089552000.0,3.133256988565837,10.236736367906069,-0.2445767140341068,0.25320363,0.30757064,-1.3866642,148.10295,-74.30821,15.685294
3143094474000.0,2.725544391965012,9.58508808340114,-0.5976075572457282,0.2321288,0.4089743,-1.3997977,147.88681,-74.615524,15.378129
3143099431000.0,2.310307260954028,8.856008772375915,-1.0128447285903173,0.23243423,0.52687126,-1.4165965,147.63675,-74.919495,15.073892
3143104498000.0,1.6945028376169176,8.53076341154941,-1.223591886905246,0.25381452,0.61850107,-1.428203,147.36966,-75.27231,14.721776
3143109392000.0,1.0369278616510778,8.354457011793412,-1.3570128950793006,0.3005457,0.68875057,-1.4584408,147.07626,-75.62843,14.366407
3143114606000.0,0.6826770966486695,8.252776911878135,-1.4934463455842653,0.34513888,0.7480045,-1.491122,146.75331,-76.02976,13.967298
3143119464000.0,0.4449429417200155,8.18100806478982,-1.619041757732356,0.38240165,0.77763146,-1.5280794,146.41933,-76.43379,13.565052
3143124487000.0,0.195557804599182,8.21526261216769,-1.7928575499182002,0.43218717,0.79320854,-1.5543466,146.03984,-76.92699,13.072995
3143129419000.0,-0.0507482623210633,8.292535150817997,-1.98120921789366,0.47250426,0.8054258,-1.5714508,145.65234,-102.58161,12.580771
3143134413000.0,-0.2386058883148433,8.370195794396308,-2.1395853588306744,0.49205196,0.7987063,-1.6016886,145.25478,-102.04844,12.043505
3143139664000.0,-0.4137112476734957,8.451640509514942,-2.294329679731152,0.5403103,0.8011498,-1.6255124,144.8494,-101.52558,11.5116825
3143144451000.0,-0.5726585700868446,8.551574522032809,-2.464538497008684,0.58001655,0.8213083,-1.6621643,144.43112,-100.958015,10.926837
3143149428000.0,-0.7361881584432293,8.720214086522999,-2.714943175844323,0.61269784,0.8359691,-1.6664404,144.01082,-100.4125,10.354212
3143154408000.0,-0.8697543962735381,8.895308163528247,-2.9462339293359765,0.66431594,0.8762862,-1.6701056,143.56294,-99.83812,9.735555
3143159414000.0,-0.9600307348067392,9.080612025768088,-3.150543474925669,0.6789767,0.9288206,-1.6673567,143.10359,-99.29177,9.128811
3143164829000.0,-1.042814350419297,9.281010109488363,-3.298683336690851,0.7113526,0.97585726,-1.6542231,142.61787,-98.75418,8.497199
3143169542000.0,-1.098101397484217,9.45537734306982,-3.345464779854895,0.7360926,1.0326678,-1.6267341,142.11064,-98.26362,7.883319
3143174422000.0,-1.1261061369920844,9.63916603746702,-3.352191759419525,0.76144356,1.0564915,-1.611768,141.59238,-97.798065,7.24549
3143179484000.0,-1.0749422725065962,9.83870500211082,-3.244747537150396,0.782213,1.0485502,-1.5830573,141.06401,-97.40478,6.632771
3143184385000.0,-0.9755445492237356,10.026540050671493,-3.157835080283837,0.7852673,1.0140363,-1.5375478,140.54028,-97.077446,6.023589
3143189752000.0,-0.7748256503095533,10.222363728259834,-3.094192448966568,0.77488256,0.9630291,-1.4740179,140.02176,-96.83644,5.4407487
3143194411000.0,-0.5641429434224665,10.365381585877088,-3.044446161864061,0.7486154,0.9282097,-1.3744467,139.52391,-96.67118,4.894248
3143199484000.0,-0.2378825152704518,10.44941798850224,-3.004899473707773,0.7257079,0.9104946,-1.2528846,139.03613,-96.59199,4.384283
3143204391000.0,0.0470570027677782,10.462032908705066,-2.969642107830229,0.66553766,0.92271197,-1.1249083,138.579,-96.57251,3.9325352
3143209421000.0,0.268198704190039,10.315995605110436,-2.9404347342485924,0.6056729,0.9370673,-1.0189233,138.12852,-96.61391,3.5194035
3143214702000.0,0.4998592211510432,10.155485291803933,-2.9045880756813416,0.5448918,0.95722586,-0.95294976,137.70512,-96.69568,3.179033
3143219484000.0,0.7010209279315165,9.890317973445145,-2.785719786373165,0.49388456,0.9850202,-0.9138544,137.27887,-96.80243,2.868924
3143224792000.0,0.9220551304524376,9.601833971142945,-2.6511153730186536,0.44440445,0.9773844,-0.8961393,136.88536,-96.91016,2.600266
3143229424000.0,1.0866384207008142,9.423535148923014,-2.5002474142430176,0.4016439,0.95233893,-0.8943067,136.49141,-97.024315,2.343348
3143234565000.0,1.2625813906092356,9.238533504850604,-2.3287361615444317,0.3924809,0.9086621,-0.8918633,136.13689,-97.13804,2.1222014
3143239704000.0,1.361890282273962,9.200337792627083,-2.111020402452464,0.37507126,0.8246681,-0.8903361,135.80273,-97.248184,1.90287
3143244444000.0,1.4534886762204111,9.165107655258051,-1.910208435514164,0.3643811,0.68661255,-0.8915578,135.52185,-97.338776,1.7046672
3143249438000.0,1.5083665077405202,9.20114121513632,-1.5840836885145724,0.3839288,0.46883908,-0.8897252,135.28894,-97.44073,1.5052772
3143254428000.0,1.5183504692990704,9.31595734644312,-1.1348050795623106,0.4007276,0.16768251,-0.88422745,135.11981,-97.54596,1.3020688
3143259596000.0,1.4970963656789902,9.46858081053621,-0.695176201334706,0.42363504,-0.21410827,-0.8924741,135.0654,-97.62037,1.1109315
3143264836000.0,1.4521743536836451,9.64826881161042,-0.2684163462456361,0.45631635,-0.64873886,-0.88056225,135.11125,-97.707924,0.9180354
3143269440000.0,1.4064079962130176,9.821066072189348,0.0431466307455621,0.4914411,-1.0906999,-0.890947,135.29666,-97.72977,0.71817565
3143274458000.0,1.3443663511780526,10.038211856804734,0.26029235057773,0.5662721,-1.4746287,-0.90316427,135.58464,-97.776184,0.5136644
3143279423000.0,1.2852178067024127,10.211725825737265,0.2618088391420912,0.655153,-1.754405,-0.9388999,135.99298,-97.74933,0.29359013
3143284419000.0,1.2282076971601628,10.339998659020951,0.0242667540820176,0.752586,-1.9144517,-0.95356065,136.46861,-97.75,0.07613101
3143289682000.0,1.2088998226884229,10.468983613442113,-0.2823288386013985,0.8546005,-1.9660698,-0.9841039,136.99998,-97.745605,-0.15514109
3143294670000.0,1.2320977045843045,10.584973022921522,-0.6302972995804196,0.9425651,-1.922393,-1.0198395,137.53851,-97.76748,-0.38311845
3143299444000.0,1.3317653834522971,10.659051269226904,-1.0704476213571932,1.0091494,-1.8206838,-1.0665708,138.05113,-97.847855,-0.6367268
3143304422000.0,1.5474384970946014,10.683014931838745,-1.683917804600382,1.0711522,-1.6719382,-1.1004738,138.52614,-97.95282,-0.8824251
3143309395000.0,1.728318468539748,10.635885249859047,-2.112650574704003,1.1267409,-1.4563028,-1.1392636,138.92348,-98.1298,-1.1404094
3143314627000.0,1.86485950939673,10.475802863841384,-2.277441564066905,1.1511755,-1.1838568,-1.1704178,139.25124,-98.31426,-1.3881137
