timestamp,acc_x,acc_y,acc_z,gyro_x,gyro_y,gyro_z,ori_azimuth,ori_pitch,ori_roll
7256939996000.0,2.508937099006717,9.801810595024117,1.438238731170182,-4.8704286,7.4088793,1.5900823,289.2832,-84.94075,0.045147557
7256944992000.0,2.472728032504021,9.79275862378204,1.306980941897644,-4.8704286,0.76144356,0.03268129,291.05,-84.83975,-0.2643924
7256949996000.0,2.4364609851102075,9.783692157790176,1.1755129720177842,-1.180497,0.7663304,0.034208454,288.95074,-84.579384,0.082090355
7256954970000.0,2.4004113660580835,9.774680047110014,1.0448331794153811,-1.1859949,0.7556403,0.03604105,288.79117,-83.27819,0.1262459
7256959981000.0,2.364093585384543,9.765600898212083,0.9131813015041148,-1.1808025,0.729984,0.03268129,288.63565,-83.04164,0.17119552
7256965213000.0,2.326174082593889,9.756121331851288,0.7757231843155801,-1.1640037,0.73914695,0.034513887,288.47418,-82.811356,0.21675827
7256970047000.0,2.291139129136317,9.7473628792924,0.6487215523413108,-1.1554517,0.7483099,0.026572637,288.32147,-82.58483,0.25887698
7256974989000.0,2.2553214336486618,9.738408747611388,0.5188824821681959,-1.1725558,0.7831292,0.03390302,288.15927,-82.36,0.3043171
7256979967000.0,2.2192428241509794,9.729389389556331,0.388097599262132,-1.2153164,0.78984874,0.043982297,288.0036,-82.13459,0.34876353
7256984964000.0,2.183026510036893,9.720335606470533,0.2568135374136787,-1.2360858,0.71593404,0.029626964,287.8626,-81.915085,0.3899778
7256989949000.0,2.146897167259484,9.71130356550941,0.1258447464762083,-1.128879,0.77366084,0.06047566,287.68115,-81.723564,0.44116625
7256994937000.0,2.1107460816479047,9.70226608901712,-0.0052028621890077,-1.2431108,0.7632761,0.05497787,287.5428,-81.4681,0.48316464
7257000574000.0,2.0698912962444425,9.692052725948349,-0.1533013726232145,-1.2400564,0.7602218,0.063224554,287.38507,-81.2798,0.53490204
7257004964000.0,2.038074282243875,9.684098732002647,-0.2686379808911173,-1.2403619,0.7519751,0.063224554,287.23315,-81.06248,0.5828949
7257009959000.0,2.0018724633525684,9.675048572604297,-0.3998694975877401,-1.2443326,0.73884153,0.07666359,287.08328,-80.84878,0.63687694
7257014982000.0,1.965467711342352,9.665947681581686,-0.5318366464099896,-1.2507466,0.7296785,0.0852157,286.9356,-80.638535,0.68916905
7257019949000.0,1.929468825569956,9.656948253807586,-0.6623325309809858,-1.2586879,0.7113526,0.099265605,286.79404,-80.4304,0.74724036
7257025170000.0,1.891629046504588,9.647488617727744,-0.7995016498344527,-1.278541,0.6582073,0.10323623,286.6656,-80.2211,0.80628604
7257029968000.0,1.8744849844354603,9.64641390095293,-0.883165213600924,-1.2153164,0.5891795,0.103847094,286.51303,-80.04674,0.870582
7257034964000.0,1.869879565935124,9.651018934738666,-0.938430283694292,-1.1151345,0.5183192,0.1020145,286.37646,-79.88115,0.9372289
7257039943000.0,1.8690701889325017,9.65979268879232,-0.9736290557300064,-0.99173975,0.44104472,0.0888809,286.24786,-79.78866,1.000933
7257044944000.0,1.872427136910353,9.673220761127077,-0.9870568476414104,-0.8530733,0.38056904,0.08277224,286.13446,-79.731224,1.068387
7257049984000.0,1.8758102638466392,9.686753551482443,-1.0005893553865564,-0.72082096,0.30451632,0.062002823,286.03168,-79.737946,1.1311631
7257054966000.0,1.885554264003404,9.691729,-0.9800642819544252,-0.5519168,0.038179077,-0.0015271631,286.00192,-79.79668,1.1924475
7257060114000.0,1.899539193466339,9.691729,-0.9381096152562406,-0.030848695,-0.03726278,-0.016187929,285.93805,-79.99187,1.2555848
7257064942000.0,1.9255638790526743,9.701618639526338,-0.8916824428035933,0.101098195,-0.020158553,-0.009773844,285.90656,-80.14664,1.3179089
7257070137000.0,1.966193912535729,9.721933656267865,-0.8348003619869335,0.062308256,-0.023518313,-0.008857546,285.90207,-80.39721,1.3789964
7257075119000.0,2.007481717210744,9.740525141838845,-0.7780008000268596,0.04917465,-0.027794369,-0.013744468,285.87253,-80.69536,1.4412192
7257079971000.0,2.069885354318182,9.750125385227271,-0.7011963767954545,0.04886922,-0.02321288,-0.011301007,285.8398,-80.98053,1.5053263
7257085002000.0,2.134064160640427,9.75593788466385,-0.6264130145852791,0.04337143,-0.018936822,-0.0125227375,285.78583,-81.26088,1.5763643
7257089944000.0,2.19370279239493,9.734888869616782,-0.584315098049811,0.03848451,-0.010079277,-0.004886922,285.72745,-81.53511,1.6499288
7257094916000.0,2.253703455503669,9.713712078274405,-0.5419616296130754,0.016798794,-0.0036651916,0.0027488936,285.65082,-81.79422,1.7333939
7257100129000.0,2.273698791034212,9.694808834054266,-0.5561251145182855,0.008857546,0.0030543262,0.002443461,285.5702,-82.04994,1.8160688
7257104981000.0,2.2417221935116007,9.681104748328746,-0.6383508499803382,-0.015577064,0.01985312,0.004276057,285.48322,-82.28836,1.9004539
7257109919000.0,2.2022310927387303,9.667232863305866,-0.7251448590693166,-0.030543262,0.03023783,0.0061086523,285.3827,-82.515495,1.9993113
7257115978000.0,2.140351873814833,9.650356947649056,-0.8376525885797382,-0.05497787,0.03390302,0.013133603,285.27768,-82.72634,2.0993233
7257119916000.0,2.1020799312353216,9.642405526068575,-0.902657873085956,-0.06963864,0.026267206,0.02076942,285.15485,-82.9628,2.1961343
7257125111000.0,2.055342890465007,9.637731734147488,-0.9727633366369188,-0.070249505,0.040317107,0.030848695,285.02298,-83.18799,2.2944791
7257130066000.0,2.015407069303956,9.628968850859623,-1.026484686120848,-0.06383542,0.027183503,0.034208454,284.884,-83.43848,2.3886025
7257134996000.0,1.991764793890836,9.605326493156404,-1.0343654857369389,-0.060170226,0.008246681,0.035430185,284.74097,-83.67789,2.4843805
7257139929000.0,1.9681081316975464,9.581669748622934,-1.0422510809714571,-0.032375857,-0.007941248,0.033292156,284.5802,-83.948105,2.575606
7257144948000.0,1.9632454,9.565986645476771,-0.9969830877609552,0.004581489,-0.027488936,0.03390302,284.42416,-84.2088,2.6683683
7257149960000.0,1.9632454,9.552445667481662,-0.9383046287991348,0.035124753,-0.048258353,0.024740042,284.2719,-84.462906,2.7579052
7257154995000.0,1.9891094189633376,9.54549054408976,-0.8676453715628951,0.0711658,-0.062002823,0.029626964,284.09875,-84.73012,2.8511174
7257159958000.0,2.0266644587863465,9.541734961678255,-0.7925352330949748,0.086437434,-0.08277224,0.030848695,283.93237,-84.9828,2.941167
7257164969000.0,2.065148967130919,9.540340640668523,-0.7229288565459611,0.09132435,-0.08368854,0.035430185,283.7496,-85.217026,3.0343378
7257169999000.0,2.107080900104457,9.552920019150418,-0.6893833802228413,0.079107046,-0.0729984,0.03268129,283.56796,-85.42881,3.1258392
7257175069000.0,2.1493462878133704,9.565599432451254,-0.6555711406685237,0.061086524,-0.076358154,0.027794369,283.37772,-85.59955,3.2305188
7257180050000.0,2.141728083879093,9.590073789515111,-0.6642764161209068,0.056199603,-0.07819075,0.046120327,283.18207,-85.738976,3.3405275
7257186124000.0,2.123412755415617,9.622125805573049,-0.6825917445843829,0.032375857,-0.07391469,0.039095376,282.98456,-85.85071,3.4415083
7257189965000.0,2.108326905294172,9.641057555289567,-0.7031092205045576,0.02443461,-0.07422013,0.04428773,282.77982,-85.91968,3.5604064
7257194940000.0,2.0820062649295643,9.662991345916582,-0.7469768338228524,0.021380283,-0.07513642,0.042760566,282.57248,-85.96014,3.6748018
7257200085000.0,2.058380334458509,9.682152,-0.7985925549648383,0.009773844,-0.07238753,0.04886922,282.3459,-85.97497,3.7907846
7257204971000.0,2.054509047555225,9.682152,-0.8798896324844875,0.0106901415,-0.062002823,0.05009095,282.1156,-85.96194,3.9044642
7257209947000.0,2.0505664516422604,9.682152,-0.962684200175395,0.01038471,-0.048563786,0.05375614,281.87564,-85.92466,4.014773
7257214951000.0,2.0323770608184804,9.702623518271434,-1.0205302139898436,0.01985312,-0.023518313,0.039095376,281.62793,-85.86353,4.119667
7257219930000.0,2.0086376964851143,9.731110854625111,-1.0680089922333964,0.03359759,0.0009162979,0.030848695,281.3751,-85.77279,4.226921
7257224973000.0,2.01002640039801,9.748086682421228,-1.07370539960199,0.04184427,0.011301007,0.028405234,281.11377,-94.33923,4.3292537
7257229976000.0,2.021944990049751,9.760005106135988,-1.0617868099502488,0.06047566,0.018325957,0.03145956,280.84546,-94.47611,4.430422
7257234984000.0,2.0428835907732577,9.769918102628422,-1.0392731559384885,0.070554934,0.018936822,0.025350908,280.56378,-94.63226,4.5240545
7257240057000.0,2.0852727134474858,9.775216839786236,-0.99158546208965,0.094989546,0.026267206,0.02443461,280.2777,-94.81444,4.6197796
7257244991000.0,2.1621936017039,9.756652324119653,-0.9162150334721696,0.10415252,0.014049901,0.029321533,280.00122,-95.012566,4.7155604
7257250094000.0,2.282473012059826,9.710391049602425,-0.8051878780196895,0.10995574,0.00030543262,0.028710667,279.72247,-95.225334,4.8091054
7257255837000.0,2.3630601586219986,9.670209402296669,-0.7206944632153364,0.0983493,-0.015271631,0.040011674,279.4526,-95.45392,4.9139924
7257259968000.0,2.374323827825757,9.651436620290406,-0.6944125684065674,0.09010262,-0.03268129,0.042455133,279.18665,-95.68878,5.0152507
7257264951000.0,2.379566683176997,9.633256315508024,-0.6764464801876041,0.076358154,-0.040317107,0.04886922,278.94696,-95.926765,5.1406946
7257269997000.0,2.358384719119839,9.6290198342246,-0.7018648370561936,0.058643065,-0.047647487,0.054367006,278.71146,-96.16451,5.265011
7257275475000.0,2.3347798658308347,9.62441083337876,-0.7317595537112747,0.034208454,-0.06505715,0.06414085,278.47922,-96.403755,5.3960004
7257279973000.0,2.3073848922503863,9.620497201508131,-0.7865492965476515,0.0421497,-0.061391957,0.065973446,278.24234,-96.64386,5.52497
7257284935000.0,2.277163936513128,9.61617985127646,-0.8469909826201508,0.046731193,-0.06352998,0.06719518,278.008,-96.8827,5.6509047
7257289952000.0,2.254226135390385,9.615114,-0.8897712106375725,0.03573562,-0.06383542,0.062002823,277.77127,-97.11768,5.774127
7257294944000.0,2.2338513971701333,9.615114,-0.9264458372996932,0.034208454,-0.06078109,0.0711658,277.5339,-97.35678,5.900323
7257299962000.0,2.212105374049393,9.607342979811838,-0.9675315323304586,0.03970624,-0.05131268,0.07360926,277.2932,-97.59412,6.015347
7257304989000.0,2.188515324264994,9.588471038514308,-1.0147117057967463,0.04428773,-0.040927973,0.07391469,277.0511,-97.83056,6.1310263
7257309939000.0,2.184065318079204,9.573430223455135,-1.043872,0.0421497,-0.029321533,0.070554934,276.79822,-98.07108,6.241899
7257314949000.0,2.211602969504496,9.564250814616416,-1.043872,0.05955936,-0.027794369,0.07086037,276.54523,-98.31439,6.3525047
7257319909000.0,2.23694699854986,9.559873445790329,-1.0405413892774886,0.06872234,-0.027183503,0.06536258,276.28836,-98.55328,6.4532638
7257324983000.0,2.2576723603173248,9.56816376362706,-1.028106128934573,0.086437434,-0.025350908,0.067500606,276.031,-98.79614,6.555108
7257330703000.0,2.2796868347164594,9.57843434736218,-1.012700466212211,0.08674286,-0.0106901415,0.069027774,275.7757,-99.03321,6.658339
7257334958000.0,2.2837126061549102,9.59453751719028,-0.9885455853586248,0.0870483,-0.009162978,0.06627888,275.52362,-99.27015,6.7593307
7257339914000.0,2.288401612793914,9.613293641671609,-0.9604112517486664,0.0983493,-0.01282817,0.06994407,275.26944,-99.510345,6.867885
7257345002000.0,2.2967437785841973,9.62300124329639,-0.8945840136771541,0.10781772,-0.009468411,0.07238753,275.01276,-99.745895,6.974162
7257350110000.0,2.3054885577046837,9.631746205041116,-0.8246257167947801,0.1001819,-0.008552114,0.06352998,274.75763,-99.97506,7.0766325
7257354976000.0,2.285407715885575,9.64839463351013,-0.8722596421511173,0.09285152,0.005497787,0.06291912,274.5036,-100.19527,7.17929
7257359984000.0,2.2520467547169813,9.669245261455526,-0.9723427172506738,0.07971791,0.014660766,0.06658431,274.25058,-100.40819,7.2791777
7257364947000.0,2.2372327651345385,9.676315250102231,-1.145194003238734,0.08368854,0.014660766,0.062002823,273.9979,-100.60409,7.3749166
7257369942000.0,2.252882062959025,9.66066599312996,-1.4425316423570786,0.06627888,0.029932396,0.058643065,273.73837,-100.790375,7.471612
7257375562000.0,2.2673067141480434,9.64424438547811,-1.7269853530243418,0.0720821,0.037873644,0.047647487,273.47278,-100.99308,7.55641
7257379973000.0,2.2251933356899563,9.651263068123288,-1.1093215115517157,0.0693332,0.050396383,0.04795292,273.20215,-101.18825,7.6429954
7257384924000.0,2.177924386076265,9.65914098645842,-0.416042509254964,0.067500606,0.05375614,0.052839845,272.922,-101.445755,7.7297587
7257389944000.0,2.162908223453461,9.673156279316826,-0.2940017896391272,0.06291912,0.05955936,0.044898596,272.6387,-101.69494,7.8121505
7257395218000.0,2.179418166478712,9.69379370809839,-0.7356430870816377,0.058337633,0.07238753,0.04428773,272.3546,-101.94123,7.89699
7257399987000.0,2.1927799205391527,9.709646488607188,-1.067973794038832,0.05497787,0.058948494,0.04886922,272.09973,-102.02504,7.9680104
7257404971000.0,2.188950429910141,9.694328606065469,-0.6543885062018614,0.05955936,0.044593163,0.052534413,271.84125,-102.107574,8.038151
7257410194000.0,2.1849373019897302,9.678276178193196,-0.2209703765123556,0.043676864,0.030543262,0.05222898,271.57492,-102.27436,8.110263
7257414940000.0,2.181184031547969,9.670246982931136,-0.367345811241907,0.035124753,0.019547688,0.051923547,271.31274,-102.44068,8.1816635
7257419944000.0,2.1771545766417217,9.666217443874547,-0.8871458938619357,0.044593163,0.01038471,0.05009095,271.05463,-102.60354,8.250788
7257425086000.0,2.174798273830156,9.66127190641248,-1.2946781265164646,0.05009095,0.0036651916,0.0571159,270.8138,-102.669846,8.320225
7257429973000.0,2.1784851984874742,9.65389828808886,-1.2614957661020956,0.041233405,-0.00030543262,0.054367006,270.57388,-102.73167,8.385211
7257435508000.0,2.1826609971325035,9.645546952418464,-1.223913534693556,0.04153884,0.0021380284,0.05100725,270.31793,-102.90489,8.448855
7257439940000.0,2.177223894435612,9.631268526232114,-1.162805569872814,0.034208454,0.005192355,0.048258353,270.06378,-103.07042,8.510616
7257444986000.0,2.1676204499205087,9.61206123608903,-1.081176241355326,0.04917465,0.010079277,0.04734206,269.80933,-103.236885,8.571059
7257449965000.0,2.161921849544144,9.612846804020885,-0.9900984270864178,0.050701816,0.01282817,0.0421497,269.55423,-103.38953,8.631209
7257455166000.0,2.1580405328761785,9.624490997194732,-0.8891840964513363,0.045814894,0.018020526,0.039095376,269.2981,-103.540665,8.690965
7257459976000.0,2.156139496852662,9.633815358263096,-0.8026412280273124,0.049480084,0.014660766,0.040011674,269.04578,-103.67584,8.748099
7257465047000.0,2.1716832777552546,9.628633989757816,-0.7819161543625307,0.047647487,0.004581489,0.03940081,268.79425,-103.80488,8.802986
7257469969000.0,2.1766055289009496,9.623704340666796,-0.7612113063578213,0.05131268,0.0067195175,0.03359759,268.5426,-103.908615,8.854644
7257474990000.0,2.1439833356852103,9.6190439300252,-0.7379097397751502,0.052534413,0.00030543262,0.034208454,268.297,-104.01007,8.906147
7257479960000.0,2.115764864586269,9.612985423394404,-0.7104556060036239,0.04917465,-0.008857546,0.040317107,268.05252,-104.107376,8.959503
7257484963000.0,2.1109417590497284,9.598516308234348,-0.657401414884236,0.05222898,-0.015882496,0.035430185,267.809,-104.20219,9.008932
7257489953000.0,2.099419318457005,9.58298478757032,-0.6067970547870345,0.056505036,-0.0106901415,0.033292156,267.56448,-104.288025,9.05342
7257494943000.0,2.052480167639968,9.561648850433077,-0.5683923501169748,0.06261369,-0.015271631,0.03848451,267.32516,-104.37339,9.097072
7257500316000.0,2.0019382723814627,9.538675305295117,-0.5270399496776498,0.061391957,-0.029932396,0.038179077,267.08673,-104.44698,9.138525
7257504972000.0,1.9979581845803516,9.53490550951529,-0.5482909075309044,0.067500606,-0.04184427,0.048258353,266.85016,-104.52451,9.183579
7257511120000.0,1.9931697845803515,9.53011700951529,-0.5770213275309044,0.08032878,-0.055588737,0.043982297,266.6171,-104.58718,9.214824
7257514943000.0,1.9881686874229667,9.540344377484594,-0.580378119472268,0.06963864,-0.063224554,0.052534413,266.38748,-104.64849,9.251613
7257520004000.0,1.9797548023782656,9.565586120475654,-0.5719642168561757,0.07971791,-0.09315695,0.065973446,266.16864,-104.715675,9.286011
7257525121000.0,1.9720779054082889,9.584151069593764,-0.570241664473533,0.070249505,-0.10781772,0.07544186,265.94778,-104.779625,9.319781
7257530113000.0,1.968154443315552,9.57238043750513,-0.5977059114132129,0.059864793,-0.12675454,0.07971791,265.73764,-104.84534,9.353341
7257534984000.0,1.964326081165367,9.560895111202298,-0.6245044584571194,0.05222898,-0.13469578,0.08979719,265.5263,-104.90888,9.388771
7257540004000.0,1.9449052409807357,9.536256339316989,-0.625955846852014,0.03940081,-0.1432479,0.105374254,265.32147,-104.96914,9.42529
7257544956000.0,1.9199887890017515,9.507187405516635,-0.6176503671952714,0.025045475,-0.17195857,0.11636983,265.1253,-105.02678,9.461131
7257549989000.0,1.8761143792523365,9.453033607476634,-0.5674213318130841,0.018020526,-0.18112154,0.12186762,264.92792,-105.089836,9.500983
7257555084000.0,1.8077117662616824,9.366390037383177,-0.4625373950654206,0.009162978,-0.19608775,0.12522738,264.74124,-105.149254,9.540527
7257559937000.0,1.757970559642325,9.322528946050667,-0.3884872367451564,0.0015271631,-0.20738874,0.118507855,264.55524,-105.20193,9.572839
7257564944000.0,1.7436781490312967,9.370170812220566,-0.3741948161847988,-0.022602014,-0.21074851,0.12095132,264.37244,-105.249725,9.607511
7257569911000.0,1.7271134585454897,9.437125310500528,-0.3500838569804976,-0.056199603,-0.21838433,0.12003502,264.19232,-105.26896,9.627653
7257574989000.0,1.7037533901431454,9.558597275915073,-0.2986916625891055,-0.07574729,-0.21685717,0.12339478,264.01135,-105.28631,9.649524
7257581105000.0,1.6668501634661836,9.709424493357488,-0.2321276740374395,-0.12980886,-0.21380283,0.15363261,263.83228,-105.28692,9.674022
7257585107000.0,1.6321342332578503,9.813572253774154,-0.1829467836832729,-0.21868975,-0.21563543,0.15393804,263.6529,-105.270195,9.69044
7257590072000.0,1.5890646196935387,9.942781056989734,-0.1219315111674214,-0.25411993,-0.2507602,0.14721853,263.48428,-105.23758,9.70198
7257594995000.0,1.591413942825035,10.03519514816736,-0.1559078937842323,-0.31306845,-0.3023783,0.111177474,263.31934,-105.17548,9.703903
7257600058000.0,1.6291375382520747,10.102259327541494,-0.2648871200539419,-0.37323865,-0.3933972,0.09010262,263.17618,-105.10768,9.703487
7257604943000.0,1.6739348321560443,10.150512495745703,-0.3646197340311446,-0.3930918,-0.4728097,0.084910266,263.03427,-105.00843,9.680727
7257609964000.0,1.7472706521351742,10.146652637261198,-0.4495349118253331,-0.36774087,-0.52320606,0.10354166,262.91022,-104.90861,9.655767
7257614985000.0,1.820606472114304,10.14279277877669,-0.5344500896195217,-0.3109304,-0.60048056,0.12186762,262.81805,-104.83331,9.628743
7257619938000.0,1.7845577528769765,10.05057229684616,-0.6952057709092369,-0.2669481,-0.6808093,0.12461651,262.74118,-104.76287,9.600145
7257624949000.0,1.71138561161223,9.927335315303749,-0.8839128889976727,-0.24251351,-0.7425067,0.14508049,262.68286,-104.70852,9.578977
7257629917000.0,1.6409399791403416,9.834161928741583,-1.0905468368513722,-0.2565634,-0.7657196,0.17348573,262.6446,-104.68287,9.57451
7257635125000.0,1.5737842350906266,9.828996002692906,-1.3695012875608492,-0.30298916,-0.75716746,0.19975294,262.61545,-104.65933,9.5737295
7257639911000.0,1.5172401526364478,9.85127118717237,-1.5928005435707675,-0.3484986,-0.7309003,0.21471913,262.5835,-104.67556,9.566118
7257644948000.0,1.468897649976873,9.933081277597903,-1.756421268038853,-0.3912592,-0.68844515,0.24862215,262.54675,-104.69018,9.572498
7257650094000.0,1.4195090220860314,10.0166617273358,-1.9235827228954672,-0.41691554,-0.65668017,0.26175576,262.4948,-104.737755,9.565777
7257654971000.0,1.4447806031886283,10.144100962351134,-2.0237746725316943,-0.43310347,-0.6188065,0.27275133,262.43134,-104.78234,9.570236
7257659974000.0,1.495399171638494,10.291355512581635,-2.106605074740684,-0.41691554,-0.6020077,0.2687807,262.3652,-104.82634,9.574182
7257665064000.0,1.5711100096233586,10.384362394263997,-2.1632349295093296,-0.3817908,-0.6087272,0.2574797,262.28232,-104.89785,9.562494
7257669944000.0,1.6558915783863166,10.444920597442986,-2.2036070649619903,-0.32742378,-0.6133087,0.25411993,262.19556,-104.97529,9.552618
7257674983000.0,1.7236523862643385,10.439584007306204,-2.283117893767809,-0.27977628,-0.61911196,0.23823744,262.1126,-105.06511,9.542728
7257679985000.0,1.7516516358442318,10.2995875766786,-2.4371136750931544,-0.18661933,-0.6200282,0.22693644,262.031,-105.174095,9.532778
7257684961000.0,1.7795053475414628,10.160318836414117,-2.5903089985387595,-0.08582657,-0.61117065,0.20433442,261.95773,-105.2973,9.528748
7257689951000.0,1.8440297428083567,10.010489099437525,-2.6641683906388107,0.025350908,-0.59895337,0.18448131,261.88443,-105.438675,9.521957
7257694941000.0,1.9336287112695865,9.8536910299317,-2.683368162434713,0.12308934,-0.5729916,0.15057829,261.8037,-105.5897,9.50599
7257700121000.0,2.026639263700281,9.690922693250302,-2.7032989876657294,0.20677789,-0.54641896,0.09468412,261.7178,-105.802025,9.487391
7257704959000.0,2.2320728423797176,9.558903351003554,-2.7158188871026603,0.2648101,-0.5213735,0.045814894,261.62534,-106.02194,9.46259
7257710079000.0,2.524021555718813,9.431764305579565,-2.725236628771728,0.33444872,-0.48380527,0.030543262,261.5224,-106.255974,9.434321
7257714939000.0,2.8175515866238428,9.293305772340826,-2.715266321386737,0.40561453,-0.42577308,0.029626964,261.42853,-106.516,9.429636
7257720253000.0,3.1540696974305686,9.12504634044965,-2.686421883204232,0.45937067,-0.36651915,0.035430185,261.3252,-106.78242,9.425077
7257724943000.0,3.4418573879651624,8.963921030285036,-2.6259786182106093,0.5155703,-0.26267207,0.033292156,261.23062,-107.081055,9.479264
7257730112000.0,3.745613898060174,8.767949476098574,-2.508395429908947,0.5858198,-0.15149458,0.036957346,261.11957,-107.39197,9.539984
7257734912000.0,3.985170752790781,8.636306413890889,-2.315323200315088,0.655153,-0.016187929,0.07086037,261.01318,-107.73393,9.678081
7257740004000.0,4.169554511523226,8.579235261388188,-1.972896331139719,0.72204274,0.090713486,0.12186762,260.88647,-108.08858,9.825294
7257744960000.0,4.261784600326264,8.558068227977161,-1.5604063080342576,0.7501425,0.13805555,0.17501289,260.76736,-108.45755,10.042053
7257750004000.0,3.9111171628058727,8.711731260603589,-0.7369290310946166,0.7174612,0.17012598,0.1863139,260.62433,-108.822136,10.264231
7257754942000.0,3.567819025122349,8.862165054241435,0.0692428153621533,0.625526,0.18081611,0.1572978,260.47873,-109.12971,10.52505
7257759958000.0,3.261932388610752,8.972619323757622,0.3411284034269351,0.4792238,0.2012801,0.11636983,260.3214,-109.410995,10.784547
7257764962000.0,2.974203636606318,9.06557789128025,0.3898209657251062,0.30909783,0.25717425,0.06566802,260.14832,-109.653755,11.032766
7257769948000.0,2.7303145461171456,9.139356246776975,0.2421325048157547,0.13744467,0.29077184,0.035430185,259.9112,-109.65373,11.197004
7257774999000.0,2.5191669024566035,9.198281332758096,-0.0721337419226474,0.06536258,0.35430184,-0.02321288,259.64398,-109.62508,11.343615
7257779972000.0,2.4118869691850757,9.26113144236124,-0.3686670534211991,-0.040927973,0.43401974,-0.081855945,259.3457,-109.50314,11.422826
7257784957000.0,2.3764384093187303,9.327597723454613,-0.6566867966641915,-0.08246681,0.54550266,-0.12675454,259.01822,-109.374245,11.494986
7257789934000.0,2.342544747308688,9.356105014645747,-0.8953606901443711,-0.076358154,0.6411031,-0.14966199,258.67245,-109.25423,11.516135
7257794944000.0,2.3105127731786697,9.33208080409747,-1.0675322437953767,-0.018325957,0.70829827,-0.15882497,258.30258,-109.132866,11.533635
7257800238000.0,2.2753179211005463,9.309844648492817,-1.22906876962371,0.042455133,0.7831292,-0.16707164,257.9101,-109.05335,11.539145
7257804979000.0,2.22939074246409,9.323623089823991,-1.155585235848675,0.11575896,0.81183994,-0.16126843,257.51434,-108.99088,11.5465355
7257810163000.0,2.181917497946669,9.340575987457028,-1.0662341669794666,0.15699236,0.8191703,-0.1600467,257.10876,-108.96367,11.543121
7257814965000.0,2.164826429062529,9.374757946762056,-0.8953233442906252,0.16401732,0.79779,-0.15027285,256.7072,-108.94656,11.543027
7257819937000.0,2.147130303595652,9.410150012914617,-0.7183619510359565,0.14996742,0.763887,-0.14630222,256.30594,-108.91349,11.531058
7257824975000.0,2.178502853232821,9.488921880545089,-0.6699710729979704,0.12461651,0.7461719,-0.13041973,255.91055,-108.88231,11.5242605
7257829928000.0,2.215177360162366,9.571439808350249,-0.6378808459263555,0.102319926,0.7507534,-0.10903945,255.52187,-108.849495,11.518828
7257834979000.0,2.250214608891608,9.683739748139084,-0.6807471760772917,0.065973446,0.77213365,-0.086437434,255.1286,-108.77631,11.5153675
7257839919000.0,2.283982861160396,9.799516685020905,-0.7386357301509127,0.046731193,0.7852673,-0.044593163,254.74188,-108.70919,11.52208
7257844951000.0,2.2570915889603533,9.879757387923586,-0.75096154406259,0.038179077,0.77366084,-0.02076942,254.35434,-108.63253,11.533859
7257849937000.0,2.2204208680426225,9.95309902121532,-0.7555453901603149,0.038179077,0.7556403,0.0076358155,253.97073,-108.562004,11.557547
7257854982000.0,2.120802576795469,9.98850594659114,-0.7756176704612583,0.036651913,0.72204274,0.021380283,253.60089,-108.49476,11.580184
7257859946000.0,2.0053926397531865,10.012549662553106,-0.7996614165506777,0.035124753,0.6814202,0.024740042,253.24188,-108.43091,11.604413
7257864952000.0,1.8179811805245265,10.043497127634774,-0.7969782319737737,0.055588737,0.6542367,0.027183503,252.88681,-108.368546,11.62145
7257869910000.0,1.615047760320544,10.075781677999029,-0.7877539969839729,0.0580322,0.6026186,0.029626964,252.5527,-108.302795,11.633521
7257875088000.0,1.3749867718448203,10.102675352290548,-0.9042371191489889,0.069027774,0.5684101,0.03481932,252.21954,-108.2361,11.623372
7257879972000.0,1.1394803321584812,10.12583998489476,-1.0548067997201818,0.10903945,0.5739079,0.027488936,251.89122,-108.17478,11.609127
7257884965000.0,0.9480380014084508,10.148613558467082,-1.155405803078939,0.15241088,0.5907067,0.00580322,251.55824,-108.094055,11.552728
7257889951000.0,0.8594093935211268,10.169467221749098,-1.1449789169996725,0.19730948,0.6035349,-0.011301007,251.22693,-108.02254,11.496313
7257894936000.0,0.8094844637284168,10.168784753389913,-1.1510002703346016,0.24740042,0.59681535,-0.02565634,250.89,-107.958664,11.376157
7257899972000.0,0.8000748959555165,10.145260821675931,-1.1745242511754952,0.28160888,0.59681535,-0.046120327,250.5488,-107.897964,11.25374
7257906048000.0,0.8239655465018094,10.087506295678706,-1.1875241,0.31398472,0.63071835,-0.073303826,250.19342,-107.83787,11.11673
7257909980000.0,0.8587010906272617,10.034067031363088,-1.1875241,0.33169982,0.6536258,-0.08032878,249.84412,-107.78341,10.982266
7257914951000.0,0.9026152284318456,9.966506862768751,-1.1875241,0.33383787,0.7098254,-0.10140363,249.47314,-107.733955,10.84635
7257919941000.0,0.9931494443493152,9.86387505603985,-1.20289408879203,0.36468655,0.73273283,-0.108123146,249.10873,-107.69732,10.715015
7257924966000.0,1.1130086010273974,9.739021849315067,-1.2278647301369865,0.36468655,0.74006325,-0.110872045,248.73483,-107.65213,10.584851
7257929985000.0,1.2294218876485128,9.658529206363127,-1.197979057236265,0.34391713,0.7244862,-0.11209377,248.36026,-107.6257,10.476117
7257934964000.0,1.3434867637987402,9.597694965712462,-1.144748779052707,0.3481932,0.6939429,-0.11026118,247.99097,-107.60515,10.369215
7257939967000.0,1.458475216467248,9.554785176029204,-1.0610834076008924,0.34208453,0.6618725,-0.09865474,247.63876,-107.59882,10.290957
7257944948000.0,1.5745622145812208,9.59025590299466,-0.8482572679618738,0.34697145,0.6478226,-0.087964594,247.29298,-107.595634,10.213569
7257950134000.0,1.6954269349624822,9.627186477185155,-0.6266719718028797,0.33322698,0.62858033,-0.0729984,246.95886,-107.59907,10.172501
7257954963000.0,1.793790554605263,9.66015420263158,-0.4298263988973684,0.32742378,0.57451874,-0.06841691,246.64108,-107.60442,10.128473
7257959976000.0,1.848537131842105,9.68963328105263,-0.2571641385589474,0.32559118,0.5152648,-0.05375614,246.33444,-107.61053,10.089988
7257965358000.0,1.905579261306379,9.720356329045105,-0.0724050298205069,0.30818152,0.4896085,-0.02687807,246.02617,-107.57546,10.090019
7257969953000.0,1.8988397520407383,9.71698652163259,0.0657542852135691,0.30268374,0.48502702,-0.01985312,245.73022,-107.541595,10.085449
7257974978000.0,1.891469559644689,9.71330136771575,0.2168425459418025,0.29565877,0.46792278,-0.00580322,245.4371,-107.48384,10.100069
7257979956000.0,1.8783799521346471,9.705931500205256,0.3556392007697044,0.28496864,0.50701815,0.004886922,245.13165,-107.424934,10.118418
7257985076000.0,1.853219229638752,9.69083527688834,0.4764107633312807,0.26083946,0.56046885,0.01985312,244.83014,-107.36475,10.140664
7257989910000.0,1.7943013070224527,9.674744381833072,0.4853826175940763,0.23976462,0.5888741,0.026572637,244.51396,-107.2742,10.16525
7257994999000.0,1.6745640795673242,9.654788125162083,0.3224069685396847,0.20922135,0.5946773,0.032375857,244.19208,-107.17941,10.194434
7258000081000.0,1.5549915525626152,9.634859318637822,0.1596554950685866,0.19303341,0.59223384,0.021991149,243.85791,-107.06461,10.219192
7258004960000.0,1.4765583728412257,9.583310351969756,-0.0039690595539196,0.18784106,0.6047566,0.02321288,243.52113,-106.95003,10.2485075
7258009960000.0,1.4384493895543176,9.492801498010346,-0.1802234636526064,0.17684549,0.5983425,0.032986723,243.19235,-106.83198,10.274272
7258014936000.0,1.4113692462094374,9.424737269944735,-0.3212145442539322,0.17562376,0.6035349,0.039095376,242.85901,-106.74255,10.272927
7258019942000.0,1.3977822514241178,9.383976356525435,-0.4197198130933824,0.17684549,0.58184916,0.036957346,242.53717,-106.652214,10.268752
7258025235000.0,1.3834162978886213,9.340878570922488,-0.5238725074535922,0.20005837,0.5540548,0.051618114,242.22583,-106.601715,10.267268
7258029963000.0,1.3819891626481249,9.313164533836058,-0.6345387146489081,0.2125811,0.51923543,0.06963864,241.92465,-106.54924,10.263353
7258035105000.0,1.3868118460092056,9.289050865243365,-0.7647498863186759,0.22937989,0.5009095,0.087964594,241.62953,-106.50543,10.262025
7258039942000.0,1.3820637500474833,9.299645047285534,-0.824983985739158,0.23548855,0.4813618,0.105068825,241.35036,-106.490746,10.262912
7258045333000.0,1.3698062645773978,9.33641805832542,-0.8454131452548275,0.24129178,0.4596761,0.11942416,241.07983,-106.481606,10.266001
7258050117000.0,1.3607573390765415,9.3814308700031,-0.8436216023654581,0.24770586,0.4615087,0.12858713,240.81241,-106.50072,10.274225
7258055077000.0,1.3705705154013017,9.558068812364423,-0.6326370715112075,0.26725355,0.44409904,0.12461651,240.55856,-106.522736,10.279301
7258059991000.0,1.3859033665820089,9.71870288046862,-0.4359345919342946,0.2828306,0.42760566,0.12003502,240.30399,-106.54705,10.28447
7258065062000.0,1.441605139996723,9.78236208569556,-0.3205523458168113,0.29657507,0.3921755,0.12675454,240.06206,-106.57505,10.288596
7258069987000.0,1.495703194437162,9.844188468212351,-0.2084920890373586,0.2959642,0.35155296,0.12705997,239.81024,-106.5617,10.2891445
7258075080000.0,1.5288430907171022,9.90450205072512,-0.1028199442424647,0.30207285,0.32925636,0.116675265,239.56464,-106.55153,10.286874
7258080161000.0,1.5516071456325604,9.96303796878968,-0.0020077801169551,0.310625,0.31581733,0.11178834,239.32997,-106.54218,10.283653
7258084921000.0,1.572933046320925,10.017875790082202,0.0924354202840339,0.30390546,0.31245756,0.09712757,239.08566,-106.51185,10.288546
7258089937000.0,1.5931415244065636,10.07539827321969,0.1867469731926079,0.2938262,0.3109304,0.089186326,238.84634,-106.48289,10.292551
7258094979000.0,1.612372934953003,10.13309250485901,0.2790578120917636,0.28619036,0.30848694,0.082161374,238.60889,-106.450485,10.291902
7258099967000.0,1.6404935636594662,10.196134875476492,0.3445703517789072,0.27488935,0.3286455,0.07544186,238.35658,-106.39051,10.295235
7258104960000.0,1.7113785671431596,10.287273515036002,0.2888749858566286,0.24740042,0.35796702,0.06169739,238.10318,-106.32352,10.294442
7258109917000.0,1.7594667126686807,10.461822097079557,0.2436655925538771,0.22052236,0.38820487,0.055588737,237.83768,-106.237045,10.298891
7258114968000.0,1.749724030533736,10.861271759415912,0.2241802181107754,0.21838433,0.4083634,0.041233405,237.56729,-106.147484,10.297635
7258119934000.0,1.7111829666258591,11.20406740022601,0.1788939216059892,0.19914207,0.36743546,0.016493361,237.3075,-106.05871,10.299322
7258124957000.0,1.6024624281382427,11.43056879800358,0.0701734001470948,0.16279559,0.2669481,-0.010079277,237.06003,-105.964264,10.293191
7258129969000.0,1.4896901132483698,11.66523218375815,-0.0442735727344398,0.10934488,0.20372356,-0.048258353,236.80063,-105.84364,10.264729
7258135100000.0,1.3537604337877889,11.946800497727722,-0.1899125651258644,0.035430185,0.20311269,-0.07666359,236.55322,-105.71037,10.229357
7258140220000.0,1.2321228057421114,12.2250826110635,-0.297378693107908,-0.016493361,0.24801129,-0.100792766,236.30878,-105.56137,10.15618
7258144984000.0,1.1716937948500197,12.473908168367744,-0.2547229135083755,-0.07360926,0.3304781,-0.12675454,236.05405,-105.39344,10.078027
7258149956000.0,1.108626405648617,12.733597645890145,-0.2102047489053369,-0.124311075,0.41355577,-0.1563815,235.78387,-105.21005,9.965188
7258154968000.0,1.1180060012856174,12.95208588346741,-0.1557093265137959,-0.18081611,0.46486846,-0.18936823,235.49966,-105.01216,9.849311
7258160954000.0,1.1912752983459889,13.176203775655964,-0.082440024953011,-0.2406809,0.51893,-0.22632557,235.19128,-104.800934,9.730921
7258165607000.0,1.2489670155241737,13.35144281249387,-0.0190240066529371,-0.2733622,0.54000485,-0.2669481,234.86699,-104.55121,9.584106
7258170087000.0,1.3162873081592623,13.536573529371385,0.145069320874767,-0.28955013,0.54275376,-0.28069258,234.53471,-104.296715,9.43927
7258174960000.0,1.389513153250956,13.73794450779641,0.32355744253604,-0.30482176,0.5412266,-0.31581733,234.19125,-104.01717,9.288072
7258179942000.0,1.4436030330756433,13.910417853410314,0.6377324735825423,-0.32559118,0.52687126,-0.32467487,233.85468,-103.74271,9.142638
7258184931000.0,1.4950332812506115,14.07873496712007,0.9696912576259908,-0.33933565,0.5155703,-0.31673363,233.5199,-103.4702,8.995003
7258190118000.0,1.5035586,14.197284560832202,1.2362310301673451,-0.3662137,0.5363397,-0.3005457,233.17322,-103.173256,8.860573
7258194973000.0,1.5035586,14.298224644052464,1.4717572469018545,-0.42088616,0.58551437,-0.2761111,232.82614,-102.87896,8.733838
7258199967000.0,1.394420594735031,14.45341351892636,1.740317698021335,-0.48838675,0.65576386,-0.2510656,232.46141,-102.541855,8.617973
7258204880000.0,1.2244158325705436,14.635561387818306,2.019611308318995,-0.5488624,0.729984,-0.22510384,232.08734,-102.21054,8.513032
7258209822000.0,1.056475043230818,14.767436,2.254060703117734,-0.61575216,0.79473567,-0.21655174,231.6882,-101.84155,8.411666
7258214859000.0,0.8933353169879518,14.767436,2.3713173465863453,-0.68416905,0.8173377,-0.22571471,231.28563,-101.47498,8.314248
7258219812000.0,0.7461648151984244,14.684448345741014,2.460126486213688,-0.7501425,0.8155051,-0.25350907,230.85905,-101.04302,8.18093
7258224885000.0,0.6169925123712456,14.46437705977351,2.507968048399803,-0.8344419,0.7910705,-0.30757064,230.43744,-100.604065,8.038415
7258230334000.0,0.4773038515978757,14.14380793245132,2.5500600803223703,-0.9398162,0.7648033,-0.3726278,230.01526,-100.130516,7.8645306
7258234870000.0,0.3599301795136495,13.779545113854468,2.574344352753191,-1.0537425,0.7153232,-0.46028697,229.61055,-99.64262,7.668927
7258239861000.0,0.2394781763529411,13.38157329196795,2.599334832909908,-1.1814134,0.6835582,-0.5479461,229.2118,-99.12499,7.441424
7258244830000.0,0.1511299409411764,12.9956304696111,2.617934498114129,-1.3286319,0.6420194,-0.6407976,228.83368,-98.585915,7.188182
7258249860000.0,0.0562668878963669,12.63411546878348,2.670404145709554,-1.5027285,0.62796944,-0.74036866,228.4612,-98.01417,6.8980594
7258254926000.0,-0.0665945779927924,12.41674523619363,2.892499914678095,-1.6643023,0.61483586,-0.84849185,228.104,-97.42604,6.580745
7258259917000.0,-0.1873641436211699,12.228982722940708,3.0993128844110625,-1.8500054,0.59223384,-0.8979719,227.75833,-96.83113,6.2489715
7258264888000.0,-0.305764224735376,12.224246623955432,3.222448935933148,-1.9361374,0.52534413,-0.9969321,227.43237,-96.23066,5.8744245
7258269879000.0,-0.4227483932771084,12.230950778216869,3.3377042154795182,-2.0958786,0.46883908,-1.0965031,227.11244,-95.62577,5.4740543
7258274917000.0,-0.5250573051325301,12.33326029706024,3.3842081846554217,-2.2375994,0.4428773,-1.1866057,226.80896,-95.077705,5.0514135
7258280122000.0,-0.6315423486341611,12.449582755703611,3.411183913214213,-2.3280075,0.4428773,-1.2675453,226.51611,-85.40026,4.589981
7258284895000.0,-0.737673212616596,12.671072890773267,3.2081509681809006,-2.375655,0.46517387,-1.3494014,226.2317,-85.741234,4.1072927
7258290028000.0,-0.8593720801125224,12.924272668996675,2.9835267285994376,-2.381458,0.5180137,-1.426065,225.94109,-85.910484,3.5921159
7258294857000.0,-1.0564840306367744,13.326380876822096,2.703627786846816,-2.341141,0.56199604,-1.5109752,225.65489,-85.877335,3.0571182
7258300536000.0,-1.2882916030176457,13.79926812309266,2.374461066984912,-2.2999077,0.6230826,-1.5842791,225.34236,-85.686005,2.4942486
7258304932000.0,-1.4289411530786893,14.17135123481528,1.8870626666666663,-2.2321017,0.68752885,-1.6383406,225.02298,-85.34814,1.919456
7258309998000.0,-1.5808387288040076,14.60172807827176,1.2642824,-2.132225,0.8136725,-1.6542231,224.6746,-84.902916,1.3399458
7258314959000.0,-1.7237167848490866,14.838156459988086,0.5751503757545672,-2.0195205,1.0012082,-1.642922,224.26204,-84.46731,0.72496355
7258319878000.0,-1.8640314552025417,15.029919806989671,-0.1264229760127084,-1.8680259,1.2189816,-1.6362026,223.80794,-84.00159,0.109394066
7258324970000.0,-1.9642678822709163,14.945335636653386,-0.6465107855378486,-1.6594155,1.4352279,-1.6190983,223.2461,-83.65541,-0.5114752
7258329935000.0,-2.049514805826693,14.784313367729084,-1.096425189472111,-1.4187346,1.627345,-1.6334536,222.63046,-83.31568,-1.134758
7258334944000.0,-2.0198119546286057,14.61695615066841,-1.0620225645089958,-1.1814134,1.7397442,-1.638646,221.8908,-83.13912,-1.7585443
7258339902000.0,-1.957769230013067,14.449918295105036,-0.8902117929942708,-0.9804387,1.7104226,-1.5964963,221.1377,-82.97418,-2.361684
7258344899000.0,-1.827788309365279,14.328959798828512,-0.6865414933483354,-0.816116,1.5558738,-1.534799,220.3157,-82.90808,-2.955837
7258349992000.0,-1.6760634943543584,14.219201081342248,-0.4702529677907208,-0.7199047,1.328021,-1.4792101,219.52809,-82.82757,-3.522508
7258355003000.0,-1.526781529300417,14.11120953739493,-0.2574468021576543,-0.65026605,1.221425,-1.4535538,218.77013,-82.71305,-4.0557323
7258360108000.0,-0.796312902024846,13.58110975388829,0.1644010572581433,-0.5665775,1.001819,-1.4431691,218.11378,-82.59159,-4.5552177
7258364918000.0,0.0417958390492028,12.972805432260587,0.6149971568864325,-0.54000485,0.7635816,-1.4532484,217.49857,-82.438515,-5.038303
7258370485000.0,0.7025076991933898,12.477335613614006,0.9702607347235884,-0.49113566,0.35979962,-1.5079209,217.04306,-82.24627,-5.4787498
7258374962000.0,1.1495654350973836,12.13571576372221,1.2106597366614205,-0.49693888,0.22113322,-1.5326608,216.5819,-82.033394,-5.9051723
7258380047000.0,1.6357720433063792,11.973021451212938,1.335681544132974,-0.5308419,-0.07696902,-1.5968018,216.40407,-81.802826,-6.2212453
7258385086000.0,2.108375008984726,11.90798439568733,1.3963828412309074,-0.6218608,-0.3735441,-1.6441438,216.26497,-81.55817,-6.5299006
7258390000000.0,2.5281524759019924,11.879326255429906,1.3901687264763956,-0.7611381,-0.65057147,-1.6856827,216.27,-81.29884,-6.7756233
7258394954000.0,2.907121337668282,11.887842582480705,1.313523294740621,-0.8979719,-0.86437434,-1.6814066,216.34038,-81.02894,-7.009692
7258399992000.0,3.2560488422419405,11.894394,1.283259386103875,-1.0033462,-1.061073,-1.7018706,216.52708,-80.77606,-7.175806
7258405151000.0,3.497371230690329,11.894394,1.4039206433246498,-1.1154399,-1.2840388,-1.7354681,216.78125,-80.50197,-7.332107
7258411232000.0,3.765559855024876,11.89105165522388,1.5439004744278606,-1.215011,-1.5008959,-1.7547104,217.10619,-80.27088,-7.4134593
7258415000000.0,3.6069755453731354,11.822232228358208,1.5857906364179104,-1.3374895,-1.6212363,-1.7849482,217.46674,-80.01024,-7.4985585
7258419968000.0,3.397886678507463,11.731495786567164,1.6410216143283582,-1.4737124,-1.6053538,-1.844813,217.8846,-79.73372,-7.54817
7258425101000.0,2.944258850884583,11.80136147598989,1.7589778262847515,-1.591304,-1.4217888,-1.9297233,218.28874,-79.429214,-7.610336
7258430081000.0,2.1406784780960404,12.119445165964615,1.9665693919966305,-1.7223345,-1.0772609,-2.0305161,218.64326,-79.08384,-7.695552
7258434949000.0,1.3551705956192082,12.430375166526256,2.1694922317326597,-1.8225164,-0.68875057,-2.158187,218.92244,-78.67084,-7.853978
7258440077000.0,1.017333323680307,12.604409497251549,2.347093030930983,-1.8988746,-0.36713,-2.2379048,219.1237,-78.23308,-8.032593
7258444952000.0,1.1069514002006806,12.641071317773315,2.4855937333129745,-1.9361374,-0.2302962,-2.2467623,219.26892,-77.78,-8.22963
7258449991000.0,1.2421982659189117,12.595500969476875,2.547644620134228,-1.9220876,-0.21288654,-2.182927,219.27505,-77.21951,-8.588875
7258454960000.0,1.5134497949342651,12.280499170267536,2.3463934503355706,-1.887879,-0.25259277,-2.0922134,219.2567,-76.67108,-8.9387665
7258460073000.0,1.7963259368082756,11.930616737471125,2.1128964145023605,-1.8640553,-0.35613444,-2.043955,219.2811,-76.12621,-9.25569
7258465055000.0,2.1173745828261525,11.278936413076227,1.566634649713769,-1.7846428,-0.39522982,-1.9080375,219.28807,-75.64565,-9.517253
7258470098000.0,2.433455211536265,10.590357147344376,1.025287181810394,-1.7018706,-0.45875978,-1.7910569,219.33656,-75.223274,-9.722804
7258474981000.0,2.651560499828669,9.63781565952789,0.6157834128774033,-1.6328428,-0.47311515,-1.6673567,219.37276,-74.850716,-9.884248
7258480406000.0,2.8745752035852625,8.589136230519772,0.1860899264471669,-1.6236799,-0.43371433,-1.5351044,219.3748,-74.584114,-9.974824
7258486130000.0,2.69186611359337,7.690405323754616,0.2799134743185298,-1.6649132,-0.48441613,-1.4300356,219.40086,-74.3456,-10.02919
7258489926000.0,2.570698450139627,7.094391605711197,0.3421346811179173,-1.6881261,-0.6301075,-1.3967434,219.43466,-74.15578,-10.05395
7258494945000.0,2.322141962473265,6.531858883336574,0.4085812526599261,-1.7180585,-0.7480045,-1.3927728,219.47237,-73.97528,-10.052395
7258500112000.0,2.033497046782034,6.036351821602178,0.4711209860674704,-1.7715092,-0.82924956,-1.3942999,219.54102,-73.795105,-10.0330515
7258504947000.0,1.6372391307733765,5.615112450121261,0.617332861044642,-1.8234328,-0.820392,-1.366811,219.65521,-73.5366,-10.051074
7258510338000.0,1.136396127661008,5.165281221584479,0.8213800126129525,-1.815797,-0.75869465,-1.3277156,219.77664,-73.28864,-10.05949
7258514943000.0,0.8395404732863891,4.884827354338698,0.9877288589730582,-1.7931949,-0.6973027,-1.2614367,219.888,-72.98892,-10.109209
7258519946000.0,0.6635138613435969,4.696227383275017,1.15956437746676,-1.7559321,-0.72021013,-1.2287555,220.00475,-72.70308,-10.150767
7258525106000.0,0.4467635968780955,4.570008025515258,1.3100962154018214,-1.7281377,-0.8228355,-1.2403619,220.10648,-72.33505,-10.282143
7258529970000.0,0.1044160975331522,4.718854818421473,1.3473078359162804,-1.7363845,-0.97035944,-1.2483032,220.22322,-71.981224,-10.393839
7258535077000.0,-0.2550346999904138,4.875137830627896,1.3863785073733823,-1.7654005,-1.1093313,-1.2812898,220.40488,-71.554405,-10.546441
7258539947000.0,-0.4497311675112354,4.998756567052832,1.3886790163986815,-1.7785342,-1.1798862,-1.2901474,220.60457,-71.14015,-10.683669
7258544941000.0,-0.5786952549355837,5.113391435563767,1.3743497326475582,-1.8008307,-1.1633929,-1.3387111,220.82115,-70.7134,-10.831952
7258549983000.0,-0.5307376904126663,5.271063622940879,1.5341022040424457,-1.8209893,-1.1374311,-1.2519683,220.94955,-70.310234,-11.014446
7258556065000.0,-0.3639557638824321,5.486898866851945,1.833328613542193,-1.8280143,-1.2000448,-1.1154399,221.09398,-69.91348,-11.185972
7258560081000.0,-0.2499131574775478,5.497378630144475,2.0088558471690745,-1.8377881,-1.2473868,-1.065349,221.1714,-69.53969,-11.376159
7258564947000.0,-0.1043426994939476,5.260826656821554,2.179901162280359,-1.8570304,-1.3646729,-0.99021256,221.2702,-69.19517,-11.507264
7258569968000.0,0.0458647130698945,5.016739632971496,2.356394899882858,-1.8918496,-1.5213599,-0.9059132,221.5197,-68.79014,-11.5641
7258574983000.0,0.0649670249655511,4.884883311399864,2.4011255724559946,-1.9291124,-1.6804903,-0.799928,221.78816,-68.40346,-11.5805025
7258579995000.0,0.0359580623277933,4.794230365868399,2.397499454634736,-1.9764545,-1.8435913,-0.6737844,222.0855,-68.03007,-11.551032
7258584975000.0,0.0078569106387777,4.7031895135245545,2.389386086424377,-2.0112739,-1.9868392,-0.5403103,222.5244,-67.586,-11.440496
7258590055000.0,-0.0128470550365988,4.599669628938632,2.3314149372201887,-2.0299053,-2.1233675,-0.398895,222.98442,-67.15981,-11.275512
7258594907000.0,-0.0326217876068601,4.500795912401055,2.276045642744063,-2.0360138,-2.233018,-0.27366763,223.46484,-66.729675,-11.0784855
7258599980000.0,-0.0315826194576174,4.364774911912944,2.189517998510882,-2.0094411,-2.295937,-0.16646078,223.9466,-66.32477,-10.837619
7258604966000.0,-0.0224665527892325,4.218917753837343,2.0937992682703324,-1.9529362,-2.3228152,-0.070249505,224.42566,-65.945206,-10.557908
7258609978000.0,-0.0095185954294697,4.101677323349403,1.9851449447495284,-1.8732183,-2.3203716,0.028099801,224.88618,-65.5946,-10.255907
7258614969000.0,0.0055090225972542,4.001493328704674,1.8699332384510583,-1.7660115,-2.2843306,0.122783914,225.3242,-65.28061,-9.93153
7258619938000.0,0.0474635550590461,3.898601299621499,1.7571446735049203,-1.6346754,-2.198504,0.20158553,225.73505,-65.00365,-9.600099
7258626105000.0,0.1120427632625115,3.769442875952561,1.6180509944570611,-1.4819591,-2.0821342,0.28130344,226.10834,-64.77433,-9.254382
7258629951000.0,0.1373886653048659,3.7187510728500497,1.567282936425025,-1.2825116,-1.930945,0.3594942,226.42215,-64.61955,-8.913513
7258635085000.0,0.1471537729255213,3.699220867805362,1.5575178339026812,-1.0546589,-1.790446,0.4352415,226.69354,-64.52322,-8.569623
7258639917000.0,0.0827527905256458,3.705864242980157,1.5631887115312617,-0.8167268,-1.6484199,0.5009095,226.92055,-64.50199,-8.223194
7258644945000.0,-0.1335804992894046,3.763553154399101,1.599244234107076,-0.5647449,-1.4856243,0.55680364,227.09605,-64.55245,-7.8842144
7258649990000.0,-0.3506452262418569,3.821437115836765,1.6354216627854736,-0.31245756,-1.4059063,0.5934556,227.26407,-64.66132,-7.54769
7258655079000.0,-0.62370742660023,3.950947744691452,1.7610201834706785,-0.051923547,-1.2247849,0.6072,227.36089,-64.84206,-7.2392263
7258660086000.0,-0.9177730081640476,4.111764946569567,1.92643210908394,0.060170226,-1.0412198,0.63132924,227.4342,-65.051956,-6.9332447
7258665057000.0,-1.100722682947597,4.224201486841086,2.135902195038316,0.28680122,-0.8191703,0.6243043,227.37413,-65.38633,-6.758507
7258669944000.0,-1.209404168674046,4.303901121990866,2.3713786907036147,0.45265114,-0.5497787,0.61544675,227.26259,-65.72744,-6.605439
7258675327000.0,-1.314786400242856,4.3880117649558805,2.6375276789524813,0.5910121,-0.2855795,0.6160576,227.0662,-66.08718,-6.5620914
7258679977000.0,-1.2210572615720878,4.413246475147737,2.954764697085728,0.7165449,-0.090713486,0.63163465,226.83365,-66.474,-6.5340247
7258684959000.0,-1.1206360639682669,4.440282889379098,3.2946517560835424,0.79626286,0.06780604,0.6826419,226.59209,-66.77096,-6.523992
7258689943000.0,-0.925399584676259,4.370013407374101,3.779366663669065,0.87598073,0.14935656,0.7266242,226.33063,-67.09097,-6.5200615
7258695545000.0,-0.6083560739328537,4.190814898381295,4.473186454316547,0.960891,0.23060162,0.77121735,226.03404,-67.426,-6.5152283
7258700181000.0,-0.235095521815455,4.024333683589865,5.284871802588997,1.0012082,0.33841935,0.7693848,225.7893,-67.64279,-6.470279
7258704979000.0,0.4939164686999764,3.795837426379351,6.85895740776699,0.9615019,0.4071417,0.7150178,225.53922,-67.85321,-6.432331
7258710084000.0,1.2695742868703137,3.5527208375799195,8.53376087055016,0.9053023,0.3359759,0.65148777,225.35704,-67.91668,-6.309097
7258714945000.0,1.0154033638811464,4.0534218026820925,8.261099983644492,0.91996306,0.18906279,0.56107974,225.18549,-67.97757,-6.2094307
7258719956000.0,0.2498615489666051,4.940945579367166,7.032868175493031,1.0714576,0.08827003,0.45906523,225.02863,-68.05077,-6.1296177
7258725149000.0,-0.6865822867600726,5.838213927114337,5.685171563310345,1.2186762,0.3100141,0.33933565,224.89238,-67.80053,-5.914434
7258729987000.0,-1.7629110386671507,6.64209706076225,4.322942910068965,1.3558154,0.48655418,0.18051068,224.80673,-67.57602,-5.725589
7258735127000.0,-2.906426909854084,7.496160580181488,2.875680554206897,1.5381587,0.57910025,0.06627888,224.65665,-67.6548,-5.729527
7258739944000.0,-3.255209969133061,8.057810328299876,1.8722615481453189,1.7947221,0.8142834,0.08552113,224.42528,-67.788246,-5.7731915
7258744951000.0,-3.1913207291881327,8.500776389411973,1.0374409157221531,2.0448713,0.99387777,0.2284636,224.18498,-67.96852,-5.81577
7258750312000.0,-2.876604786014036,9.522917592188277,0.5090527102559014,2.19209,0.7657196,0.3680463,223.93835,-68.48725,-6.1326942
7258754984000.0,-2.289844573580492,11.108755744594882,0.512224384573616,2.3218987,0.54733527,0.43371433,223.64832,-69.04479,-6.4251456
7258759923000.0,-1.6695516178422058,12.785222918125754,0.5155773168200184,2.4016168,0.40469822,0.57818395,223.41841,-69.81772,-6.569724
7258765147000.0,-0.9469408580409062,14.27348767742823,1.5475857816545906,2.5185974,0.83108217,0.7125743,223.10251,-70.61095,-6.7148633
7258769945000.0,-0.2347085932110426,15.432445611574796,3.2459858790296248,2.4712553,1.3139712,0.85154617,222.81042,-71.36814,-6.7949996
7258775191000.0,0.3284978901035112,16.194650324132333,4.448394683844124,2.2687535,1.3955216,0.90041536,222.64825,-72.28798,-6.6035786
7258780085000.0,0.5409473604965835,16.172453992896283,4.619622635565929,2.1087067,1.1808025,0.8671232,222.45468,-73.16512,-6.4156637
7258785163000.0,0.7613843058696976,16.14942314491577,4.797288254455044,2.0299053,0.86926126,0.77091193,222.32939,-73.79597,-6.0899587
7258789946000.0,0.9170922776304156,15.270577933510166,4.154356142723255,2.0039434,0.5681047,0.63529986,222.2751,-74.36058,-5.7930055
7258794941000.0,1.005912740495137,13.1346580780725,2.331422368983201,2.0793853,0.45906523,0.5152648,222.26608,-74.89932,-5.529042
7258800199000.0,1.113061950909629,11.173669566854016,0.7572228133781985,2.2290473,0.5128214,0.44104472,222.30629,-75.41683,-5.250778
7258804966000.0,1.2649897874278953,10.549077287383524,0.7133325346102648,2.4010057,0.6209445,0.4089743,222.36882,-75.93566,-5.0058966
7258810535000.0,1.4424779606123352,9.81940361329685,0.6620581560789824,2.5482244,0.79076505,0.43218717,222.42976,-76.662025,-4.7746205
7258814949000.0,1.592119865636731,9.340575452497834,0.678100373310232,2.631913,1.0064005,0.50946164,222.45686,-77.39768,-4.5506544
7258819933000.0,1.7712999187698528,8.913299996534796,0.7607988697044952,2.62275,1.2144,0.5873469,222.44815,-78.127594,-4.33293
7258824997000.0,1.944967615571439,8.671985669316607,0.9281092819196266,2.5970936,1.3878858,0.66675943,222.37608,-78.87011,-4.0831676
7258830121000.0,2.1060222117934506,8.765039467580774,1.2430605853227334,2.5592198,1.484708,0.7305948,222.27664,-79.59135,-3.8269548
7258834953000.0,2.2578988333673693,8.852790434249872,1.5400638441134853,2.545781,1.5387696,0.8026769,222.08174,-80.33923,-3.532501
7258839949000.0,2.39711101454058,9.232900219861811,1.8403043799113128,2.533869,1.5381587,0.8604037,221.88466,-81.06162,-3.2304387
7258844933000.0,2.525088796287512,9.78911143322677,2.1356378093843458,2.5085182,1.5225816,0.90285885,221.68593,-81.76171,-2.919044
7258850302000.0,2.6475947873779115,10.455520410969196,2.285403170698723,2.4736989,1.4129313,0.9410379,221.4427,-82.44566,-2.556324
7258854972000.0,2.7483995774271643,11.06034876141581,2.3526063380749647,2.3942864,1.3637567,0.9578367,221.19446,-83.09022,-2.195702
7258859955000.0,2.86621791348022,11.71798649323986,2.3517693734001,2.3432791,1.2528846,1.0005972,220.96526,-83.71778,-1.8003705
7258864948000.0,3.009884450275413,12.407585549824738,2.169791750125188,2.2449298,1.1725558,1.040609,220.74739,-84.284615,-1.4084927
7258869907000.0,3.1047447324116,13.026012245784758,1.9922682719915208,2.137723,1.1273518,1.0800097,220.55246,-84.82053,-0.99195015
7258875071000.0,3.076155407428461,13.49296989372772,1.815967948723384,2.0387628,1.0955868,1.1163563,220.38168,-85.29558,-0.5736754
7258880971000.0,3.008724546237076,13.919869260639576,1.6424327453474394,1.93797,1.0622946,1.1606439,220.23137,-85.7492,-0.1281413
7258885060000.0,2.9177069194277467,14.079934750180332,1.5576921939889397,1.8542814,1.0409144,1.2052372,220.09277,-86.12146,0.31558365
7258889910000.0,2.809750086455077,14.269789879618498,1.4571806571611765,1.777007,1.0225884,1.2525792,219.96843,-86.43926,0.7589313
7258894949000.0,2.6414063739529854,14.391748946140682,1.4423837633882737,1.7079792,1.0002918,1.31672,219.85822,-86.64908,1.2068504
7258899981000.0,2.450432660470143,14.482895538593173,1.4640852661172654,1.645671,0.93309665,1.3826935,219.77304,-86.743355,1.656485
7258904972000.0,2.247819782481752,14.4521336046869,1.447234654091433,1.5635096,0.8622363,1.4495832,219.69176,-86.76175,2.0921302
7258909964000.0,2.032015986861314,14.300611637725702,1.3921358616212065,1.4804319,0.78954333,1.5103643,219.63744,-86.666466,2.5331087
7258914949000.0,1.809472393062201,14.107220360047847,1.336250969916268,1.4065173,0.711658,1.5583172,219.58391,-86.497696,2.957364
7258919998000.0,1.5739855490772383,13.851076790498974,1.278412095198223,1.3347405,0.634689,1.5806139,219.55829,-86.25373,3.380112
7258925109000.0,1.344099241696474,13.586094358303528,1.229910620848237,1.2654073,0.5131268,1.5946637,219.54973,-85.981415,3.7840915
7258929971000.0,1.1965841244762392,13.28630547552376,1.2679790622381195,1.1890492,0.36651915,1.6282613,219.57738,-85.66419,4.1894636
7258934992000.0,1.0483658303348788,12.962349191653786,1.3073323792581144,1.1023064,0.1908954,1.6441438,219.6385,-85.358635,4.556965
7258939946000.0,0.9310403070376094,12.541932996908807,1.34644080194745,1.0241156,0.0012217305,1.674687,219.75122,-85.026024,4.9291987
7258944975000.0,0.8214805403125,12.09422003125,1.3425784559375,0.93828905,-0.095294975,1.7146988,219.84047,-84.67681,5.3032513
7258950669000.0,0.7472004396875,11.47813196875,1.1109993240625,0.9053023,-0.35216382,1.7537941,220.03476,-84.31694,5.6772733
7258954977000.0,0.6910011643990385,11.012008439903846,0.9357898228125,0.8054258,-0.4370741,1.7708983,220.17708,-83.9493,6.0500126
7258960093000.0,0.5816104254739815,10.649756970552644,0.7588247861436063,0.7984009,-0.57635134,1.8093829,220.4121,-96.4318,6.431045
7258964986000.0,0.4587441163775716,10.385122450584914,0.6028791127067366,0.7703011,-0.6805039,1.8270979,220.66357,-96.80651,6.801774
7258970071000.0,0.2822902371715055,10.14237403210921,0.4792868691866949,0.745561,-0.77488256,1.8393153,220.94972,-97.19558,7.180069
7258974973000.0,0.092739064976543,9.921230778119591,0.3754850352009229,0.7275405,-0.8347474,1.8225164,221.25824,-97.57691,7.5458574
7258980075000.0,-0.1430959974664271,9.690515371098922,0.2453714856414791,0.71837753,-0.8604037,1.7873917,221.58185,-97.949585,7.8943596
7258985076000.0,-0.3967409824441081,9.464046783998487,0.1049608609003215,0.7101309,-0.8698721,1.7363845,221.9195,-98.309135,8.224941
7258990002000.0,-0.6225386229060078,9.28866175427569,0.0150854656475661,0.7309003,-0.84604836,1.6539177,222.23761,-98.642944,8.518143
7258995003000.0,-0.8290671517512058,9.155642903230522,-0.0304208151218389,0.7431176,-0.82802784,1.5577064,222.56053,-98.95602,8.785601
7259000106000.0,-1.0398080201169415,9.019911010232422,-0.07685523839044,0.7470882,-0.8436049,1.4627168,222.86873,-99.23984,9.009968
7259005066000.0,-1.2514753031904375,8.904587364338996,-0.1911548489278332,0.75808376,-0.8445212,1.3881912,223.1669,-99.50397,9.207454
7259010177000.0,-1.4714225282555944,8.790215246427609,-0.3275221348988946,0.76174897,-0.8035932,1.3057245,223.45547,-99.739876,9.371311
7259015004000.0,-1.621199616277234,8.700046283154405,-0.3934481433122829,0.7831292,-0.7687739,1.2275337,223.7179,-99.95113,9.497074
7259020644000.0,-1.7448483797758132,8.610507498815915,-0.4147668980959899,0.78954333,-0.7632761,1.1594223,223.97444,-100.143234,9.598951
7259025260000.0,-1.8275045611801244,8.540905947204969,-0.4245321067080745,0.7855727,-0.7501425,1.1102476,224.19986,-100.32362,9.677635
7259030067000.0,-1.665216505002518,8.517721875776397,-0.331796079217727,0.795652,-0.71959925,1.0775663,224.41629,-100.49402,9.73902
7259035062000.0,-1.4965814227043812,8.493631083850932,-0.235433179838845,0.79809546,-0.71685034,1.0277808,224.61107,-100.6515,9.779418
7259039941000.0,-1.2354316518296973,8.38842360731879,-0.2507323886277269,0.8191703,-0.74006325,0.9660834,224.80191,-100.80221,9.80462
7259044947000.0,-0.9107047883004926,8.23238595320197,-0.3308597950246305,0.8072584,-0.77854776,0.92149025,224.99364,-100.942375,9.818158
7259049988000.0,-0.5936972605172661,8.106195109517985,-0.3487528440417266,0.81214535,-0.72143185,0.8219192,225.13716,-101.08858,9.828721
7259054998000.0,-0.2968438069992806,8.037159363978418,-0.252102886789928,0.82344633,-0.63713247,0.7266242,225.28041,-101.22519,9.826602
7259059975000.0,-0.0019456756302158,7.968578344906475,-0.1560895460230215,0.81092364,-0.6123924,0.6411031,225.43198,-101.40409,9.853344
7259065001000.0,0.4433945682728843,7.745557307747348,-0.1946457049198124,0.75808376,-0.59437186,0.5699373,225.557,-101.55884,9.858267
7259069944000.0,0.988451039539436,7.414630307780246,-0.3309098318833785,0.68325275,-0.52687126,0.5183192,225.65642,-101.69235,9.846491
7259074975000.0,1.4935622720421935,7.124501071548038,-0.4732733703953245,0.62980205,-0.42821655,0.46578476,225.72752,-101.85153,9.875558
7259080089000.0,1.6983455812696,7.119846908742754,-0.6408233480214767,0.59437186,-0.3576616,0.42760566,225.785,-101.99096,9.894479
7259085168000.0,1.899482845711061,7.123404243002257,-0.8149365392663657,0.548557,-0.3042109,0.3830125,225.85959,-102.212494,10.0098915
7259090349000.0,2.0761033516235456,7.23109954617121,-1.0906367789720437,0.52626044,-0.226631,0.35002577,225.9068,-102.42221,10.118657
7259094914000.0,2.231724391864907,7.325990312233027,-1.3335573723432887,0.54305923,-0.10995574,0.34574974,225.94772,-102.671234,10.258048
7259099992000.0,2.329759453883685,7.350398560915951,-1.4192631216692688,0.6273586,0.004581489,0.3494149,225.9674,-102.91816,10.390687
7259105070000.0,2.399358874687744,7.344071343845954,-1.4350811973783502,0.7593055,0.10720685,0.3417791,225.9581,-103.16836,10.520275
7259109931000.0,2.4659840784153007,7.338014510018215,-1.4502233135701277,0.93034774,0.1414153,0.3173445,225.96132,-103.49705,10.677448
7259114947000.0,2.480886989091085,7.581067257767883,-1.0651177622011423,1.0885619,0.1423316,0.3036,225.94795,-103.84116,10.834489
7259119935000.0,2.467015414683961,7.955599863323975,-0.4686396522989062,1.2073752,0.14966199,0.28130344,225.92468,-104.19487,10.980386
7259125080000.0,2.4229106547894146,8.240230041744315,-0.1052806200857249,1.2559389,0.23854288,0.25870144,225.88368,-104.57362,11.138795
7259130137000.0,2.359733353997391,8.452325767331345,0.0842512728661945,1.2534955,0.36987892,0.22693644,225.82948,-104.951,11.2878275
7259135255000.0,2.2303939476225776,8.630423471460341,0.18705249051149,1.1884383,0.5311473,0.21013765,225.67009,-105.22222,11.417149
7259140074000.0,2.0446771485756643,8.76237976575241,0.196827058613788,1.0940597,0.61208695,0.20525073,225.4966,-105.4769,11.5411005
7259145001000.0,1.8743657560515417,8.851243504371837,0.2238495938057984,1.0228939,0.7440339,0.20158553,225.22792,-105.67791,11.653275
7259149990000.0,1.7167891591578464,8.90621204463875,0.2641598872802577,1.0015136,0.8304713,0.19303341,224.95079,-105.86281,11.762048
7259155494000.0,1.538337230575166,8.969507631748339,0.3158188686316445,0.98746365,0.8573494,0.20372356,224.63725,-106.01219,11.85144
7259160058000.0,1.315982723307724,9.064802454422756,0.4746435004339701,1.0326678,0.85154617,0.21624629,224.31119,-106.16201,11.938786
7259165365000.0,1.0706086374115042,9.184108874115044,0.6359952614380532,1.0381655,0.82344633,0.23060162,223.96939,-106.27048,11.994975
7259171050000.0,0.9411231092311948,9.397910467311949,0.5727581576493364,1.0412198,0.79045963,0.23243423,223.63417,-106.38219,12.047903
7259175087000.0,0.849173579369469,9.549734043694691,0.5278525836836283,1.0201449,0.7556403,0.25167647,223.28172,-106.44439,12.066909
7259180100000.0,0.7349939922511062,9.738263047511063,0.4720904726382743,0.9935723,0.75319684,0.29565877,222.93445,-106.50798,12.091384
7259185094000.0,0.6230060176397955,9.928766285676486,0.4132039822931734,0.9468411,0.7516697,0.34147367,222.60152,-106.56438,12.117888
7259190005000.0,0.5151541683718469,10.11958102928206,0.3509817768883401,0.89736104,0.7632761,0.36774087,222.27031,-106.61649,12.149538
7259195074000.0,0.3847676881180223,10.312051559011165,0.2975988981499202,0.82619524,0.7779369,0.376293,221.92702,-106.63922,12.152447
7259200170000.0,0.1512585600197016,10.4814604510273,0.3021775052237546,0.7825184,0.7318166,0.3839288,221.60301,-106.6599,12.15756
7259205290000.0,-0.0740013071348992,10.655342462491877,0.3093065887828428,0.732122,0.6618725,0.38453966,221.2735,-106.65656,12.139556
7259209872000.0,-0.1636290514947544,10.854967878609228,0.3459724836226905,0.6780604,0.6258314,0.37690386,220.95111,-106.64174,12.119033
7259214821000.0,-0.2604356221706434,11.07058249763253,0.3855751709999071,0.643852,0.59406644,0.37415496,220.63165,-106.59279,12.054538
7259219838000.0,-0.3340036207867298,11.154116710236966,0.5089532748492891,0.6450737,0.5693264,0.37782016,220.32372,-106.53963,11.987925
7259224863000.0,-0.4024255925876777,11.20885396379147,0.6503586895886256,0.63499445,0.5195409,0.3539964,220.03342,-106.47119,11.909564
7259229842000.0,-0.3604970819943703,11.22759839063803,0.7933883343411177,0.6151413,0.43951756,0.30726522,219.73645,-106.37944,11.805377
7259234822000.0,-0.2759711712979566,11.23257060289825,0.937579582464554,0.5919284,0.40775254,0.28771752,219.44339,-106.28686,11.703032
7259240073000.0,-0.0890000941600159,11.245706228651237,1.096456488707103,0.58123827,0.312763,0.29626966,219.16595,-106.16853,11.582802
7259244827000.0,0.1017602595889864,11.259331769353553,1.2417977079010376,0.5571091,0.2275473,0.3182608,218.89803,-106.04407,11.461319
7259249942000.0,0.3526891450381679,11.311926271537622,1.383548319901854,0.4896085,0.13225232,0.3680463,218.64912,-105.91571,11.360893
7259254914000.0,0.6079905913486005,11.372506594329334,1.517689753198837,0.43951756,0.04520403,0.43035457,218.42789,-105.795586,11.267347
7259259897000.0,0.9263795393294648,11.539457245433054,1.486627922458629,0.3930918,-0.014966198,0.49571714,218.223,-105.67984,11.216097
7259264895000.0,1.2864205072211476,11.776055562003007,1.347755006855792,0.36835176,-0.03604105,0.53786683,218.03773,-105.56918,11.173724
7259269892000.0,1.6119448896908168,12.174779905491462,1.2201807101430548,0.37048978,-0.054061573,0.5723807,217.86813,-105.482315,11.183683
7259275107000.0,1.939213598458699,12.649549943793264,1.091116992653438,0.3640757,-0.056505036,0.5910121,217.7053,-105.39733,11.200288
7259279915000.0,2.2266849690531854,13.120825847944673,0.9492186898792128,0.34116822,-0.03726278,0.6017023,217.55888,-105.36583,11.268707
7259284896000.0,2.5147746846288723,13.631952817455678,0.7865873902201441,0.2938262,-0.009773844,0.5910121,217.414,-105.33021,11.335258
7259289893000.0,2.7096852261298365,14.16405138853365,0.6653239234854232,0.25045475,0.013744468,0.5510005,217.27472,-105.32576,11.431822
7259294896000.0,2.8187313233445326,14.714474106968678,0.5822412111520539,0.19761491,-0.011911872,0.47708577,217.14304,-105.30361,11.512635
7259299909000.0,2.789604714592275,15.104350240343347,0.4967608947639485,0.12644911,-0.044593163,0.3943135,217.01413,-105.29618,11.60748
7259304971000.0,2.6938975023175966,15.420600536995709,0.4093760276154506,0.04184427,-0.08307768,0.31215215,216.89449,-105.26361,11.678109
7259310556000.0,2.506530840519939,15.536886344138647,0.4040731727385059,-0.0571159,-0.112704635,0.21746802,216.77345,-105.20129,11.720595
7259314953000.0,2.2733978291583083,15.384842861108885,0.4952991143785605,-0.17379116,-0.13927728,0.10903945,216.66217,-105.10395,11.733745
7259319903000.0,2.010944245751424,15.213677238867046,0.5979983209098932,-0.3100141,-0.09193522,-0.0018325958,216.52713,-104.95913,11.700541
7259324988000.0,1.9017933216496792,14.817886710645526,0.9009772658361646,-0.42577308,0.059864793,-0.09773844,216.36937,-104.78311,11.64606
7259329900000.0,1.821881766345791,14.400571145526614,1.2250630894979238,-0.4728097,0.18325958,-0.18387043,216.20576,-104.58002,11.565742
7259334954000.0,1.81752120711353,14.128029690442087,1.4691725367898405,-0.54000485,0.22540927,-0.2657264,216.00766,-104.30256,11.429061
7259339934000.0,1.8402904537477325,13.913998581877207,1.6786497009261911,-0.6206391,0.27458394,-0.30879238,215.77466,-104.013115,11.287563
7259344946000.0,1.8803460324772816,13.737492519557486,1.873255166811537,-0.67011917,0.32711834,-0.3811799,215.51202,-103.67538,11.120711
7259350078000.0,1.930834084788621,13.578261016752272,2.063556296420387,-0.7583892,0.3943135,-0.45448375,215.23502,-103.31795,10.94618
7259355111000.0,1.9628465203444128,13.413562700841007,2.259961511774129,-0.86193085,0.4801401,-0.55680364,214.93086,-102.92679,10.757645
7259360451000.0,1.8932123643171803,13.188275436123348,2.5262098057268725,-1.0064005,0.57360244,-0.67164636,214.6087,-102.50713,10.549235
7259364940000.0,1.83467533690028,12.998890692430916,2.7500278940328395,-1.1725558,0.6753115,-0.7852673,214.25497,-102.05086,10.330756
7259369956000.0,1.6501262806729775,12.767637224950793,2.962125488780579,-1.3304645,0.8017606,-0.87017757,213.87257,-101.57063,10.092891
7259375110000.0,1.3864225397413066,12.517812907957635,3.1564334143406128,-1.5262468,0.89736104,-0.9627236,213.47488,-101.05176,9.823867
7259380541000.0,1.0266725257829814,12.255832011603596,3.228270832082375,-1.6743816,0.9764681,-1.0375546,213.0424,-100.49904,9.533577
7259385073000.0,0.6727771640100355,12.03805012952122,3.2010481797302948,-1.8020525,1.035722,-1.1258247,212.59647,-99.928604,9.21552
7259389998000.0,0.2848273274443309,11.873442486618998,3.11163665011236,-1.8863518,1.0729848,-1.2082914,212.13025,-99.32655,8.850275
7259395047000.0,-0.1152356852410623,11.75490547875383,2.9782823486516854,-1.9321668,1.0714576,-1.3014483,211.6685,-98.73463,8.458028
7259400096000.0,-0.5037048977522935,11.771740871559633,2.6913024449541285,-1.9645426,1.0769554,-1.4034629,211.19847,-98.11972,7.995058
7259405287000.0,-0.896444306444317,11.866758396024464,2.308064765558104,-1.9657644,1.0274754,-1.5134187,210.7553,-97.53476,7.5049396
7259410104000.0,-1.260887714587156,11.954930119266056,1.952438508256881,-1.9666806,0.9166033,-1.6346754,210.33057,-83.06536,6.934477
7259414943000.0,-1.5335035194953917,12.04450753104925,1.569183953691463,-1.9324722,0.7861836,-1.7427986,209.93536,-83.616325,6.341247
7259420004000.0,-1.7185139085653105,12.139268524625267,1.1405012805139187,-1.887879,0.68019843,-1.8469511,209.57466,-84.11032,5.7208104
7259424978000.0,-1.799978589698251,12.275286352681146,0.6572159501057083,-1.8246545,0.58123827,-1.9486601,209.22578,-84.64418,5.0003767
7259429979000.0,-1.6849160853546032,12.496206945416104,0.0496860117547569,-1.754405,0.5858198,-2.0164661,208.8808,-85.09797,4.2700553
7259434948000.0,-1.4958155753094533,12.7810835759667,-0.579111988125753,-1.6927075,0.6423248,-2.0384574,208.51521,-85.52625,3.5173876
7259439948000.0,-1.0814395757476176,13.26364793131778,-1.2872229093657577,-1.6713274,0.84574294,-2.0378466,208.1044,-85.84461,2.7623057
7259444924000.0,-0.7092728017327052,13.7103167384317,-1.7840856130414704,-1.641395,1.1716396,-1.9981402,207.56456,-86.1543,2.0634243
7259449996000.0,-0.3862565814981065,14.118573387919092,-1.9994297942181585,-1.6221527,1.5409076,-1.921782,206.95052,-86.34594,1.3836985
7259454971000.0,-0.1238261834888653,14.443833706150585,-2.099985592873807,-1.6209309,1.8261817,-1.8628336,206.18884,-86.56292,0.80476356
7259459990000.0,-0.0116891892948038,14.561067806203608,-1.8910029486744435,-1.5839735,1.9682078,-1.8102992,205.36922,-86.69411,0.2501445
7259464913000.0,0.1405522244133208,14.618377288515406,-1.5986739314908185,-1.4679092,1.9312505,-1.8139644,204.55244,-86.76371,-0.23989318
7259469943000.0,0.3691898959663866,14.57714749159664,-1.1488948852100842,-1.2522738,1.7256943,-1.8756617,203.75383,-86.78765,-0.727024
7259475063000.0,0.6019185000124494,14.535179984593835,-0.6910681025147838,-0.97341377,1.432479,-1.8955148,203.00198,-86.761215,-1.1776271
7259479960000.0,1.2549470597192012,14.535634799881352,0.1413302899703381,-0.76052725,1.028697,-1.8918496,202.3498,-86.695984,-1.6294032
7259484920000.0,2.011092537275064,14.545028100257069,1.0712482150642673,-0.6441574,0.47036624,-1.8897116,201.83232,-86.598724,-2.0746539
7259490063000.0,3.205410693031528,13.63708980113177,1.5255658797089733,-0.591623,-0.13072516,-1.9037615,201.50725,-86.40428,-2.473632
7259494908000.0,4.439483267243331,12.538052272837511,1.8181423869846405,-0.6640105,-0.64873886,-1.930945,201.31824,-86.17349,-2.8628983
7259500123000.0,5.493656465674074,11.477954608296296,1.8443454002666664,-0.8347474,-0.98929626,-1.93797,201.39507,-85.85872,-3.156843
7259505079000.0,5.957735681585185,10.711520588740742,1.3029195810666665,-1.0827587,-1.1071932,-1.9425515,201.55263,-85.51676,-3.447101
7259509986000.0,6.417226543666667,9.952664306666666,0.7668468420000001,-1.3478742,-1.0845913,-1.9446895,201.91928,-85.22526,-3.5371048
7259515001000.0,6.611264469552343,9.22440800923184,0.2831471957150323,-1.5619824,-1.0311406,-1.9764545,202.30879,-84.88839,-3.6291134
7259519949000.0,6.631899508430587,8.535201425361436,-0.1543132023375717,-1.7311921,-0.94714653,-2.03693,202.6819,-84.500725,-3.723947
7259525097000.0,6.319022850773082,8.148456111029303,-0.3557689984538359,-1.7889189,-0.8200866,-2.1138992,203.04584,-84.19505,-3.7410557
7259530145000.0,5.343748210101605,8.429648517449566,-0.0461015197967897,-1.7715092,-0.79779,-2.1618521,203.4161,-83.86428,-3.75898
7259534952000.0,4.415034819113533,8.697416326019733,0.2487819132270654,-1.750129,-0.79076505,-2.1572707,203.74084,-83.56247,-3.7767777
7259540004000.0,3.519611443392748,8.955363791289841,0.6172033111950128,-1.7608191,-0.73639804,-2.122146,204.04622,-83.25985,-3.792694
7259545005000.0,2.6869716850645364,9.195063578716306,1.0209075059039423,-1.7931949,-0.6221663,-2.0952678,204.33247,-82.96245,-3.8035285
7259549946000.0,1.893130476322523,9.456577292770008,1.41978092692651,-1.8555032,-0.41630468,-2.0986276,204.46806,-82.56056,-3.9858813
7259554952000.0,1.1513994694971734,9.775140703461272,1.823929213309531,-1.9156734,-0.13744467,-2.1163425,204.54956,-82.16483,-4.163146
7259559920000.0,0.5386634435615385,10.034111277948718,2.1212677111794878,-1.9761491,0.17745635,-2.1105394,204.51396,-81.65249,-4.4722915
7259565767000.0,0.1653595246923076,10.17768961025641,2.178699044102564,-2.0027218,0.4156938,-2.0943515,204.42058,-81.14544,-4.7835217
7259570351000.0,-0.1192264352836179,10.278634290054065,2.224051297108041,-1.9285016,0.53023106,-2.0320432,204.24637,-80.563065,-5.1894975
7259574976000.0,-0.2218526888234789,10.11519275139449,2.277264952389942,-1.7443258,0.5027421,-1.9422461,204.0431,-80.020325,-5.5796995
7259579929000.0,-0.3317570853170857,9.940160115506735,2.3342524625761607,-1.5454891,0.35369098,-1.8209893,203.80522,-79.49898,-5.9815955
7259584944000.0,-0.37349546,9.53596446328451,2.146273138480939,-1.3891076,0.10842858,-1.7055358,203.59937,-79.03459,-6.347848
7259589950000.0,-0.37349546,8.996511998447959,1.8114406444271995,-1.31672,-0.10598512,-1.59558,203.42241,-78.62463,-6.66996
7259594936000.0,-0.2912301988250428,8.372018062435679,1.5018338830188678,-1.2886202,-0.258396,-1.5106697,203.30608,-78.22345,-6.977127
7259600145000.0,-0.1391110133581093,7.649452029502573,1.197595522012579,-1.3683381,-0.42241332,-1.4425583,203.24872,-77.838326,-7.241666
7259605099000.0,0.0183107693601003,7.04465712808747,0.9275598699139632,-1.4950926,-0.54092115,-1.3729197,203.16617,-77.51703,-7.4614906
7259609967000.0,0.1854371190966122,6.5307434413335725,0.6810484814751747,-1.6358972,-0.63621616,-1.3246613,203.12193,-77.1885,-7.6576204
7259614950000.0,0.3099576248304628,6.03091131967169,0.5076609671555437,-1.756543,-0.7476991,-1.312444,203.13902,-76.84875,-7.830501
7259620005000.0,0.2839023147524219,5.609684127933262,0.5901694452906351,-1.8503108,-0.8542951,-1.3151928,203.17938,-76.49695,-7.9860387
7259625467000.0,0.2695002866207559,5.205669550192184,0.6775207603779629,-1.890628,-0.9114109,-1.3353515,203.2661,-76.14237,-8.1260195
7259629970000.0,0.3592851485610185,5.250561914453876,0.736226243009289,-1.9016235,-0.93645644,-1.3680327,203.37276,-75.78054,-8.262458
7259636120000.0,0.4819093770603779,5.311873937596092,0.8164036176889814,-1.8799378,-0.9627236,-1.3842206,203.52711,-75.37009,-8.412983
7259639942000.0,0.5098088876906057,5.369467553812114,0.864516291038997,-1.8396207,-0.97494096,-1.3988814,203.682,-74.96843,-8.56672
7259644944000.0,0.514225145974002,5.45779271948004,0.9263439531206784,-1.8185458,-0.99021256,-1.4214834,203.8425,-74.57538,-8.720418
7259650165000.0,0.49000639458253,5.586807583753522,1.0066121686489693,-1.7910569,-1.0439687,-1.4679092,204.06865,-74.17086,-8.858725
7259654965000.0,0.4218339728118048,5.764055894594394,1.1054621997923773,-1.7577647,-1.1337659,-1.5118915,204.30559,-73.78229,-8.993633
7259659956000.0,0.3509488567581195,5.948357211137475,1.2082456384250333,-1.7424932,-1.2272283,-1.5454891,204.5998,-73.36534,-9.134064
7259664943000.0,0.4247914239719106,6.088619538951197,1.1458048966100838,-1.7424932,-1.207986,-1.5091426,204.87892,-72.970924,-9.261986
7259669941000.0,0.5795530723926443,6.204690854804486,0.9910432178892594,-1.7318029,-1.1530081,-1.4523321,205.16821,-72.594635,-9.38265
7259674926000.0,0.6585538160783655,6.146084992516607,0.9729570282182796,-1.6920967,-1.1438452,-1.3967434,205.48903,-72.20028,-9.508505
7259680070000.0,0.6999757409148238,5.9928238096359205,1.0268055560245524,-1.6676621,-1.1899655,-1.3371841,205.79811,-71.82831,-9.610819
7259685070000.0,0.6965492021607607,5.872353735522904,1.0850431471045807,-1.6447546,-1.2550226,-1.2724323,206.15164,-71.48636,-9.669343
7259690053000.0,0.5953098570095073,5.8161096940363,1.1562856388072602,-1.6175711,-1.2965615,-1.2000448,206.49907,-71.17456,-9.702138
7259694908000.0,0.4966710810293078,5.761310412194547,1.2256981006207277,-1.57084,-1.3390167,-1.0888673,206.88992,-70.85898,-9.702596
7259700061000.0,0.342352399119912,5.64923077029703,1.2616837555555556,-1.5289958,-1.3875804,-0.9990701,207.28181,-70.56925,-9.680596
7259704988000.0,0.1779751402933627,5.52378495990099,1.2833123731481482,-1.459968,-1.4150693,-0.8933904,207.66164,-70.32795,-9.618527
7259709971000.0,-0.0373691299685287,5.426071052045633,1.3140118015735642,-1.3826935,-1.4431691,-0.77182823,208.06763,-70.06258,-9.555537
7259715042000.0,-0.2952817260306845,5.349652658005507,1.352221048465775,-1.2751812,-1.4779885,-0.6658431,208.46704,-69.84585,-9.46254
7259719996000.0,-0.5563777157977736,5.333528391280148,1.4010270220160792,-1.142318,-1.5283848,-0.5561928,208.8821,-69.61637,-9.389743
7259725069000.0,-0.8317923446382189,5.368581033024118,1.46111744427953,-1.0250319,-1.5778649,-0.47311515,209.291,-69.43134,-9.290235
7259730072000.0,-1.067960422524569,5.357896684007046,1.51406682656221,-0.89675015,-1.6056592,-0.3924809,209.70616,-69.23328,-9.217725
7259735057000.0,-1.2804152667902835,5.318061468588912,1.5627544147784165,-0.76174897,-1.6438384,-0.35613444,210.12576,-69.081726,-9.1273575
7259739970000.0,-1.4160478161720105,5.249159759597054,1.604240112115468,-0.6881397,-1.6841555,-0.29626966,210.54257,-68.90864,-9.068063
7259744979000.0,-1.457616493652513,5.140042015121318,1.6380146456130849,-0.5170974,-1.6954565,-0.23823744,210.9507,-68.80843,-8.996029
7259750368000.0,-1.5023387142439342,5.022646222551994,1.6743514316020365,-0.35185838,-1.6633861,-0.18997909,211.35655,-68.676254,-8.966386
7259755002000.0,-1.5407953426018195,4.921697604484402,1.7055974264568892,-0.18325958,-1.6288722,-0.13347405,211.75099,-68.60538,-8.914717
7259759962000.0,-1.4976278349424668,4.612011595190579,1.9548325201096728,-0.0061086523,-1.5711454,-0.06688975,212.1185,-68.59302,-8.849748
7259765053000.0,-1.4231183222941386,4.221932301150665,2.287933895001798,0.17195857,-1.4975362,-0.021380283,212.46405,-68.63361,-8.777734
7259770071000.0,-1.380692643004051,3.997718436522281,2.5493346023995014,0.3652974,-1.3994923,0.04734206,212.79153,-68.68492,-8.719803
7259775100000.0,-1.365684314178872,3.915172627983796,2.751947198254908,0.5723807,-1.2840388,0.13225232,213.08484,-68.79614,-8.651387
7259780717000.0,-1.362124836548665,3.863355735409237,2.9615923023832305,0.7693848,-1.1273518,0.21471913,213.35956,-68.87831,-8.58557
7259785087000.0,-1.471328882560668,4.16548693824476,2.9834330659737325,0.9465357,-0.93645644,0.3032946,213.58229,-69.02035,-8.508864
7259789965000.0,-1.593227586553014,4.502740029190223,3.0078127558580503,1.0800097,-0.69058317,0.39522982,213.75635,-69.15676,-8.434318
7259794934000.0,-1.6471176389865565,4.894302667735263,3.1399823097414687,1.1746938,-0.3921755,0.46609017,213.85701,-69.33455,-8.365083
7259800126000.0,-1.662543570320579,5.331369469389865,3.3405189338572905,1.237613,-0.1142318,0.537256,213.88786,-69.545845,-8.292662
7259805104000.0,-1.5943275572327045,5.602491962264151,3.9696165735849056,1.2654073,0.12461651,0.60903263,213.86162,-69.7553,-8.248668
7259810120000.0,-1.496457350482771,5.823763811320754,4.756833718628753,1.2861768,0.38240165,0.6383542,213.75427,-69.97683,-8.223646
7259815099000.0,-1.2334221391996032,6.066744586902596,5.847398449809823,1.2974777,0.62125,0.57757306,213.62093,-70.16758,-8.221376
7259820057000.0,-0.7937030307557467,6.333716939639491,7.26470715379527,1.2867876,0.7144069,0.5412266,213.45558,-70.35764,-8.214486
7259825238000.0,-0.347347921048566,6.705983973046265,8.64108993927192,1.2296717,0.6603453,0.48349985,213.25621,-70.45813,-8.220032
7259829969000.0,-0.0681063707568411,7.956986102802202,8.875652911496426,1.2507466,0.5656612,0.43768495,213.04785,-70.56779,-8.236814
7259835049000.0,0.2317344822302571,9.300273107486236,9.12751930314734,1.2880094,0.2125811,0.48349985,212.92537,-70.548256,-8.13014
7259840072000.0,-0.4879000423326132,10.529109282937364,7.4928482,1.3564262,0.09285152,0.6038403,212.76434,-70.54254,-8.027891
7259845001000.0,-1.8084297047577904,11.674862759642089,4.749836228571429,1.3631458,0.2660318,0.5907067,212.62885,-70.51646,-7.9452868
7259850302000.0,-2.372397892343032,12.057420180704442,3.1660081922979915,1.3084733,0.2968805,0.4718934,212.63008,-70.56113,-7.73188
7259855139000.0,-2.5226211865237365,12.044901758039815,2.302224348797406,1.2819008,0.15118915,0.46120325,212.62051,-70.62084,-7.4999313
7259860104000.0,-2.422933080997806,12.156530620242297,2.0809497440331968,1.3881912,0.15851954,0.6035349,212.635,-70.87921,-7.4765368
7259864953000.0,-2.0419674619383765,12.4046013989793,2.608099784584565,1.5338826,0.08368854,0.78893244,212.71187,-71.142654,-7.4183087
7259869941000.0,-1.839655696863287,13.099673772933516,3.145496329453541,1.5723672,-0.09896017,0.92087936,212.77031,-71.56283,-7.3213277
7259874979000.0,-2.0157431393766028,14.684460457388044,3.678517723337936,1.4941764,-0.23579398,0.98929626,212.83351,-71.99362,-7.1882687
7259879942000.0,-2.0629999233922263,16.05541847985866,4.238545768480565,1.4019357,-0.04917465,1.039998,212.91063,-72.37225,-6.982383
7259884961000.0,-1.8252175903886925,17.011400407067136,4.883955015971731,1.1939361,-0.043982297,1.1304061,213.07074,-72.70362,-6.7252097
7259889949000.0,-1.5087939048153691,17.11092952345309,4.940084142340319,0.9486737,-0.31429017,1.2360858,213.26828,-72.98523,-6.447679
7259894950000.0,-1.0268305736726546,15.46189801996008,3.7929316456087823,0.8561276,-0.45356745,1.2922854,213.42752,-73.25054,-6.175829
7259900514000.0,-0.5004082290045682,13.631896279294592,2.532475700892383,0.87964594,-0.4465425,1.2617421,213.66309,-73.43574,-5.857928
7259904968000.0,-0.3191478655179008,12.281506222352066,1.911658982566663,0.96486163,-0.47678033,1.196685,213.94293,-73.614525,-5.5310593
7259910185000.0,-0.0954915364398499,10.755949946261886,1.2254052037250285,1.1496484,-0.48472157,1.1279627,214.23471,-73.94685,-5.16203
7259914949000.0,0.2229165897365436,9.928089098316322,1.0104796897758004,1.3552046,-0.42088616,1.0830641,214.51965,-74.29588,-4.8168902
7259919909000.0,0.5544246304239728,9.066168484166448,0.786711732347553,1.520749,-0.34055737,1.0662653,214.79744,-74.723114,-4.471605
7259925137000.0,0.9555124237155388,8.36859326200919,0.504207467469716,1.6914859,-0.20525073,1.0925325,215.04727,-75.19717,-4.1421437
7259929932000.0,1.3391447208646616,7.793144691102757,0.2308694488659148,1.8185458,-0.106595986,1.1038336,215.29259,-75.69058,-3.830707
7259934993000.0,1.6508203738889438,7.554716675561714,-0.001309067436405,1.8701639,0.1301143,1.1279627,215.49992,-76.20665,-3.4999177
7259939916000.0,1.9354827743541525,7.39605232766505,-0.2159724794229436,2.0091357,0.4034765,1.1490375,215.6757,-76.76918,-3.1810696
7259944943000.0,2.187729353686294,7.46819870974765,-0.3315015568876793,2.144748,0.6411031,1.1682798,215.79729,-77.38849,-2.8192635
7259949949000.0,2.4296904128847103,7.596295834339436,-0.4216439028530431,2.2727242,0.8179486,1.201572,215.8672,-78.029144,-2.4665883
7259955080000.0,2.6189234390195884,8.042577702214786,-0.3905082161177281,2.3964243,0.93218035,1.2538009,215.86012,-78.77547,-2.0628607
7259959974000.0,2.785010643468845,8.545452749995079,-0.3305322774308494,2.496301,1.0094548,1.3179418,215.82272,-79.53074,-1.6595018
7259965079000.0,2.8909498663778,9.283376145846775,-0.1221217234627085,2.59465,1.0451905,1.4089607,215.75563,-80.35261,-1.1996788
7259969943000.0,2.9725438587443533,10.047783319074398,0.1183658667355029,2.667954,1.029308,1.5167783,215.68889,-81.16631,-0.723997
7259974979000.0,2.920617114516129,10.855542322580645,0.3851575366935484,2.7021625,0.9798279,1.6255124,215.62717,-81.97612,-0.20335564
7259979956000.0,2.775907392447818,11.665012179886148,0.6610104579620494,2.6978865,0.9126327,1.6905695,215.58372,-82.743935,0.32836652
7259985087000.0,2.572697540041638,12.469816106771091,0.8986124775790622,2.6865854,0.84696466,1.6966782,215.55696,-83.437,0.8711781
7259989944000.0,2.328296738029146,13.203018946168337,1.0784546345910575,2.63344,0.8136725,1.6514742,215.54922,-84.03626,1.4071876
7259994953000.0,2.1142717711332084,13.891070395293886,1.2370600430737422,2.5601363,0.79198676,1.5842791,215.56296,-84.51043,1.893668
7259999980000.0,1.9436373163040268,14.502509894063207,1.365035822329428,2.4608707,0.8023715,1.5372424,215.58632,-84.872055,2.3607357
7260004974000.0,1.7758148960169329,14.928643825476236,1.5070156512603423,2.3515258,0.82894415,1.525636,215.62857,-85.11402,2.7590022
7260009972000.0,1.6100331017317684,15.122056423705985,1.668192351625938,2.2296581,0.84482664,1.5473217,215.67876,-85.25068,3.1434343
7260014922000.0,1.41764877623303,15.143185139714728,1.8819601481010484,2.116648,0.829555,1.5897768,215.71393,-85.30111,3.4994266
7260019941000.0,1.169843370781062,14.845818446167726,2.199977107020106,1.9920316,0.79504114,1.6313156,215.75659,-85.26033,3.852513
7260025176000.0,0.9172331104103912,14.509188671232184,2.526699012443142,1.8600847,0.61544675,1.6646078,215.81339,-85.15469,4.1925592
7260030675000.0,0.7362427997270797,13.774580524057416,2.7981845257151523,1.7250835,0.42180246,1.7067575,215.88982,-84.98238,4.5386095
7260035089000.0,0.6020951199205595,13.191305390251276,2.9978514296951904,1.5906931,0.31337386,1.7128662,215.93863,-84.780716,4.8517966
7260040060000.0,0.5856522142958294,12.611693271738192,3.0019621518089976,1.5183055,0.07971791,1.7058412,216.08264,-84.55153,5.1684313
7260044913000.0,0.5695996250790087,12.045839799369658,3.005975294922718,1.3637567,-0.14080444,1.6832392,216.19438,-84.29489,5.4768
7260049963000.0,0.6474168412828671,11.222792926226765,2.6658070234634064,1.2162327,-0.32406402,1.6307048,216.3651,-84.043495,5.768166
7260054972000.0,0.7598909959805727,10.318983009211188,2.199842680271312,1.0604621,-0.49357912,1.6001616,216.59592,-83.783195,6.053728
7260060139000.0,0.911506229067086,9.558105136373166,1.7338286396750524,0.91813046,-0.6123924,1.5775595,216.81456,-83.50547,6.350422
7260064948000.0,1.1094359483438156,9.123625092662474,1.3234866002096437,0.8045095,-0.6914995,1.5723672,217.0701,-83.22923,6.6373124
7260069938000.0,1.3144874074374011,8.675392342157684,0.9337765737391788,0.72173727,-0.7528914,1.5662584,217.38939,-82.93567,6.951831
7260074962000.0,1.520504189937634,8.22752979590431,0.5889223672940519,0.66889745,-0.7840455,1.518611,217.7214,-82.65558,7.2465496
7260079946000.0,1.7339658883026188,7.833562283646945,0.2387235018254122,0.63591075,-0.79320854,1.427592,218.09715,-82.36801,7.555345
7260084975000.0,1.972205471115422,7.562623177032008,-0.134985605028128,0.5983425,-0.77091193,1.3338243,218.47137,-82.0957,7.843534
7260089950000.0,2.176695959250019,7.347682819233387,-0.4319308584713087,0.59803706,-0.7134906,1.2486086,218.85364,-81.81014,8.150474
7260094947000.0,2.274382001330612,7.315120830392379,-0.4789648801315491,0.63285637,-0.65301496,1.1774428,219.22813,-81.54741,8.4292145
7260100150000.0,2.3760951245936344,7.28121648219551,-0.5279378668632343,0.6740898,-0.63591075,1.138042,219.6139,-81.25098,8.740938
7260105092000.0,2.410567752368169,7.349638181323106,-0.5207891509376797,0.6908886,-0.689056,1.1475104,220.00356,-80.958046,9.041126
7260109962000.0,2.4060961305081494,7.479315215263663,-0.4805445215129434,0.6924158,-0.7275405,1.1835514,220.38475,-99.333626,9.332651
7260115003000.0,2.2915459431014824,7.642723009948689,-0.4528153415250855,0.6988298,-0.73456544,1.2098186,220.75583,-99.66256,9.653491
7260119940000.0,2.0714058449258834,7.831414502565565,-0.439337373745724,0.70554936,-0.7284568,1.2253957,221.136,-100.000404,9.975797
7260125076000.0,1.6985363861309102,8.063929586681812,-0.3986497053457333,0.72356987,-0.7131852,1.2235631,221.49255,-100.34951,10.301976
7260130324000.0,1.0991095876870651,8.356507076955843,-0.3165853255075962,0.7510588,-0.6969972,1.1924089,221.84897,-100.69491,10.617818
7260134923000.0,0.5738115987306547,8.612902632933409,-0.2446695322767287,0.77763146,-0.65668017,1.1777482,222.16795,-101.02204,10.908283
7260139942000.0,0.146791171341431,8.748546980938025,-0.1792753779333274,0.7797695,-0.5873469,1.1496484,222.47472,-101.33596,11.180523
7260144943000.0,-0.1674323576682329,8.774024635074031,-0.1240739462026775,0.80909103,-0.49418998,1.087951,222.7634,-101.63774,11.433889
7260150260000.0,-0.4607777560470621,8.792803982423417,-0.0576992463153741,0.82772243,-0.41722095,1.0189233,222.96724,-101.83323,11.581009
7260154976000.0,-0.6551857769266087,8.796043842958605,0.0135836908393715,0.82344633,-0.35185838,0.9502009,223.1458,-102.01142,11.708197
7260160240000.0,-0.8721840428108185,8.799660175837579,0.0931497173835999,0.8078693,-0.32589662,0.88056225,223.27121,-102.1384,11.781268
7260164942000.0,-0.9288558506423664,8.76975380131461,0.098180154334628,0.79320854,-0.29779682,0.8185594,223.37459,-102.24817,11.835906
7260169942000.0,-0.8740140520167314,8.710143453739668,0.0481072173761577,0.77274454,-0.25381452,0.73761976,223.46259,-102.33205,11.864562
7260175085000.0,-0.8176037779504033,8.648828250224081,-0.0033978055793247,0.75869465,-0.23457226,0.64751714,223.50444,-102.369064,11.848495
7260180002000.0,-0.7636723531819539,8.590207434418883,-0.0526395317842844,0.72265357,-0.22876903,0.56321776,223.5337,-102.382385,11.811319
7260184957000.0,-0.5847148056180187,8.5055263569859,-0.1776654564213514,0.68386364,-0.18173242,0.46273044,223.52625,-102.377975,11.755045
7260189958000.0,-0.2865308262332906,8.395899510162975,-0.3749930874674967,0.6542367,-0.095294975,0.3848451,223.50175,-102.35524,11.682806
7260194950000.0,0.0294914833112582,8.284191490066226,-0.5912885190728477,0.6356053,-0.0033597588,0.32406402,223.46962,-102.338486,11.610413
7260199960000.0,0.3846204931086872,8.167372810673939,-0.8482897893883912,0.6084218,0.10476339,0.29260445,223.40404,-102.30602,11.527523
7260204937000.0,0.7516252063246307,8.050093121837685,-1.0526249791135398,0.62125,0.20280726,0.2657264,223.33603,-102.3356,11.492146
7260209972000.0,1.1615032994737908,7.928105700263105,-1.1209380370977535,0.6426302,0.24404067,0.24801129,223.25157,-102.35727,11.451612
7260215840000.0,1.8320525077366503,7.808944791262135,-1.0012383580825244,0.6621779,0.23365596,0.2415972,223.18918,-102.45657,11.47152
7260219944000.0,2.4998255727245144,7.749322237864077,-0.7120687499757281,0.6743952,0.17592919,0.24098633,223.1287,-102.552986,11.486754
7260224998000.0,3.322175736089199,7.675898167475728,-0.3559617325849514,0.6719518,0.111177474,0.25992316,223.09366,-102.72115,11.566364
7260229964000.0,3.815878477473449,7.651869,-0.1950959944035774,0.70188415,0.08277224,0.31337386,223.0671,-102.90081,11.653015
7260235226000.0,4.172677471212968,7.651869,-0.1246751415628843,0.72173727,0.118202426,0.36651915,223.04251,-103.0811,11.743048
7260239940000.0,4.295849271036343,7.710095761609268,0.024567452882717,0.7583892,0.17959438,0.42088616,223.02841,-103.3753,11.973732
7260244944000.0,4.250216221806062,7.824178265561022,0.2603383716302175,0.7993172,0.18997909,0.4633413,223.02153,-103.677864,12.211713
7260250247000.0,4.178958274479404,7.955949953511173,0.4915846658861529,0.7837401,0.15790866,0.473726,223.02081,-104.01904,12.4979725
7260254984000.0,3.7169613069463447,8.262798794756042,0.3743615815336677,0.72692966,0.1704314,0.47861293,223.00563,-104.36346,12.792001
7260260138000.0,3.214294562030704,8.596659661924305,0.2468193022951816,0.6441574,0.2666427,0.44990227,222.92937,-104.6561,13.062227
7260264957000.0,2.793235817892304,8.864262642068315,0.1308089640010273,0.58246,0.37018433,0.41874814,222.84795,-104.93937,13.329692
7260269944000.0,2.441611887372656,9.064606326769969,0.0163267311093228,0.52626044,0.45173484,0.40317106,222.74538,-105.20427,13.591669
7260275144000.0,2.0759364539902343,9.270735158008485,-0.1018431617180821,0.4981606,0.4990769,0.3885103,222.5941,-105.37127,13.746978
7260279966000.0,1.7506515440246535,9.422288306011366,-0.1942536386789402,0.47952923,0.54244834,0.3484986,222.42216,-105.51624,13.888094
7260285612000.0,1.3697808261346354,9.599739378932204,-0.3024555368375891,0.4841107,0.58001655,0.31306845,222.22401,-105.60654,13.9656
7260289942000.0,1.0911239923341167,9.70336035816308,-0.2693591636304466,0.49235737,0.62949663,0.27458394,222.0117,-105.67907,14.028657
7260294942000.0,0.7794578831314409,9.79859178105225,-0.1438269813849213,0.49602258,0.6404922,0.25411993,221.80252,-105.74268,14.082951
7260300101000.0,0.5171873265996845,9.834037421157518,-0.0123505274043012,0.49327368,0.6569856,0.23609942,221.55502,-105.75265,14.0690565
7260304964000.0,0.3818372966138005,9.748960158847463,0.1152652085775969,0.4578435,0.7107417,0.21074851,221.29477,-105.74888,14.047477
7260309954000.0,0.2429525239159677,9.661661055633978,0.2462137018018765,0.44868052,0.77854776,0.20005837,220.98393,-105.69004,13.977694
7260314955000.0,0.21763771406546,9.600530074369315,0.3602874917856138,0.43463063,0.8020661,0.18875736,220.67175,-105.61803,13.900387
7260319907000.0,0.2042950300328238,9.54271200290725,0.4714765315830441,0.44776422,0.8038987,0.18234327,220.34853,-105.545456,13.822424
7260324969000.0,0.3428897783055014,9.535224320166144,0.5641564793676359,0.4538729,0.77671516,0.17531833,219.99615,-105.44501,13.722522
7260329932000.0,0.5241931662236162,9.543282411375774,0.6487647332330253,0.45662177,0.7528914,0.17531833,219.64528,-105.344826,13.622382
7260334993000.0,0.6672722764580983,9.566713847676684,0.6701161591650425,0.46944994,0.6747007,0.1863139,219.30154,-105.24473,13.522175
7260340065000.0,0.7519733445963688,9.611555447020208,0.6003623463021848,0.45937067,0.6096435,0.21074851,218.9646,-105.144325,13.424749
7260344940000.0,0.7851147485636417,9.661921825132588,0.5292441412168533,0.44501534,0.59223384,0.23365596,218.63422,-105.07333,13.358605
7260349970000.0,0.7638251068355922,9.722242180907484,0.451182164773129,0.46609017,0.552833,0.2321288,218.33275,-105.00427,13.288288
7260354950000.0,0.7427470917648792,9.781962930760164,0.3738961523099587,0.4859433,0.50701815,0.23609942,218.0439,-104.962524,13.241236
7260360079000.0,0.621108653564196,9.860853519846092,0.2567953517355205,0.48441613,0.4972443,0.23060162,217.75897,-104.91608,13.189596
7260364912000.0,0.4758245432968813,9.940525593357636,0.1349441564803564,0.47861293,0.49327368,0.21838433,217.48877,-104.86934,13.134714
7260370058000.0,0.3263847440010912,9.99446938792398,-0.0018853984141129,0.4642576,0.4886922,0.19914207,217.22156,-104.82723,13.076999
7260374991000.0,0.1846189232199691,10.03742869900882,-0.1350593569782668,0.44532076,0.49266282,0.19975294,216.9561,-104.78408,13.020849
7260379961000.0,0.0183412254607797,10.08412825035228,-0.1837685283109441,0.4175264,0.48716503,0.1957823,216.68459,-104.72911,12.946923
7260384959000.0,-0.1660138850906529,10.133589434945984,-0.1702791352456552,0.39003745,0.41416663,0.18509217,216.43391,-104.66876,12.868601
7260389931000.0,-0.3122179881209792,10.176856213635224,-0.1663311108288077,0.3286455,0.3182608,0.16920967,216.19064,-104.59205,12.771442
7260394944000.0,-0.4124948000367616,10.212955761049376,-0.1743532552794719,0.28924468,0.23182335,0.16493362,215.9676,-104.51419,12.672637
7260399977000.0,-0.5029012684575199,10.246445700027497,-0.1849084706103931,0.24801129,0.15454891,0.1441642,215.74294,-104.40206,12.539733
7260404988000.0,-0.419334404531207,10.233250663733848,-0.237687554891394,0.2125811,0.0852157,0.10476339,215.54115,-104.28019,12.39892
7260409976000.0,-0.3361511043387407,10.22011619136651,-0.2902243883365411,0.19975294,-0.0027488936,0.057726767,215.34825,-104.141174,12.239013
7260414948000.0,0.180567591864037,10.41865762392075,-0.0928984285431246,0.20922135,-0.054367006,0.0009162979,215.1634,-103.989975,12.066264
7260419913000.0,0.7596410695610286,10.64769470289921,0.1404595361074253,0.22937989,-0.21227567,-0.02321288,215.03429,-103.83747,11.88549
7260424970000.0,1.3454652864383565,10.966920436712329,0.4200343630730593,0.23426682,-0.3827071,-0.070554934,214.92072,-103.695435,11.704054
7260429968000.0,1.9224665853424656,11.325360564931508,0.7172774502237442,0.24129178,-0.52870387,-0.11636983,214.84393,-103.55408,11.514955
7260434951000.0,2.628408197701149,11.874860229885057,1.0676088041797285,0.22266038,-0.6426302,-0.15699236,214.80917,-103.46042,11.395303
7260439948000.0,3.478502432643678,12.634944135632184,1.477654269738767,0.17654006,-0.73914695,-0.16157386,214.81076,-103.36413,11.271666
7260444934000.0,4.211279504143989,13.41810904821923,1.669603302473026,0.10293079,-0.79045963,-0.15699236,214.84613,-103.28688,11.200944
7260450117000.0,4.8795464641077055,14.252257792036666,1.693300693096534,0.011301007,-0.7825184,-0.093767814,214.89474,-103.21653,11.147484
7260454930000.0,5.350033448354845,14.891427624886385,1.6743012323759316,-0.0888809,-0.6750061,-0.09407325,214.94774,-103.153755,11.154051
7260459962000.0,5.674165095182694,15.408286335302671,1.608598872150518,-0.17287487,-0.50335294,-0.12614368,214.98312,-103.092354,11.173656
7260464932000.0,5.905085370204479,15.810160951801365,1.5705310347614412,-0.2312125,-0.29993483,-0.16279559,214.99931,-103.07749,11.260267
7260469939000.0,5.890719019234514,15.914316565051308,1.606446762175118,-0.269697,-0.08674286,-0.17165314,214.96516,-103.05773,11.350409
7260475000000.0,5.876197728589618,16.019595486293163,1.6427498371582652,-0.32253686,0.12339478,-0.15485434,214.88321,-103.061844,11.472948
7260480107000.0,5.580852548284961,15.977524994722955,1.7109129778364116,-0.355829,0.2846632,-0.11759156,214.75667,-103.07105,11.599954
7260485060000.0,5.125286533635884,15.847363291187335,1.7960186909868074,-0.39920044,0.4184427,-0.099571034,214.58018,-103.076035,11.727199
7260490076000.0,4.590731684505119,15.67518763256948,1.8808475008776209,-0.44348818,0.5222898,-0.08368854,214.36353,-103.08015,11.854281
7260494996000.0,4.039376670170649,15.491402723744516,1.963550757825451,-0.5027421,0.61850107,-0.10140363,214.1136,-103.07807,11.975075
7260500105000.0,3.3836641363376034,15.149495395478525,1.9821088814167296,-0.5882632,0.752586,-0.12461651,213.79857,-103.02968,12.053207
7260505308000.0,2.673979406134137,14.725186628560664,1.967089110384325,-0.6936375,0.89644474,-0.18417588,213.45644,-102.96538,12.11404
7260510243000.0,2.024920833492415,14.327383276632007,1.9564696548491565,-0.8127562,1.0574077,-0.25503623,213.04373,-102.82897,12.104956
7260515004000.0,1.7762340518748934,14.016524546020111,2.003098403579342,-0.9486737,1.1432343,-0.3286455,212.61621,-102.67449,12.076171
7260519910000.0,1.5199733187063234,13.696198368246122,2.0511472675302542,-1.0235047,1.3014483,-0.37415496,212.08806,-102.432175,11.948829
7260524978000.0,1.2781987371123555,13.37332082857893,2.244881260080504,-1.1566733,1.462106,-0.46914452,211.53905,-102.15334,11.785095
7260529967000.0,1.0524331109345466,13.059757289114456,2.5124553698284915,-1.2959507,1.600467,-0.56199604,210.95752,-101.87158,11.608152
7260534946000.0,0.8055954155601192,12.721518280316255,2.850383869863436,-1.4718798,1.707063,-0.657291,210.33505,-101.54098,11.374445
7260540886000.0,0.4668130444747921,12.265914364103091,3.3994449245918474,-1.6380352,1.784032,-0.75991637,209.68842,-101.19691,11.1100445
7260544929000.0,0.234728034258604,12.02694325796076,3.707719038485044,-1.7980819,1.813659,-0.88422745,209.01901,-100.80821,10.782473
7260549990000.0,-0.0575778914184625,11.812585734319716,4.015614634802187,-1.9382755,1.7919732,-1.0045679,208.3518,-100.423874,10.423609
7260555755000.0,-0.3883499793578857,11.587514805839136,4.342505889085011,-2.0463986,1.72264,-1.1578951,207.68175,-79.98962,9.986639
7260559975000.0,-0.6119945947380976,11.583659189008682,4.381065238192921,-2.132225,1.6493362,-1.3035865,207.03177,-80.3727,9.515299
7260564920000.0,-0.8740615670260472,11.57914117355214,4.426249120026715,-2.182927,1.5409076,-1.4401149,206.40585,-80.75135,8.957747
7260570005000.0,-1.1568557730427382,11.666458069213313,4.165936254633132,-2.1633792,1.4083499,-1.5525141,205.82367,-81.07118,8.366982
7260575068000.0,-1.441104709583018,11.771905001701969,3.8450099857696673,-2.0845776,1.2596041,-1.6701056,205.2936,-81.33122,7.7398844
7260580081000.0,-1.588132608397992,11.991010240985853,3.421306512460064,-1.9749273,1.1053606,-1.7568485,204.80565,-81.54038,7.0589566
7260585087000.0,-1.6887856982747604,12.249207428753992,2.9618033734185305,-1.8237382,0.9398162,-1.8429805,204.37878,-81.68656,6.354873
7260590069000.0,-1.6231030745518966,12.603557864839516,2.394133776917465,-1.6905695,0.80970186,-1.8973475,203.98053,-81.81997,5.610597
7260594946000.0,-1.428413295539808,13.027007608170072,1.7516573842017509,-1.5656476,0.7675522,-1.9178114,203.6129,-81.89354,4.8644447
7260600137000.0,-0.7915218379840848,13.657033910698498,0.4996323846153846,-1.4514158,0.8940013,-1.9281962,203.21431,-82.00252,4.109668
7260604957000.0,0.0410761146949603,14.34270298938992,-0.9819021384615384,-1.3310753,1.1264355,-1.9181169,202.79811,-82.06358,3.3663924
7260609969000.0,0.7308230388260908,14.829188384742665,-1.947230938186885,-1.2205088,1.2626585,-1.8524488,202.33278,-82.18855,2.6993656
7260615058000.0,1.1000701007646083,14.89709593337978,-1.8453696595488984,-1.1276573,1.5351044,-1.8167132,201.76231,-82.28306,2.0275912
7260620069000.0,1.4660842281811928,14.942078754053256,-1.7011718976554977,-1.073901,1.7571539,-1.7660115,201.24123,-82.48477,1.5391495
7260625093000.0,1.8632116570109072,14.715149161442469,-1.0109266554662473,-0.9633345,1.8298469,-1.7168368,200.6834,-82.68852,1.0644891
7260630187000.0,2.2668847313291143,14.475010607594935,-0.3082459003797468,-0.8335256,1.7672331,-1.6584991,200.12451,-82.84364,0.6728505
7260634954000.0,2.659018625443038,14.107643002531644,0.3893396218734176,-0.689056,1.5610662,-1.6099354,199.58727,-83.005356,0.2995051
7260639954000.0,3.0703191227305604,13.722319313562387,1.1210215206075946,-0.5439755,1.269378,-1.5622878,199.12256,-83.08403,0.005284005
7260644969000.0,3.436654737182764,13.131650204947965,1.6947311336041628,-0.43951756,0.9285152,-1.5372424,198.7331,-83.17518,-0.27038935
7260649958000.0,3.789957052839145,12.494833093846996,2.2268655524922405,-0.37934732,0.5494733,-1.5427402,198.4393,-83.27811,-0.5273894
7260654969000.0,4.14158659820177,11.821266417004797,2.5740910271117667,-0.3885103,0.18387043,-1.5830573,198.2722,-83.27725,-0.7087142
7260659962000.0,4.489939929509406,11.128969746587977,2.8033868627812613,-0.45723262,-0.15454891,-1.6523905,198.2067,-83.2686,-0.886552
7260664941000.0,4.8295035047086685,10.466329995168168,2.8342104622548554,-0.61086524,-0.42241332,-1.717753,198.30605,-83.114265,-1.0293769
7260669940000.0,5.160610505495026,9.835865871624822,2.616496126575083,-0.8032878,-0.57726765,-1.7721201,198.4684,-82.92854,-1.1765152
7260674924000.0,5.396049171675676,9.293674882162165,2.3782575577297296,-1.031446,-0.61941737,-1.8048013,198.73401,-82.63686,-1.290703
7260680845000.0,5.44620524982801,8.858988522358722,2.043883470614251,-1.260215,-0.6093381,-1.820073,199.02751,-82.29463,-1.4047375
7260684927000.0,5.33595444142502,8.66701,1.8656533685687653,-1.4388931,-0.57910025,-1.8032742,199.35669,-81.920975,-1.4663447
7260689958000.0,4.881888142999172,8.66701,1.7608688822493783,-1.5546521,-0.54428095,-1.7534887,199.67955,-81.50987,-1.5151237
7260694910000.0,4.337639352484869,8.750490106725769,1.6321185641121814,-1.6441438,-0.49266282,-1.6902641,199.99113,-81.08247,-1.5401837
7260699974000.0,3.605906461171256,8.986132949791152,1.454352868161282,-1.6612481,-0.41263947,-1.6349808,200.28227,-80.654625,-1.5479819
7260705181000.0,2.808271720228396,9.25541313959434,1.2999204208454067,-1.5858061,-0.25473082,-1.6059648,200.49596,-80.24121,-1.5943148
7260709966000.0,1.4687470758956878,9.864643058633032,1.538144953016874,-1.462106,-0.13805555,-1.6132951,200.69737,-79.848946,-1.6307069
7260714917000.0,0.0827519841315833,10.495008226691665,1.784633909919891,-1.3933836,0.14294247,-1.6245961,200.69635,-79.51599,-1.7588884
7260719940000.0,-0.5119180287316422,10.672511182153984,1.9419215598041832,-1.2864822,0.47616947,-1.6606371,200.64954,-79.23651,-1.9017148
7260725003000.0,-0.7061264619225633,10.62072234775256,2.054130933840677,-1.2003502,0.70646566,-1.7296649,200.55614,-78.97582,-2.0636082
7260729960000.0,-0.6251392182423174,10.543721404286554,2.0602094654922687,-1.1371256,0.8231409,-1.8127426,200.30232,-78.6729,-2.4871335
7260734955000.0,-0.1850728646604033,10.431363968144453,1.9291258144353105,-1.07665,0.8399397,-1.8506162,200.01321,-78.38655,-2.9173138
7260739945000.0,0.2334051006927226,10.220086974259488,1.789438152872149,-1.0546589,0.74067414,-1.8212948,199.73418,-78.05452,-3.3806944
7260744936000.0,0.6178866699744487,9.849175427178954,1.6356454968202896,-1.0910053,0.50640726,-1.774869,199.48909,-77.71715,-3.834209
7260749958000.0,0.9494096461416934,9.431376306179544,1.4189859293573603,-1.1777482,0.23793201,-1.702176,199.32545,-77.388664,-4.194689
7260755092000.0,1.1355116078597878,8.881161728379825,1.0265535981272114,-1.3133603,0.039095376,-1.6081028,199.20314,-77.04684,-4.5194044
7260759946000.0,1.311463871626759,8.360954957705918,0.6555238872212623,-1.4257594,-0.08002335,-1.5289958,199.17407,-76.70837,-4.7593384
7260764954000.0,1.2029504490994518,7.691653222004699,0.4126501423884103,-1.4886786,-0.23671028,-1.5131133,199.20781,-76.35934,-4.97102
7260769913000.0,1.0402450086433048,7.003641824128818,0.1988087375655834,-1.5146403,-0.36865717,-1.5155567,199.26244,-76.00691,-5.155022
7260774989000.0,0.8156876864538596,6.488408986293287,0.3058751368049913,-1.5103643,-0.49510628,-1.5274686,199.3872,-75.67672,-5.308157
7260779933000.0,0.582109195542658,6.034992010785452,0.4936539238972722,-1.5027285,-0.58246,-1.5317446,199.5352,-75.35235,-5.44815
7260784955000.0,0.3682067618480325,5.715943976933515,0.674508679687924,-1.5308284,-0.61758476,-1.5607607,199.71065,-74.995605,-5.63528
7260789970000.0,0.1633978771668928,5.450623355689087,0.8513890906105834,-1.5415184,-0.62980205,-1.5812247,199.8999,-74.65749,-5.8096223
7260794938000.0,0.0056766703733594,5.462423253281097,1.2422028443369246,-1.5152513,-0.73426,-1.5335772,200.11984,-74.27352,-6.0142527
7260799987000.0,-0.1316637421933398,5.613971386679726,1.7489416199157688,-1.5259414,-0.91751957,-1.5045611,200.36234,-73.885086,-6.2146487
7260804959000.0,-0.1578760962455963,5.678501081026673,2.0820248362154,-1.5622878,-1.0009027,-1.4856243,200.60889,-73.449104,-6.4447155
7260809998000.0,-0.1190174939758429,5.69307284448918,2.3200338226673374,-1.6013832,-1.14018,-1.4694363,200.91286,-73.02633,-6.640999
7260814946000.0,-0.040781321132457,5.630561905965622,2.1424498717391303,-1.6426166,-1.2538009,-1.4547756,201.26811,-72.515686,-6.8575873
7260820116000.0,0.0643505211809909,5.5204236552072805,1.7169161630434782,-1.7140878,-1.2812898,-1.4648548,201.63107,-72.00108,-7.062857
7260825097000.0,0.1625555583889869,5.481702456547829,1.569423255347688,-1.7427986,-1.3720033,-1.486846,202.08548,-71.4452,-7.2548532
7260830253000.0,0.2627756751147194,5.4729877609601125,1.538921456794917,-1.7486018,-1.4538593,-1.4804319,202.53638,-70.89387,-7.4299526
7260835610000.0,0.3519099489311957,5.446831419123962,1.4700950911919075,-1.7733418,-1.5100589,-1.4465289,202.98914,-70.3953,-7.564223
7260840057000.0,0.4128719618303273,5.410254239393072,1.3806842074052867,-1.7742581,-1.5543466,-1.3900238,203.44809,-69.92286,-7.674922
7260844966000.0,0.4582787651111986,5.380757435111199,1.3049827608541624,-1.7687603,-1.6087136,-1.3054191,203.95006,-69.44985,-7.73739
7260850105000.0,0.4534357051623696,5.3759143751623695,1.280767410539264,-1.7705929,-1.6600263,-1.2067643,204.44597,-69.000626,-7.768351
7260854922000.0,0.4712590731649017,5.326558104064548,1.2641385,-1.7696766,-1.672549,-1.0961977,204.95752,-68.570015,-7.7616954
7260859977000.0,0.5542628920302571,5.145902702702975,1.2641385,-1.7577647,-1.6841555,-0.9761627,205.46143,-68.17072,-7.7144938
7260864978000.0,0.6265017174089149,4.997867596654422,1.273648762414375,-1.7269161,-1.6966782,-0.8445212,205.96921,-67.785904,-7.6430945
7260869945000.0,0.6737249829723022,4.927032742688375,1.3067050769085675,-1.6780468,-1.7345519,-0.713796,206.46442,-67.43705,-7.531543
7260874976000.0,0.6910535236271622,4.847169966424957,1.3311762,-1.6172657,-1.774869,-0.5766568,206.98558,-67.08663,-7.3863792
7260880078000.0,0.624621352390664,4.743830977724904,1.3311762,-1.5671748,-1.8106046,-0.44990227,207.49345,-66.77137,-7.202754
7260884942000.0,0.5612881338696276,4.645312584734496,1.3311762,-1.4892895,-1.8237382,-0.35430184,208.02287,-66.463455,-6.9841857
7260890054000.0,0.4538210657942058,4.517854294745255,1.361724406123876,-1.3991868,-1.8197676,-0.25686884,208.53436,-66.19513,-6.7287536
7260895005000.0,0.3259290694105894,4.380488923396603,1.4090918250149849,-1.2873985,-1.7999145,-0.15607607,209.02602,-65.97242,-6.4477763
7260900136000.0,0.2253060705441926,4.230164684254292,1.4877530201247318,-1.1468995,-1.7562376,-0.048563786,209.50203,-65.76343,-6.1701922
7260905087000.0,0.1458151051121244,4.080721644420601,1.5799625065987124,-1.0143417,-1.7311921,0.040927973,209.96112,-65.597916,-5.872816
7260910212000.0,0.0635304761807269,3.926026516335837,1.675412641557135,-0.852157,-1.6398678,0.119729586,210.37749,-65.451805,-5.6036787
7260915065000.0,-0.0133486472453596,3.757063526914153,1.8262148730858467,-0.6747007,-1.5949692,0.1591304,210.78789,-65.35717,-5.321956
7260920043000.0,-0.0916981115943542,3.5727117860788864,2.010566613921114,-0.58123827,-1.5097535,0.24923302,211.14412,-65.29787,-5.0251393
7260925094000.0,-0.0647517656786271,3.3297854394695787,2.074252773478939,-0.39461896,-1.38025,0.33750305,211.48143,-65.24838,-4.7688227
7260930382000.0,0.041733127550702,3.034375765292003,2.0502077428610184,-0.21044308,-1.2357804,0.42485678,211.77808,-65.233215,-4.5044694
7260935146000.0,0.1376661894539781,2.768238910567727,2.028545389255918,-0.04153884,-1.0250319,0.505491,212.02353,-65.19965,-4.2693396
7260940005000.0,0.2575178163572909,2.668654667891809,2.082920478438216,0.11789699,-0.7302894,0.52015173,212.20415,-65.21745,-4.0595593
7260945104000.0,0.3959882712618606,2.663328885014723,2.1841104643254443,0.30176744,-0.5491679,0.5842926,212.3425,-65.29594,-3.8313699
7260950249000.0,0.555858847246011,2.626006447390246,2.5842961225818084,0.45051312,-0.36774087,0.64812803,212.42639,-65.37282,-3.605039
7260954959000.0,0.7063096134048499,2.585343985206887,3.0112509352564683,0.6020077,-0.17440203,0.70952,212.45229,-65.50252,-3.3887815
7260959976000.0,1.1146429423728814,2.595801447457627,4.604820920338983,0.7489208,0.0852157,0.7507534,212.42836,-65.65409,-3.167894
7260964954000.0,1.70787481225059,2.6469422538725595,7.04934557155117,0.7993172,0.46609017,0.7672467,212.31813,-65.8182,-2.977587
7260970062000.0,1.807577074795043,3.2947830048236417,8.89269782802669,0.72326446,0.91629785,0.7629707,212.12558,-65.918106,-2.7863395
7260975112000.0,1.696928012354623,4.179975648770258,10.441785087321255,0.61666846,1.1505647,0.6377433,211.90152,-66.014046,-2.644085
7260979981000.0,0.4709541829822732,5.874967496141814,9.159795344410844,0.73914695,1.0571023,0.3454443,211.65755,-65.862755,-2.487896
7260984988000.0,-1.4840895835662145,8.140018388529718,6.119727525005214,1.0778717,1.181108,0.11453723,211.30101,-65.73468,-2.4039917
7260989951000.0,-1.961455779920477,9.101536560636182,4.390794746322068,1.351234,1.2110404,-0.011301007,210.9824,-65.44262,-2.4000955
7260995085000.0,-1.7717093,9.495404,3.2034420000000003,1.4391985,0.72509706,-0.035430185,210.78578,-65.19347,-2.380852
7261000624000.0,-1.5669945060226875,9.920342010642033,1.9224239123728224,1.6111571,0.3023783,0.10140363,210.59698,-65.42461,-2.767529
7261005281000.0,-1.611513004376499,10.622472042116309,1.505632079339029,1.9333885,0.2919936,0.42943826,210.4124,-65.72105,-3.071828
7261010193000.0,-2.076849321882494,12.029056960581537,2.341122309195144,2.1022928,0.61758476,0.6096435,210.25545,-66.01481,-3.343807
7261015539000.0,-2.583300452458033,13.559920758243406,3.2504323191321944,2.0723603,0.72234815,0.8072584,210.15627,-66.70757,-3.3217614
7261019981000.0,-2.387572978703545,14.6887232582634,3.3429500994433976,1.7742581,0.59589905,0.7974846,210.0439,-67.3524,-3.3136382
7261025134000.0,-1.817085531272478,15.918441391162869,3.080948466398356,1.6789632,0.7483099,0.86376345,209.80824,-68.039635,-3.272012
7261030117000.0,-1.22678873692167,16.82648631164279,3.293566339012496,1.5033394,1.0549643,1.0216721,209.52242,-68.525085,-3.3072803
7261035125000.0,-0.5397571674245657,17.056714649344713,4.638393992045108,1.1902709,0.98715824,1.1252137,209.30309,-68.93043,-3.3072457
7261039968000.0,0.124638577598293,17.27935758854008,5.938913225998171,0.93309665,0.6032294,1.196685,209.16977,-69.42887,-3.128977
7261045095000.0,0.3215351410247212,16.38540204835062,5.7530274835062,0.8374963,0.049480084,1.205848,209.10385,-69.8671,-2.9199374
7261050090000.0,0.2431947265117367,14.911856013491382,4.738332634913827,0.79137594,-0.26511553,1.1114693,209.08615,-70.22989,-2.7106159
7261054967000.0,0.1895025404810242,13.474972619478738,3.746959242816644,0.8381071,-0.39950588,0.9746355,209.26508,-70.34104,-2.3908587
7261059879000.0,0.4218051388312757,12.05104378765432,2.7403146260082307,0.9627236,-0.4007276,0.8564331,209.49792,-70.45864,-2.0872867
7261064875000.0,0.658080338619113,10.602764381344308,1.7164554025605856,1.1221595,-0.26511553,0.80756384,209.70515,-70.68407,-1.8141638
7261069839000.0,1.0174143426215685,9.55748960667104,1.3988723916612011,1.2709051,0.061391957,0.82527894,209.86708,-70.93438,-1.57891
7261074873000.0,1.4013569519160498,8.55923839801368,1.1865747024829008,1.4046847,0.5149594,0.8762862,209.96095,-71.218445,-1.3771275
7261079849000.0,1.841201668128162,7.871460548060709,1.2328240787942664,1.5042557,0.9660834,0.9618073,209.99373,-71.60918,-1.1537975
7261084818000.0,2.3026286223440136,7.294677379005058,1.3732582940661888,1.6096299,1.2519683,1.0516045,209.94888,-72.02893,-0.94485074
7261089862000.0,2.6238630564638785,7.092499403612167,1.338404217110266,1.7076738,1.3411547,1.1328496,209.9076,-72.41685,-0.7077348
7261094816000.0,2.9086949073944366,6.973819378977386,1.2671962915549329,1.8035797,1.353372,1.1924089,209.81088,-72.821556,-0.47471637
7261099921000.0,3.1350139515532054,7.193504722018695,1.0634957848078557,1.8976529,1.3426818,1.2577715,209.5996,-73.29526,-0.13874431
7261104880000.0,3.3412837695968274,7.476004638296667,0.8392894730620338,1.949271,1.3567317,1.2880094,209.38306,-73.76493,0.19605154
7261109884000.0,3.483173011517902,8.021787417125568,0.7757214,2.0546453,1.4181237,1.3655893,209.13303,-74.29209,0.6090134
7261114905000.0,3.599566729258699,8.671652484659607,0.7757214,2.132836,1.4828753,1.4315627,208.88278,-74.80042,1.0212638
7261119875000.0,3.5450300101153847,9.50926458826923,0.9008994551153846,2.1670444,1.493871,1.5070046,208.65343,-75.34428,1.4896799
7261124967000.0,3.4278061968076923,10.437676707884616,1.0743906518076922,2.1584923,1.4776831,1.5641204,208.41736,-75.86264,1.9623896
7261129940000.0,3.1613390256824454,11.409074695532157,1.2444884530211635,2.119397,1.4272866,1.6126842,208.21391,-76.36163,2.4582593
7261134924000.0,2.819742361292301,12.41434510060321,1.4152867342603006,2.0604484,1.3729197,1.6389514,208.02136,-76.809555,2.956235
7261139913000.0,2.476995564076992,13.264879653335992,1.4180369259599084,1.9969184,1.3069462,1.6316211,207.88916,-77.18491,3.4106615
7261144926000.0,2.132264947741099,14.054887357434923,1.351006011668495,1.9437732,1.251052,1.6209309,207.77612,-77.50714,3.862755
7261150003000.0,1.8120807065049611,14.576369931091511,1.1951950273153251,1.9107865,1.2189816,1.6197093,207.73294,-77.77159,4.221984
7261154952000.0,1.5116123841602351,14.97263959858508,1.0079466067208749,1.8701639,1.2055426,1.6355917,207.70648,-77.99249,4.576532
7261160138000.0,1.2028332482638562,15.257511324927073,0.8732241741225182,1.8698585,1.2073752,1.6762142,207.63106,-78.25776,4.9084296
7261165069000.0,0.9139925107556224,15.426372206549356,0.7932375029970828,1.8509218,1.1786644,1.7162259,207.57437,-78.47682,5.240028
7261169998000.0,0.6326076625352701,15.432497297105236,0.7573893844247048,1.8173242,1.1572843,1.7589865,207.45831,-78.726776,5.567603
7261175003000.0,0.3571080939544361,15.212097370258125,0.782434819720974,1.7815884,1.131017,1.7974709,207.3577,-78.93328,5.9004345
7261179955000.0,0.1327557366504144,14.870029341004388,0.873174120305217,1.7369953,1.0659598,1.8429805,207.23047,-79.131355,6.2266803
7261184969000.0,-0.0451758197708435,14.397105731838128,1.0323760422964408,1.6875153,0.9639453,1.8637499,207.12834,-79.28465,6.553269
7261190004000.0,-0.1965464467414917,13.69262079000724,1.232152247212165,1.6423112,0.8405506,1.8774943,207.01692,-79.40697,6.8707433
7261195055000.0,-0.3147629712509051,12.70310483616944,1.4817204747646633,1.5894713,0.67073005,1.863139,206.9555,-79.4894,7.1856227
7261200080000.0,-0.3957605501370273,11.893424010782478,1.6654407819992512,1.5140295,0.5653558,1.8350391,206.87494,-79.52388,7.486841
7261204969000.0,-0.3712194028543616,11.598930126244852,1.6619349059078996,1.4697418,0.36071593,1.8240436,206.87749,-79.53152,7.7921605
7261209964000.0,-0.3461461709711718,11.298051223961064,1.6583530177761137,1.395827,0.17073683,1.7910569,206.88312,-79.48306,8.071849
7261214947000.0,-0.3094943668292683,10.979691853658537,1.6194146731707315,1.3075571,-0.013439035,1.756543,206.95012,-79.41503,8.347737
7261219945000.0,-0.2636308032195122,10.646139352439024,1.5527039987804878,1.2168436,-0.18417588,1.7376062,207.07123,-79.3279,8.617894
7261225179000.0,-0.2182979014702351,10.2723631910882,1.417492456987501,1.1438452,-0.3472769,1.6896533,207.22836,-79.2235,8.8876915
7261229985000.0,-0.1825456632653061,9.87583781632653,1.1509757795918367,1.0836749,-0.49510628,1.6368134,207.43196,-79.10626,9.149074
7261234951000.0,-0.1456031716037003,9.46611143033684,0.8755863039474613,1.0302242,-0.602924,1.5800029,207.65996,-78.97354,9.416907
7261239952000.0,-0.1222912030855256,9.13712785397806,0.6145180542017254,0.98837996,-0.6976081,1.5271631,207.92789,-78.84155,9.668914
7261244944000.0,-0.1171993471349451,8.918178489402493,0.3752009149110661,0.95417154,-0.75655663,1.4718798,208.21718,-78.71472,9.900899
7261249985000.0,-0.1252566811990776,8.789234089930822,0.2250880926056879,0.95569867,-0.7696902,1.421178,208.50978,-78.58585,10.1649475
7261254965000.0,-0.1435858499923136,8.734246749423521,0.1487165517140661,0.9663888,-0.75961095,1.3765849,208.81384,-78.460945,10.410375
7261260958000.0,-0.1656434219959006,8.668074233025878,0.0568099965808352,1.0067059,-0.74097955,1.3494014,209.10724,-78.33696,10.668487
7261265003000.0,-0.17238252,8.629734713286714,0.0649749521398601,1.0430524,-0.7467828,1.3243558,209.40622,-78.218,10.909294
7261270000000.0,-0.17238252,8.588832695804197,0.1467788939207459,1.0961977,-0.77366084,1.2983941,209.70676,-78.10614,11.136749
7261274975000.0,-0.17238252,8.548110755244755,0.2282226822657342,1.1212431,-0.82711154,1.2745703,210.00868,-77.994286,11.364537
7261279983000.0,-0.1560503942575429,8.460851413922303,0.3333299179412344,1.142318,-0.8875872,1.2385293,210.32137,-77.8893,11.576765
7261284961000.0,-0.1372480533819759,8.366839758627489,0.4414433951548018,1.1523973,-0.91782504,1.185384,210.64119,-77.788864,11.772722
7261290054000.0,-0.0933377318385161,8.291720936352064,0.5930096680423713,1.1383474,-0.945314,1.1230757,210.95348,-77.68487,11.9576235
7261295055000.0,-0.0454354091543917,8.222044337879614,0.7497808914493544,1.1093313,-0.9960158,1.0833695,211.28043,-77.5827,12.130412
7261299960000.0,-0.0266632058668396,8.150200191068015,0.7651746880162523,1.0607675,-1.0299188,1.063211,211.5798,-77.46993,12.299472
7261305092000.0,-0.0233070075335973,8.073007817945916,0.7014069140774378,1.035722,-1.0809261,1.0577132,211.89717,-77.359474,12.458863
7261309926000.0,-0.0201456936709915,8.000297776700355,0.6413419454063097,0.96944314,-1.1001683,1.0500773,212.1726,-77.22545,12.626388
7261315003000.0,0.0311168558948196,7.793154937186671,0.4750323902477145,0.91751957,-1.0913107,1.0290025,212.45256,-77.094986,12.785745
7261320001000.0,0.101693206606704,7.534374975405485,0.2680084355617812,0.8772025,-0.9984592,0.9954049,212.7111,-76.96732,12.936043
7261324979000.0,0.2077775790337872,7.356372723832098,0.2594083043526978,0.86437434,-0.8720101,0.9147707,212.94603,-76.84467,13.08078
7261331067000.0,0.3585367506179969,7.185512494837097,0.3649397281348043,0.890947,-0.80878556,0.8231409,213.17067,-76.734406,13.209491
7261334980000.0,0.5334895779139097,7.081236824957252,0.405989392009516,0.8536842,-0.82924956,0.79137594,213.38655,-76.596466,13.365173
7261339965000.0,0.8777626687770426,6.957014486655267,0.4166370125358709,0.8173377,-0.85062987,0.73914695,213.58376,-76.49055,13.485179
7261344999000.0,1.2254197880157611,6.831571106311799,0.4273892937253736,0.74067414,-0.8017606,0.6835582,213.73851,-76.358315,13.626462
7261349969000.0,1.48183986325188,6.836984928571429,0.3888777591165414,0.70921457,-0.75869465,0.6411031,213.90105,-76.23804,13.753635
7261354972000.0,1.6957360986607144,6.9082836345238094,0.325084140922619,0.63621616,-0.72356987,0.6178902,214.05101,-76.127785,13.867731
7261359986000.0,1.9000164153757135,6.980027647037494,0.2417851964712236,0.5644395,-0.70280045,0.6105598,214.20128,-75.95167,14.046655
7261364999000.0,2.022241531183459,7.054103597855269,0.0010388068723962,0.51251596,-0.6747007,0.59803706,214.34096,-75.785995,14.213644
7261370088000.0,2.146319650941213,7.129302583235612,-0.2433574382240395,0.49113566,-0.61850107,0.5885687,214.47934,-104.41796,14.41792
7261375072000.0,2.2913209652247724,7.257322047202227,-0.5768494591117751,0.52656585,-0.4822781,0.55863625,214.58853,-104.60938,14.608471
7261379978000.0,2.454038219917153,7.429610832602201,-0.9852378920494363,0.62888575,-0.2837469,0.51251596,214.66528,-104.790535,14.787602
7261384982000.0,2.6200058396645387,7.605341179553172,-1.401784104528046,0.8002335,-0.053450707,0.47128254,214.73105,-104.99731,14.9888935
