timestamp,acc_x,acc_y,acc_z,gyro_x,gyro_y,gyro_z,ori_azimuth,ori_pitch,ori_roll
7520539820000.0,4.172231680901271,17.400029313685245,-1.3471214711788857,-3.9895608,7.188662,0.09468412,244.18425,-81.61961,5.496194
7520544821000.0,4.041144579182796,17.151900030107534,-1.3143496981935483,-3.9895608,0.75411314,0.032375857,245.74722,-81.44127,5.5881453
7520549883000.0,3.908458534611926,16.90074417458456,-1.2811781895249268,-1.187522,0.7641924,0.03359759,243.73709,-81.32861,5.305516
7520556033000.0,3.747253640477029,16.595606183382216,-1.2408769689970676,-1.1908818,0.7501425,0.03970624,243.57133,-80.59654,5.196174
7520559957000.0,3.644397054365592,16.40091326021506,-1.2151628243870969,-1.1731668,0.73853606,0.032070424,243.40285,-80.51566,5.085938
7520564960000.0,3.5132575282913003,16.15268474477029,-1.182377945313783,-1.1566733,0.7287622,0.03268129,243.23776,-80.4299,4.9817743
7520569779000.0,3.386941042952102,15.913585561094823,-1.150798826334311,-1.1615603,0.7470882,0.035124753,243.06876,-80.34266,4.876857
7520574838000.0,3.254333634914956,15.662578553372438,-1.117646976797654,-1.1838568,0.77946407,0.040011674,242.89896,-80.25353,4.7739944
7520579790000.0,3.1245309299139787,15.41688045053764,-1.085196302967742,-1.2104294,0.7849618,0.043676864,242.73221,-80.16095,4.6731615
7520584791000.0,2.993443828195504,15.168751166959924,-1.0524245299824049,-1.2198979,0.7189884,0.03481932,242.57765,-80.06729,4.5731544
7520589779000.0,2.862697484789834,14.921266890518089,-1.019737946568915,-1.1438452,0.77732605,0.0421497,242.38614,-79.985596,4.4743915
7520594775000.0,2.7317414439609,14.673385686608018,-0.9869989388035192,-1.2067643,0.77579886,0.043676864,242.23158,-79.86767,4.378073
7520599819000.0,2.5995272185923755,14.423122917888566,-0.9539453849266863,-1.2144,0.7806858,0.045814894,242.05923,-79.78185,4.2825074
7520604842000.0,2.467863448959922,14.17390208377322,-0.9210294449736072,-1.2089024,0.7690793,0.044593163,241.89291,-79.68337,4.188376
7520609839000.0,2.3368811959530795,13.925971263929622,-0.8882838841642229,-1.1991285,0.7501425,0.05497787,241.72755,-79.5825,4.0993953
7520614835000.0,2.2059251551241448,13.678090060019551,-0.855544876398827,-1.1936307,0.73914695,0.06169739,241.56432,-79.48273,4.0103593
7520619774000.0,2.076463208435973,13.433036964320628,-0.8231793921407625,-1.1847731,0.72265357,0.07971791,241.40784,-79.38442,3.929693
7520624876000.0,1.942728676748778,13.179896471456503,-0.78974576171261,-1.1856894,0.6713409,0.081855945,241.26566,-79.286514,3.8496993
7520629822000.0,1.8130832448152487,12.934496064222875,-0.7573344061466276,-1.1191051,0.6102544,0.08246681,241.131,-79.20793,3.7766664
7520634964000.0,1.67830022601173,12.679370934017598,-0.7236386539589443,-1.028697,0.54825157,0.07696902,241.01208,-79.13691,3.706025
7520639846000.0,1.5503323734643206,12.437145946529816,-0.6916466932082113,-0.9184359,0.48197266,0.07819075,240.91202,-79.089165,3.6417758
7520644832000.0,1.4196384544144671,12.189760901955037,-0.658973215882698,-0.80756384,0.44043383,0.08307768,240.8233,-79.06658,3.5800655
7520649876000.0,1.2874242290459432,11.939498133235585,-0.6259196620058651,-0.7104363,0.41355577,0.0870483,240.74994,-79.069984,3.5223098
7520654809000.0,1.15811955542522,11.694742733137833,-0.5935934960117303,-0.6084218,0.21746802,0.059253927,240.73837,-79.10662,3.4690404
7520659996000.0,1.0221569886158357,11.437384885923755,-0.5596028568445748,-0.1572978,0.14752395,0.07391469,240.69745,-79.258995,3.4251423
7520664843000.0,0.8951065622952101,11.196896456109483,-0.5278402526334312,-0.0018325958,0.17806722,0.11759156,240.68405,-79.357285,3.3879268
7520669834000.0,0.7642815823558162,10.949263331867058,-0.4951340100879766,-0.05100725,0.18325958,0.14905111,240.69887,-79.51798,3.357884
7520674841000.0,0.6330372075698925,10.700836352688173,-0.4623229188387097,-0.06383542,0.16920967,0.17134771,240.71074,-79.72235,3.3383763
7520679804000.0,0.5029461686119256,10.454592474584556,-0.4298001615249267,-0.042455133,0.15271631,0.18875736,240.72241,-79.915405,3.3272715
7520684794000.0,0.3721474008504398,10.20700896627566,-0.3971004720234604,-0.030848695,0.12797627,0.18845193,240.74202,-80.09741,3.3193018
7520689798000.0,0.2409816625982404,9.95873083489736,-0.3643090399061583,-0.04520403,0.11453723,0.19303341,240.76382,-80.271545,3.3184988
7520695334000.0,0.0857487672827282,9.656382164466446,-0.3120416566446645,-0.05681047,0.0693332,0.1863139,240.79463,-80.44588,3.3443098
7520699867000.0,-0.0444992513791379,9.400227770077008,-0.2642840422462246,-0.12492194,0.05100725,0.17348573,240.82362,-80.59551,3.3692138
7520704803000.0,-0.1655614671983902,9.238863127046557,-0.261207771843044,-0.1591304,-0.021685716,0.1423316,240.84973,-80.76281,3.358428
7520709793000.0,-0.2792077610061282,9.125216595902314,-0.278691818097503,-0.2049453,-0.07269296,0.09193522,240.87769,-80.90792,3.339286
7520714779000.0,-0.3523724981545326,9.11587890732103,-0.3535863503143378,-0.2489276,-0.112704635,0.038179077,240.89713,-81.05041,3.280378
7520719787000.0,-0.3864147310809166,9.208279097140538,-0.484892129101602,-0.2770274,-0.11056661,-0.0290161,240.92216,-81.18853,3.2055583
7520724839000.0,-0.3898906089245889,9.35727844150444,-0.6272908066150066,-0.301462,-0.083383106,-0.08307768,240.92647,-81.34163,3.0912652
7520729930000.0,-0.3668536078075978,9.555396857021355,-0.7793350467019466,-0.29840767,-0.03756821,-0.12461651,240.92694,-81.496346,2.9636133
7520734903000.0,-0.3194954997983714,9.742939543233812,-0.9029083279565724,-0.25045475,0.03634648,-0.15302174,240.91058,-81.69304,2.814738
7520739783000.0,-0.2424799935556417,9.91962193951144,-0.993514828150446,-0.17959438,0.105068825,-0.18661933,240.88406,-81.89626,2.6547482
7520744778000.0,-0.10864213441101,10.037808804292046,-1.0718696891299275,-0.07819075,0.17592919,-0.22693644,240.8374,-82.16614,2.479535
7520749810000.0,0.1274204495186999,10.04155590513957,-1.124328044592178,0.013439035,0.23518312,-0.24923302,240.77481,-82.44661,2.3024356
7520754783000.0,0.3607152090342896,10.045259071378586,-1.1761713279216237,0.12064589,0.29779682,-0.26450464,240.68669,-82.797615,2.1114845
7520759823000.0,0.4859419035705379,10.002260630744567,-1.177414177885643,0.20463985,0.35460728,-0.2657264,240.58395,-83.15755,1.9224237
7520765101000.0,0.5849818483959743,9.943737256679729,-1.163908693471678,0.267559,0.41813725,-0.25686884,240.46245,-83.53052,1.7358983
7520769787000.0,0.6567116800910393,9.882088272094926,-1.1482646058919803,0.31673363,0.48808134,-0.22693644,240.33583,-83.927864,1.5996914
7520774835000.0,0.7209985332579787,9.807911175531917,-1.1284840468085109,0.3323107,0.54733527,-0.2171626,240.19528,-84.32362,1.4637284
7520779794000.0,0.7700373779070833,9.739509248052782,-1.0948792052964356,0.33505958,0.600786,-0.19028452,240.0404,-84.7104,1.360826
7520784853000.0,0.8099935573902685,9.672915692843398,-1.050483455465958,0.3145956,0.61850107,-0.16646078,239.87907,-85.08569,1.2628453
7520789794000.0,0.8350189595178878,9.62508420241056,-0.9898198499808686,0.29932398,0.64721173,-0.15577064,239.6994,-85.4515,1.1772916
7520794775000.0,0.8395820014922518,9.60226899253874,-0.9031220048211211,0.29046643,0.66920286,-0.1301143,239.51611,-85.802765,1.1054578
7520799771000.0,0.8413367674798329,9.594917424822627,-0.8114698593099426,0.2751948,0.66248333,-0.10170906,239.32875,-86.13264,1.0446994
7520804868000.0,0.8365925795509768,9.623382651472449,-0.7070976406599281,0.24098633,0.63316184,-0.06841691,239.14131,-86.44574,0.99478835
7520809847000.0,0.8291246883246073,9.6560174619412,-0.6117816737414419,0.22632557,0.5900958,-0.02687807,238.95074,-86.737656,0.95520175
7520814848000.0,0.8136938017172775,9.702309843817964,-0.5346272487611761,0.19975294,0.5155703,0.009162978,238.77754,-87.00848,0.9259748
7520819736000.0,0.7986115834136125,9.747556227064036,-0.459216165117197,0.18448131,0.40133846,0.059864793,238.61961,-87.25145,0.9113632
7520824793000.0,0.7092544326289095,9.800279013102282,-0.3782636209847844,0.15943582,0.27916542,0.10567969,238.4851,-87.47548,0.9073943
7520829871000.0,0.5962068276444069,9.855090006480696,-0.2960471845731192,0.112399206,0.15454891,0.13683382,238.38374,-87.67903,0.9153868
7520835290000.0,0.4750559666677419,9.91381150112903,-0.2119007525967742,0.06719518,0.020158553,0.16982053,238.30905,-87.85284,0.93217224
7520839854000.0,0.3575598746376344,9.970209536182796,-0.2494994998870968,0.020158553,-0.09560041,0.19058995,238.2642,-88.00419,0.95506155
7520844843000.0,0.2293649380016935,10.033728100338696,-0.2918452770533446,-0.034208454,-0.21319197,0.21624629,238.24039,-88.12757,0.958848
7520849856000.0,0.103347617657917,10.119094481583405,-0.3487563252243861,-0.08460484,-0.30543262,0.23182335,238.24176,-88.23406,0.96609235
7520854844000.0,-0.0220412500609652,10.204035137806942,-0.4053835560795936,-0.13255776,-0.3622431,0.23915374,238.25554,-88.346825,0.9522132
7520859848000.0,-0.1587960003108903,10.285030515820456,-0.4720470768487859,-0.17592919,-0.38820487,0.2501493,238.2858,-88.44213,0.94408584
7520864845000.0,-0.2996504637527594,10.364261830022077,-0.5424743039735099,-0.21685717,-0.3979787,0.25320363,238.32663,-88.52397,0.93583554
7520869773000.0,-0.4435179115805022,10.4261654844904,-0.616749173633678,-0.23884831,-0.36957347,0.2556471,238.35588,-88.628746,0.89901793
7520874862000.0,-0.5964939656942393,10.475657324963072,-0.6977364836872231,-0.267559,-0.31520647,0.24678956,238.37952,-88.722305,0.86017686
7520880710000.0,-0.7833948313298429,10.497474938219897,-0.7828803628795812,-0.2855795,-0.24923302,0.24251351,238.38245,-88.84719,0.7904332
7520884849000.0,-0.9245158349528796,10.485023265968586,-0.8368384038743455,-0.30482176,-0.20677789,0.23426682,238.37595,-88.96568,0.71819437
7520889830000.0,-1.0740529563421308,10.437752531732722,-0.8793442649465972,-0.3436117,-0.13164146,0.22876903,238.32898,-89.11614,0.61104715
7520894779000.0,-1.19955997202754,10.354080838467649,-0.8960785424415217,-0.36254853,-0.058643065,0.21838433,238.27036,-89.26569,0.50241804
7520899846000.0,-1.3157872731034483,10.26900934036511,-0.90979666,-0.40408736,0.0125227375,0.19914207,238.18616,-89.43303,0.35836527
7520904837000.0,-1.3817152852413794,10.187568773793105,-0.90979666,-0.44868052,0.067500606,0.17806722,238.08615,-89.58768,0.21407567
7520909841000.0,-1.447815019310345,10.105916079918863,-0.90979666,-0.48991394,0.1133155,0.14538592,237.95819,-89.7289,0.031137124
7520914789000.0,-1.508620778280769,9.965834356744612,-0.9358182809303488,-0.5183192,0.1704314,0.116675265,237.81223,-89.75019,-0.15246879
7520919760000.0,-1.5680444771323958,9.803410023882831,-0.9714724919680452,-0.5555819,0.19547687,0.07819075,237.66333,-89.62753,-0.3439072
7520924770000.0,-1.60733704920374,9.680763778999282,-1.0022537031850407,-0.56046885,0.22021692,0.04428773,237.488,-89.436584,-0.55731803
7520929806000.0,-1.6023818694236105,9.646077313572382,-1.0220744223055584,-0.5589417,0.22510384,0.008857546,237.31241,-89.221985,-0.7773147
7520934753000.0,-1.5836354196481517,9.624691,-1.0342951,-0.54611355,0.20861048,-0.007941248,237.1253,-91.01937,-1.0187678
7520939797000.0,-1.5406675488041115,9.624691,-1.0342951,-0.5198463,0.18570304,-0.019242255,236.94012,-91.267395,-1.2630434
7520944746000.0,-1.477102872484756,9.621557671303352,-1.0421282745141005,-0.47067168,0.16432275,-0.03023783,236.76155,-91.51787,-1.5063292
7520949829000.0,-1.3704323207317073,9.612281777439025,-1.0653175733231706,-0.40958515,0.13103059,-0.0571159,236.59424,-91.77342,-1.7517161
7520954810000.0,-1.2353116759713978,9.607750787551716,-1.099889142120885,-0.3371976,0.09773844,-0.09560041,236.43672,-92.02444,-1.9884536
7520959872000.0,-1.0085761318213708,9.616471559992805,-1.1696539102266594,-0.24404067,0.07727446,-0.14721853,236.2862,-92.28713,-2.2310338
7520964963000.0,-0.7868658563229587,9.627118002455058,-1.200944640049101,-0.15057829,0.051618114,-0.19639318,236.15726,-92.53869,-2.455176
7520969844000.0,-0.6647018442678387,9.664137374277342,-0.6752691774855468,-0.06872234,0.02443461,-0.22174409,236.03531,-92.80089,-2.6819613
7520974874000.0,-0.5388085886568464,9.702286819117765,-0.1335466663823552,0.014049901,0.0070249503,-0.23396139,235.94565,-93.0302,-2.8612175
7520979817000.0,-0.3776086660988321,9.746355507576489,-0.3298669610597433,0.076052725,-0.00061086525,-0.23060162,235.86115,-93.26765,-3.0389426
7520984857000.0,-0.1772915530788533,9.797599480166006,-1.2289646734041118,0.14172074,-0.008552114,-0.22388211,235.7819,-93.516045,-3.214807
7520989781000.0,0.0109498155958476,9.85902079876552,-1.4869743882233288,0.16768251,-0.008857546,-0.22388211,235.7061,-93.66832,-3.3469183
7520994777000.0,0.1921709216967104,9.936207369292278,-0.936599199555306,0.21227567,0.011911872,-0.21533,235.62708,-93.82362,-3.4718654
7521000166000.0,0.3876474110436979,10.019465661639895,-0.3429298857578733,0.226631,0.014660766,-0.20005837,235.57932,-94.02419,-3.5547087
7521004799000.0,0.5233092146902655,10.051492278906936,-0.5788692237790527,0.24831672,0.03176499,-0.19028452,235.52158,-94.237564,-3.6339636
7521009897000.0,0.6515022594690265,10.06098825206652,-1.3242880900262568,0.25228736,0.049480084,-0.1740966,235.4633,-94.45035,-3.7047017
7521014772000.0,0.7468676160082778,10.070951502874223,-1.4830508016992412,0.24617869,0.055588737,-0.14844026,235.41348,-94.52619,-3.7151299
7521020518000.0,0.8312216265363686,10.083604417720547,-1.0992400969563882,0.23365596,0.063224554,-0.1255328,235.35818,-94.5986,-3.7209957
7521025293000.0,0.9010112977860654,10.093832241015429,-0.7807321809340566,0.20952678,0.03848451,-0.092240654,235.33344,-94.730736,-3.6923974
7521029803000.0,0.9486030899881336,10.086510467409733,-0.5061640384353281,0.18509217,0.024740042,-0.052534413,235.30374,-94.860855,-3.6555476
7521034779000.0,1.0011123489676217,10.07843216464655,-0.2032258838735379,0.1282817,-0.0030543262,-0.021685716,235.2844,-94.90826,-3.5948822
7521039831000.0,0.9228030396629124,10.05569133464598,-0.0606679452866818,0.09437868,-0.044593163,0.01160644,235.27333,-94.94969,-3.5238328
7521044782000.0,0.7435552762778609,10.022082283964716,-0.0494649584178939,0.044593163,-0.11301007,0.052839845,235.2783,-94.97184,-3.4440312
7521050000000.0,0.5530842964488448,9.987281541254124,-0.038307227,-0.024740042,-0.17287487,0.08246681,235.29114,-94.92245,-3.3494036
7521054847000.0,0.351312239611044,9.964862751911776,-0.038307227,-0.07238753,-0.21777347,0.11881329,235.31955,-94.86023,-3.2438068
7521059777000.0,0.1460850392375432,9.942060063350237,-0.038307227,-0.11789699,-0.23762658,0.15760323,235.34521,-94.809265,-3.1760843
7521064772000.0,-0.0555317901940207,9.90474488669049,-0.1197196844660507,-0.14660765,-0.23548855,0.16218472,235.37692,-94.75278,-3.1093936
7521069791000.0,-0.2524377126491763,9.854470894012028,-0.2747307330328598,-0.1695151,-0.20219639,0.1554652,235.40527,-94.68434,-3.0360684
7521074864000.0,-0.4417648840881008,9.816227,-0.405185834176362,-0.17440203,-0.16126843,0.13591751,235.41846,-94.65224,-3.018124
7521079852000.0,-0.5989127345992136,9.816227,-0.4550131886239268,-0.16982053,-0.13500121,0.11209377,235.4258,-94.62021,-3.0034635
7521084782000.0,-0.754233284522988,9.816227,-0.504261155229078,-0.13683382,-0.06719518,0.099265605,235.39362,-94.65892,-3.03699
7521090123000.0,-0.8902985418162951,9.77447928093774,-0.6453729649200615,-0.118507855,-0.009162978,0.04795292,235.35579,-94.70637,-3.0872211
7521094782000.0,-1.000043893850884,9.72646579707917,-0.7928432820522675,-0.08827003,0.049480084,0.029626964,235.29921,-94.75879,-3.1296306
7521099820000.0,-1.0956025537052052,9.685590156153722,-0.9323883971785308,-0.07086037,0.08979719,-0.010995574,235.21555,-94.866104,-3.2317219
7521104852000.0,-1.056531280865899,9.709032976974218,-0.955831156802335,-0.029932396,0.14080444,-0.060170226,235.1127,-94.98748,-3.3378918
7521109750000.0,-1.0185004592508513,9.73185152553916,-0.978649645800227,0.00030543262,0.17470746,-0.083383106,234.99615,-95.17161,-3.4826
7521114847000.0,-0.9493290612422448,9.763044505954504,-1.021558383398702,0.02565634,0.21991149,-0.115453534,234.86267,-95.36903,-3.638399
7521119784000.0,-0.8684094026741782,9.796761015688512,-1.0721331832061614,0.044898596,0.2519819,-0.13439035,234.72519,-95.56781,-3.7923024
7521125731000.0,-0.769154888631579,9.835607412307692,-1.1293839063319835,0.06505715,0.2779437,-0.15027285,234.58017,-95.766464,-3.9372118
7521129797000.0,-0.677718466631579,9.838760126153849,-1.119924974639676,0.084910266,0.29993483,-0.16157386,234.42908,-95.966156,-4.081535
7521134805000.0,-0.5650982990526316,9.842643252307694,-1.1082746229635627,0.100792766,0.3145956,-0.17928895,234.28355,-96.158905,-4.2037015
7521139848000.0,-0.3841041459161521,9.835138920334597,-1.0659876824487151,0.10995574,0.32528573,-0.18509217,234.1352,-96.34882,-4.321837
7521144824000.0,-0.1088658432832105,9.811411497112127,-0.980568884520016,0.108123146,0.3136793,-0.19028452,233.99097,-96.53766,-4.4415855
7521149834000.0,0.1005540279179005,9.783361664249972,-0.903486094432758,0.119729586,0.30604348,-0.19120082,233.85675,-96.70206,-4.5307007
7521154886000.0,0.2092443850627999,9.748778704584907,-0.8392599766465842,0.119729586,0.28191432,-0.1863139,233.7325,-96.85926,-4.617872
7521159893000.0,0.2845614390484182,9.717271946798691,-0.7789237944935806,0.11362094,0.25381452,-0.18234327,233.62823,-96.96002,-4.6477094
7521164850000.0,0.3204135894067299,9.689386793991776,-0.7231537966904422,0.1020145,0.22357668,-0.16065755,233.53336,-97.053185,-4.6710024
7521169937000.0,0.3569667720233792,9.66241470476044,-0.6665849591248174,0.09407325,0.19608775,-0.12797627,233.44781,-97.12034,-4.6702156
7521174892000.0,0.3898113151441975,9.655116149427055,-0.619142825194186,0.0842994,0.16401732,-0.099265605,233.37369,-97.18014,-4.6651907
7521179849000.0,0.4226691153964469,9.647814648158118,-0.5716815420672152,0.08002335,0.15851954,-0.067500606,233.30429,-97.218216,-4.643885
7521184849000.0,0.4252490485459941,9.63074434668645,-0.5174933271513353,0.076358154,0.16035213,-0.04795292,233.24316,-97.25086,-4.6189046
7521189840000.0,0.3921546013412463,9.6023775958457,-0.4560321982195846,0.08032878,0.16157386,-0.007941248,233.18597,-97.27455,-4.5797453
7521194770000.0,0.3386344113904068,9.586384,-0.3701132502813196,0.09896017,0.17562376,0.028405234,233.12448,-97.284386,-4.5281754
7521199847000.0,0.2549909596933819,9.586384,-0.2471081700252985,0.109650314,0.172264,0.057421334,233.06927,-97.28808,-4.4688087
7521205731000.0,0.1365741174886154,9.589348685108034,-0.0930205691289603,0.112704635,0.17104226,0.083383106,233.00754,-97.28351,-4.406402
7521209807000.0,0.0420215922565642,9.593130862416434,0.0204424635190388,0.11301007,0.18203785,0.12003502,232.94519,-97.27471,-4.3337307
7521214795000.0,-0.0862249348961821,9.620823346282654,0.1535159598727394,0.11301007,0.1872302,0.14721853,232.87866,-97.25509,-4.272273
7521219775000.0,-0.2339662580040187,9.684711109176156,0.2772992301339584,0.092240654,0.19822577,0.17959438,232.80931,-97.224594,-4.199827
7521225143000.0,-0.4151350167765055,9.76607921449174,0.4133905918119045,0.06505715,0.18784106,0.17806722,232.73695,-97.1862,-4.154278
7521229807000.0,-0.8523885185473298,9.996418279958045,0.5656485330128486,0.01863139,0.15515977,0.19425514,232.67,-97.1311,-4.0961437
7521234760000.0,-1.3167359873018094,10.241030070535793,0.7273409821484136,-0.04153884,0.098043874,0.19272798,232.60434,-97.065346,-4.0789256
7521239774000.0,-1.6458879291626396,10.34988610007908,0.7460005556805201,-0.10873401,0.03634648,0.18875736,232.5502,-96.98633,-4.059651
7521244761000.0,-1.9144592407521308,10.400243363412706,0.7040362718126703,-0.18387043,-0.04795292,0.16829337,232.51859,-96.89639,-4.048493
7521249789000.0,-2.144726610515691,10.39678477261883,0.5942998396604882,-0.24495697,-0.1459968,0.13805555,232.48216,-96.83089,-4.1444836
7521254814000.0,-2.321358864828409,10.321715477794092,0.3955885570168838,-0.28924468,-0.25442538,0.10048734,232.47174,-96.762985,-4.248845
7521259757000.0,-2.443261572290378,10.236332704653757,0.1889902126361148,-0.30848694,-0.32436943,0.04886922,232.46214,-96.747734,-4.4215064
7521264779000.0,-2.4091277058197305,10.114426111426544,-0.0548236510220014,-0.30482176,-0.34300083,0.0033597588,232.4667,-96.742355,-4.600154
7521269755000.0,-2.341876786381396,10.00248904227907,-0.2591564074669767,-0.27488935,-0.36835176,-0.03573562,232.48413,-96.82038,-4.8313346
7521275951000.0,-2.148683546716279,9.892093325255814,-0.3916317117013953,-0.23732115,-0.3915646,-0.05955936,232.50336,-96.912285,-5.0649776
7521279795000.0,-2.0351669964255046,9.8204318705453,-0.4549301942926148,-0.17928895,-0.40775254,-0.08002335,232.5279,-97.05911,-5.3020988
7521284799000.0,-1.9271411321489909,9.707261758909404,-0.4189215639147702,-0.13652839,-0.44348818,-0.10598512,232.56165,-97.21609,-5.541589
7521289783000.0,-1.826461050871184,9.59617452702904,-0.405956779297096,-0.06536258,-0.49938235,-0.118507855,232.6077,-97.380104,-5.746259
7521294775000.0,-1.7445868239761726,9.48938215413254,-0.455793264586746,-0.015271631,-0.573297,-0.12767084,232.66666,-97.54956,-5.9526787
7521299821000.0,-1.6618269383767683,9.381434575279226,-0.5061688464720774,0.046731193,-0.6221663,-0.13927728,232.7366,-97.71173,-6.137927
7521304803000.0,-1.5741808093192868,9.286346125911669,-0.6401482468375203,0.0711658,-0.65118235,-0.15485434,232.81967,-97.875305,-6.3230877
7521309808000.0,-1.4819294118314426,9.198949760940032,-0.8343618470502432,0.06994407,-0.66156703,-0.16768251,232.90906,-98.04296,-6.506363
7521314776000.0,-1.4284122322137405,9.33522842259542,-1.1308673665160305,0.0580322,-0.65240407,-0.16646078,233.00131,-98.203865,-6.667469
7521319771000.0,-1.3991992988167938,9.616402692061069,-1.4960288013862597,0.054061573,-0.6230826,-0.15943582,233.0885,-98.36308,-6.825815
7521325177000.0,-1.3625542171422789,9.922575630034409,-1.8879498794373608,0.067500606,-0.5925393,-0.15851954,233.16977,-98.533936,-6.9676557
7521329772000.0,-1.264586231815422,10.207573506982392,-2.177400656405586,0.11575896,-0.5390886,-0.14110987,233.23505,-98.69961,-7.0975027
7521335133000.0,-1.1549981460345355,10.524092732885086,-2.5168298355210883,0.17745635,-0.44440445,-0.11911872,233.27197,-98.9021,-7.2011156
7521339869000.0,-1.1099473440785452,10.628056038508555,-2.835650892733802,0.25992316,-0.32895094,-0.09407325,233.28857,-99.10589,-7.2928977
7521345673000.0,-1.0547372818841687,10.75546377200489,-3.226368252544316,0.33841935,-0.17562376,-0.08093964,233.2865,-99.31808,-7.3457894
7521349778000.0,-0.9708378364260846,10.822027744989178,-3.513814797026442,0.37965274,0.03481932,-0.07544186,233.23788,-99.53067,-7.38596
7521354888000.0,-0.8050573574574198,10.872682958125528,-3.886820754493272,0.44012842,0.28344148,-0.07360926,233.13818,-99.7555,-7.414986
7521359770000.0,-0.6137157512529303,10.9001785408478,-4.0597935221997,0.55771995,0.5363397,-0.05467244,232.9979,-100.020195,-7.4048634
7521364861000.0,-0.3215349416607033,10.870100946946328,-3.724645100185071,0.74372846,0.70157874,-0.04337143,232.81796,-100.31141,-7.3892245
7521370134000.0,-0.0082464021367144,10.826669538037486,-3.343625406372657,0.95081174,0.65057147,-0.0421497,232.6587,-100.652855,-7.336111
7521374889000.0,0.4146507050376135,10.625841663387328,-2.5538312504613687,1.1566733,0.5412266,-0.09285152,232.47716,-101.04426,-7.290351
7521379815000.0,0.8527560993469173,10.41779158756679,-1.735634402507845,1.3384057,0.17623462,-0.12705997,232.39648,-101.396484,-7.2025814
7521384850000.0,1.3005556649878722,10.20513788643881,-0.8993329145975744,1.4046847,-0.24312437,-0.1957823,232.3652,-101.78751,-7.148281
7521389848000.0,1.745064548617166,9.994046883809686,-0.069177038415741,1.4941764,-0.559858,-0.21319197,232.41388,-102.22276,-7.1024737
7521394766000.0,2.24271518620004,9.847600244382582,0.58983530600517,1.4953982,-0.6588182,-0.15271631,232.52287,-102.650116,-7.0638127
7521399869000.0,2.918097185464307,9.857318166633526,0.8570728203599125,1.4175128,-0.54702985,-0.004886922,232.66684,-103.06557,-7.0099463
7521404721000.0,3.3982987326367318,9.785336496093382,1.104111319401299,1.2449434,-0.2947425,0.16768251,232.80392,-103.12505,-6.8015
7521409705000.0,3.42975080817095,9.47980176654429,1.3377554967523295,0.9981538,-0.03481932,0.31398472,232.9114,-103.13227,-6.554069
7521414721000.0,3.4305787750342134,9.211028770087976,1.4991045662170088,0.73548174,0.111177474,0.41874814,232.99753,-103.0017,-6.164582
7521419671000.0,3.2313194040664714,9.197126673313782,1.1793627275073315,0.49205196,0.1282817,0.47678033,233.04843,-102.81063,-5.744264
7521424721000.0,2.999792265632409,9.19865698804247,0.8759485652819298,0.30298916,0.1337795,0.51923543,233.05908,-102.53903,-5.297536
7521429705000.0,2.473331487650757,9.36594388712504,0.816906223997526,0.15118915,0.21838433,0.5174029,233.03995,-102.22332,-4.8456917
7521434697000.0,1.9264522176692849,9.525926870935669,0.7190175098188327,0.046120327,0.23060162,0.5476407,233.04422,-101.93469,-4.4117575
7521439694000.0,1.260275202525604,9.640128965794968,0.3859290092031421,-0.04520403,0.17012598,0.5390886,233.0406,-101.62549,-3.993134
7521444686000.0,0.6011095431211857,9.744355453356585,0.0430079600383609,-0.11362094,0.124311075,0.49235737,233.02051,-101.33415,-3.667296
7521449730000.0,-0.0212502529613484,9.781790405986632,-0.3734583378998353,-0.12186762,0.102319926,0.4156938,233.0073,-101.04637,-3.3589494
7521454738000.0,-0.6312169783869687,9.816577053237982,-0.7737199650774731,-0.0842994,0.13683382,0.33169982,232.98495,-100.849815,-3.1879106
7521459732000.0,-1.1395049194318634,9.821327503972984,-1.0064873884386174,-0.0018325958,0.19639318,0.25870144,232.95773,-100.673615,-3.0386317
7521464796000.0,-1.634253532595928,9.826810787392326,-1.2271737018794049,0.100792766,0.28008172,0.18753563,232.9108,-100.63582,-3.0359466
7521469701000.0,-1.850364442883712,9.840604899569303,-1.2455661075176194,0.21319197,0.33658674,0.124311075,232.8515,-100.629654,-3.050312
7521475121000.0,-2.066499527973074,9.85829720091623,-1.267901714014585,0.2556471,0.50579643,0.058643065,232.73819,-100.71843,-3.1855013
7521479752000.0,-2.0457674034405384,9.895614938481677,-1.3052195814697083,0.30451632,0.5549711,0.034513887,232.64236,-100.839264,-3.3257465
7521484742000.0,-2.0234281027673893,9.935825586387434,-1.3454303693343306,0.29535335,0.66889745,0.005497787,232.47433,-100.98366,-3.5185187
7521489736000.0,-1.889803588270847,9.960558716498252,-1.3542965432996503,0.28191432,0.732122,-0.027488936,232.30688,-101.13947,-3.712976
7521494694000.0,-1.7418293181036923,9.982979046274435,-1.358780609254887,0.23579398,0.7611381,-0.047036625,232.11826,-101.28213,-3.9017959
7521499789000.0,-1.590119510228109,9.985594567410676,-1.3508630189354918,0.20738874,0.73792523,-0.062002823,231.92177,-101.433754,-4.0869017
7521504808000.0,-1.4407852404709345,9.981664843471508,-1.3390734778023057,0.19517145,0.6936375,-0.0729984,231.72472,-101.575806,-4.2707577
7521509756000.0,-1.3019030991637974,9.970067192277424,-1.3222108298671913,0.1704314,0.66248333,-0.07269296,231.53185,-101.69249,-4.4190454
7521514779000.0,-1.1788620828332514,9.941673282636495,-1.293816722567634,0.15210545,0.6252206,-0.07238753,231.35472,-101.80618,-4.569212
7521519742000.0,-1.0750636625214407,9.9164359271012,-1.2595910257861636,0.16279559,0.5925393,-0.0711658,231.18169,-101.90458,-4.6803226
7521524804000.0,-1.0150092116923957,9.897957745854772,-1.2087757620545074,0.17104226,0.5656612,-0.060170226,231.01997,-101.99429,-4.7878666
7521530777000.0,-0.9323473047156668,9.881325505665869,-1.1412181058633954,0.18661933,0.5656612,-0.056199603,230.85428,-102.075836,-4.869227
7521534806000.0,-0.8601434151876494,9.877314097723255,-1.0850594836989291,0.17959438,0.5720753,-0.04337143,230.69725,-102.14938,-4.944515
7521539784000.0,-0.7613358999238965,9.871524145442246,-1.0310493859462202,0.17592919,0.5739079,-0.018325957,230.53688,-102.21504,-5.002359
7521544777000.0,-0.6359911567427702,9.863437224928123,-1.0189192584982243,0.17867808,0.5897904,0.00030543262,230.373,-102.27806,-5.0562067
7521550352000.0,-0.496597111878453,9.85332764198895,-1.0062631192265197,0.19425514,0.57696223,0.01160644,230.21324,-102.32227,-5.086932
7521554840000.0,-0.4162251953463664,9.783915657968551,-1.0464490870293244,0.18295415,0.5500842,0.019242255,230.05576,-102.35717,-5.1131053
7521559801000.0,-0.3273827091797705,9.70718819524012,-1.0908703406544835,0.18600847,0.5207626,0.02443461,229.90839,-102.38425,-5.1110625
7521564787000.0,-0.2848054299278389,9.657582327383214,-1.1358973268135206,0.19486602,0.48563787,0.02443461,229.77216,-102.40883,-5.1105747
7521569776000.0,-0.2802689074060007,9.630363097512344,-1.181262599401823,0.20005837,0.46914452,0.046120327,229.64207,-102.42933,-5.1035047
7521574797000.0,-0.2915204801409058,9.624309412365204,-1.2097428267864845,0.20861048,0.44868052,0.053450707,229.52228,-102.458275,-5.08226
7521579815000.0,-0.3226137758044572,9.645038333860532,-1.2166524432350827,0.22876903,0.41386122,0.070249505,229.4145,-102.48725,-5.0547795
7521584829000.0,-0.3536822860589504,9.66575073170381,-1.2235565518188354,0.25228736,0.4034765,0.09560041,229.31013,-102.52599,-5.023482
7521589783000.0,-0.3961482693409207,9.680632283845762,-1.2473177174452184,0.26542094,0.41508293,0.100792766,229.21059,-102.56684,-4.994576
7521594777000.0,-0.4448928692950569,9.692818254628843,-1.2798141343808391,0.27275133,0.4642576,0.11301007,229.10666,-102.60776,-4.955839
7521601121000.0,-0.4749864975063185,9.71672051460264,-1.2639072750631846,0.26542094,0.5458081,0.12095132,228.984,-102.65235,-4.919989
7521604803000.0,-0.4700353862426285,9.7365250940747,-1.214396162426285,0.24190263,0.5635232,0.118507855,228.8673,-102.6933,-4.8853517
7521609796000.0,-0.4633213996756529,9.763381222620051,-1.1472562967565292,0.24831672,0.5882632,0.13530666,228.7196,-102.74625,-4.8442154
7521614779000.0,-0.4450202552182998,9.776290358982012,-1.076687829479812,0.26206118,0.6044512,0.14935656,228.5712,-102.794395,-4.805006
7521619776000.0,-0.4128762313217404,9.77271872908426,-1.0016851157563995,0.24709499,0.6123924,0.160963,228.42126,-102.83396,-4.7619452
7521624820000.0,-0.3804298721994179,9.76911350570938,-0.9259769532547204,0.24770586,0.6444628,0.16707164,228.24821,-102.86274,-4.708417
7521629812000.0,-0.3518806855876982,9.750330700528592,-0.8197351024565114,0.23732115,0.63132924,0.17806722,228.08888,-102.88221,-4.6539764
7521634821000.0,-0.3242188549716482,9.727279191061989,-0.7044774780989909,0.21746802,0.61636305,0.19547687,227.92416,-102.89746,-4.5958242
7521639840000.0,-0.355581196,9.686996470588236,-0.6490821844705883,0.19150625,0.60139686,0.19975294,227.76094,-102.886215,-4.53034
7521644795000.0,-0.4109821810381679,9.640118655141446,-0.6192508773039964,0.16890424,0.6044512,0.19608775,227.59944,-102.86977,-4.463962
7521649833000.0,-0.4947670845320197,9.594776320689656,-0.6168973384926109,0.1591304,0.6062838,0.20066923,227.43675,-102.82532,-4.387696
7521654804000.0,-0.6073337388571429,9.55256396,-0.6450390069714286,0.15027285,0.6123924,0.19792034,227.27309,-102.77702,-4.316217
7521659950000.0,-0.7297850952221873,9.528923,-0.6845631222082151,0.13255776,0.6087272,0.18936823,227.10513,-102.72661,-4.2577944
7521664784000.0,-0.8513689856980776,9.528923,-0.7331966458976783,0.119729586,0.6044512,0.18051068,226.93726,-102.67628,-4.2018843
7521670641000.0,-1.002150656858006,9.515729652567977,-0.8192364791540785,0.11728613,0.6114761,0.16462818,226.7601,-102.64165,-4.170817
7521674835000.0,-1.1117524290205634,9.500072352304842,-0.8936091050092584,0.10262536,0.62125,0.15882497,226.5852,-102.600746,-4.1410065
7521679799000.0,-1.2243750853325357,9.495258630671051,-0.93852705,0.10323623,0.6215554,0.14019357,226.40614,-102.58294,-4.140924
7521684792000.0,-1.3197325234918735,9.504794070794697,-0.93852705,0.1133155,0.6200282,0.12675454,226.22665,-102.56406,-4.1414943
7521689772000.0,-1.3894720827458256,9.529757868274585,-0.9429689910946196,0.12034045,0.6178902,0.11759156,226.03763,-102.57445,-4.1682425
7521694789000.0,-1.4316965969924813,9.57198277443609,-0.9523522409774436,0.12705997,0.6178902,0.10629055,225.84949,-102.58847,-4.199468
7521699808000.0,-1.440078590150094,9.654445960600375,-0.9635291960600376,0.1423316,0.6230826,0.093767814,225.6549,-102.61512,-4.2501097
7521704796000.0,-1.4042293287992496,9.788880515197,-0.9769726515196998,0.17287487,0.6133087,0.07696902,225.46552,-102.64851,-4.305614
7521709756000.0,-1.3740813380281691,10.020181311642004,-0.9552937304510608,0.21105394,0.6203337,0.058643065,225.26404,-102.69333,-4.3687444
7521714778000.0,-1.3569322690140846,10.491781940631128,-0.8481116797824924,0.2434298,0.6032294,0.033292156,225.07271,-102.74609,-4.439743
7521719911000.0,-1.338916219632597,10.953550126729787,-0.7393376699927167,0.2837469,0.5742133,0.015577064,224.87556,-102.80512,-4.499145
7521729802000.0,-1.2929223092174478,11.37516030517116,-0.547696915557174,0.2501493,0.4605924,-0.010995574,224.7071,-102.85506,-4.573296
7521734796000.0,-1.2514607155785085,11.588110611437504,-0.4783920206045674,0.183565,0.47586402,-0.02565634,224.50241,-102.86027,-4.6274586
7521740279000.0,-1.1917511936889984,11.82197305704539,-0.423658213404719,0.103847094,0.535118,-0.03634648,224.31767,-102.85551,-4.690878
7521744775000.0,-1.158978929300028,11.994941118181186,-0.4178784820338157,0.03940081,0.6001751,-0.04153884,224.11694,-102.807556,-4.7432747
7521749824000.0,-1.138792449749513,12.169890619329252,-0.4515225806582243,-0.014966198,0.63529986,-0.049480084,223.90918,-102.74481,-4.797014
7521754910000.0,-1.1184580399666018,12.346122182577234,-0.4854132294210966,-0.06505715,0.6236934,-0.065973446,223.69005,-102.65092,-4.837962
7521759777000.0,-1.0858472395607617,12.531284133528551,-0.6038127551098097,-0.098043874,0.5983425,-0.09010262,223.46632,-102.55253,-4.881975
7521764789000.0,-1.0436812273011224,12.73274354045876,-0.7818469448413861,-0.09987647,0.5888741,-0.113926366,223.2427,-102.45487,-4.930187
7521769771000.0,-1.0221911660862837,12.924429356548655,-0.9225638667053588,-0.0888809,0.5717699,-0.12675454,223.02138,-102.357056,-4.972555
7521774863000.0,-1.0174740964790094,13.113112140839622,-1.0357736357902882,-0.08155051,0.5531385,-0.15882497,222.80298,-102.266846,-5.027384
7521779784000.0,-1.0303187746466929,13.373365975833805,-1.091756,-0.06414085,0.56199604,-0.19181168,222.58191,-102.20629,-5.0719185
7521784809000.0,-1.0620565212549462,13.722481093838327,-1.091756,-0.047647487,0.5907067,-0.22021692,222.36111,-102.15353,-5.123739
7521789780000.0,-1.130254352544679,13.934525683479997,-1.066943002109226,-0.07360926,0.6246097,-0.23915374,222.13132,-102.11387,-5.175759
7521794769000.0,-1.2646223839426654,13.908519112265264,-0.99759171556745,-0.12461651,0.65118235,-0.25473082,221.89636,-102.076866,-5.2329984
7521799799000.0,-1.399894328751741,13.881812489728413,-0.9079267860811282,-0.20341812,0.6826419,-0.26236662,221.64938,-102.01909,-5.2901483
7521804813000.0,-1.5336495438109332,13.852553390494428,-0.7114738753394847,-0.27458394,0.7141015,-0.28619036,221.39565,-101.957115,-5.354181
7521809805000.0,-1.666817879186978,13.823422671831477,-0.5158829438631616,-0.32406402,0.7467828,-0.2950479,221.12392,-101.886246,-5.4367323
7521814788000.0,-1.6649564560569594,13.712412108904934,-0.352711144618933,-0.36774087,0.77121735,-0.30573806,220.84683,-101.806496,-5.524247
7521819766000.0,-1.6410528208985158,13.588113365824308,-0.1949473672282391,-0.38545597,0.8051204,-0.3222314,220.55962,-101.72749,-5.6127954
7521824832000.0,-1.589721567744583,13.498466841103086,0.0569121991529875,-0.40653083,0.8723156,-0.33475417,220.24896,-101.62468,-5.7233596
7521829809000.0,-1.534953612385095,13.416315296126069,0.3190159697603414,-0.42546764,0.91813046,-0.3549127,219.93623,-101.52818,-5.838817
7521834969000.0,-1.4806991062907398,13.332647561821004,0.6292799234516295,-0.46761733,0.93828905,-0.3811799,219.61006,-101.40803,-5.95226
7521839783000.0,-1.432998368225556,13.256325862907396,0.9631849803290222,-0.5332854,0.9398162,-0.40591997,219.27829,-101.288185,-6.068797
7521844768000.0,-1.409846384003166,13.17487617861226,1.2239295267786474,-0.623388,0.93462384,-0.43310347,218.94214,-101.119606,-6.183295
7521849842000.0,-1.4141198602145808,13.08940843927535,1.399138481663882,-0.73364913,0.9147707,-0.4718934,218.61125,-100.94783,-6.308284
7521855199000.0,-1.4458027690473712,12.958606934513274,1.5622208934096824,-0.86437434,0.9034697,-0.51893,218.2802,-100.72324,-6.436583
7521859798000.0,-1.5329272209786569,12.75684514159292,1.6539309385736596,-0.99173975,0.8738427,-0.5671884,217.96179,-100.49856,-6.577681
7521864748000.0,-1.633564685980024,12.520653150279482,1.7365059389810318,-1.1242975,0.86101454,-0.5983425,217.64325,-100.24833,-6.729163
7521869776000.0,-1.75269866072574,12.23384889810318,1.780629645276276,-1.1963795,0.84696466,-0.659429,217.33409,-100.023476,-6.9036865
7521874850000.0,-1.8732037029640085,11.942633142554692,1.8214296820546425,-1.3332134,0.81397796,-0.7284568,217.03014,-99.79726,-7.105098
7521879821000.0,-1.993191434721242,11.645064241354977,1.8358281918237724,-1.4657712,0.7825184,-0.8002335,216.73131,-99.60605,-7.3241887
7521884814000.0,-2.107086489627553,11.36338626331598,1.8600425343512212,-1.6065756,0.72509706,-0.88147855,216.44582,-99.46291,-7.590977
7521889791000.0,-2.1786679878253907,11.19159006968362,1.945940382018422,-1.7101172,0.6478226,-0.947452,216.1771,-99.36321,-7.8735895
7521894781000.0,-2.2427823661338184,11.034216544653969,2.026134929893749,-1.8044959,0.58062744,-1.0262536,215.91884,-99.33822,-8.205589
7521899825000.0,-2.256653873092754,10.974106665071313,2.067749692179573,-1.8793269,0.5363397,-1.0897835,215.6784,-99.37098,-8.550729
7521905089000.0,-2.266720207124486,10.92906543441358,2.1107327537037035,-1.9511036,0.5348125,-1.1429288,215.44476,-99.47712,-8.926714
7521909796000.0,-2.239667265380658,11.033412408950618,2.145515159259259,-1.9908098,0.5519168,-1.207986,215.22058,-99.6588,-9.32135
7521914813000.0,-2.2108326342506857,11.144631608281893,2.182588311728395,-2.0436497,0.5876524,-1.2547172,214.99168,-99.900505,-9.723972
7521919775000.0,-2.223343281837979,11.273613830574911,2.033574893066202,-2.0977113,0.64934975,-1.3069462,214.75299,-100.21274,-10.142533
7521926032000.0,-2.259881055139373,11.445863917247388,1.7517114319860627,-2.1487186,0.743423,-1.3744467,214.49763,-100.58797,-10.574582
7521929815000.0,-2.3524369725740133,11.564560062911184,1.5497720896792764,-2.1673498,0.8512407,-1.4184291,214.22423,-78.99965,-10.999609
7521934792000.0,-2.548422923930921,11.736047591282894,1.250893621299342,-2.1719313,0.9605856,-1.4486669,213.92673,-78.53749,-11.436068
7521939778000.0,-2.756920488586564,11.902771357251789,0.9588813538293602,-2.149024,1.0543534,-1.4865406,213.58498,-78.041214,-11.881492
7521944766000.0,-2.979298572092463,12.063803806726062,0.675157580242395,-2.1068742,1.1563679,-1.5280794,213.2121,-77.51944,-12.333241
7521950346000.0,-3.2271176768634167,12.245035328716762,0.3538826777377115,-2.0231857,1.2315043,-1.5427402,212.78474,-76.975815,-12.807094
7521954864000.0,-3.4188776064564865,12.401930023418616,0.0575264245668815,-1.9547688,1.3213016,-1.5238034,212.32532,-76.42922,-13.27946
7521960163000.0,-3.644852521288719,12.57964930451673,-0.2804110549072827,-1.8701639,1.4052955,-1.4856243,211.79541,-75.874626,-13.780293
7521964790000.0,-3.856014411716565,12.653096758106289,-0.4502587341168549,-1.7687603,1.4556919,-1.4679092,211.25099,-75.331184,-14.275912
7521969859000.0,-4.082501406674907,12.72860591223733,-0.62249243,-1.7137824,1.5741998,-1.4398094,210.61192,-74.80401,-14.778485
7521974844000.0,-4.245918257535418,12.742224247789292,-0.62249243,-1.6190983,1.7082846,-1.3942999,209.95624,-74.3046,-15.264412
7521980228000.0,-4.424267622845188,12.750617815983263,-0.6184549444142259,-1.5167783,1.851838,-1.3515394,209.22363,-73.80825,-15.76511
7521984900000.0,-4.615220277573221,12.634548524602511,-0.5360831860878661,-1.4370605,2.0030272,-1.3622295,208.45569,-73.32273,-16.26187
7521989782000.0,-4.814755992552301,12.513262077573222,-0.4500089300627615,-1.3775011,2.072971,-1.4633276,207.65057,-72.82036,-16.782757
7521995822000.0,-5.090653233562035,12.413477767295598,-0.0018014599371069,-1.2892311,1.42973,-1.7458528,207.02711,-72.2779,-17.339205
7521999823000.0,-5.284172537068801,12.366010976939204,0.4217500199161424,-0.8921687,1.1218541,-1.8790215,206.29097,-71.777725,-17.878805
7522004805000.0,-5.274535684589208,12.383313747982498,0.8970492977831794,-0.743423,0.70402217,-2.1502457,205.77393,-71.11942,-18.551859
7522009788000.0,-4.986862758386,12.485390878463782,1.3146390387457465,-0.55680364,0.39736784,-2.3768766,205.3203,-70.470245,-19.232548
7522014774000.0,-4.246046544587832,12.585180184619436,1.6848697839610218,-0.5748242,0.2415972,-2.5103507,205.00208,-69.73087,-19.975145
7522019784000.0,-2.847635913299974,12.682057777455888,1.9881395408743745,-0.7602218,0.15607607,-2.5454755,204.75598,-68.973076,-20.733084
7522024883000.0,-1.5619378915920847,12.738248017817556,2.2337282634042204,-1.03786,0.0143553335,-2.5396724,204.64194,-68.23721,-21.445763
7522029897000.0,-1.0651580667788818,12.556884404384595,2.1233327376303475,-1.3093897,-0.22235495,-2.4984388,204.58282,-67.508316,-22.139269
7522034838000.0,-0.5756109757533459,12.378161306264882,2.0145444861647097,-1.525636,-0.47067168,-2.4239132,204.70346,-67.00452,-22.573702
7522039776000.0,-0.1659191901331601,12.152265432607988,1.9526499286943813,-1.6841555,-0.6591236,-2.3527474,204.87888,-66.50539,-22.983347
7522044806000.0,0.2173863482884053,11.901943292302697,1.909625826144852,-1.7916678,-0.8335256,-2.288912,205.1256,-66.0192,-23.358097
7522049832000.0,0.5216741743794802,11.662065508852232,1.8820910491147769,-1.865277,-1.0366384,-2.218357,205.45282,-65.62213,-23.621967
7522054808000.0,0.579292146031609,11.45628670101045,1.902668929898955,-1.9336939,-1.2220359,-2.1749856,205.82695,-65.22831,-23.861141
7522060352000.0,0.6372412083712334,11.23016805785456,1.919432208228204,-1.9877555,-1.3817772,-2.129171,206.27426,-64.89501,-24.014513
7522065384000.0,0.4978392494029731,11.121744530333467,1.7451796887585376,-2.0485365,-1.4706581,-2.067168,206.75308,-64.57001,-24.13704
7522069780000.0,0.376056456949779,11.027024771394132,1.592951136376055,-2.0851886,-1.4908166,-2.0204368,207.26477,-64.240685,-24.241335
7522074865000.0,-0.0029381164585913,10.76504676669823,1.2547478885554666,-2.104736,-1.5473217,-1.9291124,207.80714,-63.933937,-24.299826
7522079860000.0,-0.6754107642406584,10.315570260033503,0.7181635204973413,-2.1087067,-1.5625933,-1.8723019,208.33833,-63.62633,-24.346037
7522084748000.0,-1.3334780920402067,9.875722179037076,0.1930735523155364,-2.0726657,-1.5253305,-1.8527542,208.80618,-63.3211,-24.401117
7522089791000.0,-1.7935350451459606,9.515770134419553,-0.1672852908418194,-1.9914207,-1.4208726,-1.8637499,209.25142,-63.02822,-24.444304
7522094783000.0,-2.146492109097081,9.203382517311608,-0.4391027595831636,-1.8747455,-1.2220359,-1.8658879,209.64899,-62.75278,-24.480822
7522099840000.0,-2.4515022392081294,8.854332497547302,-0.5340784381373511,-1.7632625,-1.0225884,-1.8658879,209.69298,-62.41416,-24.712988
7522104823000.0,-2.6488079129642608,8.446344571128241,-0.2732336060168184,-1.6649132,-0.83199847,-1.8280143,209.67566,-62.103653,-24.942434
7522109830000.0,-2.847063884968465,8.036391621583743,-0.0111324471913103,-1.5775595,-0.5885687,-1.752267,209.4443,-61.77789,-25.264818
7522114788000.0,-2.932984023995587,7.740888728785511,0.1870202347577457,-1.5650368,-0.312763,-1.6227635,209.14423,-61.482983,-25.57031
7522119779000.0,-2.897828836949526,7.565113022984279,0.3188521012917164,-1.5677856,-0.410196,-1.5732834,208.89316,-61.199028,-25.863169
7522124817000.0,-2.861653662051081,7.3998963139543985,0.5242624626186515,-1.4865406,-0.5119051,-1.5506815,208.5385,-60.866684,-26.211758
7522129806000.0,-2.824249831881789,7.264307557745377,0.8936251061238869,-1.4373659,-0.419359,-1.4883732,208.15834,-60.5564,-26.536354
7522135286000.0,-2.805319446627739,7.150113739437082,1.2617358757577746,-1.4315627,-0.3912592,-1.4376713,207.89944,-60.23109,-26.839611
7522139789000.0,-2.8279539495473034,7.116161881655951,1.4993979939246818,-1.4129313,-0.46303585,-1.3930782,207.64642,-59.93151,-27.121944
7522144789000.0,-2.853086642107335,7.078462728001575,1.7632910853824957,-1.400714,-0.5900958,-1.3695599,207.58133,-59.57865,-27.39074
7522149898000.0,-2.854125274671413,7.036582201095291,2.037537329381161,-1.3979651,-0.68783426,-1.3735305,207.52788,-59.23702,-27.647348
7522154802000.0,-2.772678724178532,6.985142302738226,2.3161703359529024,-1.4083499,-0.7113526,-1.3753631,207.48802,-58.90755,-27.888924
7522159995000.0,-2.6807493482551914,6.9404969141511454,2.605361020274031,-1.4388931,-0.8045095,-1.4236214,207.63397,-58.5106,-28.131132
7522164865000.0,-2.501022837550845,7.0603148138514245,2.7800952336116462,-1.4401149,-0.84849185,-1.4401149,207.76527,-58.12997,-28.361547
7522169808000.0,-2.320567559801094,7.169173961491795,2.933364119542516,-1.4202617,-0.9831876,-1.457219,208.05637,-57.71432,-28.568167
7522174833000.0,-2.148270679641969,7.207462062685231,2.952508095176529,-1.3884968,-1.1597277,-1.4618006,208.36937,-57.305275,-28.762379
7522180998000.0,-1.970755216907476,7.214131342008436,2.9169407347931435,-1.3616186,-1.3332134,-1.4618006,208.78108,-56.917747,-28.89948
7522184811000.0,-1.9084909423943284,7.161698229112448,2.812074611657543,-1.3402383,-1.5525141,-1.4422529,209.2536,-56.5433,-29.006815
7522189748000.0,-1.827872342008436,7.093808830117562,2.6762959465853,-1.3005321,-1.7525724,-1.4385877,209.79825,-56.19954,-29.062761
7522194778000.0,-1.7535063051778392,6.777054198293125,2.051047565547821,-1.2696834,-1.8964312,-1.4065173,210.3788,-55.875206,-29.083961
7522199771000.0,-1.6805519905311337,6.435080833508152,1.3762201193572996,-1.2617421,-1.9691241,-1.3432927,210.9845,-55.56754,-29.076952
7522204805000.0,-1.6547098451377795,6.0422498157248405,1.1595183806908946,-1.2635747,-1.9917262,-1.2932017,211.58728,-55.290947,-29.044016
7522209773000.0,-1.6404593335563098,5.643236533057109,1.0550148936301915,-1.2620476,-1.9660698,-1.2269229,212.17612,-55.041183,-28.981907
7522214845000.0,-1.7096598629830508,5.31392930588862,0.9812233803021791,-1.2599095,-1.956296,-1.1548407,212.53545,-54.886246,-28.93706
7522219786000.0,-1.7967360271864408,5.011454398082324,0.917062047533172,-1.2452488,-1.9779817,-1.071763,212.88089,-54.75705,-28.869036
7522224820000.0,-1.8909393136035693,4.724812278773495,0.961373605204101,-1.2318097,-1.9620992,-1.001819,213.15228,-54.62702,-28.823416
7522229825000.0,-1.9864937150180368,4.447249441674578,1.0432774036377446,-1.2208142,-1.93797,-0.93554014,213.41501,-54.521496,-28.754532
7522234868000.0,-2.100608373714342,4.203431716947982,1.112553502901984,-1.1887437,-1.9349157,-0.8558222,213.63026,-54.410614,-28.708015
7522239841000.0,-2.222833384443786,3.9824864467179935,1.1736660328101864,-1.1441506,-1.9349157,-0.78038037,213.83195,-54.320232,-28.647211
7522244828000.0,-2.367779835568486,3.7724401583818232,1.202549601209938,-1.0680978,-1.9058995,-0.7104363,214.07507,-54.179455,-28.618088
7522251038000.0,-2.565525461503648,3.5197652556386814,1.2135354565715342,-0.9767735,-1.8414533,-0.6407976,214.29471,-54.069283,-28.572935
7522254811000.0,-2.719749408388815,3.391426504394141,1.257928244873502,-0.8597928,-1.8096883,-0.57879484,214.56317,-53.918484,-28.553068
7522259855000.0,-2.9572440017310253,3.242992377097204,1.3519364600532622,-0.73456544,-1.7400496,-0.54550266,214.79044,-53.79743,-28.53355
7522264833000.0,-3.205706473481373,3.1830781610846026,1.470567028730042,-0.64843345,-1.6823229,-0.47342056,215.02933,-53.64308,-28.54228
7522269829000.0,-3.4691257766929717,3.209420118911727,1.6154476821710406,-0.5015204,-1.6575829,-0.38912117,215.24594,-53.5344,-28.542036
7522274829000.0,-3.712367283000085,3.246854485833404,1.7544876098187696,-0.3555236,-1.6328428,-0.3042109,215.46094,-53.38923,-28.571215
7522279880000.0,-3.914039105368842,3.3085907878073684,1.8820759643665448,-0.18875736,-1.6245961,-0.20525073,215.65526,-53.298595,-28.574366
7522285184000.0,-4.124559031481481,3.3739179074074075,2.017661731481481,-0.025961773,-1.6297885,-0.1020145,215.8715,-53.179775,-28.605177
7522289848000.0,-4.280799000864198,3.4428472209876544,2.1739017008641977,0.13713925,-1.563815,-0.056199603,216.05356,-53.10242,-28.63251
7522295102000.0,-4.445151642340169,3.5192280349215923,2.352631098522316,0.30573806,-1.4676038,-0.024129177,216.24443,-53.02376,-28.667437
7522300237000.0,-4.464925212102935,3.578548847446723,2.560253632649779,0.47433686,-1.3570372,0.0106901415,216.40091,-52.98711,-28.696695
7522304971000.0,-4.480366685579279,3.625399622716136,2.7505446834091707,0.6478226,-1.2406673,0.03573562,216.56001,-52.940437,-28.752882
7522309794000.0,-4.45611629719986,3.560731835964298,2.928381033671684,0.8213083,-1.1505647,0.05955936,216.68741,-52.93288,-28.80611
7522314747000.0,-4.431212259537976,3.494320982184109,3.111010816555828,1.0067059,-1.040609,0.082161374,216.82414,-52.936897,-28.854553
7522320185000.0,-4.432095647858112,3.434520586780384,3.430535147644892,1.1585059,-0.9221011,0.10751228,216.92673,-52.97263,-28.90312
7522324808000.0,-4.44067745565032,3.387320643923241,3.735189548294243,1.2846496,-0.7877107,0.12370021,216.99074,-53.039127,-28.95794
7522329810000.0,-4.547459553774949,3.317552341731752,4.007042766030277,1.3970488,-0.602924,0.13469578,217.07378,-53.086388,-29.022839
7522334813000.0,-4.699915595053515,3.23901440738598,4.2518963203741205,1.461495,-0.36102137,0.124311075,217.10059,-53.145844,-29.106224
7522339780000.0,-5.05228939767667,3.0270867903194576,4.431475026621491,1.4480561,-0.049480084,0.03970624,217.13039,-53.133743,-29.245455
7522344810000.0,-5.541930276024524,2.723975727879961,4.571372489996773,1.3854424,0.24190263,-0.0711658,217.0999,-53.115536,-29.414312
7522349900000.0,-5.844987412671636,2.651169269497842,4.7406322482346015,1.2568552,0.48288897,-0.05955936,217.01358,-53.028404,-29.63259
7522354855000.0,-5.021213997312672,3.9403514597194977,5.066418395498235,1.2278391,0.57971114,0.005497787,216.89442,-52.935707,-29.874111
7522359864000.0,-4.179513058405027,5.156889444253262,5.3579407762203966,1.2400564,0.6310238,0.03970624,216.70631,-52.663258,-30.283207
7522364842000.0,-3.262452088003867,5.585465698656356,5.30724890478492,1.2892311,0.53878313,0.13164146,216.52342,-52.42715,-30.641989
7522370075000.0,-2.3185212829772155,6.012776905225317,5.203656713174683,1.353372,0.37934732,0.24098633,216.45145,-52.483723,-30.6759
7522374880000.0,-1.6987539415088606,6.119954875301266,4.490691251098734,1.4456125,0.19364429,0.3753767,216.40346,-52.579197,-30.66361
7522379924000.0,-1.0743812916997395,6.227557126854261,3.737658748519844,1.5567901,0.022296581,0.51893,216.45042,-52.911564,-30.401577
7522384899000.0,-0.8186440911263826,6.266305118274235,2.931699159425829,1.706452,-0.20158553,0.61544675,216.55911,-53.27757,-30.096657
7522390416000.0,-0.5350456719176968,6.309274498910215,2.037934525650618,1.8661933,-0.34574974,0.70066243,216.68666,-53.846134,-29.642153
7522394842000.0,-0.6364028736743674,6.388260388522186,1.688692726035937,2.0216584,-0.35460728,0.7965683,216.82948,-54.45231,-29.159409
7522399833000.0,-0.9343725605253024,6.502189892445911,1.5002707168958562,2.118786,-0.27458394,0.8350528,216.98715,-55.069695,-28.673534
7522404810000.0,-1.3317743030605391,6.879642282250791,1.368220910582366,2.1132884,-0.04520403,0.8164214,217.09697,-55.818893,-28.142227
7522409779000.0,-1.8750796047970832,7.642095930173654,1.317999352009978,2.033876,0.33383787,0.806953,217.14096,-56.56881,-27.630848
7522414789000.0,-2.281208052542883,8.359779820643995,1.2583110483298223,1.8918496,0.83658,0.8179486,217.12305,-57.254093,-27.19895
7522419775000.0,-2.37820237004213,8.9633003851941,1.1792786720433344,1.7638733,1.3573426,0.8335256,216.99997,-57.911335,-26.813242
7522424834000.0,-2.476616780838098,9.575657091182666,1.099089183147758,1.6563611,1.6062702,0.86009824,216.7996,-58.541256,-26.478987
7522429914000.0,-2.487370855834761,11.145217301589568,1.7531436074433655,1.6200147,1.5760323,0.9483683,216.54062,-59.159924,-26.150835
7522434820000.0,-2.4560662236626687,13.11293820554921,2.732532039158576,1.6841555,1.5265522,1.061073,216.22966,-59.768696,-25.833525
7522439846000.0,-2.482678625637394,14.230999052053823,3.2019700782577902,1.7424932,1.3264939,1.1872166,215.99129,-60.44627,-25.432764
7522444834000.0,-2.554099265171545,14.652004817713252,3.258354849457035,1.7947221,1.1640037,1.2742649,215.77328,-61.125572,-25.020576
7522449832000.0,-2.627392771914686,15.058414525398891,3.310403818487464,1.8099937,1.0812315,1.3304645,215.64935,-61.9283,-24.433353
7522454870000.0,-2.7766456135623576,14.795258179908824,3.1690062622028656,1.7684549,0.97524637,1.3475688,215.59059,-62.70519,-23.847567
7522460107000.0,-2.931793912829697,14.521707211006186,3.022023530511234,1.7348573,0.8698721,1.3176364,215.56178,-63.486183,-23.253193
7522464836000.0,-2.863293069835597,13.97108622924538,2.763796149412846,1.6679676,0.786489,1.2800682,215.56703,-64.22459,-22.678545
7522469838000.0,-2.6431721760543243,13.173759359031962,2.401819700194016,1.6490307,0.80573124,1.2076806,215.5853,-64.91758,-22.146599
7522474852000.0,-2.404617537615585,12.454402717030254,2.241734542059431,1.6178766,0.86529064,1.1603385,215.6207,-65.5296,-21.686686
7522479914000.0,-2.1521970607864263,11.779831117425264,2.211270018206302,1.5851953,0.9034697,1.1242975,215.66754,-66.10218,-21.25963
7522484924000.0,-1.8561301264914387,11.20481746842622,2.228405708735958,1.5528195,0.89461213,1.0934488,215.69112,-66.648796,-20.87011
7522489845000.0,-1.4963392807721672,10.778208255316828,2.315783540756898,1.5332718,0.86132,1.0806206,215.72011,-67.17138,-20.4968
7522494827000.0,-1.1595621807189864,10.546512435615362,2.381508586022984,1.4953982,0.8200866,1.0867293,215.70923,-67.67972,-20.13184
7522499838000.0,-0.8437495290050094,10.480521882133386,2.428644716746881,1.4474452,0.77121735,1.0977248,215.71924,-68.16832,-19.775099
7522504844000.0,-0.5972916389577302,10.55709080312681,2.4563926739432542,1.4034629,0.7367035,1.1426234,215.66428,-68.69529,-19.375572
7522509789000.0,-0.4190504549585022,10.767323455124494,2.465533240629222,1.3417655,0.72051555,1.1881329,215.6253,-69.20468,-18.979008
7522514776000.0,-0.2960306745564549,11.028856659880631,2.4291412252636744,1.2825116,0.68783426,1.2574661,215.56078,-69.76857,-18.521107
7522519775000.0,-0.2490603958940397,11.357648708609272,2.331286505298013,1.2275337,0.65668017,1.3225232,215.50513,-70.32427,-18.059185
7522525199000.0,-0.2182181309058178,11.734031609851897,2.2120268846902875,1.1725558,0.6123924,1.3836098,215.45018,-70.9213,-17.548674
7522529903000.0,-0.4688811153948121,12.331199425251617,1.9281878865068327,1.1282681,0.59803706,1.4379768,215.39862,-71.51582,-17.031229
7522534945000.0,-0.7375551731740446,12.971275982489155,1.6239539943212504,1.1111639,0.60048056,1.488984,215.35495,-72.147804,-16.479338
7522539834000.0,-0.9479668535326624,13.270570208802052,1.36991991678508,1.1053606,0.6200282,1.5280794,215.31439,-72.7731,-15.926879
7522544777000.0,-1.1208020628971778,13.31728238800079,1.1457013103019538,1.0916162,0.64965516,1.5641204,215.27391,-73.3942,-15.372757
7522549839000.0,-1.256051223956665,13.244096023174752,0.930845747879416,1.1206323,0.6713409,1.5937474,215.26912,-74.01271,-14.846356
7522555166000.0,-1.3569770728120585,13.0470502178992,0.7193819340857277,1.1481212,0.70554936,1.6056592,215.25925,-74.61771,-14.329149
7522559919000.0,-1.40574369372549,12.814800592156864,0.5699326740392157,1.1701124,0.71837753,1.6053538,215.26651,-75.20016,-13.847199
7522564789000.0,-1.4009305857791536,12.501948575644995,0.4688573267533539,1.1856894,0.73731434,1.6029104,215.27092,-75.77053,-13.375203
7522569780000.0,-1.359032704379562,12.180999748175182,0.3746838205109489,1.1905763,0.73364913,1.6151277,215.29675,-76.315125,-12.935978
7522574845000.0,-1.270517208029197,11.854889538321167,0.2908269858490203,1.2067643,0.7086037,1.6239853,215.33302,-76.84428,-12.507864
7522579792000.0,-1.1638523209667837,11.591456089657036,0.242596065568458,1.2076806,0.6957755,1.6551393,215.35513,-77.3699,-12.081264
7522584790000.0,-1.021666603915744,11.419109446934916,0.2512133707102349,1.1664472,0.65057147,1.7018706,215.40318,-77.88396,-11.655262
7522589839000.0,-0.8887703358954502,11.273708855759924,0.2652024416844143,1.1178834,0.59040123,1.7763962,215.43492,-78.41841,-11.206153
7522594772000.0,-0.8163594353727008,11.285142384559537,0.3071245409398193,1.0567969,0.5332854,1.8771889,215.48767,-78.95276,-10.744683
7522599858000.0,-0.7417026666602129,11.296930531219749,0.3503468796410132,0.9663888,0.46975538,1.9929478,215.52596,-79.52651,-10.232501
7522604865000.0,-0.6858627751984127,11.450839609126984,0.4022068860912698,0.8622363,0.39003745,2.130698,215.59372,-80.11392,-9.695353
7522609888000.0,-0.6381402615097402,11.672098500811687,0.458606229099026,0.77182823,0.32467487,2.2632558,215.6834,-80.71228,-9.137869
7522614833000.0,-0.6873542771343973,11.89516379959558,0.4377355288690691,0.66767573,0.23793201,2.3539693,215.77216,-81.3431,-8.538614
7522619774000.0,-0.8479662011872607,12.124121539683683,0.3283827384725933,0.6010914,0.1908954,2.4107797,215.87535,-81.983284,-7.924815
7522624877000.0,-1.0138440899631689,12.36058609092222,0.2154446106860692,0.539394,0.14019357,2.3924537,215.982,-82.6314,-7.2965517
7522629867000.0,-1.227225760392631,12.412107248883512,0.1571743986034611,0.5213735,0.0983493,2.329229,216.10597,-83.26565,-6.6798496
7522634858000.0,-1.4629240636769631,12.385424344994416,0.1215972940305173,0.52839845,0.03604105,2.2052236,216.25626,-83.8602,-6.100223
7522639832000.0,-1.7017427187173595,12.290594613118865,0.0909726666973052,0.5561928,-0.043676864,2.037541,216.4474,-84.373566,-5.6036544
7522645888000.0,-1.9965544157301025,12.104822459090592,0.0586645287013439,0.5858198,-0.12522738,1.853976,216.66112,-84.83134,-5.1589694
7522649882000.0,-2.190986040213077,11.982303637560058,0.0373569489199916,0.6252206,-0.15851954,1.681712,216.88147,-85.19062,-4.808264
7522654875000.0,-2.479220226530612,11.748201081632653,-0.0244306314285714,0.6374379,-0.21930063,1.6065756,217.13379,-94.49022,-4.4890246
7522659860000.0,-2.788593116268498,11.475768589612148,-0.1029282147731888,0.6881397,-0.25992316,1.4563028,217.38951,-94.25864,-4.245914
7522664833000.0,-3.015429391687764,11.007020187763713,-0.2091097805907173,0.72143185,-0.27488935,1.3335189,217.6176,-94.08762,-4.0505347
7522669775000.0,-3.187170230793249,10.411917893248946,-0.3329229368776372,0.77579886,-0.2751948,1.2327261,217.85144,-93.97268,-3.894387
7522674795000.0,-3.2943115548614608,9.892657665793452,-0.4127975181460957,0.82833326,-0.2919936,1.1450669,218.056,-93.93515,-3.7967331
7522679776000.0,-3.16454257813602,9.676376372493705,-0.3310912016020151,0.88300574,-0.31429017,1.0742066,218.26009,-93.94178,-3.7234848
7522684776000.0,-3.020435612067167,9.464464885690449,-0.2472410370705048,0.93828905,-0.33108896,1.0137309,218.43608,-94.00361,-3.6809728
7522689844000.0,-2.8280765217459325,9.267043345431787,-0.1561235263854818,0.9789116,-0.35155296,0.9605856,218.61777,-94.102554,-3.657057
7522694745000.0,-2.653754185802469,9.08429696159122,-0.0945003526337448,0.9960158,-0.37384954,0.9285152,218.79562,-94.209595,-3.6269484
7522699819000.0,-2.499610685648148,8.91348969547325,-0.0903343115246913,0.9654725,-0.36651915,0.8793405,218.96843,-94.34297,-3.6164484
7522705198000.0,-2.339438611414704,8.736172546198095,-0.0689932912304512,0.9275989,-0.3399465,0.8216137,219.12473,-94.46567,-3.5866833
7522709876000.0,-2.2427994396368867,8.63148011711307,0.1726046003730002,0.9071349,-0.3549127,0.75869465,219.28835,-94.60435,-3.5726323
7522714751000.0,-2.142090597735035,8.52237887902211,0.4243766656929715,0.8897252,-0.44990227,0.7296785,219.45024,-94.730545,-3.5352566
7522719775000.0,-2.0549685734421725,8.368687439747838,0.5616383451507314,0.8491027,-0.6243043,0.7104363,219.63693,-94.86311,-3.5146966
7522724828000.0,-1.9728361892992807,8.200511527762062,0.6594149569627414,0.8219192,-0.7852673,0.6951646,219.84442,-95.00123,-3.5024362
7522729836000.0,-1.8678965428005547,8.039548229154288,0.7404015240760546,0.8011498,-0.90041536,0.66920286,220.05588,-95.100716,-3.483067
7522734845000.0,-1.7063805987027134,7.8922837283620515,0.7831557349435532,0.77366084,-1.0067059,0.63346726,220.30669,-95.197426,-3.4732168
7522739742000.0,-1.5383269975940776,7.721665353238741,0.6801777708081431,0.71593404,-1.0125091,0.58276546,220.53093,-95.2672,-3.4519167
7522744779000.0,-1.3359698417982726,7.468718834694632,0.1534540011523751,0.6301075,-0.98349303,0.50762904,220.77005,-95.33515,-3.4486208
7522750138000.0,-1.120676612115978,7.199602219074645,-0.4069416076594693,0.58184916,-0.68844515,0.41050145,220.91907,-95.3926,-3.4312909
7522755144000.0,-0.9241040675451192,6.9669573080466645,-0.9405610069797588,0.45478916,-0.5766568,0.29229903,221.10631,-95.43036,-3.4439645
7522759861000.0,-0.7799659144949647,6.917409900538439,-1.5351309318177289,0.42302418,-0.32620203,0.23426682,221.16605,-95.48409,-3.45787
7522765090000.0,-0.6146470983614224,6.868214096223419,-2.1708449182475955,0.41263947,-0.040011674,0.14172074,221.22491,-95.6108,-3.4405293
7522769775000.0,-0.4048201401950058,6.88800907901703,-2.479646856525192,0.42241332,0.27214047,0.08735373,221.20404,-95.73741,-3.4223166
7522774816000.0,-0.1790490204261889,6.90930822699197,-2.811913787337863,0.48166725,0.5861252,0.0580322,221.14072,-95.93036,-3.3698518
7522779869000.0,0.1374488227593553,6.764770322295295,-2.745913433002964,0.61178154,0.8179486,0.060170226,221.01337,-96.14835,-3.318176
7522784852000.0,0.4778095683864394,6.570278468969989,-2.5558418459244163,0.81000733,0.9831876,0.07880162,220.81862,-96.40084,-3.263877
7522789836000.0,0.7970797574637623,6.563010762069803,-2.0887528492509517,1.0231993,1.0601566,0.11178834,220.61713,-96.71989,-3.1506336
7522794786000.0,1.1003440227484007,6.6781744421248685,-1.4438364333468297,1.210124,1.0732902,0.16768251,220.3944,-97.08248,-3.0229838
7522799859000.0,1.379983811569082,6.8072866320568375,-0.7691103166179583,1.269378,1.0708468,0.2519819,220.15712,-97.43046,-2.8233905
7522804813000.0,1.4564823982061876,7.003314460012093,-0.0232485826846718,1.241889,1.0644327,0.30665436,219.93015,-97.80615,-2.6178277
7522809828000.0,1.4662498531418091,7.220991127052043,0.6279565290237513,1.1484267,1.0375546,0.30909783,219.6872,-98.06197,-2.374192
7522814785000.0,1.0807349035880196,7.548471488342647,0.6652644337906043,1.0415252,1.03786,0.29840767,219.44737,-98.30802,-2.1217437
7522819859000.0,0.6861206502017115,7.883681363910234,0.7034529164993014,0.97066486,1.0088439,0.2855795,219.17218,-98.447,-1.8862672
7522824825000.0,0.4186865006393208,8.105322572729133,0.7672593553089199,0.93767816,1.006095,0.30634892,218.89317,-98.56811,-1.6458081
7522829764000.0,0.1719299330175941,8.308533423281505,0.8349964570581015,0.94042706,1.0137309,0.3481932,218.62271,-98.68163,-1.4064585
7522834799000.0,-0.1292501522446946,8.545026183720235,0.9450973635149944,0.960891,0.9783007,0.39920044,218.3457,-98.76858,-1.2317947
7522839749000.0,-0.431524967328883,8.78117871435688,1.0584504401315136,0.9398162,0.9437868,0.462425,218.07288,-98.84236,-1.045637
7522844779000.0,-0.809978575108014,8.999948000199105,1.1104596000398208,0.9083566,0.872621,0.4822781,217.80125,-98.904144,-0.9016272
7522849774000.0,-1.1957155878606271,9.214246180388251,1.1533192360776507,0.8961393,0.8176431,0.5119051,217.5425,-98.96267,-0.7423974
7522854819000.0,-1.5699591247087858,9.366608437808493,1.0671341993830208,0.86651236,0.77091193,0.5348125,217.28012,-98.98502,-0.6391208
7522859765000.0,-1.9346794594965449,9.506885884007898,0.9642643569842052,0.82863873,0.75747293,0.54550266,217.02885,-99.00052,-0.5358464
7522864814000.0,-2.2563947133008617,9.571076787935556,0.8714606846946421,0.7800749,0.7644979,0.5858198,216.76317,-98.99364,-0.48462477
7522869792000.0,-2.564512070606969,9.62019700243537,0.7821513034001498,0.74189585,0.75716746,0.6010914,216.5088,-98.97889,-0.441571
7522874889000.0,-2.779606878783714,9.658426219721695,0.7112707826095173,0.7086037,0.74097955,0.61391956,216.24149,-98.96559,-0.44446194
7522879804000.0,-2.949417891238619,9.6907709895207,0.6506239972719464,0.6630942,0.70402217,0.6258314,215.9867,-98.9378,-0.44654858
7522884785000.0,-3.1429375812698748,9.701111308882764,0.5933742373606106,0.6020077,0.6426302,0.65087694,215.7304,-98.919914,-0.49465525
7522889786000.0,-3.3713891878312485,9.675727814712742,0.5426071960101759,0.539394,0.54275376,0.66339964,215.49873,-98.8888,-0.54673594
7522894767000.0,-3.588705747090446,9.640661466566064,0.5238485140243327,0.45448375,0.46303585,0.64934975,215.26941,-98.84843,-0.6285915
7522900001000.0,-3.80616785864378,9.59338713741394,0.5380308423880034,0.39920044,0.37323865,0.6197228,215.073,-98.800186,-0.7155133
7522904772000.0,-3.95452205,9.59196347107438,0.595344976584022,0.3408628,0.27763826,0.600786,214.8808,-98.7409,-0.8312136
7522909826000.0,-4.03007935,9.658631717906337,0.728681563067034,0.30695978,0.17989981,0.593761,214.71445,-98.6763,-0.95398927
7522914802000.0,-4.098584516133775,9.725886020213157,0.8796231986034546,0.2657264,0.09560041,0.6032294,214.54945,-98.60682,-1.1109573
7522919811000.0,-4.144421633980154,9.799930490407938,1.1088083828445423,0.22235495,0.023823744,0.5946773,214.407,-98.5327,-1.2754126
7522924852000.0,-4.1905515822859245,9.874447993752296,1.339457716795296,0.17898351,-0.032375857,0.5384777,214.24673,-98.438446,-1.4554272
7522929848000.0,-4.202420220930458,10.062141309314246,1.5057233618531771,0.13316862,-0.0693332,0.47067168,214.1009,-98.3398,-1.6404783
7522935688000.0,-4.175372700667376,10.419166735370926,1.624731818377019,0.113926366,-0.1133155,0.40683624,213.9709,-98.24772,-1.8396053
7522939813000.0,-4.090858370414053,10.910987176286072,1.649686090991217,0.1020145,-0.14110987,0.32986724,213.81857,-98.109085,-2.071077
7522944872000.0,-3.908490582049352,11.802563458385611,1.6091598828858218,0.122783914,-0.24312437,0.28771752,213.70058,-97.990036,-2.3112252
7522950280000.0,-3.6911632090666098,12.719081917459638,1.5535663206350905,0.12492194,-0.43860126,0.19700404,213.59908,-97.86794,-2.5783954
7522954743000.0,-3.3621379940233083,13.230898738372714,1.4256121154068215,0.112704635,-0.48624873,0.1740966,213.4884,-97.76162,-2.8308358
7522959701000.0,-2.9717735732805592,13.770492055001542,1.2692051078153594,0.102319926,-0.5357288,0.14508049,213.429,-97.6677,-3.062873
7522964699000.0,-2.415720202066413,14.124791781433125,1.018242903073918,0.082161374,-0.5384777,0.1301143,213.37291,-97.5839,-3.289218
7522969706000.0,-1.8749972896920488,14.456772853302306,0.8158113525141103,0.046120327,-0.45937067,0.10476339,213.32233,-97.50602,-3.455595
7522974770000.0,-1.3995840656500644,14.692078365135162,0.8254156730369343,0.018020526,-0.31306845,0.060170226,213.25485,-97.43991,-3.622888
7522979720000.0,-0.9532985323197644,14.896011582638549,0.8645052654732712,-0.022602014,-0.16523905,0.03268129,213.19252,-97.368355,-3.6952267
7522984698000.0,-0.5932350316037274,14.975505774889651,1.0468751133398724,-0.0852157,-0.07360926,-0.0033597588,213.10489,-97.29751,-3.7767146
7522989704000.0,-0.2479754756190816,15.031388971055923,1.231470963605503,-0.121256754,-0.005192355,-0.055283304,213.00513,-97.20004,-3.7952714
7522994666000.0,-0.0187378222369126,14.925260505806682,1.4225022897087725,-0.183565,0.0067195175,-0.099265605,212.89693,-97.090546,-3.8201256
7523000720000.0,0.244500675482402,14.793465153306135,1.6532987634285172,-0.26633725,-0.003970624,-0.14538592,212.78885,-96.932434,-3.8089654
7523005366000.0,0.295152997394934,14.671055548714545,1.809476779499099,-0.32467487,-0.007330383,-0.19211712,212.67653,-96.77885,-3.8101413
7523009739000.0,0.3428289775334409,14.555838759889951,1.9564777403851628,-0.38545597,-0.020158553,-0.24404067,212.58084,-96.57862,-3.7960777
7523014745000.0,0.2247799095449652,14.53541968920638,2.062309455935023,-0.44226643,-0.038789943,-0.29718593,212.48898,-96.38198,-3.7960234
7523019713000.0,0.0618270564156962,14.54473146844114,2.1507696085135533,-0.50640726,-0.050701816,-0.35277468,212.39989,-96.18826,-3.8114598
7523024754000.0,-0.1316710068903148,14.636946498897132,2.1667530800882293,-0.56321776,-0.064446285,-0.39400807,212.32045,-95.977356,-3.8337216
7523029760000.0,-0.3335501652263886,14.75711258271506,2.1571397933827954,-0.6267477,-0.04520403,-0.43951756,212.23607,-95.774796,-3.8716686
7523034713000.0,-0.4913540453715852,14.849463098012338,2.109373073122491,-0.70402217,-0.040317107,-0.4868596,212.15308,-95.58626,-3.944158
7523039711000.0,-0.636640585851366,14.933822760795064,2.048446410751004,-0.7800749,-0.015882496,-0.5137377,212.06105,-95.40967,-4.0212045
7523044709000.0,-0.6882841185815838,14.911763912051578,2.0025136047280543,-0.8142834,0.048563786,-0.56291234,211.94736,-95.28467,-4.140951
7523049766000.0,-0.7002935112745908,14.843710519590012,1.962482295751364,-0.89980453,0.13072516,-0.6188065,211.82353,-95.17175,-4.267387
7523054783000.0,-0.6947700869596433,14.670943552050472,1.9267852051125856,-0.9935723,0.23243423,-0.6728681,211.67062,-95.111176,-4.420401
7523059794000.0,-0.6477882035733711,14.248106835962146,1.9006841254759057,-1.0961977,0.3481932,-0.73975784,211.49164,-95.08714,-4.589327
7523064816000.0,-0.6208854653819494,13.747260561877257,1.9589444168808663,-1.1887437,0.46731192,-0.8005389,211.28233,-95.10516,-4.770091
7523069786000.0,-0.6174488844216607,13.163040829747294,2.11359079334296,-1.284955,0.5751296,-0.86009824,211.04517,-95.1669,-4.9664407
7523074805000.0,-0.6139784216772562,12.573061184765344,2.2697618523898915,-1.3839152,0.67103547,-0.9077458,210.78162,-95.271484,-5.1721525
7523079854000.0,-0.6907565156335583,12.207515913596914,2.304613663625844,-1.4758505,0.7483099,-0.93951076,210.49525,-95.42116,-5.388001
7523084837000.0,-0.8012010154291225,11.945210216972034,2.286206307859209,-1.568091,0.8060367,-0.9786061,210.19006,-95.61993,-5.617567
7523089840000.0,-0.9425904834507308,11.719451791411045,2.2089441848064832,-1.6389514,0.8622363,-1.0238101,209.86986,-84.12685,-5.864332
7523094785000.0,-1.1004123139059303,11.518587711656442,2.097751535787321,-1.6988163,0.8961393,-1.0983357,209.5435,-83.81636,-6.1293426
7523100242000.0,-1.2726187996191929,11.303053740797155,1.967028458669713,-1.7363845,0.8888089,-1.1841623,209.21619,-83.437775,-6.428313
7523104831000.0,-1.3916282643056614,11.202639415164594,1.751323828196666,-1.7434094,0.84696466,-1.2666291,208.8934,-83.0138,-6.7456264
7523109802000.0,-1.5205443787001778,11.093866346365406,1.5176633971481763,-1.7412714,0.80664754,-1.3548992,208.55815,-82.52348,-7.117644
7523114830000.0,-1.657426402452316,11.0666056965385,1.2413075066000605,-1.7348573,0.7657196,-1.4272866,208.2389,-82.006584,-7.505208
7523119781000.0,-1.7961920051771116,11.09053078322737,0.9446361818346958,-1.7159204,0.7315111,-1.5082263,207.93341,-81.461784,-7.916277
7523124813000.0,-1.8638330579646016,11.205499482300883,0.6186363002079647,-1.7033978,0.71929383,-1.5741998,207.60985,-80.90236,-8.361848
7523129803000.0,-1.8882314489618788,11.3722216155548,0.2811255688201157,-1.7146988,0.75808376,-1.6218473,207.28378,-80.33114,-8.820729
7523134846000.0,-1.9057846,11.544361803122818,-0.0709355319768841,-1.6869044,0.82436264,-1.6502525,206.91087,-79.776344,-9.301669
7523139843000.0,-1.9057846,11.723861069609212,-0.4466313796076412,-1.6526959,0.8762862,-1.6539177,206.53227,-79.22343,-9.783882
7523145213000.0,-1.9026170452565292,11.919808792092496,-0.8366275268875812,-1.6169603,1.0497719,-1.6245961,206.04109,-78.73125,-10.257482
7523149826000.0,-1.8615722979766696,12.125032766594405,-1.0053670096190772,-1.5012014,1.1102476,-1.5952746,205.57153,-78.257866,-10.724552
7523154984000.0,-1.8223543731068053,12.33216691041842,-1.1554642567724422,-1.4611896,1.2220359,-1.527774,205.02931,-77.837135,-11.157833
7523159796000.0,-1.8525504726294115,12.301970630721708,-0.9095815203837874,-1.3622295,1.3109168,-1.4639386,204.48207,-77.446106,-11.578645
7523164754000.0,-1.8836627464101845,12.270858171300196,-0.6562385014696247,-1.2339478,1.3588698,-1.4184291,203.93004,-77.09884,-11.96104
7523169796000.0,-2.062033103549081,12.088209652522488,-0.2769867459806414,-1.1209377,1.310306,-1.4272866,203.38882,-76.76348,-12.335959
7523174937000.0,-2.2593941734649983,11.886034851388349,0.1225490496734454,-0.98746365,1.1646146,-1.4764613,202.87096,-76.44462,-12.703558
7523179872000.0,-2.501230853537181,11.6590200054279,0.3579693425854894,-0.84879726,0.89980453,-1.59558,202.42628,-76.09748,-13.085451
7523184762000.0,-2.746949593359869,11.4302472788131,0.5740323071413063,-0.70524395,0.58551437,-1.7580702,202.0476,-75.73997,-13.483814
7523189776000.0,-2.7708569791649653,11.19201482727644,0.7087130487158024,-0.5549711,0.23854288,-1.9596558,201.77715,-75.30024,-13.949692
7523194776000.0,-2.673094474060841,10.952496656594528,0.7966991961229073,-0.4605924,-0.049480084,-2.162463,201.58626,-74.83016,-14.447041
7523199885000.0,-2.383028636292244,10.73404103379511,0.82360536,-0.4428773,-0.19394971,-2.3044891,201.45026,-74.28014,-15.013359
7523204805000.0,-2.025476481699462,10.5344773595694,0.82360536,-0.51159966,-0.22724187,-2.3872614,201.36496,-73.70349,-15.602445
7523209783000.0,-1.6214296105536332,10.339869702422146,0.8709923257439446,-0.6414085,-0.17684549,-2.4132233,201.31001,-73.11225,-16.192377
7523214782000.0,-1.159601972538534,10.154134601446996,0.9814293615266856,-0.8179486,-0.1133155,-2.4324653,201.25694,-72.50494,-16.78879
7523219768000.0,-0.7825079056085897,10.004679249343589,1.1088117292854465,-0.9434814,-0.06414085,-2.4135287,201.20891,-71.95872,-17.312727
7523224931000.0,-0.4718535120517629,9.884126782070515,1.257184022768192,-1.0430524,-0.09254608,-2.4184155,201.16225,-71.40131,-17.83643
7523229807000.0,-0.206678809835651,9.816227,1.3390510727469749,-1.1334605,-0.14263703,-2.4126122,201.14067,-70.903305,-18.281994
7523234795000.0,0.0219434586093553,9.816227,1.3347374481849377,-1.1572843,-0.14110987,-2.3823745,201.10866,-70.41877,-18.71262
7523239831000.0,0.2274115914407988,9.820407472182596,1.353471981312411,-1.1456778,-0.1423316,-2.3658812,201.1557,-69.95469,-19.10345
7523244840000.0,0.3186530988231099,9.843217913536218,1.4751272847915675,-1.1404854,-0.15485434,-2.316401,201.20093,-69.51515,-19.466496
7523249831000.0,0.4095667269614836,9.865946384847044,1.596345416088128,-1.1392636,-0.20158553,-2.2559254,201.28471,-69.12527,-19.772732
7523254808000.0,0.4290710145416362,9.847898381026296,1.6720201683436815,-1.1487321,-0.28160888,-2.2229385,201.37892,-68.749245,-20.06289
7523260714000.0,0.4084133774598246,9.801418829711467,1.7339931011596057,-1.1429288,-0.39492437,-2.205529,201.49295,-68.39493,-20.329632
7523264781000.0,0.25272908331069,9.545548183857704,1.606992951376475,-1.1102476,-0.49571714,-2.1700988,201.67467,-68.05815,-20.565496
7523269776000.0,-0.0722215256810868,9.01964116182517,1.2905937216660708,-1.0720685,-0.5314528,-2.1383338,201.86636,-67.73405,-20.787762
7523274762000.0,-0.371575430872505,8.544859421588594,1.0413184378411404,-1.0430524,-0.5027421,-2.0916026,202.07469,-67.422775,-20.991962
7523279824000.0,-0.5848382372855397,8.244711688391039,1.029470471160896,-1.0213667,-0.46609017,-2.0576997,202.28568,-67.12735,-21.182394
7523284756000.0,-0.7926241245295316,7.952272213849287,1.0179267786150712,-0.9810496,-0.5213735,-2.0463986,202.42009,-66.80197,-21.42684
7523289856000.0,-0.9359993368525896,7.680312884860558,0.9741157704780876,-0.9279043,-0.6383542,-2.0427334,202.55775,-66.49529,-21.655962
7523294850000.0,-1.05508942438247,7.423078311713147,0.9217161558406376,-0.93492925,-0.79076505,-2.012801,202.71794,-66.20432,-21.863522
7523299895000.0,-1.308247796645993,7.196540433980741,0.8853568098172026,-0.98899084,-0.9492846,-1.9969184,202.91231,-65.85304,-22.122547
7523304862000.0,-1.5955035448016974,6.983039528578424,0.8543021319307981,-1.0662653,-1.2116512,-2.0372355,203.18095,-65.50069,-22.368128
7523309794000.0,-1.8605658652581183,6.791371340320566,0.772772961825562,-1.1389582,-1.398576,-2.101682,203.48018,-65.10576,-22.646078
7523314841000.0,-2.0869435136865118,6.640452855505829,0.5765789946013739,-1.1801916,-1.3561208,-2.115121,203.78044,-64.719536,-22.909714
7523319757000.0,-2.253186885006196,6.538337151787246,0.5398485587265275,-1.2253957,-1.294118,-2.1584923,204.11998,-64.23597,-23.255375
7523324840000.0,-2.3367080703841387,6.505856680040035,0.7532915002754742,-1.2959507,-1.2892311,-2.19209,204.45453,-63.75611,-23.590063
7523329805000.0,-2.4184991493840986,6.497790567240151,1.0016971530713632,-1.3762794,-1.3387111,-2.221106,204.78075,-63.2262,-23.976122
7523334857000.0,-2.502230533482643,6.547044352845362,1.3513992571617632,-1.4541647,-1.393689,-2.2547035,205.10008,-62.691154,-24.361013
7523339745000.0,-2.5275769763788967,6.620814733641658,1.5888290839157246,-1.4944818,-1.498147,-2.2574525,205.47792,-62.122097,-24.753489
7523344834000.0,-2.4329649,6.754384857142857,1.6166561857142858,-1.57084,-1.5488489,-2.230269,205.8453,-61.551785,-25.134104
7523349860000.0,-2.339524087290168,6.886301430284344,1.6441387979445017,-1.6163495,-1.5543466,-2.172237,206.26631,-60.957447,-25.512148
7523355974000.0,-2.2070952796148,7.0346135883426255,1.6799913205676635,-1.6178766,-1.67316,-2.1120665,206.72249,-60.38105,-25.8574
7523359879000.0,-1.888657987318804,6.977749821490117,1.7330642092143942,-1.5778649,-1.7214183,-2.0958786,207.14508,-59.821934,-26.191067
7523364751000.0,-1.4913656728332487,6.906804809427268,1.7992796031931069,-1.5662584,-1.7901406,-2.0402899,207.64705,-59.3226,-26.434101
7523369845000.0,-1.3121705414084253,6.747205783975568,1.7100522823407889,-1.5164729,-1.8689423,-1.9752327,208.15024,-58.853916,-26.654459
7523374888000.0,-1.177690043133028,6.573682509251774,1.5929241341866522,-1.4801265,-1.9596558,-1.9010127,208.65805,-58.414143,-26.840048
7523379797000.0,-1.0994791967741937,6.350967458064516,1.4680318032258064,-1.4563028,-2.0271564,-1.8212948,209.29579,-58.00829,-26.950565
7523384862000.0,-1.049876898875151,6.089428176155062,1.3327528431997768,-1.4266758,-2.081218,-1.7284433,209.93327,-57.641804,-27.020432
7523389839000.0,-1.066214486684345,5.843205368292452,1.2335623732455725,-1.3942999,-2.1126773,-1.6334536,210.59329,-57.305695,-27.05157
7523394789000.0,-1.1515160332323136,5.609748666900274,1.1707086243110143,-1.3591752,-2.1120665,-1.5534303,211.23553,-57.004364,-27.05134
7523400735000.0,-1.3216543501742637,5.343803331066767,1.0725748674092803,-1.3139712,-2.078469,-1.4776831,211.86478,-56.718426,-27.041645
7523404805000.0,-1.4921297477004032,5.173327905726782,0.9873371575206724,-1.2385293,-2.0115793,-1.382999,212.4563,-56.47703,-27.002542
7523409833000.0,-1.7027317867081253,4.962725832358368,0.8820361242725346,-1.1688906,-1.9449949,-1.29198,213.01984,-56.221115,-26.989685
7523414778000.0,-1.8786669098036095,4.847505215043332,0.8203234956444303,-1.0836749,-1.8371773,-1.1914927,213.52342,-56.014606,-26.955652
7523419774000.0,-2.015619000095412,4.851309396740081,0.8127150528043253,-0.9896017,-1.709201,-1.0852021,213.97585,-55.852825,-26.901588
7523425351000.0,-2.1674077549878343,4.85743480865369,0.8096122069213301,-0.86254174,-1.5460999,-0.97402465,214.37144,-55.644554,-26.935625
7523429804000.0,-2.257333435523114,4.916232357891322,0.9617941283828062,-0.72326446,-1.5097535,-0.8353582,214.73969,-55.493725,-26.93045
7523434885000.0,-2.359941201703163,4.983322038483374,1.1354380410137876,-0.5870415,-1.4422529,-0.7623598,215.09969,-55.31822,-26.969696
7523439840000.0,-2.52053916957606,5.05922879925187,1.400793086533666,-0.516792,-1.4132367,-0.61758476,215.42548,-55.210617,-26.949831
7523444776000.0,-2.7495690772069823,5.146799207003919,1.774650826070538,-0.37507126,-1.3927728,-0.4783075,215.71791,-55.16048,-26.916
7523449830000.0,-2.984074173067332,5.236463072639829,2.1574460075169224,-0.2489276,-1.3884968,-0.35521814,216.01044,-55.113953,-26.871012
7523454886000.0,-3.1368086035792158,5.215237827852471,2.537330010101744,-0.095294975,-1.361924,-0.25228736,216.26938,-55.128414,-26.798185
7523460070000.0,-3.2495588140443314,5.134057461573401,2.9251907868459304,0.052534413,-1.3509285,-0.16707164,216.51376,-55.191067,-26.695866
7523464837000.0,-3.3150594983929937,5.03218067485758,3.232292464713885,0.22052236,-1.3567317,-0.081855945,216.80298,-55.20712,-26.6116
7523470094000.0,-3.340743794175665,4.886637181362129,3.510537683751381,0.37232238,-1.3359623,0.004581489,217.06407,-55.268764,-26.5089
7523474844000.0,-3.3614593,4.754920442563756,3.748181869916497,0.5299256,-1.3075571,0.09407325,217.38953,-55.284645,-26.420616
7523479811000.0,-3.3614593,4.61536179200331,3.877005104573836,0.70249504,-1.2290609,0.18142697,217.67725,-55.351387,-26.31864
7523485112000.0,-3.3614593,4.466418686180697,4.014490904235312,0.8677341,-1.072374,0.2864958,217.96661,-55.402027,-26.220943
7523489777000.0,-3.3721656441372736,4.326162886099316,3.967302635020366,1.0320568,-0.84513205,0.39370266,218.1966,-55.503952,-26.117727
7523494777000.0,-3.397064118875119,4.164322388655863,3.705868065300286,1.1407908,-0.5320636,0.4981606,218.33984,-55.647705,-26.016478
7523499855000.0,-3.3977728260969093,4.006650176650134,3.489471905150705,1.2159272,-0.17348573,0.61483586,218.41924,-55.788452,-25.936726
7523504929000.0,-3.242038776192293,3.89170365288058,3.585878679511637,1.2647965,0.204029,0.7263188,218.38979,-55.963444,-25.868933
7523509891000.0,-3.0897422930179324,3.779294379931324,3.680157436779855,1.3246613,0.54825157,0.8185594,218.26436,-56.153698,-25.844799
7523514776000.0,-2.929976091531113,3.863713606093468,4.611139720216886,1.3973542,0.81061816,0.90408057,218.04489,-56.373787,-25.82401
7523519779000.0,-2.756782600086066,4.139998651157587,6.3801883776400725,1.434617,0.93431836,0.95172805,217.76614,-56.604584,-25.809093
7523524847000.0,-2.653892298967621,4.492463976302205,7.941347990380103,1.3634512,0.99021256,0.95264435,217.45966,-56.828632,-25.78261
7523529997000.0,-2.866048615251056,5.1675066909901455,8.519956089081807,1.2027937,1.0742066,0.8793405,217.11931,-57.03083,-25.778002
7523534815000.0,-3.0645280583294228,5.799032088925387,9.0612636268575,1.0543534,1.0937542,0.82527894,216.85573,-57.12974,-25.685244
7523539776000.0,-3.490494660377195,6.8391680452461285,7.952761302102258,1.0387764,1.1563679,0.7144069,216.57408,-57.190136,-25.640528
7523544777000.0,-4.053997597101826,8.123623345012543,5.827194825590448,1.1316279,1.1539245,0.68875057,216.3066,-57.247353,-25.582785
7523550140000.0,-4.3014569627827015,9.416016058221272,4.328174363615525,1.2873985,0.97127575,0.7849618,216.11407,-57.298588,-25.479923
7523554854000.0,-3.9496234595583743,10.416327002292176,4.255738034000611,1.496009,0.72784597,0.9049969,215.94391,-57.373917,-25.370451
7523562490000.0,-3.5399241557624563,12.058093694514344,4.374757010568697,1.7424932,0.72326446,1.3023647,215.79115,-57.73005,-25.216589
7523564791000.0,-3.684096802214394,12.58857513588324,4.80542654554605,1.7739527,0.6713409,1.42973,215.74677,-58.046524,-25.071161
7523569768000.0,-3.9959382891293407,13.735991969300452,5.7369529582284855,1.6401732,0.35063666,1.5622878,215.7538,-58.700283,-24.585838
7523574866000.0,-4.254513693260474,14.689157031475409,6.119665224094718,1.3817772,-0.07880162,1.5748106,215.81926,-59.316628,-24.100828
7523579803000.0,-4.378528615300547,15.150768150163934,5.303233516109289,1.2501358,-0.29810223,1.5360206,215.91689,-59.92927,-23.602053
7523585669000.0,-4.525879543533698,15.699241073442623,4.333173074739526,1.2290609,-0.16462818,1.559539,216.02286,-60.52734,-23.038488
7523589784000.0,-4.3041628636878535,15.653709669603526,3.938737356387665,1.1630874,0.129198,1.5870279,216.14694,-61.065468,-22.503088
7523594828000.0,-3.8481645852377953,15.354053533668974,3.6173672607300182,1.0580186,0.37232238,1.5855007,216.24586,-61.572117,-21.998741
7523599785000.0,-3.23464636111728,14.602282448022551,3.279235395199453,0.99204516,0.5329799,1.5824465,216.35867,-62.133205,-21.536251
7523604813000.0,-2.2886310172033824,12.944698977961904,2.892602982352438,0.98990715,0.5213735,1.5827519,216.45647,-62.670425,-21.095528
7523610157000.0,-1.3311573146559563,11.242337276295848,2.4795873178387398,0.97158116,0.56199604,1.5738943,216.47662,-63.249844,-20.63562
7523614788000.0,-1.082452049590785,10.486138773567747,2.096446888178236,1.0033462,0.68661255,1.5170839,216.48822,-63.809597,-20.209232
7523619895000.0,-0.8081834707335557,9.652213972567443,1.6739251489693845,1.1316279,0.7791586,1.459357,216.43349,-64.43202,-19.72839
7523624801000.0,-0.5506663447272728,8.909302936363636,1.3280419985454543,1.2495248,0.84482664,1.42973,216.3619,-65.03769,-19.273806
7523629811000.0,-0.2981410965741627,8.252737402392343,1.0801080582200957,1.325883,0.96883225,1.4172074,216.25938,-65.6357,-18.851532
7523634806000.0,-0.048300412173913,7.787192965217391,0.8744041191304348,1.3698653,1.1239921,1.4150693,216.12202,-66.25724,-18.444702
7523639788000.0,0.1957489674654731,7.826851023094629,0.7798349860332481,1.427592,1.3222178,1.4266758,215.94753,-66.88285,-18.05513
7523644748000.0,0.4387206501253198,7.866333955063939,0.6856834605089515,1.4391985,1.5351044,1.466382,215.70401,-67.52855,-17.65808
7523649842000.0,0.6613893361633183,7.99940179727803,0.5947364704990279,1.4337007,1.704314,1.5387696,215.4255,-68.179665,-17.26231
7523655916000.0,0.743070464808814,8.791080186519766,0.5256216658047095,1.4245378,1.8429805,1.6798794,215.10037,-68.84455,-16.851383
7523659832000.0,0.7233256864372584,9.35877371028566,0.5181461372725559,1.4657712,1.8729129,1.7397442,214.72487,-69.59628,-16.373951
7523664836000.0,0.5471239722786838,10.203638276326954,0.5859159928584897,1.4920384,1.9407189,1.8432859,214.30069,-70.372955,-15.858812
7523669790000.0,0.3557771272528041,11.059243458239862,0.649965180871441,1.5384641,1.9343048,1.956296,213.90674,-71.20679,-15.288697
7523674833000.0,0.0765863523968938,12.025993520103537,0.699969506419327,1.5641204,1.9028453,2.0635028,213.51126,-72.0475,-14.699081
7523679763000.0,-0.19634851177912,12.971081325970664,0.7488533701811906,1.5653422,1.847562,2.1410828,213.16183,-72.89532,-14.093611
7523684857000.0,-0.6718612211945977,13.92220668194788,0.697598488381206,1.5476271,1.7919732,2.19209,212.83511,-73.7422,-13.473581
7523689775000.0,-1.1646195716568386,14.836049571618794,0.6304041921019593,1.5219707,1.7434094,2.1948388,212.53792,-74.574196,-12.853421
7523694774000.0,-1.6705065330260005,15.421977107044071,0.5702261798939702,1.5121969,1.6612481,2.164601,212.33034,-75.36314,-12.262607
7523699772000.0,-2.1780172590448093,15.889769354692971,0.5128554023704592,1.5143349,1.5619824,2.115121,212.15804,-76.12371,-11.687096
7523704815000.0,-2.623248275415094,16.073238645849056,0.4199664735301887,1.527774,1.432479,2.0735822,212.10733,-76.79471,-11.199949
7523709866000.0,-3.020267406273585,16.04585793726415,0.3013170682971698,1.5470163,1.3304645,2.0344868,212.09099,-77.43753,-10.733135
7523714822000.0,-3.303794254560559,15.734847301535464,0.285266387417211,1.536326,1.2519683,1.990199,212.15298,-77.98484,-10.354282
7523719790000.0,-3.467347309906039,15.09971665182766,0.3833982092391429,1.5112807,1.2030991,1.9526308,212.24364,-78.51361,-9.985691
7523725693000.0,-3.661681787704824,14.345051550131776,0.4999988823902831,1.4526376,1.1472049,1.9172006,212.256,-79.03291,-9.637512
7523729843000.0,-3.7983052135670903,13.814497565371834,0.5819729283969292,1.366811,1.1120802,1.9083431,212.28587,-79.52909,-9.295317
7523734855000.0,-3.732368675964392,13.128807857566766,0.8278680975667656,1.319469,1.0320568,1.8918496,212.35396,-79.99957,-8.966418
7523739825000.0,-3.653264819036428,12.465446631022328,1.0635657793184488,1.2177598,0.9236283,1.8936822,212.44696,-80.4438,-8.637337
7523744848000.0,-3.4836843928151757,11.980931187762296,1.1806569938727547,1.1273518,0.8023715,1.8955148,212.4645,-80.84452,-8.33459
7523749844000.0,-3.3150155078059425,11.499020147641431,1.297118811096189,1.0192287,0.6765333,1.9211712,212.49622,-81.21232,-8.030523
7523754813000.0,-3.12568093790373,11.001067195457388,1.4256830284642634,0.926988,0.5152648,1.930945,212.57785,-81.559875,-7.7337213
7523759809000.0,-2.9262823431964997,10.492600570743903,1.5602771319441548,0.81000733,0.3213151,1.9226984,212.70811,-81.887085,-7.438329
7523764787000.0,-2.8040628836812607,10.145590651043785,1.5716215484769718,0.6872234,0.108123146,1.8912388,212.89749,-82.19,-7.1432714
7523769775000.0,-2.7031777373893267,9.84293521216798,1.548340339054504,0.55680364,-0.10873401,1.8420641,213.1427,-82.465645,-6.8587837
7523774817000.0,-2.6009905111400964,9.537856765314013,1.4655428368502417,0.4529566,-0.32711834,1.7803668,213.44376,-82.71502,-6.576082
7523779798000.0,-2.499594724483092,9.23827825004831,1.2581425632077294,0.34880406,-0.5009095,1.7015651,213.7884,-82.9254,-6.314831
7523784973000.0,-2.4135625353547043,8.954776865351233,1.0131028223889595,0.29016098,-0.6411031,1.611768,214.14192,-83.13365,-6.050083
7523789788000.0,-2.381543760502257,8.759996156810555,0.7115929982603866,0.24129178,-0.75594574,1.529912,214.53094,-83.30529,-5.807682
7523795148000.0,-2.3459008460247657,8.543168618331212,0.3759558939344983,0.21074851,-0.8533788,1.461495,214.91724,-83.49319,-5.5571017
7523801009000.0,-2.307597005595269,8.308535041567382,0.0086834452433148,0.20433442,-0.8857546,1.3949108,215.31119,-83.653076,-5.3322606
7523804802000.0,-2.2979796701526785,8.212361352396082,-0.2349567393831083,0.21380283,-0.8002335,1.3274102,215.69188,-83.790276,-5.1306677
7523809791000.0,-2.285329818709734,8.085862397670109,-0.5554209843346571,0.2919936,-0.66950834,1.2458596,216.00302,-84.015305,-4.8982463
7523814776000.0,-2.226639632301727,7.960440925033485,-0.7507959923264012,0.40378192,-0.5873469,1.1624765,216.30247,-84.22766,-4.690797
7523819775000.0,-2.125389459880155,7.835565799309129,-0.8317961267395136,0.5357288,-0.5830709,1.0940597,216.5861,-84.43762,-4.507496
7523824800000.0,-2.023612681240748,7.710041193034896,-0.9132175461085654,0.6792821,-0.6377433,1.0665708,216.84026,-84.71531,-4.310903
7523829846000.0,-1.860917219390688,7.658236140026825,-0.9417235983042728,0.75533485,-0.75869465,1.0192287,217.11388,-84.97754,-4.142779
7523834929000.0,-1.6697086185763557,7.639581559245066,-0.9463872191511784,0.9059132,-0.895223,0.9560041,217.40854,-85.256996,-3.9901528
7523839833000.0,-1.5102843327226063,7.669988574235403,-0.9046180314108504,1.058324,-0.9718866,0.8933904,217.71016,-85.56561,-3.821979
7523844781000.0,-1.3650216775005348,7.73079623836886,-0.8336757859841734,1.1905763,-0.9978484,0.84665924,218.03688,-85.86671,-3.6698403
7523849810000.0,-1.2173810362087405,7.792599339202965,-0.7615721982212875,1.2663237,-0.9642508,0.8185594,218.36226,-86.18254,-3.500935
7523854865000.0,-1.1149443972562338,7.843115501724908,-0.6363932955313254,1.2846496,-0.9016371,0.78893244,218.68689,-86.46661,-3.3487277
7523859760000.0,-1.0269608299133075,7.889202086406292,-0.5023231435070158,1.2684617,-0.80664754,0.74464476,218.9926,-86.70699,-3.2118022
7523864847000.0,-0.8514026812913935,7.917192792505602,-0.3527776332434227,1.2305881,-0.6740898,0.7031059,219.26126,-86.92697,-3.0541053
7523869778000.0,-0.6162467248618142,7.928950540808366,-0.1999262709768446,1.1615603,-0.5213735,0.68019843,219.49689,-92.90598,-2.905867
7523874831000.0,-0.4090099389207195,7.936379967669173,-0.0789068014095365,1.063211,-0.39645153,0.68203104,219.67665,-92.76476,-2.7426784
7523879875000.0,-0.3906201399600266,7.91799022631579,-0.157063458994004,0.9434814,-0.28130344,0.6914995,219.81656,-92.66368,-2.5857234
7523884886000.0,-0.3746161806738223,7.895037862045319,-0.2381366926118067,0.8237518,-0.1994475,0.6976081,219.9093,-92.54007,-2.383684
7523889847000.0,-0.3923228534853906,7.802963314296362,-0.3691660655008945,0.74097955,-0.12461651,0.70524395,219.97435,-92.43814,-2.1821444
7523894746000.0,-0.4098082375014907,7.71203946639833,-0.4985579013774598,0.68752885,-0.04886922,0.68477994,220.00241,-92.354675,-1.9728286
7523899874000.0,-0.4280233064974619,7.610677333671743,-0.6333494166835871,0.6789767,0.03023783,0.6603453,220.01227,-92.29793,-1.7669358
7523904875000.0,-0.4456403140763628,7.5014517115574195,-0.763715295577871,0.72295904,0.12461651,0.61269784,219.99986,-92.2826,-1.5777577
7523909770000.0,-0.4628839157757669,7.394541209607887,-0.8913179704803944,0.8042041,0.22479841,0.57726765,219.95728,-92.31903,-1.3807129
7523914835000.0,-0.46100552276654,7.330213625545447,-0.8917317505476549,0.8604037,0.3051272,0.54550266,219.89795,-92.39904,-1.2001262
7523919789000.0,-0.4484332676053352,7.292496886317464,-0.8204889990151047,0.9379836,0.3463606,0.5305365,219.8262,-92.53289,-1.0285434
7523924785000.0,-0.4175901922691214,7.318730989582398,-0.6394135172736117,0.956615,0.39553526,0.5235115,219.72853,-92.722404,-0.85855263
7523929950000.0,-0.3546586370752881,7.455699739021105,-0.2655259897739859,0.9767735,0.4260785,0.5006041,219.62894,-92.95123,-0.7004311
7523934821000.0,-0.2953092459137854,7.584872009788954,0.0870792660731926,0.99265605,0.46517387,0.4859433,219.4983,-93.182304,-0.53672236
7523939838000.0,-0.283271664831943,7.758972717599417,0.3550918788604519,0.98929626,0.50671273,0.47219884,219.36333,-93.41999,-0.38237903
7523944863000.0,-0.2910668329294565,7.949954095869441,0.5850492482011824,0.95722586,0.54825157,0.43310347,219.22183,-93.65649,-0.24231875
7523949831000.0,-0.2949849297370983,8.154972482635507,0.8210347412203829,0.9077458,0.5842926,0.4089743,219.03056,-93.805214,-0.09927683
7523954807000.0,-0.2872513681402142,8.410180031483284,1.0839757224602402,0.86590147,0.6081163,0.39950588,218.83656,-93.946754,0.032428034
7523959799000.0,-0.2794929397857838,8.666208183382018,1.3477621730931515,0.8197812,0.61758476,0.40683624,218.6074,-94.0309,0.1506417
7523964845000.0,-0.2884731377271857,9.011024180600726,1.5009202743447485,0.77457714,0.62125,0.419359,218.3786,-94.10287,0.26306224
7523969745000.0,-0.3019396632676487,9.370131747082455,1.6176302217333078,0.7150178,0.61636305,0.4279111,218.155,-94.15722,0.37150854
7523975171000.0,-0.7397884478368701,9.629787721072397,1.4543557775216138,0.65576386,0.61208695,0.42119157,217.90112,-94.16333,0.4598935
7523980858000.0,-1.391388469124094,9.839060480918697,1.1499586927953889,0.6041457,0.6017023,0.40653083,217.65486,-94.15507,0.54425645
7523984792000.0,-1.69645288911366,9.88275530198123,0.9814939164963504,0.54519725,0.61361414,0.37293324,217.38213,-94.10924,0.6163476
7523989778000.0,-1.8956185291345151,9.808068245464025,0.8221613732846714,0.49541172,0.6178902,0.33536503,217.1189,-94.052345,0.67912954
7523994771000.0,-2.018776676673389,9.69944660338039,0.7374141,0.46883908,0.61117065,0.3200934,216.8316,-93.98812,0.6608543
7523999881000.0,-2.0563738709497743,9.549057629981752,0.7374141,0.45875978,0.57451874,0.30970868,216.55571,-93.91468,0.6302154
7524004800000.0,-2.0409703318873453,9.44062988261979,0.7427279070881769,0.42852196,0.52656585,0.31612277,216.27519,-93.847534,0.5831887
7524009804000.0,-1.9458593828655135,9.38628107967111,0.7563151787638219,0.38759398,0.5006041,0.3387248,216.00288,-93.77595,0.53586346
7524014887000.0,-1.8545050282771385,9.35372874153054,0.7819288608014806,0.3463606,0.48502702,0.36865717,215.72925,-93.70405,0.4914756
7524019767000.0,-1.7792900795364932,9.376293292910598,0.834579360262332,0.2950479,0.4718934,0.37843102,215.46602,-93.619156,0.44534644
7524024813000.0,-1.7015165895067192,9.399625408948255,0.8890208398277943,0.26175576,0.46944994,0.41263947,215.2008,-93.548805,0.42916524
7524029811000.0,-1.7307427178875638,9.388273327086882,0.9809782717887564,0.20372356,0.4972443,0.44623706,214.93472,-93.45842,0.41316336
7524034837000.0,-1.7881415643781942,9.367773754344125,1.0834761954378194,0.15118915,0.5323691,0.43279803,214.67084,-93.36121,0.3906556
7524039825000.0,-1.8707373527251865,9.409730621724997,1.127365432472748,0.09987647,0.54305923,0.40225476,214.397,-93.254776,0.3866428
7524044787000.0,-1.9843348413654616,9.52787158099063,1.1001020465863454,0.069027774,0.5369505,0.3662137,214.12224,-93.14087,0.37377447
7524050748000.0,-2.1013552838644824,9.761432285033507,0.9647766691176468,0.05100725,0.5164866,0.2929099,213.83109,-93.005646,0.3252673
7524054976000.0,-2.1676841037900223,10.005643202084883,0.7808648867647059,0.03848451,0.50701815,0.26511553,213.54326,-92.867096,0.27656907
7524059793000.0,-2.243253149575577,10.283874987192853,0.5713324705882353,0.040927973,0.45753807,0.23273966,213.25899,-92.73899,0.1878083
7524064832000.0,-2.260449897327282,10.448344846192638,0.4656076343620777,0.06261369,0.3839288,0.24312437,212.98871,-92.61845,0.10151372
7524069840000.0,-2.246629426410201,10.54854344975146,0.4172358274086881,0.08093964,0.3381139,0.2510656,212.72794,-92.50326,0.0041237264
7524075552000.0,-2.2345271137675606,10.665248224265646,0.361257212725415,0.090713486,0.2910773,0.28221974,212.4873,-92.443,-0.08457314
7524079893000.0,-2.3053196391060027,10.806833201021712,0.3010835532515964,0.10598512,0.2574797,0.3182608,212.25917,-92.39377,-0.16990972
7524084838000.0,-2.385962126504896,10.968118091613452,0.2325374242264793,0.12370021,0.1826487,0.3576616,212.05727,-92.36491,-0.2384648
7524089845000.0,-2.7040538842134367,11.306856614874206,0.0161166660436825,0.13988814,0.05131268,0.39187005,211.88448,-92.34138,-0.29937705
7524094784000.0,-3.210791290136854,11.784170614459498,-0.3173492452958253,0.16920967,-0.09560041,0.3912592,211.74026,-92.32846,-0.3601839
7524099794000.0,-3.724813238643904,12.26834618399226,-0.6556088557050042,0.19822577,-0.26908615,0.38820487,211.63031,-92.33268,-0.41965058
7524104817000.0,-4.037411938072129,12.638340286611475,-0.867364940203635,0.22357668,-0.46761733,0.3839288,211.57097,-92.34528,-0.48089704
7524109852000.0,-4.239300441830811,12.945761317156723,-1.009604528651632,0.24465153,-0.6395759,0.39767328,211.55437,-92.36467,-0.5382951
7524114836000.0,-4.122551925100671,13.094412875167786,-0.9705611963489932,0.23151793,-0.7086037,0.3839288,211.53583,-92.4431,-0.69270897
7524120282000.0,-3.714863505092776,13.11912133201737,-0.7687760129490723,0.20830505,-0.7464773,0.3747658,211.55614,-92.52674,-0.83836544
7524125001000.0,-3.34317377085034,13.15054869319728,-0.5789310115170069,0.19364429,-0.73914695,0.3659083,211.56566,-92.6318,-1.002489
7524129858000.0,-2.6272609744727893,13.364136094217688,-0.1122033621394558,0.2003638,-0.7339546,0.35216382,211.58463,-92.74045,-1.1652337
7524134812000.0,-1.8970505579081636,13.581989086734694,0.3638453870918368,0.20708331,-0.7281514,0.3585779,211.59859,-92.80461,-1.2484285
7524139780000.0,-1.0787534439635649,13.947186106105368,0.9511382259970458,0.22693644,-0.70280045,0.37507126,211.60432,-92.87283,-1.3289307
7524144790000.0,-0.2086126395814869,14.392099678237322,1.6007909202363366,0.2443461,-0.6747007,0.4016439,211.60686,-92.93827,-1.401409
7524149829000.0,0.6277669990428021,14.841363628142222,2.2292655613497394,0.22571471,-0.63224554,0.40133846,211.61748,-92.91193,-1.3638119
7524154809000.0,1.3226149969593115,15.291394427568504,2.7657025750132105,0.13255776,-0.59498274,0.36041048,211.62242,-92.87466,-1.3304353
7524159759000.0,2.013277163563071,15.738714198082585,3.2989080404016,0.0009162979,-0.50640726,0.2724459,211.66736,-92.7112,-1.198094
7524164835000.0,2.216858826583961,15.967744378821443,3.391347904253434,-0.1151481,-0.34880406,0.15302174,211.68166,-92.543045,-1.0870607
7524169842000.0,2.042645885307931,16.022982880638015,3.144900258449269,-0.21533,-0.18936823,0.041233405,211.67021,-92.36052,-0.9994336
7524174864000.0,1.8354627147450029,15.98872466162499,2.9414037127156645,-0.28069258,-0.069027774,-0.052534413,211.67232,-92.07307,-0.84289455
7524179865000.0,1.5624505721213042,15.770315099566773,2.828558734308733,-0.3622431,0.0021380284,-0.14202617,211.64302,-91.775276,-0.71825254
7524184828000.0,1.2915129068860682,15.553565118264045,2.716571206247625,-0.44226643,0.0580322,-0.23243423,211.577,-91.51422,-0.6388322
7524189995000.0,0.677070496737786,14.81700097139765,2.6681320905998764,-0.54061574,0.081855945,-0.31215215,211.50124,-91.2459,-0.5832689
7524194745000.0,-0.0192024663110699,13.93786835698825,2.6505494529993814,-0.66614854,0.0888809,-0.38881573,211.416,-90.97773,-0.55357325
7524199840000.0,-0.7361593805422993,13.019382285249458,2.632537593123644,-0.79809546,0.13591751,-0.47342056,211.29451,-90.77512,-0.5898467
7524204856000.0,-1.1842292487418655,12.32643711822126,2.622117315553145,-0.9279043,0.21227567,-0.559858,211.16515,-90.67069,-0.6479802
7524209859000.0,-1.5750880597986758,11.69272740981228,2.615615570590369,-1.0421361,0.31795537,-0.6258314,210.96758,-89.135574,-0.84210557
7524214845000.0,-1.808923004352952,11.220727247302078,2.61994584399202,-1.1572843,0.39370266,-0.70005155,210.75984,-88.78575,-1.06062
7524219966000.0,-2.039428677268188,10.754436534224476,2.62670029483752,-1.2055426,0.5305365,-0.7852673,210.48581,-88.319374,-1.3515475
7524224898000.0,-2.151913665514327,10.514952072366905,2.6593572049089653,-1.3112222,0.63071835,-0.829555,210.20386,-87.806725,-1.6497116
7524229872000.0,-2.2653565551202277,10.273428205116389,2.6922922151878312,-1.3924674,0.6976081,-0.91813046,209.88365,-87.229645,-2.0171623
7524234818000.0,-2.3294035076343858,10.123922406609497,2.687841691340724,-1.4660766,0.68936145,-1.0198395,209.56038,-86.62808,-2.3989432
7524239848000.0,-2.334441398243045,10.083620333821376,2.637463837335285,-1.5439619,0.65179324,-1.1294898,209.23119,-85.998344,-2.8060007
7524244779000.0,-2.361891247757543,10.106378894445957,2.509294365189816,-1.613906,0.5919284,-1.2455542,208.91005,-85.316925,-3.2617621
7524249841000.0,-2.410206448572981,10.185440023738334,2.3072486505753376,-1.6627752,0.5338962,-1.3637567,208.60442,-84.61271,-3.7451441
7524254791000.0,-2.469066233615767,10.273106811383313,2.0844734548351447,-1.7088956,0.51251596,-1.505172,208.30852,-83.88232,-4.258012
7524259788000.0,-2.5528064363971263,10.383291627832012,1.806808647016025,-1.7229455,0.50854534,-1.6517797,208.0296,-83.136826,-4.799997
7524264825000.0,-2.587484096273589,10.562735546699578,1.4399356854415162,-1.7024814,0.5345071,-1.8008307,207.73557,-82.40105,-5.3722706
7524269804000.0,-2.3558845574010667,11.105665386416115,0.612252225025878,-1.672549,0.6392705,-1.9306396,207.4245,-81.65201,-5.9757
7524274871000.0,-2.120191674599889,11.658191093956525,-0.230059904704196,-1.6444492,0.7715228,-2.0201313,207.06268,-80.94131,-6.6015987
7524279848000.0,-1.9111823538931,12.15288496308692,-0.7622474016989861,-1.6099354,0.93431836,-2.0708332,206.66466,-80.22965,-7.2485633
7524284847000.0,-1.713256645250517,12.624136790924304,-1.1392486966630573,-1.5909985,1.1291844,-2.0775528,206.22134,-79.52131,-7.9045835
7524289777000.0,-1.5697071290642202,12.957026273394495,-1.3936730775779818,-1.5586227,1.3127494,-2.0482311,205.78568,-78.949524,-8.491844
7524294773000.0,-1.457335557012844,13.2098623746789,-1.5762770059155964,-1.527774,1.5305228,-1.9920316,205.28333,-78.390915,-9.072635
7524299874000.0,-1.3426022925944954,13.468012285137617,-1.7627186869504587,-1.4581354,1.7391334,-1.9257526,204.77661,-77.907715,-9.60097
7524305619000.0,-1.1582492837257412,13.627121850950646,-1.7121152922175156,-1.3771957,1.9187278,-1.8594738,204.21414,-77.448296,-10.112906
7524309813000.0,-1.0197624617180574,13.7339546118609,-1.6567205303615409,-1.2611313,1.9758437,-1.7901406,203.62596,-77.0253,-10.601501
7524314784000.0,-0.8350271233606801,13.61145441603242,-1.329313197020856,-1.1340714,2.0470095,-1.754405,203.01494,-76.662384,-11.049041
7524319745000.0,-0.6471827542927745,13.44709070465553,-0.9583206041534053,-1.0732902,2.0522017,-1.690875,202.40514,-76.33066,-11.462997
7524324834000.0,-0.5352475003802842,13.11383110780875,-0.4727145265903637,-0.9807441,1.9446895,-1.6334536,201.82481,-76.05044,-11.831248
7524329778000.0,-0.4434713812885361,12.755466860439356,0.0211283675724569,-0.88147855,1.7379116,-1.5900823,201.27377,-75.79087,-12.177584
7524334847000.0,-0.4477441189956376,12.301800361671908,0.4169870065557471,-0.8042041,1.4077389,-1.5964963,200.80603,-75.541405,-12.481087
7524339885000.0,-0.501586809944202,11.807426742315103,0.7547275703642081,-0.7031059,0.9645562,-1.6468927,200.4364,-75.30834,-12.770342
7524344770000.0,-0.4655030300364572,11.31242905146901,0.8828530175638001,-0.6026186,0.48349985,-1.7232509,200.18573,-75.050186,-13.04501
7524349826000.0,-0.3893541112917292,10.793231451068696,0.9278501164271928,-0.5027421,0.062002823,-1.829236,200.05273,-74.78815,-13.324833
7524354902000.0,-0.3129039705582958,10.271980062692114,0.9730252101436844,-0.40958515,-0.21074851,-1.9254472,200.03262,-74.47749,-13.627517
7524359813000.0,-0.0516865115500809,10.046601320895522,1.1196606565635676,-0.4447099,-0.38423425,-2.0302107,200.10817,-74.141754,-13.943294
7524364767000.0,0.2298519809908289,9.846112201492538,1.2774928605376732,-0.54336464,-0.46609017,-2.147802,200.23645,-73.79097,-14.274582
7524369851000.0,0.4792157098834745,9.771650311440675,1.5537456266949152,-0.66675943,-0.45662177,-2.2626448,200.39343,-73.396385,-14.628305
7524375747000.0,0.745661951493644,9.760774735169491,1.9398207487288135,-0.8371908,-0.34880406,-2.3606887,200.54396,-72.96841,-15.000546
7524379803000.0,0.8221179156404602,9.854116220134228,2.158241281994248,-1.0158689,-0.20433442,-2.4129176,200.7334,-72.52554,-15.355797
7524384867000.0,0.8686154811016299,10.016857546308724,2.409328093729626,-1.1420126,-0.07666359,-2.4266622,200.8937,-72.06449,-15.720465
7524389843000.0,0.7807706654621582,10.0730260502438,2.635533357112572,-1.212873,-0.03604105,-2.4040601,201.10368,-71.58591,-16.065432
7524394776000.0,0.5704483828641086,10.032964903116389,2.8408479126563497,-1.2208142,-0.048563786,-2.3851233,201.29015,-71.106064,-16.40757
7524399846000.0,0.3777965214878837,9.950967670436189,2.8921646340872376,-1.196685,-0.11209377,-2.3518312,201.51382,-70.629585,-16.723604
7524404802000.0,0.2035321111553826,9.8464090991335,2.846855883463064,-1.1841623,-0.20189096,-2.2922719,201.74435,-70.17214,-17.014708
7524409757000.0,0.0293028631332795,9.741871625201938,2.801556275040388,-1.1707232,-0.23151793,-2.2751677,201.9834,-69.67957,-17.333265
7524414785000.0,-0.2044214886971236,9.56619339502892,2.619210150961388,-1.1691961,-0.24831672,-2.2226331,202.23712,-69.22088,-17.611225
7524419773000.0,-0.4433790662519149,9.383241321244332,2.421323395419728,-1.1438452,-0.24251351,-2.180789,202.48918,-68.779564,-17.877563
7524425140000.0,-0.8105713027661466,9.036270186921024,2.0470855038218416,-1.104139,-0.24251351,-2.1713204,202.72217,-68.32176,-18.167458
7524429927000.0,-1.2997339256761782,8.506344063050683,1.4763958016005176,-1.072374,-0.24373524,-2.1679606,202.94777,-67.885956,-18.438725
7524434819000.0,-1.7996260400016166,7.964794324597849,0.8931883599320996,-1.029308,-0.25473082,-2.1606305,203.1264,-67.4408,-18.747118
7524439788000.0,-2.1126106687569366,7.616739489789123,0.6865592437402885,-0.98868537,-0.28496864,-2.1294763,203.30446,-67.018135,-19.037962
7524445301000.0,-2.4265294287934043,7.265150558966228,0.5233215339749485,-0.9605856,-0.38698313,-2.146275,203.50497,-66.60159,-19.326279
7524449790000.0,-2.6525370449841907,7.054214186068794,0.4141241654306793,-0.9288206,-0.5684101,-2.1991148,203.6595,-66.113625,-19.743885
7524454803000.0,-2.85033008249497,6.957617513749161,0.3359268890006707,-0.91538155,-0.76052725,-2.228742,203.84184,-65.640076,-20.141552
7524459863000.0,-3.039046690006988,6.8916534719310505,0.2549978202003261,-0.9083566,-0.98990715,-2.2171354,204.09676,-65.08733,-20.619558
7524464796000.0,-3.1931099219892847,6.913662565261278,0.1706298614706111,-0.9300423,-1.1808025,-2.2101104,204.39383,-64.5362,-21.084143
7524469746000.0,-3.347704083414861,6.935747505862256,0.0859711556704713,-0.9462303,-1.3445144,-2.1700988,204.75008,-63.96357,-21.562502
7524474784000.0,-3.4024875221173296,6.924137116765003,0.2016804145077545,-0.945314,-1.4731015,-2.1432207,205.14642,-63.401577,-22.018568
7524479803000.0,-3.4065389347269046,6.895777186193527,0.416405435111261,-0.95203346,-1.5656476,-2.115121,205.57036,-62.85876,-22.441217
7524484852000.0,-3.3186240732731886,6.893157137186355,0.7252075310685085,-0.98654735,-1.5668694,-2.0894647,206.01128,-62.29168,-22.887894
7524489775000.0,-3.0350620028756694,6.946325028277418,1.2258717270369326,-1.054048,-1.4792101,-2.0726657,206.44455,-61.735867,-23.316877
7524494848000.0,-2.742001488738542,7.008951848625055,1.6946391006110868,-1.0989466,-1.4581354,-2.0518963,206.90842,-61.180233,-23.715555
7524499853000.0,-2.449095912003492,7.105192340419031,1.9498854931470972,-1.146594,-1.5641204,-1.9865338,207.37067,-60.64158,-24.08151
7524505674000.0,-2.113342745222552,7.211824486231454,2.2269969188130565,-1.2217305,-1.7296649,-1.8897116,207.85411,-60.166477,-24.308601
7524509872000.0,-1.9360999108181431,7.218641511479441,2.165643620398474,-1.2534955,-1.8249599,-1.8319849,208.33304,-59.710007,-24.515501
7524514861000.0,-1.725460439440441,7.226743021475202,2.0927299458414583,-1.2559389,-1.9984456,-1.813659,208.92688,-59.3087,-24.59779
7524519803000.0,-1.5226731276895142,7.200706766954154,1.9421746293690425,-1.2452488,-2.1200078,-1.7858646,209.51038,-58.931843,-24.650892
7524524824000.0,-1.3218636684975036,7.143956065465274,1.7195380193735814,-1.1963795,-2.2003367,-1.7373008,210.11197,-58.581852,-24.674582
7524529850000.0,-1.1395088400882236,7.04303709537495,1.4937718997393397,-1.1563679,-2.2226331,-1.6856827,210.77458,-58.267014,-24.645617
7524534825000.0,-0.9962119486298624,6.855159056676914,1.264496919957225,-1.1181889,-2.1713204,-1.6166549,211.41367,-57.986786,-24.593075
7524539820000.0,-0.8523389892661408,6.666525729381099,1.0343002317136747,-1.0775663,-2.1374176,-1.5613716,212.07225,-57.758606,-24.49986
7524544763000.0,-0.7285877966233297,6.505984139039365,0.8390963434741784,-1.0311406,-2.1429152,-1.484708,212.70003,-57.56885,-24.3805
7524549818000.0,-0.6411722146894185,6.396714718671,0.7079729660093896,-0.9850202,-2.0995438,-1.3988814,213.28043,-57.410206,-24.250456
7524554719000.0,-0.5574525401631528,6.284865048310202,0.5841618957813327,-0.926988,-2.031127,-1.3072516,213.88156,-57.285343,-24.10023
7524559704000.0,-0.4815858468164,6.117958122258714,0.4880640666045132,-0.84635377,-1.9349157,-1.1927143,214.43515,-57.206104,-23.927258
7524564687000.0,-0.4185486315993476,5.958138977549649,0.4051973210553583,-0.7733554,-1.8225164,-1.0803152,214.99573,-57.14662,-23.741693
7524569690000.0,-0.4047581402571236,5.824831083373309,0.3730195111234769,-0.6976081,-1.7061466,-0.956615,215.50035,-57.137703,-23.53364
7524574745000.0,-0.3957703109216227,5.692795071760536,0.3566257229775502,-0.6151413,-1.5757269,-0.82741696,215.9893,-57.151337,-23.319923
7524579719000.0,-0.4192219764868058,5.580226928160694,0.445742093265065,-0.5155703,-1.4373659,-0.70554936,216.41896,-57.213684,-23.09079
7524584706000.0,-0.4450777298851743,5.46884415446601,0.5412672099380144,-0.42180246,-1.3060299,-0.5852089,216.83812,-57.28911,-22.853376
7524589689000.0,-0.4935700012295498,5.3718597636825525,0.6964424174778986,-0.32162055,-1.1921035,-0.47586402,217.20222,-57.412777,-22.60306
7524594789000.0,-0.5533515043973344,5.273937650135213,0.8731848441665057,-0.22785273,-1.0910053,-0.3747658,217.5564,-57.53361,-22.361181
7524599723000.0,-0.672006232036894,5.187228342331466,1.1515671379853196,-0.106595986,-0.9999864,-0.27855456,217.86317,-57.70402,-22.10739
7524604806000.0,-0.7958800683722772,5.098794318019802,1.437473101861386,-0.0067195175,-0.9728029,-0.20158553,218.1961,-57.852608,-21.856499
7524609759000.0,-0.9367729249257426,5.023651423267327,1.7051694621287128,0.10873401,-0.93523467,-0.16584991,218.48941,-58.04146,-21.6071
7524614914000.0,-1.0860038020738445,4.943450301482702,1.988637534702975,0.1685988,-0.88697636,-0.09590584,218.78775,-58.187073,-21.378849
7524619714000.0,-1.2552846703750364,4.84544568863262,2.3093802888458184,0.28038713,-0.86132,-0.035124753,219.07436,-58.37327,-21.148773
7524625116000.0,-1.4433672875254828,4.736118308232211,2.669157683448209,0.40317106,-0.84635377,0.021991149,219.3633,-58.514904,-20.951782
7524629768000.0,-1.5644658790408696,4.65826909110766,2.958929232501699,0.514654,-0.84574294,0.08979719,219.6362,-58.69161,-20.740574
7524634734000.0,-1.69373836516843,4.575165219172896,3.2682597382195904,0.63346726,-0.8353582,0.15210545,219.90617,-58.821114,-20.571894
7524639709000.0,-1.744172693822316,4.511079630677131,3.456814780621793,0.7620544,-0.81183994,0.2134974,220.16049,-58.988335,-20.390158
7524644707000.0,-1.7875154966596238,4.448473432548546,3.6350018533655297,0.8912524,-0.7684685,0.28405234,220.39467,-59.19323,-20.196323
7524649752000.0,-1.8390184556514917,4.452393901285322,3.6181189554945057,1.035722,-0.70096785,0.38545597,220.61296,-59.372036,-20.027925
7524654720000.0,-1.8903678440345368,4.461730202462716,3.5854420719780222,1.1640037,-0.5360342,0.47219884,220.78326,-59.583046,-19.863914
7524659810000.0,-1.994231580556648,4.577863533241542,3.4623924982199057,1.2495248,-0.29749137,0.5720753,220.91165,-59.7945,-19.705858
7524664757000.0,-2.101397135719905,4.7036665995279305,3.3319302122738,1.3005321,0.00061086525,0.67256266,220.96663,-60.038452,-19.553215
7524669778000.0,-2.3326480363860167,4.913067206302314,3.2931814450024617,1.3222178,0.34208453,0.7425067,220.94957,-60.288162,-19.429703
7524674737000.0,-2.5805104786607584,5.132869814869522,3.2697980630526837,1.2993103,0.66828656,0.77854776,220.8479,-60.5463,-19.322395
7524679819000.0,-3.169565043359839,5.296797992596654,4.139260082624989,1.2623531,0.9621128,0.74067414,220.69244,-60.78903,-19.268427
7524684796000.0,-3.814317538753313,5.444916624074581,5.171735343661457,1.1908818,1.3060299,0.6123924,220.44298,-61.002254,-19.270351
7524689777000.0,-4.328638653805199,6.087675868149076,6.474527002192296,1.0464121,1.767844,0.41508293,220.14272,-61.11724,-19.382513
7524694781000.0,-4.773892734982775,7.0031983886627,7.930357715627936,0.84879726,2.0073032,0.27152961,219.82307,-61.186848,-19.5229
7524700840000.0,-4.967583896545769,8.796090474956822,6.919366823834197,0.7244862,2.1114557,0.22937989,219.34819,-61.03377,-19.840654
7524704818000.0,-5.029917937942005,10.1016439671848,5.73501848241069,0.8170323,2.1224513,0.25411993,218.84962,-60.872326,-20.18386
7524709794000.0,-4.952698616767677,11.27773491868687,3.861097493434343,0.8958339,2.0497584,0.38453966,218.3321,-60.593193,-20.520063
7524714770000.0,-4.740902163272727,12.057530915454546,1.646862437272727,1.0082331,1.6441438,0.5714644,217.9091,-60.36898,-20.786709
7524719761000.0,-4.316259553997058,12.983835839725357,1.5963245479941148,1.1612549,1.0601566,0.8491027,217.64923,-60.500416,-20.846083
7524724871000.0,-3.7018410733692986,14.054268314467876,3.381978786738597,1.4361442,0.86009824,1.2302825,217.37076,-60.737312,-20.8194
7524729790000.0,-3.5982298241758244,15.00948650197802,5.064041259569231,1.4544702,0.8436049,1.5198327,217.10928,-61.35114,-20.592506
7524734787000.0,-3.9474157912087913,15.9097965410989,6.738450779938462,1.1294898,0.37232238,1.629483,217.02943,-61.975407,-20.24941
7524739787000.0,-4.220510104890388,16.55055888128162,7.586981865834738,0.86101454,-0.35155296,1.5952746,217.24893,-62.537518,-19.718534
7524744775000.0,-4.2487045015177065,16.357227197639123,5.78657781767285,0.84513205,-0.59864795,1.5995506,217.4524,-63.096405,-19.172215
7524749802000.0,-4.2771193435075885,16.162383898988196,3.972096833288364,0.7987063,-0.41599923,1.6081028,217.64282,-63.49187,-18.621891
7524754814000.0,-3.617669926256243,15.3547270868413,3.934753885699725,0.60231316,-0.14538592,1.5845845,217.8707,-63.82969,-18.089502
7524759791000.0,-2.859791024299256,14.460819130058098,4.163089372479869,0.39461896,0.056505036,1.5958854,218.05367,-64.14758,-17.578598
7524764768000.0,-2.4667877334354973,13.358586992384136,3.7009695359152968,0.26450464,0.18387043,1.6383406,218.21098,-64.581696,-17.115597
7524770414000.0,-2.065036842100864,12.083027800965915,3.093321027640011,0.20066923,0.21044308,1.6557503,218.3431,-64.97121,-16.67936
7524774827000.0,-1.8916328029907905,11.157909041305736,2.450405057290052,0.24465153,0.23335053,1.6450601,218.45508,-65.33822,-16.215988
7524779850000.0,-1.7205679815719883,10.118361474149722,1.6871928863317225,0.35033122,0.3145956,1.6249015,218.54247,-65.69431,-15.772898
7524784798000.0,-1.5376665448825684,9.237281118078,1.1984731088817064,0.5021312,0.4352415,1.5809193,218.61382,-66.0679,-15.351287
7524789883000.0,-1.338299319123034,8.445058716655893,0.9046687773367807,0.6630942,0.52778757,1.5415184,218.67436,-66.453606,-14.949764
7524794832000.0,-1.11605031874145,8.01587629247606,0.7926346768481531,0.80756384,0.6618725,1.5228871,218.70226,-66.88566,-14.590411
7524799819000.0,-0.8808460704514364,7.719693063930689,0.7490783325508437,0.89461213,0.75411314,1.5375478,218.7229,-67.331314,-14.243687
7524804792000.0,-0.7112237683249927,7.508394009184575,0.6657529854136003,0.95111716,0.8881981,1.5448782,218.68274,-67.803406,-13.921731
7524809889000.0,-0.6010580975861054,7.374279340476891,0.5412178608772447,0.97524637,0.9618073,1.5766432,218.63922,-68.28628,-13.5965185
7524814833000.0,-0.545878,7.316894145920985,0.3750604875859415,1.01312,1.0228939,1.613906,218.5721,-68.78959,-13.258652
7524819779000.0,-0.545878,7.337146776671798,0.160382445135112,1.0626001,1.1362094,1.6652187,218.47575,-69.29997,-12.9233265
7524824839000.0,-0.5601552033678919,7.386714721049325,-0.0509394047345271,1.1246029,1.2544118,1.7256943,218.34604,-69.85064,-12.564514
7524829848000.0,-0.6618828159849198,7.61277609990575,-0.2091823699340245,1.2003502,1.3836098,1.7708983,218.19066,-70.41148,-12.210154
7524834843000.0,-0.763326103072573,7.838205644203581,-0.3669830509425071,1.2922854,1.4963144,1.822211,218.01312,-71.02577,-11.839147
7524840127000.0,-1.0800925977426477,8.668313699814536,-0.3758281347540405,1.3790283,1.597718,1.8606955,217.81502,-71.64959,-11.471985
7524844779000.0,-1.4735510749377374,9.722782782213194,-0.2971364426017839,1.4465289,1.681712,1.8936822,217.60233,-72.285095,-11.102948
7524849807000.0,-1.8352720993063496,10.695545438143151,-0.2028503402012348,1.5109752,1.7342464,1.88849,217.3241,-72.9907,-10.72088
7524854815000.0,-2.061932751612165,11.313377805854104,-0.0895200445872398,1.5415184,1.756543,1.8750509,217.0467,-73.693405,-10.339102
7524859787000.0,-2.286964054180959,11.92676888657672,0.0229955763777726,1.5577064,1.7663169,1.8383989,216.71013,-74.42178,-9.970865
7524864783000.0,-2.537149318642144,12.44947801907357,0.100257103308356,1.5674802,1.7672331,1.7782288,216.38812,-75.130615,-9.617591
7524869774000.0,-2.79762795404178,12.930640337874658,0.1617590181289736,1.5793921,1.7421877,1.7220291,216.08806,-75.81961,-9.276328
7524874891000.0,-3.0711709410507573,13.408114916133732,0.2214108359370193,1.5961909,1.6887369,1.6670512,215.77422,-76.48438,-8.959267
7524879806000.0,-3.4141079539626005,13.67103299959524,0.236652476534445,1.6200147,1.6417004,1.6276505,215.48126,-77.12683,-8.656357
7524884764000.0,-3.760045229652716,13.9362512819558,0.2520274621055614,1.63437,1.6129897,1.5958854,215.16911,-77.74193,-8.383234
7524889780000.0,-3.929809416478191,13.860970362984652,0.331608523417811,1.6420058,1.609019,1.5803084,214.8762,-78.33727,-8.118371
7524894772000.0,-3.968426044588045,13.537556404987884,0.4571126504614297,1.6310102,1.6010778,1.5900823,214.60439,-78.91237,-7.8565135
7524899853000.0,-3.938577808342164,13.089913339947982,0.6380204828128311,1.6010778,1.5974126,1.6264287,214.28204,-79.45757,-7.618681
7524904790000.0,-3.865705196300935,12.579804865427224,0.847529389861285,1.5415184,1.5778649,1.6438384,213.97751,-79.9756,-7.3846383
7524909814000.0,-3.7318782100388894,12.06367993488288,1.0998187626797504,1.5033394,1.5176947,1.6609426,213.66211,-80.46582,-7.1463
7524914781000.0,-3.5468891074251605,11.55603519508004,1.383755451180248,1.4266758,1.4214834,1.6853772,213.37193,-80.92801,-6.9025126
7524919909000.0,-3.371250932621486,11.014187509261278,1.6454974075615605,1.3390167,1.2709051,1.707063,213.09825,-81.34421,-6.654872
7524924806000.0,-3.233286734658967,10.462330077140988,1.834559543571584,1.2315043,1.0699304,1.7217237,212.87503,-81.7351,-6.4031153
7524929779000.0,-3.088646025314046,9.9793674792539,1.9844879324704987,1.1334605,0.840856,1.7067575,212.69377,-82.06756,-6.1408515
7524934814000.0,-2.937215285782261,9.575552621050628,2.090030598153788,1.0189233,0.6053675,1.672549,212.57849,-82.3674,-5.881391
7524939794000.0,-2.79458098018536,9.223686376383764,2.1190376593323608,0.8848383,0.3549127,1.6197093,212.53238,-82.60797,-5.6284227
7524944773000.0,-2.66364007380932,8.949529040590406,2.024923920260877,0.7483099,0.118202426,1.5558738,212.55388,-82.80859,-5.3898206
7524949784000.0,-2.5311750582352395,8.675842440633978,1.9217648613031797,0.6258314,-0.083383106,1.488984,212.6337,-82.957436,-5.154993
7524955742000.0,-2.3566516036982117,8.406123797200852,1.5885836053573084,0.5109888,-0.21960606,1.3955216,212.76349,-83.05438,-4.947773
