timestamp,acc_x,acc_y,acc_z,gyro_x,gyro_y,gyro_z,ori_azimuth,ori_pitch,ori_roll
2047586835000.0,0.277716787501732,9.822615865595123,-0.0957587861471525,-1.1682798,0.7415904,0.03390302,110.30968,-83.88344,3.1479769
2047591896000.0,0.2719603528159207,9.825254234550368,-0.0907219056906263,-1.1682798,0.7602218,0.03145956,109.849785,-83.98236,3.0258343
2047596884000.0,0.2662869490987054,9.827854547600904,-0.0857576773331568,-1.1899655,0.73914695,0.03604105,109.643105,-83.75663,3.0388334
2047601812000.0,0.2606817900132128,9.83042358182565,-0.0808531630297066,-1.171945,0.7556403,0.029932396,109.42839,-83.54857,3.045468
2047607262000.0,0.2544829026317326,9.833264741834755,-0.0754291364562887,-1.1734722,0.77091193,0.028710667,109.22695,-83.33486,3.054237
2047611964000.0,0.2491347983257289,9.835715959149034,-0.0707495450896445,-1.16492,0.7699956,0.03573562,109.03215,-83.13392,3.062655
2047616858000.0,0.2435683111982125,9.838267268705836,-0.0658788687501385,-1.2052372,0.7507534,0.036957346,108.84487,-82.92682,3.068281
2047621793000.0,0.2379551902390189,9.840839952126924,-0.0609673878070528,-1.1991285,0.72082096,0.033292156,108.66696,-82.73936,3.0740163
2047626825000.0,0.2322317404585403,9.843463202983036,-0.0559593691433025,-1.1578951,0.7122689,0.032070424,108.494156,-82.55605,3.0798986
2047633179000.0,0.2250046339591045,9.84677563063402,-0.0496356508226607,-1.1346822,0.7464773,0.024740042,108.323326,-82.37647,3.0817628
2047636930000.0,0.2207382070659059,9.848731078559553,-0.0459025272122221,-1.1575897,0.7699956,0.043676864,108.161964,-82.198006,3.0906515
2047641833000.0,0.2151614832436311,9.85128707994022,-0.0410228937646133,-1.2269229,0.7788532,0.042760566,108.00067,-82.0216,3.090535
2047646864000.0,0.2094391708736812,9.853909809482571,-0.0360158703350966,-1.244638,0.7611381,0.0571159,107.84376,-81.85416,3.0995517
2047651819000.0,0.2038033017039133,9.856492919178924,-0.0310844847073378,-1.2528846,0.75961095,0.06078109,107.68493,-81.677765,3.103684
2047657305000.0,0.1975634675433995,9.8593528464835,-0.0256246297015083,-1.248914,0.74067414,0.070249505,107.539955,-81.50328,3.1140742
2047661957000.0,0.1922722337638314,9.861777998109623,-0.0209948000465468,-1.2476922,0.72234815,0.07269296,107.39979,-81.3317,3.1228328
2047666875000.0,0.1866784487836259,9.864341819196738,-0.0161002380854332,-1.2461652,0.713796,0.08582657,107.265526,-81.1645,3.136864
2047671857000.0,0.1810118695295829,9.866939004364696,-0.0111419811333656,-1.2501358,0.68691796,0.09101892,107.14574,-81.001884,3.150027
2047676817000.0,0.1753703133071715,9.869524720629864,-0.0062056193344385,-1.2144,0.6239988,0.092240654,107.04188,-80.85445,3.166819
2047682239000.0,0.1692032734204952,9.8723512838536,-0.0008094593195629,-1.1291844,0.56321776,0.08002335,106.94877,-80.724976,3.1815004
2047687185000.0,0.1635776409454858,9.874929701726083,0.004112969200093,-1.0048733,0.5317582,0.06841691,106.86789,-80.619865,3.1972933
2047691877000.0,0.1582409107447693,9.87737570590273,0.0087826082244007,-0.9392053,0.45540005,0.061086524,106.81935,-80.52629,3.214641
2047696861000.0,0.1525720566696688,9.879973933698214,0.0137428556449355,-0.80909103,0.3979787,0.054367006,106.776146,-80.48719,3.22879
2047702720000.0,0.1459079683819454,9.883028311036442,0.0195739330199182,-0.68477994,0.32742378,0.044898596,106.759384,-80.46709,3.2433202
2047707236000.0,0.1407714224342821,9.885382563990776,0.0240684108191027,-0.528093,0.07422013,-0.01160644,106.81292,-80.49685,3.2525082
2047711862000.0,0.1355097613284605,9.887794161459055,0.0286723643839891,-0.041233405,0.01740966,-0.029932396,106.828545,-80.64562,3.2634282
2047716836000.0,0.1298522813586472,9.890387176116906,0.0336226594621874,0.04917465,0.04062254,-0.021991149,106.89169,-80.73079,3.2727692
2047721866000.0,0.124131106399226,9.893009384345495,0.0386286876574704,-0.003970624,0.06352998,-0.019547688,106.96733,-80.90484,3.276788
2047726841000.0,0.1184724890188839,9.89560292031711,0.0435799779699024,-0.015882496,0.062002823,-0.0106901415,107.038,-81.106476,3.2837493
2047732236000.0,0.1123361592164829,9.898415408069242,0.0489492666604693,-0.020158553,0.07391469,-0.01740966,107.05923,-81.27129,3.2822168
2047736955000.0,0.1069687189314911,9.900875487717492,0.0536457770090856,0.0036651916,0.08827003,-0.021685716,107.07641,-81.43472,3.2829964
2047741880000.0,0.1013669720775846,9.903442958000952,0.0585473056098349,0.0012217305,0.0888809,-0.023823744,107.09121,-81.58632,3.2818098
2047746858000.0,0.0957049424656564,9.906038057913856,0.0635015816249678,-0.002443461,0.093767814,-0.016493361,107.097626,-81.73903,3.2807422
2047751825000.0,0.0900554243695441,9.908627423375364,0.0684449100635305,0.004886922,0.09682214,-0.017715093,107.10206,-81.8911,3.276124
2047757236000.0,0.0839008959986836,9.911448252147707,0.0738301225018359,-0.003970624,0.090713486,-0.014966198,107.10475,-82.03272,3.274298
2047761976000.0,0.0785095700925889,9.913919279384984,0.078547532769359,-0.00030543262,0.09682214,-0.010995574,107.10074,-82.175674,3.2713988
2047766872000.0,0.0729408081440151,9.916471631569312,0.0834201995773323,-0.0012217305,0.09162979,-0.01282817,107.09953,-82.311806,3.267744
2047772787000.0,0.0662130248666838,9.919555202478277,0.0893070100693996,0.0067195175,0.09743301,-0.0033597588,107.090836,-82.44572,3.26732
2047776828000.0,0.0616167489201587,9.92166183139512,0.0933287516075981,0.0012217305,0.089491755,-0.0076358155,107.0861,-82.574356,3.2626538
2047782222000.0,0.0554815565282863,9.924473797833487,0.0986970450639314,-0.009468411,0.08002335,-0.008857546,107.07785,-82.69875,3.2608867
2047787209000.0,0.0498092902215998,9.92707358957026,0.1036602781871672,-0.003970624,0.08582657,-0.0076358155,107.065796,-82.82281,3.2579145
2047791879000.0,0.0444975830525149,9.92950812484412,0.1083080220583345,-0.006414085,0.08582657,-0.017104227,107.05677,-82.940506,3.2516398
2047796865000.0,0.038826454156357,9.932107395267128,0.1132702599473366,-0.0106901415,0.083383106,-0.0033597588,107.04447,-83.05283,3.2518222
2047801826000.0,0.0331837605234169,9.93469363284606,0.1182076169804974,-0.0125227375,0.076358154,-0.013439035,107.03298,-83.16663,3.2423923
2047807216000.0,0.0270531177736594,9.937503514029377,0.123571929499896,-0.002443461,0.08582657,-0.0125227375,107.01536,-83.27617,3.239211
2047811886000.0,0.0217414106045745,9.939938049303231,0.1282196733710633,-0.011301007,0.08857546,-0.013133603,107.00064,-83.379295,3.2328672
2047816862000.0,0.0160816558137037,9.942532106588612,0.1331719589177289,-0.016187929,0.086132,-0.021685716,106.98363,-83.48421,3.2241542
2047821880000.0,0.0103741297806271,9.94514805905204,0.138166044302208,-0.015271631,0.080634214,-0.016187929,106.965195,-83.583855,3.2190504
2047826810000.0,0.004766695874077,9.947718135904314,0.1430725490741256,-0.01740966,0.08368854,-0.016187929,106.94433,-83.68104,3.2096536
2047832273000.0,-0.0014469778442764,9.95056607299234,0.148509513692581,-0.0125227375,0.0852157,-0.022296581,106.92442,-83.77785,3.200116
2047836857000.0,-0.006660867707892,9.952955775282568,0.153071667419654,-0.008857546,0.08307768,-0.01740966,106.903435,-83.86986,3.1935878
2047842629000.0,-0.0132260012796175,9.955964798323404,0.1588161594163087,-0.005192355,0.07574729,-0.008857546,106.88264,-83.96106,3.1863744
2047846827000.0,-0.0180008506791504,9.95815327350106,0.162994152729191,-0.011911872,0.0711658,-0.010079277,106.86093,-84.04909,3.1776218
2047851828000.0,-0.0236890407332389,9.960760363630516,0.1679713191316979,-0.0125227375,0.07452556,-0.015577064,106.83805,-84.136604,3.1698837
2047857293000.0,-0.0299049892726498,9.963609343346068,0.1734102742186207,-0.0033597588,0.06994407,-0.009468411,106.8177,-84.22107,3.1652508
2047861869000.0,-0.0351097798520358,9.96599487512619,0.1779644660718244,-0.0012217305,0.06627888,-0.0021380284,106.79549,-84.30224,3.1591897
2047866844000.0,-0.0407683972323779,9.968588411097803,0.1829157563842564,0.005192355,0.05681047,-0.0070249503,106.775635,-84.385475,3.1514552
2047871841000.0,-0.0464520376443516,9.971193415972207,0.1878889418498287,0.00030543262,0.056199603,-0.004276057,106.75324,-84.46208,3.1476533
2047882220000.0,-0.0582572215218531,9.976604131519824,0.1982184779609305,0.009162978,0.050396383,-0.00580322,106.734505,-84.54282,3.1413941
2047886891000.0,-0.0635700661014667,9.979039188107445,0.2028672170663314,0.005192355,0.04153884,-0.0027488936,106.71594,-84.6162,3.1371193
2047891810000.0,-0.0691649884922009,9.981603530508323,0.2077627742616787,-0.0018325958,0.03481932,-0.008857546,106.697975,-84.690735,3.1296933
2047896867000.0,-0.0749168735358973,9.984239814208516,0.2127956737812704,0.008246681,0.035430185,-0.01160644,106.679596,-84.76527,3.1239479
2047901822000.0,-0.0805527427056651,9.986822923904867,0.2177270594090292,0.009773844,0.03970624,-0.013744468,106.66152,-84.835266,3.1165895
2047912648000.0,-0.0928663490895009,9.992466666704606,0.2285014652225746,-0.008246681,0.02076942,-0.013439035,106.64926,-84.9013,3.1095147
2047916855000.0,-0.0976514351837922,9.99465983370613,0.2326884156435598,-0.002443461,0.01863139,-0.014660766,106.63044,-84.9719,3.100901
2047921804000.0,-0.1032804798903877,9.997239815519904,0.2376138298659167,-0.007941248,0.024129177,-0.012217305,106.61412,-85.033455,3.093598
2047926825000.0,-0.1064209406708022,9.997109949602216,0.2384978420299302,-0.027488936,0.021380283,-0.0018325958,106.600044,-85.09029,3.0883904
2047932236000.0,-0.1082370867374619,9.995293820874076,0.2369411449756422,-0.029321533,0.021380283,-0.0027488936,106.58323,-85.14986,3.0804405
2047941834000.0,-0.1114585559571623,9.992072382409342,0.2341798848893261,-0.028405234,0.029932396,0.015577064,106.53063,-85.18139,3.0630136
2047946866000.0,-0.1131474946020397,9.99038345988855,0.232732222797813,-0.03481932,0.03023783,0.0076358155,106.48151,-85.21532,3.0385907
2047951858000.0,-0.1148230076615047,9.988707962825,0.2312960683540862,-0.02443461,0.026572637,0.010079277,106.4312,-85.24752,3.022707
2047958232000.0,-0.1169623746969674,9.986568616213807,0.2294623246793437,-0.03390302,0.025045475,0.012217305,106.38098,-85.275024,3.0049102
2047961900000.0,-0.1181935008792826,9.9853375017849,0.2284070733773425,-0.032986723,0.017104227,0.015882496,106.33419,-85.305954,2.9888744
2047966877000.0,-0.1198639793442179,9.983667039267816,0.2269752343015355,-0.021685716,0.01740966,0.0106901415,106.28619,-85.337944,2.971166
2047971826000.0,-0.1215250598993646,9.982005974570798,0.225551450579179,-0.016798794,0.01282817,0.01038471,106.242256,-85.366806,2.9564662
2047976859000.0,-0.1232143341838773,9.980316716413576,0.2241035007964712,-0.015577064,0.007941248,0.009468411,106.19896,-85.397964,2.940464
2047982298000.0,-0.1250398781603256,9.97849118986537,0.2225387483887328,-0.01740966,0.0067195175,0.01038471,106.15636,-85.42878,2.9252608
2047986826000.0,-0.126559654429007,9.976971428105802,0.2212360826593268,-0.020158553,0.01740966,0.015271631,106.11212,-85.45862,2.9111483
2047991818000.0,-0.128235167488472,9.975295931042252,0.2197999282156,-0.01863139,0.012217305,0.004581489,106.07347,-85.49122,2.8934598
2047996796000.0,-0.1299059815930426,9.973625132888737,0.2183678014485983,-0.015271631,0.014660766,0.011301007,106.02968,-85.51914,2.882081
2048001795000.0,-0.1315838441299548,9.971947286370169,0.2169296331665089,-0.024129177,0.017715093,0.009773844,105.98796,-85.54776,2.8657176
2048007115000.0,-0.1333694469898013,9.970161700557249,0.2153991160109347,-0.032070424,0.01740966,0.009773844,105.94681,-85.575386,2.8519857
2048011873000.0,-0.1349664203746038,9.968564742418552,0.2140302813067576,-0.032375857,0.008246681,0.003970624,105.907906,-85.603745,2.836529
2048016819000.0,-0.1366264940108446,9.966904684630828,0.212607360657985,-0.025961773,0.00030543262,0.002443461,105.869194,-85.63074,2.8225286
2048021800000.0,-0.1382983150343211,9.96523287956802,0.2111743708173994,-0.03145956,-0.00030543262,-0.002443461,105.83158,-85.65641,2.8062449
2048027788000.0,-0.1403081251705544,9.963223088619191,0.2094516759437944,-0.032986723,-0.00061086525,-0.0018325958,105.79646,-85.68322,2.7915094
2048032250000.0,-0.1418057492233053,9.961725478864071,0.2081679978332357,-0.04428773,0.004581489,-0.005192355,105.76047,-85.70795,2.7744973
2048036861000.0,-0.1433533835817174,9.960177859280732,0.2068414537346731,-0.037873644,0.007941248,-0.0012217305,105.72531,-85.73437,2.760112
2048041816000.0,-0.1450164779746759,9.958514780765128,0.2054159438651486,-0.035124753,0.0070249503,-0.0067195175,105.690544,-85.75958,2.7423892
2048046792000.0,-0.1466866207999759,9.956844653884474,0.2039843924805363,-0.040927973,0.008552114,-0.010079277,105.654434,-85.7829,2.7266107
2048051870000.0,-0.1483909988680775,9.955140292087858,0.202523496594069,-0.05009095,-0.0061086523,-0.008857546,105.62363,-85.80591,2.711178
2048057276000.0,-0.1502054667365606,9.953325841541874,0.2009682379957543,-0.037873644,-0.0061086523,0.0015271631,105.58852,-85.83092,2.6975071
2048062259000.0,-0.1518779590393078,9.951653365206202,0.1995346727727794,-0.028405234,-0.005497787,-0.0061086523,105.55805,-85.85613,2.6795957
2048066879000.0,-0.1534286141544377,9.950102724894984,0.1982055394534649,-0.026572637,-0.0036651916,-0.004581489,105.527245,-85.878426,2.6674798
2048071866000.0,-0.1551024490157261,9.948428906013588,0.1967708234657114,-0.03359759,-0.013744468,-0.00580322,105.500145,-85.9024,2.6528592
2048076866000.0,-0.1567806471922736,9.946750723858589,0.1953323674924273,-0.032070424,-0.01160644,0.0018325958,105.46917,-85.92632,2.6412556
2048082271000.0,-0.1585947794211214,9.944936608949035,0.1937773965853072,-0.023518313,-0.022296581,-0.004276057,105.44523,-85.952675,2.6259966
2048086968000.0,-0.1601712787881701,9.94336012463263,0.1924261110440042,-0.010995574,-0.01985312,-0.003970624,105.41699,-85.9773,2.614706
2048091886000.0,-0.1618219545146221,9.941709464664974,0.191011245748682,-0.013744468,-0.024740042,-0.00061086525,105.39413,-86.00061,2.6030574
2048097853000.0,-0.1638247162185139,9.9397067220812,0.1892945923901647,-0.016187929,-0.018325957,-0.0030543262,105.3676,-86.027275,2.589841
2048101868000.0,-0.1651723093542815,9.938359141810736,0.1881395122436177,-0.008857546,-0.013133603,0.0021380284,105.34279,-86.05298,2.580047
2048107272000.0,-0.166986105943494,9.936545362537611,0.1865848290276922,-0.009773844,-0.014966198,0.0030543262,105.31845,-86.0772,2.5685468
2048111870000.0,-0.168529376986647,9.935002106227875,0.1852620249146602,-0.02076942,-0.013133603,0.00061086525,105.29175,-86.1001,2.5575738
2048116813000.0,-0.1701884437039818,9.933343055349445,0.1838399673394716,-0.014966198,-0.016187929,0.008552114,105.26701,-86.12392,2.5500562
2048121787000.0,-0.1718579152500112,9.931673599741652,0.1824089913372486,-0.013439035,-0.015882496,0.008246681,105.24118,-86.14612,2.5395715
2048126800000.0,-0.1735428473430562,9.93015443113439,0.1822908519743833,-0.015271631,-0.015271631,0.008552114,105.21621,-86.16692,2.531636
2048132254000.0,-0.1753771735253834,9.928582147484232,0.1828149449738866,-0.015882496,-0.022907447,0.009162978,105.19374,-86.188,2.5238845
2048136863000.0,-0.1769273035903533,9.927253461135944,0.1832578391129975,-0.018020526,-0.027488936,0.011911872,105.12945,-86.19756,2.5115933
2048141819000.0,-0.1785941390431611,9.925824741339431,0.1837340776361985,-0.020158553,-0.03268129,0.018325957,105.068535,-86.20643,2.500846
2048146804000.0,-0.1802707279721858,9.924387661398834,0.1842131028658509,-0.029321533,-0.03023783,0.025045475,105.00774,-86.21299,2.491104
2048151856000.0,-0.1819698507945395,9.922931266642586,0.1846985663483391,-0.02076942,-0.035430185,0.020158553,104.95167,-86.22418,2.4801602
2048157262000.0,-0.1837880332920937,9.921372820472298,0.1852180468681988,-0.02076942,-0.04886922,0.015271631,104.89819,-86.230644,2.471271
2048161973000.0,-0.1853724686872062,9.920014729479288,0.1856707425265523,-0.014660766,-0.047036625,0.017104227,104.84274,-86.2402,2.462835
2048167759000.0,-0.1873184553558796,9.918346736593367,0.1862267385102572,-0.014049901,-0.05100725,0.014660766,104.793785,-86.250465,2.4521856
2048176863000.0,-0.1903803742344837,9.91572222791148,0.1871015721493254,0.012217305,-0.036651913,0.021991149,104.739716,-86.2656,2.444684
2048182277000.0,-0.1922012473461667,9.914161475494549,0.1876218214157924,0.011301007,-0.03848451,0.008552114,104.69253,-86.27947,2.4309547
2048187208000.0,-0.1938596746298219,9.912739962718804,0.1880956576058458,-0.0009162979,-0.045814894,0.010079277,104.64324,-86.292465,2.423517
2048191833000.0,-0.1954151859230495,9.911406663877225,0.1885400892381712,0.0012217305,-0.027183503,0.0106901415,104.588,-86.31104,2.411803
2048196867000.0,-0.1971082548636133,9.909955458175926,0.189023823040793,0.0027488936,-0.029321533,0.008246681,104.541534,-86.32714,2.4002104
2048201867000.0,-0.1987898886941296,9.908514054022866,0.1895042896703341,-0.005192355,-0.039095376,0.008246681,104.49269,-86.34115,2.389481
2048207270000.0,-0.2006070622113855,9.906956472695072,0.1900234819102161,-0.01863139,-0.04550946,0.009773844,104.44432,-86.354515,2.3786116
2048211950000.0,-0.2021810714767488,9.90560731840781,0.1904731986754664,-0.014049901,-0.04795292,0.013439035,104.398315,-86.36972,2.3685715
2048216865000.0,-0.2038341175321463,9.904190418125356,0.1909454973723052,-0.018936822,-0.03970624,0.015271631,104.35185,-86.380135,2.3585289
2048221855000.0,-0.2055123880950015,9.902751896780602,0.1914250030685871,-0.028405234,-0.047036625,0.010079277,104.31129,-86.391266,2.3478618
2048226869000.0,-0.2071987305002433,9.901306456695917,0.1919068150046908,-0.02443461,-0.058643065,0.015271631,104.27017,-86.40212,2.3407044
2048232288000.0,-0.2090212852457569,9.899744262874831,0.1924275447377874,-0.019547688,-0.057726767,0.021685716,104.22834,-86.411995,2.3324757
2048237649000.0,-0.2108243330388364,9.898198789341922,0.1929427010579812,-0.025350908,-0.062002823,0.017104227,104.19201,-86.42161,2.3228836
2048241853000.0,-0.2122382507635345,9.896986856730033,0.1933466774000993,-0.033292156,-0.061086524,0.0106901415,104.15448,-86.431076,2.3145251
2048246865000.0,-0.2139239205152441,9.895541993207006,0.1938282971495512,-0.029626964,-0.079107046,0.017715093,104.12407,-86.44027,2.309075
2048251819000.0,-0.2155900833145196,9.894113849972156,0.1943043434861004,-0.027488936,-0.08368854,0.010079277,104.09044,-86.451416,2.2975142
2048257295000.0,-0.2174318086857011,9.892535224143726,0.1948305505387737,-0.025350908,-0.09162979,0.0125227375,104.06317,-86.46025,2.291186
2048261925000.0,-0.2189890016127592,9.891200483897997,0.1952754626377287,-0.029932396,-0.087964594,0.0106901415,104.03449,-86.47031,2.281478
2048266836000.0,-0.2206407023610923,9.88978473673886,0.1957473769612638,-0.014966198,-0.089186326,0.0018325958,104.00992,-86.485916,2.2707272
2048271882000.0,-0.2223378072228493,9.888330071667594,0.1962322638837966,-0.018325957,-0.094989546,-0.0061086523,103.98602,-86.49669,2.2598348
2048276823000.0,-0.2239995977741655,9.886905676083542,0.196707061007109,-0.01985312,-0.09468412,-0.01160644,103.96116,-86.51219,2.2472265
2048283196000.0,-0.2261430082545416,9.885068462350054,0.197319463773122,-0.005497787,-0.08979719,-0.0125227375,103.93699,-86.53087,2.2339454
2048286854000.0,-0.2273732915649473,9.884013931071678,0.1976709731592942,-0.01282817,-0.09101892,-0.01863139,103.91491,-86.54622,2.2179852
2048296796000.0,-0.2307170522735459,9.881147843053736,0.1986263330054735,-0.0018325958,-0.100792766,-0.027183503,103.894226,-86.5691,2.201404
2048301792000.0,-0.2323973407969978,9.879707592024,0.1991064152617108,-0.0076358155,-0.09162979,-0.01740966,103.868576,-86.58416,2.188441
2048307232000.0,-0.2342269584045995,9.878139344305474,0.1996291629546515,0.0015271631,-0.095294975,-0.01160644,103.84974,-86.60685,2.1726112
2048311835000.0,-0.2357750705089729,9.876812387642168,0.2000714805338069,-0.0033597588,-0.10629055,-0.019547688,103.8307,-86.62562,2.1559355
2048316858000.0,-0.2374644398551095,9.875364353030006,0.2005541573098438,-0.003970624,-0.12003502,-0.0106901415,103.81343,-86.64293,2.1460505
2048321779000.0,-0.2391195038711037,9.873945723062567,0.201027032566638,0.004276057,-0.122478485,-0.014660766,103.7965,-86.66459,2.1305263
2048326803000.0,-0.2354627027817856,9.871313507239126,0.2117981276709724,0.0067195175,-0.12736541,-0.00580322,103.78402,-86.680565,2.1216464
2048332313000.0,-0.2301828724010686,9.868145600432246,0.2260536686073061,0.011301007,-0.13591751,-0.0076358155,103.773544,-86.70116,2.1088922
2048336868000.0,-0.2258181487378806,9.86552675914271,0.2378384215955094,-0.00030543262,-0.13683382,-0.0070249503,103.72503,-86.70124,2.0937464
2048341812000.0,-0.2210806747991755,9.862684267082235,0.2506296002505428,0.0012217305,-0.14294247,-0.010079277,103.681404,-86.70642,2.0775378
2048351788000.0,-0.2115214029519826,9.856948688442412,0.2764396322615891,-0.011911872,-0.13500121,-0.018325957,103.63498,-86.70678,2.0602002
2048357283000.0,-0.2062559459752058,9.85378940570125,0.2906563650102558,-0.006414085,-0.13652839,-0.025045475,103.59387,-86.712074,2.0429668
2048361863000.0,-0.2018672666387841,9.851156190968853,0.3025057983112373,-0.01985312,-0.13775012,-0.03023783,103.551384,-86.71153,2.0241375
2048366816000.0,-0.1971211686577149,9.848308524468948,0.3153202618788709,-0.021380283,-0.13988814,-0.027488936,103.51041,-86.71479,2.0061612
2048371791000.0,-0.1923539896842,9.845448209339324,0.3281916441217494,-0.021685716,-0.13408493,-0.028710667,103.46847,-86.71699,1.9859898
2048376839000.0,-0.1875168601448425,9.84254592375654,0.3412518928779404,-0.03176499,-0.14508049,-0.027794369,103.4327,-86.71587,1.9679387
2048382305000.0,-0.1822791917490169,9.8394033142091,0.3553935964637843,-0.033292156,-0.13775012,-0.029932396,103.390915,-86.71751,1.9488186
2048386865000.0,-0.1779096769511821,9.836781598230992,0.3671912855145433,-0.038179077,-0.13897185,-0.028710667,103.355446,-86.71548,1.9316239
2048391815000.0,-0.173166453650901,9.833935656544227,0.3799979874446434,-0.043982297,-0.14172074,-0.028099801,103.319145,-86.7135,1.9140248
2048396798000.0,-0.1683916088619513,9.83107074191289,0.3928900673876109,-0.041233405,-0.12950343,-0.020463986,103.27959,-86.711205,1.8990307
2048401798000.0,-0.1636004742152026,9.828196053340404,0.4058261299432676,-0.051923547,-0.11362094,-0.01740966,103.24058,-86.70529,1.8833045
2048407288000.0,-0.1583398083730726,9.825039645287813,0.4200299266293787,-0.05131268,-0.11942416,-0.009773844,103.20492,-86.70098,1.8715109
2048411864000.0,-0.1539549619443683,9.822408730306272,0.4318690110803157,-0.0571159,-0.11728613,-0.0021380284,103.16329,-86.69255,1.8605477
2048416816000.0,-0.1492098221902284,9.819561638744084,0.4446808874354381,-0.056505036,-0.10293079,0.011911872,103.12048,-86.68397,1.853721
2048422567000.0,-0.1436990591195381,9.81625517194801,0.4595599465869545,-0.06078109,-0.10170906,0.016187929,103.08171,-86.67372,1.8465521
2048426805000.0,-0.1396380933929539,9.813818585913973,0.4705245532091291,-0.06047566,-0.09254608,0.031154128,103.03714,-86.661415,1.8461266
2048432298000.0,-0.1343745528700359,9.810660453048238,0.4847361115327736,-0.06078109,-0.09682214,0.039095376,102.99701,-86.649055,1.8450211
2048436928000.0,-0.1299379621871466,9.807998491430114,0.4967149054593117,-0.051618114,-0.10629055,0.04153884,102.95656,-86.638306,1.8463486
2048441872000.0,-0.1252004882484416,9.80515599936964,0.5095060841143452,-0.03573562,-0.124311075,0.048563786,102.9205,-86.6279,1.85117
2048446884000.0,-0.1203978548785407,9.80227441154458,0.5224731932201354,-0.035430185,-0.13103059,0.03726278,102.88493,-86.61914,1.8511292
2048451818000.0,-0.1156699632091292,9.79943766886125,0.5352384997500574,-0.018325957,-0.15057829,0.03481932,102.85865,-86.61627,1.8556991
2048457317000.0,-0.110400673324635,9.79627608636923,0.5494655813487688,-0.008552114,-0.17012598,0.025961773,102.83512,-86.61496,1.8550636
2048461925000.0,-0.1059851636341915,9.793626773380828,0.561387456600062,0.0018325958,-0.1826487,0.027488936,102.81549,-86.616936,1.8566746
2048466876000.0,-0.1012409821069809,9.790780256756353,0.5741967457426732,0.029932396,-0.18081611,0.014660766,102.797935,-86.62925,1.8515922
2048471873000.0,-0.0964527221410203,9.787907292997009,0.5871250466607966,0.03726278,-0.18570304,0.012217305,102.78592,-86.63723,1.8500525
2048476819000.0,-0.0917133317484566,9.785063651061105,0.5999213997408522,0.05681047,-0.18906279,0.008246681,102.773224,-86.656906,1.8443447
2048482316000.0,-0.0864459583178211,9.781903218444514,0.6141433069145412,0.079107046,-0.17562376,-0.00061086525,102.75727,-86.67987,1.8363732
2048486927000.0,-0.0820275739465895,9.779252180642969,0.6260729438033679,0.09712757,-0.15943582,-0.004581489,102.74144,-86.70592,1.8287145
2048492188000.0,-0.0769863420712806,9.776227433326996,0.6396842688244299,0.10567969,-0.1386664,-0.015271631,102.72065,-86.73695,1.8164514
2048496866000.0,-0.0725037564957825,9.773537874698578,0.6517872489515023,0.094989546,-0.10262536,-0.028405234,102.690956,-86.76812,1.8020597
2048501817000.0,-0.067759574968572,9.7706913580741,0.6645965380941136,0.087659165,-0.08582657,-0.033292156,102.660934,-86.80187,1.787185
2048507314000.0,-0.0624922015379366,9.76753092545751,0.6788184452678026,0.08735373,-0.07971791,-0.038179077,102.62415,-86.83631,1.7685653
2048511857000.0,-0.0581389765979007,9.76491898342055,0.6905721517058723,0.07513642,-0.076358154,-0.049785517,102.583916,-86.86758,1.7468352
2048516833000.0,-0.0533708393974565,9.762058093353213,0.7034461211612618,0.058337633,-0.07513642,-0.042760566,102.5428,-86.89503,1.7294153
2048521776000.0,-0.0486343236856808,9.759216176230453,0.7162347126037841,0.029626964,-0.09865474,-0.03848451,102.508484,-86.91859,1.7087003
2048526802000.0,-0.0454479904308723,9.759781016596223,0.7137944235850244,0.019547688,-0.12156218,-0.038789943,102.47416,-86.94188,1.6891112
2048532168000.0,-0.0423671987598992,9.761064678876531,0.7081463052624322,0.02443461,-0.14630222,-0.034513887,102.44746,-86.96033,1.6728039
2048536845000.0,-0.0396819839546176,9.762183517580407,0.7032234112268817,0.025045475,-0.16676621,-0.02687807,102.41167,-86.9079,1.6761949
2048541878000.0,-0.0367923781998641,9.763387519119131,0.6979258004334402,0.043066,-0.19303341,-0.014966198,102.38576,-86.86082,1.6823825
2048546815000.0,-0.0339578891056423,9.764568555399018,0.6927292368556098,0.065973446,-0.20005837,0.008552114,102.36104,-86.813484,1.6939834
2048551794000.0,-0.0310992864724378,9.765759638979649,0.6874884651209496,0.07696902,-0.204029,0.032070424,102.343666,-86.76708,1.7090712
2048557161000.0,-0.0280179206695842,9.7670435404814,0.6818392942231948,0.09162979,-0.1966986,0.04886922,102.32556,-86.72585,1.7284365
2048561830000.0,-0.0253372989193469,9.768160465413706,0.6769248207889451,0.0852157,-0.18600847,0.057421334,102.30806,-86.68116,1.7514288
2048566912000.0,-0.0224195607024469,9.769376188803292,0.6715756338125356,0.06963864,-0.16065755,0.061086524,102.28471,-86.637276,1.7766323
2048571804000.0,-0.0196109075428494,9.7705464601181,0.6664264361170229,0.063224554,-0.1337795,0.06383542,102.258446,-86.59425,1.8028715
2048576795000.0,-0.0167454153270785,9.771740414356085,0.6611730334804112,0.053450707,-0.09315695,0.07269296,102.22167,-86.54663,1.8303834
2048582294000.0,-0.0135882641159937,9.773055893088737,0.6553849226611912,0.024129177,-0.062002823,0.08368854,102.180824,-86.493515,1.8580447
2048586863000.0,-0.0109650555538103,9.774148895876422,0.6505757067432031,-0.008246681,-0.038789943,0.090713486,102.13174,-86.438255,1.885592
2048591865000.0,-0.0080932478873535,9.775345481550312,0.6453107257798028,-0.034208454,-0.015882496,0.11056661,102.07487,-86.37579,1.9183794
2048601795000.0,-0.0023921183135997,9.777720950511076,0.6348586544150355,-0.07544186,0.010995574,0.13041973,102.01168,-86.30287,1.9516087
2048606903000.0,0.0005405473321942,9.778942893658265,0.6294821004843979,-0.09590584,0.025045475,0.14049901,101.94719,-86.2296,1.9862735
2048611826000.0,0.0033669985800885,9.780120580837904,0.6243002729588442,-0.13530666,0.036651913,0.15057829,101.87734,-86.14143,2.024792
2048616823000.0,0.0062359355871426,9.781315970404563,0.6190405548712569,-0.16035213,0.032986723,0.16187929,101.809654,-86.052956,2.065082
2048621867000.0,0.0091318567925821,9.782522603379196,0.6137313657510266,-0.17928895,0.035124753,0.1740966,101.73895,-85.95779,2.1067019
2048626868000.0,0.0120030903271584,9.78371894983164,0.6084674373627889,-0.18081611,0.036651913,0.18875736,101.67135,-85.86189,2.1507592
2048632255000.0,0.0150959387676228,9.785007635762316,0.6027972149617817,-0.18020524,0.036651913,0.19792034,101.60557,-85.76415,2.1950922
2048636849000.0,0.0177335006268197,9.78610661908616,0.5979616846647283,-0.18509217,0.03756821,0.20861048,101.540886,-85.665535,2.2422915
2048641847000.0,0.0206030117657544,9.787302247874264,0.5927009140019783,-0.18051068,0.03604105,0.21288654,101.47884,-85.572174,2.2885783
2048646796000.0,0.0234443904425426,9.788486154811508,0.5874917195221966,-0.15790866,0.055588737,0.1957823,101.41271,-85.486786,2.3296096
2048651792000.0,0.0263127533177162,9.78968130515672,0.5822330540097719,-0.14569137,0.07238753,0.1966986,101.34927,-85.39973,2.37532
2048656917000.0,0.0292551792054794,9.790907315068493,0.5768386063013698,-0.11911872,0.103847094,0.18081611,101.27859,-85.329544,2.409118
2048661889000.0,0.0321097629155201,9.792096724098997,0.571605202592848,-0.105374254,0.11453723,0.1554652,101.21112,-85.263145,2.439047
2048666853000.0,0.0349597535705164,9.793284219357933,0.5663802194856269,-0.0983493,0.14508049,0.14966199,101.13082,-85.20351,2.467687
2048671798000.0,0.0377988357197825,9.79446716940939,0.5611752353064956,-0.06841691,0.15790866,0.1337795,101.055145,-85.16026,2.4853373
2048676795000.0,0.0406677727268367,9.79566255897605,0.5559155172189083,-0.053450707,0.17256944,0.118202426,100.972275,-85.11797,2.4998329
2048681925000.0,0.0436130692740025,9.796889764995054,0.5505158066346932,-0.032986723,0.18051068,0.10415252,100.88988,-85.08832,2.5093803
2048686924000.0,0.0464831545448177,9.798085633004606,0.5452539833967807,-0.015577064,0.20372356,0.08979719,100.801125,-85.065544,2.5132055
2048691825000.0,0.0492969748913401,9.79925805731243,0.5400953125248045,-0.0125227375,0.2098322,0.08246681,100.71693,-85.04667,2.5148275
2048696794000.0,0.0521498362057392,9.800446748678596,0.5348650665417704,-0.018325957,0.22021692,0.07941248,100.626915,-85.03259,2.5127575
2048701803000.0,0.0550256627953598,9.80164500890261,0.5295927175522317,-0.022602014,0.2098322,0.08155051,100.54292,-85.02107,2.5102592
2048707042000.0,0.0580335397175044,9.80289829005925,0.5240782762752916,-0.039095376,0.19486602,0.0852157,100.459114,-85.006454,2.5070934
2048711863000.0,0.0608014295135837,9.804051576651378,0.5190038114163245,-0.04795292,0.18875736,0.0852157,100.37752,-84.99398,2.5034082
2048716845000.0,0.0636617545424297,9.805243377896346,0.5137598819561764,-0.051923547,0.19058995,0.08399397,100.2995,-84.97939,2.5004241
2048721772000.0,0.0664905023178461,9.80642202196177,0.5085738441299722,-0.06505715,0.19394971,0.0842994,100.224365,-84.96123,2.4978416
2048726808000.0,0.046779512131613,9.807818741969712,0.5128300638122946,-0.06963864,0.19242255,0.0729984,100.15196,-84.94711,2.4915385
2048732061000.0,0.0207163237351798,9.809322391630964,0.5195964679234831,-0.06658431,0.18875736,0.07147124,100.08058,-84.931335,2.4879868
2048736845000.0,-0.0030198828683869,9.810691791969711,0.5257587518122945,-0.04734206,0.18600847,0.07238753,99.96005,-84.91483,2.4802198
2048741877000.0,-0.0279865617206336,9.812132181289227,0.5322404852003587,-0.033292156,0.18417588,0.065973446,99.84295,-84.90065,2.4700232
2048747638000.0,-0.0565702335942014,9.813781243862708,0.5396612455438876,-0.029321533,0.17379116,0.056199603,99.73147,-84.89051,2.4594162
2048751804000.0,-0.0772401827393643,9.814973744241309,0.5450274818902062,0.0036651916,0.17348573,0.050701816,99.6199,-84.89273,2.4481397
2048756928000.0,-0.1026633271032181,9.816440468182725,0.5516277207376706,0.017104227,0.17165314,0.040317107,99.51415,-84.894165,2.433146
2048761899000.0,-0.1273273494749427,9.817863396502938,0.5580308798537412,0.046731193,0.17837265,0.033292156,99.40805,-84.909096,2.417622
2048766820000.0,-0.1517432927642722,9.819272012528645,0.5643696338288333,0.063224554,0.2012801,0.02565634,99.299904,-84.92627,2.399004
2048771808000.0,-0.1764916620240111,9.820699807028992,0.5707946906928365,0.06566802,0.22113322,0.027183503,99.19241,-84.947525,2.3813376
2048776795000.0,-0.2012350697021022,9.822127315283453,0.5772184594540202,0.055283304,0.2415972,0.0125227375,99.0805,-84.97325,2.3568492
2048781932000.0,-0.2267227146273787,9.82359776042144,0.5838354436381389,0.061391957,0.25870144,-0.0030543262,98.96567,-85.00401,2.3326502
2048786915000.0,-0.2514462759788782,9.825024123692335,0.5902540599880443,0.069027774,0.2687807,-0.02107485,98.849304,-85.0352,2.3038836
2048791820000.0,-0.2757828339618412,9.8264281597838,0.5965722043180234,0.06841691,0.29046643,-0.028710667,98.72677,-85.06681,2.273764
2048796806000.0,-0.3005212800582844,9.827855381792368,0.6029946849763874,0.059864793,0.32162055,-0.043066,98.60111,-85.10173,2.2370796
2048801795000.0,-0.3252746108996712,9.829283462538609,0.6094210299432101,0.06169739,0.35094208,-0.056505036,98.47189,-85.140144,2.1990323
2048807046000.0,-0.3513278761328086,9.83078653970808,0.6161848578487596,0.053450707,0.38637227,-0.06658431,98.334404,-85.175385,2.1581495
2048811851000.0,-0.3751682759509814,9.83216195121052,0.6223741918967819,0.043676864,0.408058,-0.084910266,98.19512,-85.21357,2.1119525
2048817833000.0,-0.4048484573687357,9.833874274125732,0.6300796229634353,0.040317107,0.41508293,-0.11789699,98.05281,-85.25455,2.0595407
2048821810000.0,-0.424580667582445,9.835012674031084,0.6352024078768557,0.05467244,0.41783184,-0.12797627,97.90789,-85.29713,2.0095136
2048826794000.0,-0.4493091905155923,9.836439323547872,0.6416223123295806,0.06719518,0.43066,-0.13164146,97.76106,-85.34162,1.9532676
2048832080000.0,-0.4755361111064063,9.837952419323502,0.6484312238338149,0.08093964,0.41783184,-0.14477506,97.62351,-85.39233,1.8937074
2048836867000.0,-0.4992872024549168,9.83932267839992,0.654597372031085,0.076052725,0.41447207,-0.14996742,97.4818,-85.44066,1.8366791
2048841854000.0,-0.5240306101330079,9.84075018665438,0.6610211407922686,0.069027774,0.42119157,-0.15424347,97.34325,-85.49299,1.7780606
2048846807000.0,-0.5486053240350703,9.84216796254857,0.667401114057587,0.060170226,0.4373795,-0.15699236,97.20512,-85.54352,1.7201235
2048851791000.0,-0.5733338469682177,9.843594612065358,0.6738210185103118,0.056505036,0.43554693,-0.16218472,97.072426,-85.593895,1.6623219
2048857086000.0,-0.5996054217938627,9.845110284054,0.6806415229399223,0.065973446,0.43249258,-0.16157386,96.937546,-85.64476,1.6068895
2048861865000.0,-0.6233168204891901,9.846478253163296,0.6867973663146358,0.055283304,0.3744604,-0.16279559,96.82117,-85.68971,1.5523863
2048866853000.0,-0.6480651897489291,9.847906047663644,0.693222423178639,0.040317107,0.3652974,-0.18203785,96.694046,-85.7374,1.4937028
2048871800000.0,-0.6726101341611039,9.849322106082496,0.6995946678270399,0.029932396,0.4804455,-0.19333886,96.54953,-85.7822,1.4373078
2048876789000.0,-0.6973634650024909,9.850750186828732,0.7060210127938628,0.037873644,0.59223384,-0.19333886,96.4104,-85.8282,1.3807094
2048882095000.0,-0.723689617226263,9.852269007522167,0.7128556863544884,0.03634648,0.6435465,-0.18600847,96.25798,-85.86902,1.3237981
2048887749000.0,-0.7517423998635051,9.853887441785394,0.7201386196963236,0.032375857,0.65576386,-0.18600847,96.08766,-85.912,1.265264
2048891829000.0,-0.7719856529869484,9.855055325017435,0.7253940792001594,0.040011674,0.6407976,-0.18600847,95.91332,-85.95726,1.2101535
2048896800000.0,-0.7966496753586729,9.85647825333765,0.73179723831623,0.035430185,0.64476824,-0.2125811,95.73357,-86.00056,1.1485833
2048901793000.0,-0.8214228525266516,9.85790747906745,0.738228735694331,0.047036625,0.655153,-0.23609942,95.559006,-86.05016,1.0897712
2048906967000.0,-0.8470940759729004,9.859388515303378,0.7448933796827737,0.053450707,0.68111473,-0.2574797,95.382095,-86.09896,1.0255189
2048911862000.0,-0.8713810181393844,9.860789688935936,0.7511986429845572,0.052534413,0.68325275,-0.27275133,95.21208,-86.149956,0.9586464
2048916833000.0,-0.8960450405111089,9.862212617256152,0.7576018021006277,0.043066,0.6789767,-0.2941316,95.039734,-86.20187,0.8858202
2048921773000.0,-0.9205552538517487,9.86362667195377,0.7639650300292917,0.013133603,0.6432411,-0.31490102,94.878746,-86.24816,0.81167376
2048926791000.0,-0.9229045099627384,9.861883626944246,0.7682127807236546,-0.0070249503,0.61911196,-0.3173445,94.71834,-86.29402,0.7389924
2048932118000.0,-0.913221510209734,9.858316213754833,0.7715253878838796,-0.02565634,0.5693264,-0.32559118,94.57845,-86.33272,0.6623809
2048936877000.0,-0.9045709759832372,9.855129181772773,0.7744847829421696,-0.0421497,0.5109888,-0.3295618,94.41367,-86.33174,0.52587724
2048941859000.0,-0.8955150899743264,9.851792809985714,0.7775828510616065,-0.048563786,0.49877146,-0.3173445,94.25267,-86.32455,0.39562985
2048946879000.0,-0.8863901305675155,9.848430990160134,0.7807045495681448,-0.048563786,0.54183745,-0.2996294,94.095116,-86.311516,0.2697422
2048951858000.0,-0.8773396977215967,9.845096627428749,0.7838007521307054,-0.02321288,0.56413406,-0.28160888,93.949265,-86.30127,0.15173964
2048957600000.0,-0.8669023437546827,9.841251294871284,0.7873714279921681,-0.002443461,0.5329799,-0.26206118,93.80868,-86.2878,0.042869687
2048961886000.0,-0.8591115915599432,9.83838102400028,0.7900366869162763,0.014966198,0.5027421,-0.25320363,93.66396,-86.27932,-0.061176307
2048966875000.0,-0.8500429815040508,9.83503996441665,0.7931391080017582,0.018020526,0.42913285,-0.2764165,93.54318,-86.27131,-0.16452411
2048971857000.0,-0.84098709549514,9.83170359262959,0.7962371761211952,-0.013133603,0.43188173,-0.2770274,93.410835,-86.25769,-0.2570055
2048976862000.0,-0.8318894019032896,9.828351818082377,0.7993495468433514,-0.048258353,0.52778757,-0.23884831,93.274414,-86.24332,-0.34255478
2048982141000.0,-0.822293652758159,9.824816549783725,0.8026323050935537,-0.03604105,0.623388,-0.21380283,93.139404,-86.23281,-0.4293343
2048986856000.0,-0.8137230982555468,9.82165898395153,0.8055643386509895,-0.027488936,0.6560693,-0.19028452,92.99662,-86.212685,-0.5039156
2048991822000.0,-0.8046962957825939,9.818333327128055,0.8086524571337522,-0.033292156,0.64476824,-0.1826487,92.84163,-86.19299,-0.5747188
2048996791000.0,-0.7956640401466489,9.815005661248913,0.8117424411733914,-0.007330383,0.62980205,-0.19822577,92.68113,-86.18545,-0.64409024
2049001796000.0,-0.7865663465547985,9.811653886701697,0.8148548118955476,0.0143553335,0.6249151,-0.20189096,92.52334,-86.17682,-0.7060937
2049007108000.0,-0.7769106126167546,9.808096518790643,0.8181580912713905,0.032375857,0.6026186,-0.19639318,92.37744,-86.17485,-0.7674511
2049011867000.0,-0.768260078390258,9.804909486808588,0.8211174863296804,0.062308256,0.5934556,-0.20525073,92.23196,-86.181694,-0.83224165
2049016818000.0,-0.7592605417322658,9.801593875263478,0.8241962770280611,0.086132,0.5882632,-0.21868975,92.09392,-86.19205,-0.89465445
2049021798000.0,-0.7502082911653496,9.798258842846868,0.8272931014429138,0.10140363,0.57451874,-0.22235495,91.963,-86.20833,-0.95465696
2049026873000.0,-0.7409833571036832,9.794860190333956,0.8304490018255197,0.10567969,0.5476407,-0.22388211,91.839485,-86.22709,-1.0156561
2049032111000.0,-0.731462134519445,9.791352379129496,0.8337062641317443,0.11942416,0.52687126,-0.21410827,91.71983,-86.25282,-1.0724499
2049036862000.0,-0.7228261420609272,9.788170704629232,0.8366606843716972,0.112399206,0.5207626,-0.19303341,91.60515,-86.27441,-1.1244204
2049041825000.0,-0.7138047927509665,9.784847056861432,0.8397469372975835,0.118507855,0.50335294,-0.17012598,91.50094,-86.30385,-1.1708236
2049046794000.0,-0.7047725371150215,9.781519390982288,0.8428369213372227,0.1020145,0.4978552,-0.14630222,91.39615,-86.32689,-1.2096361
2049051801000.0,-0.6956712080811763,9.778166277064622,0.8459505357639632,0.1001819,0.49388456,-0.13225232,91.29705,-86.35644,-1.2432499
2049057103000.0,-0.6860336513531062,9.774615606005812,0.8492475966168846,0.105068825,0.46609017,-0.122783914,91.20737,-86.385,-1.2699813
2049061857000.0,-0.6773922057315964,9.771431922449876,0.8522038824137139,0.10720685,0.44837508,-0.11636983,91.11708,-86.41327,-1.2929467
2049066817000.0,-0.6683763095846278,9.76811028373775,0.8552882697827238,0.10629055,0.4184427,-0.09896017,91.03907,-86.443924,-1.3087968
2049072770000.0,-0.6575554164872681,9.764123647597977,0.8589901564778278,0.12797627,0.3924809,-0.086132,90.96605,-86.481064,-1.3233814
2049076792000.0,-0.650244542635835,9.761430173626165,0.8614912463968113,0.14294247,0.3857614,-0.07544186,90.89675,-86.51745,-1.3331101
2049082120000.0,-0.6405597251618333,9.757862090751528,0.8648044754093285,0.14874569,0.37812558,-0.054061573,90.83551,-86.559166,-1.3355013
2049086853000.0,-0.6319564516812682,9.754692470585296,0.8677477023080228,0.16035213,0.3827071,-0.027794369,90.773125,-86.60743,-1.3334467
2049091819000.0,-0.6229296492083154,9.751366813761823,0.8708358207907855,0.15393804,0.3839288,-0.0143553335,90.71438,-86.65267,-1.3289222
2049096803000.0,-0.6138701277574099,9.748029102604317,0.8739351326148068,0.13713925,0.38789943,-0.00030543262,90.65373,-86.70042,-1.3171848
2049101793000.0,-0.6047996999805201,9.744687373335465,0.8770381755525809,0.12156218,0.3903429,0.013133603,90.593636,-86.74742,-1.3022689
2049107123000.0,-0.5951112470645235,9.741117951090375,0.8803526482696823,0.07880162,0.38453966,0.023518313,90.5353,-86.78337,-1.2847569
2049111877000.0,-0.5864698014430136,9.73793426753444,0.8833089340665116,0.051618114,0.364992,0.025045475,90.48089,-86.81916,-1.2664969
2049116815000.0,-0.5774938951579872,9.734627361897246,0.8863796406850943,0.050396383,0.34880406,0.04062254,90.42762,-86.85285,-1.2420186
2049121796000.0,-0.5684398268700738,9.73129165979541,0.8894770869522393,0.03023783,0.34483343,0.056505036,90.3772,-86.87422,-1.2177453
2049126796000.0,-0.5156747567988785,9.722632324317638,0.8684324710249856,0.027183503,0.35185838,0.05955936,90.32892,-86.899605,-1.193551
2049132158000.0,-0.4309863109606663,9.709928801434817,0.8303226540380968,0.01282817,0.3549127,0.062002823,90.28341,-86.917915,-1.165956
2049136888000.0,-0.3710389054188892,9.687384585032946,0.8077271672481957,0.0061086523,0.37812558,0.076052725,90.20238,-86.91367,-1.1170013
2049143007000.0,-0.3572483939676812,9.609238695873865,0.8261145222497647,0.007330383,0.3744604,0.0888809,90.1298,-86.90759,-1.0692341
2049146774000.0,-0.3487586314841544,9.561130252588642,0.8374342095010983,-0.007941248,0.37018433,0.09010262,90.00068,-86.87182,-1.0309463
2049151857000.0,-0.3421729706139132,9.48147436524156,0.7779572220420176,-0.015882496,0.36957347,0.102319926,89.87408,-86.84165,-0.9875304
2049157203000.0,-0.337987768880896,9.389399752309329,0.6733271087942452,-0.026267206,0.37690386,0.11209377,89.74925,-86.80765,-0.9461625
2049161880000.0,-0.3725255741406988,9.284664627478753,0.59587136901322,-0.008246681,0.39400807,0.12064589,89.584496,-86.74896,-0.9187082
2049166932000.0,-0.5438500174457035,9.086689675637391,0.5616064612700661,0.018020526,0.40866885,0.1255328,89.42197,-86.69292,-0.89082235
2049171797000.0,-0.708832879021089,8.896042775259678,0.5286098705791626,0.02443461,0.41905355,0.11942416,89.19904,-86.625336,-0.8803333
2049176856000.0,-0.8476996554060665,8.924525171966732,0.5776561864970645,0.03359759,0.4269948,0.112399206,88.97732,-86.56985,-0.8695574
2049182198000.0,-0.9770162597928898,9.07469922855512,0.6736007366862361,0.06536258,0.4034765,0.112704635,88.766235,-86.52616,-0.85859704
2049186903000.0,-1.0713848010910745,9.218048880587968,0.7449373862191241,0.07941248,0.38820487,0.11759156,88.5129,-86.45676,-0.887231
2049191953000.0,-1.108028868373996,9.408598183512654,0.7779170697317775,0.09315695,0.39675698,0.124311075,88.26486,-86.40039,-0.9143636
2049196826000.0,-1.1433885792392788,9.592468827701166,0.8097408316638884,0.094989546,0.38515055,0.14019357,88.00117,-86.30206,-0.9675558
2049201851000.0,-1.1445765958564242,9.788680484355018,0.8378223740404126,0.10445796,0.36682457,0.15424347,87.74303,-86.215065,-1.0175928
2049207173000.0,-1.118503923198909,10.001607220308635,0.8638950648478131,0.1133155,0.34422258,0.17348573,87.49491,-86.13486,-1.059737
2049212932000.0,-1.0932091709167544,10.128840261327714,0.858320021601686,0.10567969,0.32375857,0.20830505,87.218864,-86.02552,-1.1199594
2049216914000.0,-1.0788576664759897,10.105877974108084,0.8181357791961463,0.1020145,0.30757064,0.22540927,86.954124,-85.925476,-1.1772404
2049221875000.0,-1.0609777534848712,10.077270262682523,0.7680719854809575,0.09315695,0.2938262,0.25289822,86.658264,-85.802536,-1.230888
2049226856000.0,-1.0365737707539984,10.067333309824829,0.7153502482467632,0.089186326,0.2742785,0.28130344,86.37462,-85.68823,-1.2769618
2049232160000.0,-1.0056245469916223,10.071201836557504,0.6573205051972582,0.10567969,0.2724459,0.3100141,86.09529,-85.58592,-1.313545
2049237371000.0,-0.974202360281108,10.07501982124845,0.6015842141314593,0.118507855,0.27214047,0.34269542,85.778946,-85.475136,-1.3514082
2049241907000.0,-0.9311031596858206,10.078611305663497,0.5728514237354279,0.13897185,0.27091873,0.35979962,85.46958,-85.37871,-1.3840178
2049247101000.0,-0.8817519145597355,10.082723777015296,0.5399506051029351,0.14752395,0.26450464,0.3744604,85.14629,-85.29437,-1.4126173
2049251854000.0,-0.7658350361034164,10.084377,0.474153649168975,0.15241088,0.26206118,0.3811799,84.8282,-85.22135,-1.4373982
2049257160000.0,-0.5745451471595995,10.084377,0.3694855801598125,0.15974127,0.267559,0.40653083,84.51487,-85.15974,-1.4516268
2049261892000.0,-0.4039488873627388,10.084377,0.2761404420988706,0.172264,0.2929099,0.43004912,84.192955,-85.111404,-1.4607255
2049267014000.0,-0.2653554162870004,10.08767286054203,0.2325180011088654,0.18753563,0.34300083,0.43890667,83.86777,-85.07165,-1.4667742
2049271875000.0,-0.1498820839621497,10.091949736701885,0.211134053490124,0.19272798,0.38973203,0.46089783,83.54101,-85.04026,-1.4623809
2049276853000.0,-0.1000561869850746,10.130403104477612,0.205401061641791,0.21655174,0.40133846,0.47219884,83.18886,-85.04773,-1.434136
2049282679000.0,-0.1093090034706467,10.209052172139303,0.2146538752288557,0.24678956,0.41691554,0.48655418,82.82727,-85.06438,-1.4001555
2049286857000.0,-0.1367306015526802,10.265681855822551,0.21481432012939,0.26236662,0.41996986,0.5030475,82.45752,-85.09078,-1.3546995
2049291885000.0,-0.3070027406316804,10.335338829542714,0.1722462894004661,0.27488935,0.40653083,0.505491,82.09348,-85.12799,-1.3095874
2049296826000.0,-0.4743286434139676,10.403790521498031,0.1304148176758016,0.31245756,0.3894266,0.49113566,81.71868,-85.16722,-1.2845298
2049301858000.0,-0.7320508146656847,10.416594954497096,0.0371237428512971,0.3463606,0.36468655,0.46700647,81.35539,-85.21188,-1.2608643
2049307214000.0,-1.0594820876667486,10.395605781569689,-0.0930092213487192,0.3866777,0.36132678,0.44806966,80.9962,-85.271095,-1.2394961
2049311864000.0,-1.2757008760839947,10.371390481045124,-0.18195933,0.4269948,0.36743546,0.41508293,80.63661,-85.33439,-1.2642101
2049316832000.0,-1.237568718738479,10.321818385829928,-0.18195933,0.46853364,0.36987892,0.39064834,80.28439,-85.41029,-1.2894845
2049321775000.0,-1.1996284502684942,10.272495747615611,-0.18195933,0.5039638,0.40378192,0.38331795,79.91284,-85.496956,-1.3681058
2049326857000.0,-1.0906193946672014,10.267527123897354,-0.1846511250280673,0.52778757,0.44409904,0.36254853,79.5452,-85.58723,-1.4530855
2049332218000.0,-0.9424008139855654,10.283995754771452,-0.1887683042421812,0.54519725,0.49174652,0.34788775,79.171394,-85.6835,-1.5346417
2049336938000.0,-0.7990306784404333,10.375664314079422,-0.1675284242844765,0.5458081,0.57971114,0.34391713,78.78331,-85.78278,-1.6089377
2049341887000.0,-0.6051135965423184,10.73308018090654,-0.0610641450854392,0.548557,0.61422503,0.33964106,78.40281,-85.883804,-1.682746
2049346773000.0,-0.4136650489257922,11.085946199358204,0.0440448604038508,0.5155703,0.6258314,0.3390302,78.004684,-85.9856,-1.7319661
2049351949000.0,-0.3515701604157117,11.38930585513317,0.0877012367086066,0.5137377,0.625526,0.32528573,77.60616,-86.093155,-1.7826422
2049357207000.0,-0.3475904781617008,11.667883446692484,0.1036199432847546,0.5012149,0.6026186,0.3182608,77.216415,-86.1896,-1.8276603
2049361856000.0,-0.3468742861905907,11.919801310571453,0.1303894863765328,0.5140431,0.5882632,0.3136793,76.83435,-86.293335,-1.8410115
2049366880000.0,-0.358442902851647,12.21672909257033,0.2152260139264246,0.5177083,0.5564982,0.30024028,76.4693,-86.39003,-1.8555741
2049371773000.0,-0.3697098696754027,12.50591452993508,0.2978504425294541,0.5320636,0.5180137,0.29352075,76.11635,-86.49525,-1.863066
2049376856000.0,-0.3788255537999676,12.810951608108107,0.4242181446884608,0.5479461,0.46883908,0.28802297,75.780624,-86.599884,-1.870846
2049382192000.0,-0.3870958011150671,13.133491175675676,0.5772176725214435,0.5476407,0.410196,0.2929099,75.463165,-86.7043,-1.8744372
2049386901000.0,-0.4452747781455191,13.442562648107067,0.7445393828009464,0.5235115,0.3454443,0.29535335,75.172424,-86.794426,-1.8740017
2049391887000.0,-0.6783047345874001,13.85213043626146,1.0305306872818694,0.50701815,0.28405234,0.30726522,74.90131,-86.88848,-1.8667717
2049397805000.0,-0.9548934394055012,14.33825602196096,1.3699804546140195,0.4792238,0.22815818,0.3203988,74.662,-86.952675,-1.8601068
2049401852000.0,-1.118158942647442,14.524687857726049,1.4535509732215757,0.43096542,0.16126843,0.33261612,74.44644,-87.01136,-1.8479596
2049407189000.0,-1.3134949041865718,14.657871109658648,1.449111570120733,0.3717115,0.098043874,0.33414328,74.24867,-87.06267,-1.8334007
2049411918000.0,-1.4502798009317752,14.752463909665192,1.4268610980732783,0.31581733,0.028099801,0.31764993,74.10861,-87.03606,-1.8513359
2049416834000.0,-1.4688677077858496,14.771051855337966,1.3413564703411245,0.27977628,-0.044593163,0.3155119,73.989235,-87.007195,-1.862111
2049421772000.0,-1.4875387989260898,14.789722985470624,1.2554691937460518,0.24251351,-0.086132,0.3005457,73.88988,-86.950035,-1.9011596
2049426861000.0,-1.4542285282537606,14.78291490941792,1.1675264460922172,0.19028452,-0.122783914,0.2996294,73.81108,-86.88768,-1.933464
2049432215000.0,-1.391351418378025,14.761955872792674,1.0753065974002616,0.15118915,-0.1731803,0.29993483,73.74944,-86.82145,-1.9666233
2049436882000.0,-1.284098723642732,14.736646858143608,1.0231966334341664,0.0983493,-0.22082779,0.30268374,73.695724,-86.761284,-1.9890378
2049441903000.0,-1.0008395802101575,14.686885318739057,1.057647080600223,0.039095376,-0.24740042,0.30207285,73.65123,-86.6933,-2.0103507
2049446775000.0,-0.7259862548161121,14.638600471103327,1.091075198224805,-0.014966198,-0.2938262,0.29810223,73.61908,-86.636536,-2.0176554
2049451855000.0,-0.5430434907618669,14.503269656162743,1.0903769713601914,-0.049785517,-0.3481932,0.29016098,73.59763,-86.57204,-2.025076
2049457191000.0,-0.396281150651775,14.323893215795772,1.0740700531950538,-0.10934488,-0.3811799,0.27947086,73.584114,-86.49036,-2.0334296
2049461914000.0,-0.2679023596228232,14.133366636305272,1.0570594007142284,-0.17562376,-0.44440445,0.26816985,73.587425,-86.41943,-2.0023208
2049467900000.0,-0.1114855327357355,13.760726727309205,1.0248559120536074,-0.22876903,-0.54458636,0.22418754,73.611984,-86.33094,-1.983477
2049471773000.0,-0.0102823301741433,13.519625095578204,1.004019942861729,-0.3295618,-0.5742133,0.19853121,73.6339,-86.229034,-1.9479319
2049476855000.0,0.0865943242536475,13.159406941798942,0.9822107751443,-0.3622431,-0.63499445,0.15668693,73.69454,-86.12177,-1.9286958
2049482195000.0,0.1726888488327722,12.76173233862434,0.9617120716810966,-0.42821655,-0.6768387,0.106901415,73.75914,-85.97749,-1.9197227
2049486870000.0,0.2385670948166062,12.36077035026199,0.9786369100161224,-0.50823987,-0.7021896,0.05375614,73.83643,-85.82792,-1.9066026
2049491906000.0,0.2774456156453043,11.750377514792422,1.114711680141072,-0.6041457,-0.73914695,0.017715093,73.92989,-85.654274,-1.9025571
2049496772000.0,0.3150117161918581,11.160589679725916,1.2461929810600565,-0.7021896,-0.76174897,-0.028099801,74.040474,-85.46328,-1.9034404
2049501855000.0,0.3140012888358794,10.985466516951227,1.396490976880974,-0.8170323,-0.7635816,-0.08002335,74.15704,-85.23987,-1.9164265
2049507068000.0,0.2976876182109305,10.973231447103997,1.555549269732865,-0.9224065,-0.7415904,-0.13927728,74.27514,-84.98997,-1.9446205
2049511817000.0,0.2820443989896373,11.029876621761655,1.6870314458549225,-1.0375546,-0.6942484,-0.1853976,74.40707,-84.68035,-1.9798958
2049516851000.0,0.2635413673431203,11.256538968336212,1.7934238428036846,-1.1554517,-0.63346726,-0.24404067,74.53284,-84.33859,-2.0357664
2049521807000.0,0.2401347778684644,11.486896393371758,1.8780387874433924,-1.2757921,-0.5626069,-0.29138273,74.661934,-83.94253,-2.10609
2049526859000.0,0.1953181666086867,11.750816076368876,1.8830184080279952,-1.3857478,-0.49571714,-0.35216382,74.780685,-83.517204,-2.196722
2049531902000.0,0.1452864986558005,11.97439650814957,1.888577488878236,-1.5018122,-0.43035457,-0.4007276,74.89225,-83.05103,-2.297709
2049538112000.0,0.0663355809870934,12.119139567372224,1.89734985240062,-1.6059648,-0.3827071,-0.44593164,74.99687,-82.56227,-2.4137414
2049541924000.0,0.0178716682410207,12.207989896157532,1.902734755741574,-1.7195857,-0.3830125,-0.5039638,75.10541,-82.0473,-2.548718
2049546846000.0,-0.079027504432768,12.255640765293762,1.8977710353422168,-1.8017471,-0.40286562,-0.52748215,75.21238,-81.52304,-2.6836643
2049551861000.0,-0.2050844163492832,12.250792324449828,1.8832259659398345,-1.8371773,-0.43004912,-0.5705481,75.33075,-80.98556,-2.8358276
2049557200000.0,-0.2936211198518377,12.2166085317694,1.6842937047867794,-1.9129245,-0.43554693,-0.6035349,75.45439,-80.42419,-2.9966123
2049561862000.0,-0.3445058115395574,12.16996462180644,1.4044279425681452,-1.9886718,-0.43066,-0.64660084,75.59092,-79.86095,-3.1665127
2049566802000.0,-0.5105734327111454,12.006313124180483,1.158520327651369,-2.0497584,-0.4364632,-0.6976081,75.73477,-79.28467,-3.3563805
2049571797000.0,-0.8103564772348631,11.706530291554184,0.9694263964423449,-2.1282544,-0.44348818,-0.7461719,75.88554,-78.69265,-3.5515916
2049576760000.0,-1.0079329654493914,11.523885168917792,0.726912687930632,-2.2052236,-0.4184427,-0.8017606,76.01358,-78.13173,-3.7611387
2049582180000.0,-1.042554492046023,11.532540268134069,0.3633868764782391,-2.2537873,-0.3417791,-0.86101454,76.13743,-77.565186,-3.9812849
2049587171000.0,-1.0653293149673366,11.548234217398496,0.0415200845069048,-2.3167064,-0.21105394,-0.9108001,76.23462,-76.98558,-4.2417526
2049591905000.0,-0.945361424567932,11.68319804027123,-0.0634517880795501,-2.3539693,-0.0125227375,-0.9407325,76.29957,-76.40907,-4.5141664
2049596869000.0,-0.8195649294385181,11.82471904085008,-0.1735236882737121,-2.3649647,0.18203785,-0.9505063,76.29725,-75.884254,-4.799614
2049601806000.0,-0.6679977031233265,11.94882574279414,-0.1903957833115451,-2.370768,0.36651915,-0.93645644,76.249504,-75.363205,-5.0904794
2049607773000.0,-0.4609839396156874,12.083834639313276,-0.1273915893101275,-2.375044,0.5366451,-0.9098838,76.158806,-74.85325,-5.3840475
2049611956000.0,-0.3056623815061915,12.173707865301996,-0.0719095480296521,-2.388483,0.6740898,-0.89736104,76.00994,-74.37969,-5.6646523
2049616856000.0,0.0422037630477634,12.201379181956028,0.1771309809906494,-2.3808472,0.7153232,-0.90102625,75.848495,-73.924904,-5.9394813
2049622119000.0,0.4158403995350012,12.23110043492545,0.444620838997557,-2.3512204,0.6881397,-0.88422745,75.66591,-73.48963,-6.188047
2049626864000.0,0.8021438040524098,12.075595987833411,0.7203622979691156,-2.3054054,0.6169739,-0.86284715,75.49302,-73.07394,-6.428436
2049632128000.0,1.254289775713617,11.816103614100763,1.0427620827639994,-2.2424862,0.516792,-0.8390234,75.34259,-72.68514,-6.6518517
2049636879000.0,1.6261579721158876,11.571260834954504,1.2896496780253113,-2.1832323,0.48624873,-0.8011498,75.20643,-72.29043,-6.8185687
2049641885000.0,1.7013721142139944,11.22026122591779,1.16429275707562,-2.1160371,0.453262,-0.7874053,75.105644,-71.92555,-6.972707
2049646864000.0,1.704614603370341,10.86925386221253,1.0630256,-2.0842721,0.46944994,-0.7556403,75.00104,-71.512886,-7.070682
2049651792000.0,1.4014619811340203,10.513704524226805,1.0630256,-2.0250182,0.51251596,-0.74036866,74.903206,-71.13496,-7.166316
2049657172000.0,1.0705039641633625,10.125543923909596,1.0630256,-1.9642372,0.5900958,-0.7690793,74.780136,-70.76942,-7.2678866
2049661834000.0,0.7330472939034637,9.87666606890113,1.0718638660815984,-1.8997909,0.63499445,-0.8524625,74.6624,-70.425835,-7.378554
2049666823000.0,0.3494260409093455,9.649170044393614,1.085245993389973,-1.8017471,0.6640105,-0.9450085,74.53571,-70.11248,-7.501953
2049671828000.0,0.1737232957796055,9.53194932183603,1.089572486212081,-1.7128662,0.6930266,-1.0375546,74.40986,-69.77273,-7.70202
2049676968000.0,0.1954906889166003,9.518888621384985,1.085219010312196,-1.6536123,0.72418076,-1.1362094,74.28956,-69.449684,-7.9259872
2049681944000.0,0.2795577389325284,9.491844487713069,1.2755755942542613,-1.5909985,0.77671516,-1.1914927,74.15727,-69.1195,-8.222449
2049686848000.0,0.5230534979268466,9.428468995099433,1.959365008401989,-1.5830573,0.75808376,-1.2247849,74.04956,-68.79076,-8.526041
2049691874000.0,0.7726068594083807,9.363516869105114,2.6601654968821027,-1.6010778,0.623388,-1.2556335,73.94152,-68.459785,-8.83566
2049696864000.0,1.0076294601202855,9.329984105912336,3.3193563739347605,-1.643533,0.38973203,-1.2983941,73.87639,-68.12786,-9.13532
2049701899000.0,1.2288185704057084,9.334899518246688,3.938685958695209,-1.7492126,0.16065755,-1.2986995,73.85119,-67.78496,-9.4089
2049707264000.0,1.3006372182806691,9.28222773141264,4.219508217723049,-1.9281962,-0.063224554,-1.2519683,73.95978,-67.25929,-9.615982
2049711876000.0,1.2349595522211896,9.191920828066914,4.166144934563198,-2.1248949,-0.2556471,-1.1976013,74.12533,-66.71313,-9.794372
2049716809000.0,1.0900422187309602,9.078623753416313,4.020774097232136,-2.3331997,-0.38973203,-1.135904,74.37748,-66.03999,-9.912908
2049722055000.0,0.7708225251370877,8.92120037540256,3.670944479928628,-2.5072963,-0.4981606,-1.0690142,74.670586,-65.343506,-9.992285
2049727045000.0,0.4574522706412028,8.766992786265744,3.34217415561154,-2.6187794,-0.5992588,-0.99204516,74.97289,-64.619835,-10.049531
2049732223000.0,-0.0019636185274278,8.545344509142625,3.056046712507111,-2.6847527,-0.65087694,-0.9294315,75.28619,-63.881237,-10.081376
2049736826000.0,-0.4103628726493295,8.348309549776515,2.801692788094271,-2.701246,-0.76174897,-0.90224797,75.578636,-63.166683,-10.138139
2049741821000.0,-0.8421958713149966,8.152839821459812,2.461022536300904,-2.6972754,-0.88606006,-0.8585711,75.880005,-62.46276,-10.162224
2049746799000.0,-1.2638378223384197,7.972136341043834,2.0718144929342017,-2.6627617,-0.94959,-0.8008443,76.18979,-61.780357,-10.166117
2049751853000.0,-1.9003423261632344,7.796609167658277,1.9196055339435545,-2.6120598,-0.945314,-0.75319684,76.44827,-61.122864,-10.251918
2049758165000.0,-2.9482725502531038,7.587023105332501,2.024398608875945,-2.5885415,-0.981355,-0.75441855,76.73542,-60.48281,-10.318332
2049761818000.0,-3.554750545912212,7.465727496068234,2.0850464388391927,-2.5638015,-1.0290025,-0.8045095,76.94555,-59.880123,-10.456026
2049766873000.0,-4.045309367866499,7.473383371689144,2.151730255166392,-2.5604417,-1.024421,-0.8530733,77.155815,-59.291443,-10.589974
2049771868000.0,-4.323777249742893,7.584770563209469,2.2074238024643447,-2.574186,-0.9071349,-0.852157,77.353226,-58.717525,-10.727623
2049776828000.0,-4.327017395094031,7.727331927636958,2.42062992420278,-2.5561657,-0.73548174,-0.87995136,77.54353,-58.065945,-11.008805
2049782236000.0,-4.102574030776778,7.9094274239574816,2.784821049501226,-2.4926357,-0.6533204,-0.91965765,77.728935,-57.432255,-11.292219
2049786873000.0,-3.8873932038647343,8.0343971044686,3.055483219283414,-2.420248,-0.7125743,-0.92149025,77.887215,-56.80227,-11.605922
2049792061000.0,-3.4833567764251208,7.950389725241545,3.0594835348711755,-2.3744333,-0.85062987,-0.9138544,78.04992,-56.188477,-11.921612
2049796801000.0,-3.114210156135265,7.873636645531401,3.063138410716586,-2.3157902,-0.98746365,-0.9104946,78.242294,-55.55992,-12.194359
2049801826000.0,-2.567745932862524,7.513535619350282,2.9174420866133084,-2.2531765,-1.0589349,-0.8961393,78.45157,-54.957714,-12.444127
2049807274000.0,-1.8758532673258004,6.9444639329096045,2.66361166985248,-2.182927,-1.0958922,-0.8576548,78.68288,-54.386646,-12.6647005
2049811876000.0,-1.3211119471223314,6.491307079365209,2.466848250271937,-2.087632,-1.1646146,-0.8173377,78.923706,-53.833096,-12.813695
2049816825000.0,-1.00947583959737,6.268160289016966,2.4245273703060315,-1.9807305,-1.2577715,-0.7901542,79.17669,-53.315063,-12.940441
2049821823000.0,-0.6947542260573099,6.042804124506859,2.381787471726601,-1.8945986,-1.3362677,-0.74281216,79.4146,-52.795757,-12.977683
2049827719000.0,-0.3607999116417146,5.816271048752399,2.389906607005758,-1.7996091,-1.4230106,-0.6750061,79.67095,-52.323914,-12.983529
2049832283000.0,-0.1161103577632757,5.655475021497121,2.41787107159309,-1.7018706,-1.4672983,-0.59773165,79.926994,-51.89216,-12.967676
2049836861000.0,0.1163664239821014,5.497079317730723,2.4325050688693564,-1.6340646,-1.5335772,-0.56199604,80.194275,-51.452255,-12.885509
2049841873000.0,0.2812849227525369,5.343666623268079,2.3557988017339198,-1.6132951,-1.5552629,-0.4914411,80.440636,-51.04667,-12.778814
2049846836000.0,0.4445910898310827,5.1917537735837,2.2798424562045545,-1.5580118,-1.5137241,-0.41783184,80.70667,-50.65608,-12.610524
2049851854000.0,0.6522974649953632,4.956279891437403,2.165551357527048,-1.4840971,-1.4465289,-0.3481932,80.95595,-50.289577,-12.431279
2049857286000.0,0.9055692337372488,4.646725701452859,2.0168044331993817,-1.4059063,-1.3695599,-0.29901853,81.17998,-49.950844,-12.252903
2049861888000.0,1.1132511391062747,4.3890223748784445,1.8932807764991892,-1.3316863,-1.2596041,-0.2452624,81.36239,-49.63058,-12.052077
2049866882000.0,1.1723099587867565,4.2192282634792,1.8194572615343056,-1.2458596,-1.1404854,-0.18967366,81.512276,-49.344822,-11.8595
2049871837000.0,1.2309075662190323,4.050760137331173,1.74621026180443,-1.1383474,-1.0146471,-0.15363261,81.64194,-49.076675,-11.63888
2049876850000.0,1.2923581528172547,3.874089730379535,1.7664020467981942,-1.0073168,-0.8891144,-0.12980886,81.73363,-48.846443,-11.433941
2049882256000.0,1.3616071056679484,3.674999070021736,1.917884023825447,-0.87995136,-0.75808376,-0.09132435,81.78372,-48.65303,-11.245419
2049886921000.0,1.4124519296122209,3.506963537485312,2.0723961865569915,-0.7644979,-0.6401868,-0.07941248,81.804985,-48.47431,-11.073669
2049891895000.0,1.3340863940070504,3.383817779318449,2.591101272244418,-0.65393126,-0.48472157,-0.06291912,81.77869,-48.33629,-10.926462
2049897533000.0,1.2452595162945554,3.2442327804151976,3.1790504626556992,-0.5314528,-0.38545597,-0.060170226,81.7815,-48.187145,-10.765362
2049901856000.0,1.1242281540087111,3.2465838668494915,3.5186615483142445,-0.44135013,-0.27458394,-0.04550946,81.74017,-48.06447,-10.630914
2049907262000.0,0.9237872086304242,3.350980145329892,3.840202126149379,-0.35063666,-0.15668693,-0.008246681,81.669,-47.980057,-10.512311
2049912070000.0,0.7431137566454387,3.446570826862956,4.12355619204367,-0.28802297,-0.10720685,-0.0070249503,81.67989,-47.793457,-10.390654
2049916833000.0,0.5280764002770656,3.582383885749731,4.365001805144322,-0.22968534,-0.018020526,0.0076358155,81.64508,-47.636513,-10.288846
2049921852000.0,0.3014812939128277,3.7254965757671,4.61942454966504,-0.18600847,0.10842858,0.034513887,81.5916,-47.43689,-10.227668
2049926863000.0,0.0752019566834702,3.8365664803154726,4.77275786112692,-0.15363261,0.13958271,0.0106901415,81.54583,-47.25022,-10.174174
2049932293000.0,-0.1700309492194486,3.9338139436864794,4.865777129766648,-0.13927728,0.15088372,-0.014660766,81.47183,-47.07523,-10.136243
2049936874000.0,-0.3780402295616,4.00746896192,4.92769153808,-0.13469578,0.20738874,-0.022907447,81.36695,-46.859665,-10.151632
2049941859000.0,-0.6110132913096,4.03802282452,4.89713767548,-0.100792766,0.26206118,-0.04886922,81.26969,-46.657158,-10.178112
2049946824000.0,-0.8430516567216,4.068454103920001,4.86670639608,-0.053145275,0.3304781,-0.06078109,81.11561,-46.42795,-10.259302
2049951857000.0,-0.9915029764310426,4.070096038410128,4.857846921921686,-0.014660766,0.35246924,-0.09254608,80.973076,-46.208233,-10.349858
2049957306000.0,-1.0981852319311212,4.053683443041359,4.861950167164649,0.03848451,0.36254853,-0.10995574,80.822334,-46.011593,-10.4484825
2049961884000.0,-1.1838254081756925,4.035142422310627,4.869328605569538,0.10415252,0.3894266,-0.11484267,80.604965,-45.79545,-10.61581
2049967305000.0,-1.2470500598035237,3.967702840854104,4.915693273808557,0.16768251,0.42210788,-0.11789699,80.39659,-45.599957,-10.78351
2049971822000.0,-1.2997314380368596,3.911509409856296,4.954326220946659,0.22479841,0.441961,-0.090713486,80.14718,-45.389313,-10.963675
2049976858000.0,-1.3506004520197987,3.837431708494332,4.989696709444356,0.3042109,0.45631635,-0.070249505,79.9063,-45.210667,-11.143408
2049982306000.0,-1.4005839165575602,3.7499605585661824,5.023018975642663,0.38026363,0.46822822,-0.03940081,79.665474,-45.057957,-11.311438
2049986857000.0,-1.4664589196368474,3.692773067026689,5.0868942394145735,0.45753807,0.4541783,-0.034208454,79.42218,-44.888252,-11.478527
2049991898000.0,-1.7044984352351882,3.738113975988104,5.404280365422244,0.5366451,0.41447207,-0.021685716,79.18596,-44.751404,-11.627975
2049996864000.0,-1.9389963988260157,3.782780302888002,5.71694442052125,0.61269784,0.39553526,0.0021380284,78.948326,-44.6015,-11.772649
2050001853000.0,-2.099867340244224,3.8764016376175,5.935439586418344,0.6939429,0.37415496,0.03756821,78.72597,-44.484623,-11.898088
2050007156000.0,-2.2114060664675392,4.014709449424581,6.091593859035404,0.7703011,0.35155296,0.067500606,78.51408,-44.39559,-12.010466
2050011801000.0,-2.297316136723271,4.150404809600607,6.220113005616166,0.8399397,0.32253686,0.10598512,78.35562,-44.277775,-12.134739
2050016835000.0,-2.361345694032824,4.333346367801917,6.339024767726023,0.89644474,0.2919936,0.1432479,78.203316,-44.185062,-12.243739
2050021844000.0,-2.419471248676789,4.510231368980477,6.448610203383948,0.94897914,0.267559,0.19120082,78.06414,-44.119625,-12.341927
2050026795000.0,-2.452383821284165,4.662452387809111,6.518549554420824,0.9819659,0.27397305,0.23671028,77.92197,-44.07083,-12.429675
2050032294000.0,-2.488939312451193,4.831521945986985,6.596230122255966,0.9990701,0.24862215,0.29443705,77.77967,-44.05221,-12.4896755
2050036897000.0,-2.525340061398653,4.981698812482701,6.645580236580865,1.0748174,0.26389378,0.31612277,77.6286,-44.06203,-12.554641
2050041909000.0,-2.565195333730049,5.145548070163299,6.698720661343297,1.0974194,0.2932153,0.36102137,77.46584,-44.07135,-12.598929
2050046798000.0,-2.5793260485924114,5.393184194002448,6.827278626560587,1.1447614,0.34025195,0.4034765,77.28482,-44.126038,-12.645168
2050051818000.0,-2.5838525562658883,5.682877801948969,6.990231154006214,1.171945,0.41783184,0.44776422,77.083954,-44.186687,-12.691916
2050057160000.0,-2.582862099214853,6.335581390079438,7.584391108627378,1.1478158,0.50518554,0.4822781,76.86061,-44.272293,-12.736961
2050061875000.0,-2.578691114225014,7.10720599150194,8.347673914280437,1.028697,0.5516113,0.50976706,76.62434,-44.342735,-12.779437
2050066807000.0,-2.552728904605393,8.430528377484746,9.470668218460933,0.8142834,0.56321776,0.50732356,76.35749,-44.400074,-12.818048
2050071799000.0,-2.496274503345798,10.491112205864988,11.060799030505803,0.5549711,0.48197266,0.4999932,76.09893,-44.41631,-12.84028
2050076762000.0,-2.64992774027039,12.376865595892436,12.03706692915189,0.3390302,0.23335053,0.45020768,75.84911,-44.37919,-12.789278
2050083140000.0,-3.295211853967199,14.452603977984632,12.00096686487884,0.21502456,-0.0693332,0.35308012,75.64224,-44.30105,-12.722981
2050086868000.0,-3.672386387655142,15.66589226403664,11.979866043365838,0.16646078,-0.3313944,0.28344148,75.43554,-44.318745,-12.536912
2050091909000.0,-3.453236071771199,15.23317976979428,10.96883098123432,0.15424347,-0.5299256,0.26389378,75.28799,-44.313633,-12.321828
2050096808000.0,-2.9212143566984445,13.90547997641746,9.556384141495233,0.17928895,-0.6047566,0.3109304,75.16849,-44.30956,-12.089698
2050101816000.0,-2.2673614740702064,12.667338305165076,8.608895859362198,0.3744604,-0.5919284,0.355829,74.88249,-44.64383,-11.851818
2050107330000.0,-1.4911070296650333,11.365097514258174,7.819916118146036,0.70554936,-0.51343226,0.3659083,74.612854,-45.000107,-11.623731
2050111827000.0,-0.8628851930149157,10.417449369304752,7.315150500904719,1.0097603,-0.39950588,0.398895,74.337875,-45.391743,-11.397671
2050116858000.0,-0.1795793574618959,9.816611256011084,7.307296498508435,1.2730432,-0.22724187,0.48563787,74.030136,-45.852386,-11.19277
2050121770000.0,0.4875640065286495,9.229984976444698,7.299628269573722,1.4520267,-0.15149458,0.5714644,73.71959,-46.306885,-10.950633
2050126807000.0,0.3204815441419879,8.917232683975659,6.735400607269777,1.5473217,-0.083383106,0.5748242,73.37634,-46.800358,-10.743726
2050131988000.0,-0.1706606304178498,8.703867964300203,5.9463524250060855,1.5674802,-0.010079277,0.5907067,72.99973,-47.318462,-10.534919
2050136797000.0,-0.6527395402171824,8.580385146069576,5.353083387468768,1.636508,0.099265605,0.59315014,72.701225,-47.855877,-10.276249
2050141890000.0,-1.233948456866231,8.65069238127042,5.099976264001538,1.6872098,0.31398472,0.59742624,72.36071,-48.385227,-10.049509
2050146788000.0,-1.6591742025984573,8.790934860657734,4.903325,1.7366899,0.4156938,0.5155703,71.947624,-48.93898,-9.92695
2050152463000.0,-1.5002995477060497,9.307277604263094,4.903325,1.7843374,0.46639562,0.43279803,71.49998,-49.497448,-9.831558
2050158367000.0,-1.332708284787434,9.83971465178419,4.90449818836435,1.8396207,0.5766568,0.47067168,71.05545,-50.097614,-9.812759
2050161895000.0,-1.1942606981048318,10.0791135761482,4.924688473971316,1.9275852,0.5861252,0.5030475,70.64111,-50.702744,-9.798962
2050166883000.0,-0.998519042103466,10.417583483950828,4.953234149880485,1.9456058,0.5354234,0.5644395,70.160576,-51.36296,-9.745481
2050171822000.0,-0.7670352080073425,10.652987640628188,4.854431188761982,1.9856175,0.45081854,0.6178902,69.68538,-52.042526,-9.676306
2050176804000.0,-0.4751018050744442,10.735701745258003,4.5576322221701,2.0207422,0.39706242,0.68539083,69.205734,-52.718624,-9.581491
2050182297000.0,-0.1740441417908547,10.690304173308528,4.167940118378537,2.0427334,0.34147367,0.73364913,68.70441,-53.434036,-9.422361
2050187001000.0,0.0641485703681582,10.522687383726623,3.77536319939293,2.0570886,0.32620203,0.78954333,68.19862,-54.147873,-9.240936
2050192231000.0,0.264306091929299,10.33243942840024,3.4651456869982025,2.0879374,0.3210097,0.82619524,67.67574,-54.92278,-9.006263
2050196800000.0,0.3691746990675554,10.162027910575194,3.3307828331860394,2.1227567,0.29077184,0.87017757,67.157715,-55.69137,-8.749379
2050201769000.0,0.4832241866731575,9.97669745925704,3.184656980572199,2.1175644,0.28099802,0.8866709,66.62041,-56.49785,-8.459244
2050207273000.0,0.6786719805882877,9.722244090471522,2.8250172009537398,2.1169536,0.3118467,0.9251554,66.0755,-57.30352,-8.154531
2050211871000.0,0.8631452488011409,9.494596368660307,2.4639205927533645,2.1001546,0.33353242,0.95569867,65.53942,-58.08733,-7.844853
2050216790000.0,0.9798650244712992,9.376623660687311,2.2033924959969786,2.085494,0.37995818,1.0021244,64.981514,-58.873558,-7.5222564
2050222658000.0,1.011698481268882,9.403151264350454,2.0601418296072507,2.0421226,0.44715336,1.0403035,64.41476,-59.633198,-7.2000947
2050226768000.0,1.0349709130936409,9.46087007968876,1.9883706885430643,1.998751,0.48075095,1.063211,63.84224,-60.43666,-6.839625
2050232284000.0,1.0680430849208478,9.612057122708164,1.9458493881942585,1.9749273,0.5503896,1.110553,63.24018,-61.222595,-6.477304
2050236863000.0,1.0859979189979123,9.743011434237996,1.92159931565762,1.9257526,0.6123924,1.1496484,62.64089,-62.006332,-6.118724
2050241828000.0,1.0401824187168782,9.92245508166051,1.971232731106472,1.8771889,0.6603453,1.1930199,62.02626,-62.77151,-5.753658
2050246820000.0,0.9941177707001768,10.102874555564476,2.021136056367432,1.8102992,0.6951646,1.2131784,61.404613,-63.52973,-5.3849044
2050251788000.0,0.8725271262132744,10.265172441239054,2.076246047565267,1.7461584,0.7101309,1.2272283,60.777603,-64.26134,-5.010256
2050257343000.0,0.6853134427285374,10.434971365660036,2.141553189802766,1.6933185,0.6945538,1.2421945,60.153885,-64.96281,-4.6312
2050261869000.0,0.5065662158260659,10.561826146438952,2.1783315265503878,1.6484199,0.643852,1.2305881,59.556313,-65.64524,-4.2692695
2050266867000.0,0.2012266232437015,10.654587597747092,2.1512761385658914,1.5818355,0.5867361,1.2049317,58.971394,-66.29087,-3.9062235
2050271771000.0,-0.0983702879255491,10.745604435925388,2.1247295954134366,1.5491543,0.54733527,1.1523973,58.439346,-66.921196,-3.5778413
2050276816000.0,-0.257521666448903,10.707922426229509,2.108226214044532,1.518611,0.5503896,1.1032226,57.919743,-67.516884,-3.256141
2050282009000.0,-0.3548690786020716,10.610574959016391,2.0960577965255687,1.5109752,0.5705481,1.0418307,57.41881,-68.092186,-2.9514656
2050286821000.0,-0.4310589180841196,10.514058245722053,2.0887119414041257,1.5088371,0.59681535,0.97341377,56.981216,-68.66068,-2.715101
2050292348000.0,-0.4733833988997281,10.382852100631697,2.0929443877178957,1.5357152,0.61544675,0.9086621,56.551037,-69.21992,-2.4963205
2050296774000.0,-0.50727667772909,10.277782732408443,2.096333714185191,1.5436565,0.6270532,0.8509353,56.151196,-69.76134,-2.3199563
2050301816000.0,-0.6154359506313842,10.093968955923753,2.042394906957291,1.5543466,0.64873886,0.7867944,55.75424,-70.29702,-2.1646209
2050306833000.0,-0.7468276255947881,9.88915284637658,1.968970125343843,1.5748106,0.6747007,0.7107417,55.362926,-70.82411,-2.0282059
2050311796000.0,-0.9045003693808992,9.650984236602143,1.8635783196928493,1.5961909,0.7275405,0.61911196,54.99056,-71.34359,-1.9314499
2050316837000.0,-1.1439144024956007,9.307309162533992,1.6627794675171972,1.6200147,0.79504114,0.54153204,54.61494,-71.85715,-1.8519406
2050321794000.0,-1.379338993281075,8.969360870100783,1.4653265989921611,1.6316211,0.8268061,0.5045747,54.27255,-72.36993,-1.8092726
2050326802000.0,-1.4307200514331209,8.785759870063695,1.3651586297452227,1.6331482,0.86559606,0.45051312,53.91972,-72.8742,-1.7940731
2050331831000.0,-1.4230510266321654,8.651551235350318,1.296136966098726,1.6224581,0.87995136,0.4334089,53.566498,-73.368706,-1.7743089
2050336835000.0,-1.4091786531805668,8.516603962279593,1.246804641626367,1.5906931,0.8906415,0.42852196,53.246334,-73.868126,-1.8074106
2050341887000.0,-1.3767823696004762,8.37621992894874,1.254003807402723,1.5467108,0.9101892,0.43401974,52.92161,-74.35223,-1.8391067
2050346872000.0,-1.3448157279443491,8.237697679116136,1.261107497306748,1.4828753,0.8881981,0.43066,52.616585,-74.8277,-1.8673509
2050351797000.0,-1.270457238818565,8.099030236849508,1.1971382714955463,1.4086553,0.8561276,0.43035457,52.30964,-75.280045,-1.8893216
2050357354000.0,-1.149865649367089,7.941013698312236,1.0640716990154713,1.3399329,0.8588765,0.43890667,52.000137,-75.70847,-1.9062507
2050362109000.0,-1.0326293123829822,7.815654139847528,0.9498427761045988,1.287704,0.8622363,0.46731192,51.709446,-76.11628,-1.9105307
2050366883000.0,-0.714064460191819,7.830645415591442,0.8299124918845808,1.2516629,0.85918194,0.4972443,51.420536,-76.50296,-1.9076622
2050371868000.0,-0.3814197622083778,7.846299271809165,0.7046815604147882,1.2235631,0.8176431,0.53878313,51.135193,-76.90411,-1.8656611
2050376796000.0,-0.1720969165185636,7.906024046743761,0.6553030947656726,1.2067643,0.729984,0.5681047,50.864094,-77.2927,-1.8124641
2050382311000.0,-0.0394941314828058,8.010498723097992,0.6633396212416313,1.1896601,0.6215554,0.6081163,50.608833,-77.66909,-1.738367
2050387380000.0,0.0819412959433476,8.109277769957082,0.6715602418025751,1.17897,0.4999932,0.64751714,50.350124,-78.08609,-1.5798469
2050391874000.0,0.1816864113325322,8.245965962403435,0.693725807055794,1.181108,0.37690386,0.689056,50.12079,-78.49465,-1.4027278
2050396858000.0,0.2923071623560515,8.397557851845495,0.7183081784892704,1.1945469,0.2519819,0.7330383,49.924118,-78.9166,-1.1842204
2050401793000.0,0.3401863561678832,8.52629444890511,0.7103439116788322,1.2113458,0.13988814,0.7635816,49.75655,-79.32895,-0.9540848
2050406854000.0,0.3486097547445255,8.644221729927008,0.6808620474452555,1.2284501,0.048258353,0.79504114,49.61522,-79.7334,-0.70905656
2050411821000.0,0.3120946726909708,8.727384657810626,0.6709972893727527,1.2617421,-0.0290161,0.79809546,49.50595,-80.15131,-0.4401161
2050416936000.0,0.1702073692860567,8.737170186176588,0.7052459234119057,1.2947289,-0.095294975,0.7733554,49.41686,-80.55749,-0.17202707
2050421789000.0,-0.0465083487101589,8.763523517165686,0.7315682914478884,1.3356569,-0.116675265,0.75991637,49.340748,-80.9826,0.08822388
2050426821000.0,-0.4654089188504697,8.831224219246641,0.7442622393625428,1.3432927,-0.116980694,0.72265357,49.276535,-81.389275,0.33123356
2050432187000.0,-0.8996177160309069,8.897233120048801,0.7470648908840992,1.3741413,-0.07696902,0.6753115,49.227215,-81.798904,0.53584635
2050436890000.0,-1.1706985977795852,8.90089644912566,0.6554835153265555,1.3610078,-0.02565634,0.636827,49.172806,-82.18161,0.7279333
2050441863000.0,-1.4573422773322489,8.904770090524604,0.5586444380040666,1.3457361,0.037873644,0.5662721,49.154087,-82.56313,0.81663316
2050446796000.0,-1.679494704941242,8.911396180068474,0.4873510662959193,1.3457361,0.122783914,0.46914452,49.115498,-82.936035,0.88286924
2050451794000.0,-1.8566572251040991,8.920254484130657,0.4342023241214027,1.3631458,0.24037547,0.3717115,49.050518,-83.301605,0.92522
2050456797000.0,-1.9805477871266215,8.89866921572966,0.4329857034255255,1.3558154,0.34330627,0.28191432,48.999203,-83.6798,0.88523793
2050461854000.0,-2.0243845464950216,8.830478802876396,0.5109177811123403,1.3518448,0.42149702,0.19150625,48.923634,-84.05971,0.8164845
2050466806000.0,-2.0255823278840346,8.755727467284075,0.5753333808536341,1.3405437,0.4804455,0.108123146,48.841545,-84.444275,0.69101167
2050471860000.0,-1.9671150673243407,8.668026271189852,0.6240561488624925,1.3234396,0.5137377,0.013744468,48.746407,-84.82072,0.5391574
2050477538000.0,-1.76152764,8.611263052631578,0.6538439189473685,1.3008375,0.52412236,-0.05589417,48.654057,-85.17814,0.36042118
2050482150000.0,-1.4825704007272729,8.598583362679426,0.6580705411100478,1.2956452,0.5348125,-0.1301143,48.553593,-85.52519,0.15840425
2050486784000.0,-1.197854933522727,8.60648688961039,0.7460814821428572,1.319469,0.54092115,-0.14874569,48.454533,-85.856636,-0.032426327
2050491887000.0,-0.8755559047585229,8.656071315746754,1.0088791477678571,1.3261884,0.50640726,-0.14935656,48.364574,-86.165764,-0.23201875
2050496790000.0,-0.5776218921980081,8.716863328665813,1.216125139877724,1.3240504,0.43066,-0.12614368,48.267933,-86.47976,-0.3668076
2050501859000.0,-0.290402675061631,8.803028830884529,1.3501607265555664,1.2797627,0.355829,-0.093767814,48.180275,-86.769394,-0.4922356
2050506773000.0,-0.0698402545226917,8.92338055086072,1.478200344913928,1.2330315,0.312763,-0.054367006,48.110184,-87.03128,-0.5456174
2050511935000.0,0.0413702289201877,9.1264606185446,1.6087517881455398,1.1917981,0.2611449,-0.0067195175,48.062267,-87.27434,-0.5817799
2050516892000.0,0.103713175119086,9.281788078410925,1.6726778057457097,1.1242975,0.23090707,0.026572637,48.01932,-87.5034,-0.56800437
2050521835000.0,0.0678067333651275,9.349113078790175,1.6008649719161847,1.0482447,0.2406809,0.041233405,47.977943,-87.713554,-0.5450078
2050526835000.0,0.0269570017701947,9.410910804724123,1.538623063775694,1.0112875,0.2724459,0.06505715,47.944687,-87.91314,-0.5044399
2050532280000.0,-0.0388597994825099,9.448520183555717,1.5198181780021638,0.94989544,0.29871312,0.09193522,47.90931,-88.08103,-0.4592412
2050537206000.0,-0.102929453027918,9.480641137017628,1.5023650380562172,0.91629785,0.3173445,0.10995574,47.870705,-88.2617,-0.42174405
2050541832000.0,-0.2548954422166746,9.4721984115293,1.4770374346069557,0.8940013,0.29535335,0.13041973,47.835526,-88.42601,-0.3760985
2050547814000.0,-0.4497755489578349,9.462121990654904,1.4432540690565192,0.8481864,0.3203988,0.16035213,47.797398,-88.585686,-0.34269655
2050551858000.0,-0.5626953785212321,9.465017429351075,1.4085095000672847,0.782213,0.34422258,0.18234327,47.765305,-88.72998,-0.30560797
2050556783000.0,-0.7002152006279905,9.468543649820576,1.3661957012858852,0.76174897,0.37384954,0.2171626,47.754013,-88.88201,-0.2835547
2050561857000.0,-0.807800046552623,9.485476193059627,1.296919375226458,0.7058548,0.32834008,0.23640485,47.75668,-89.00226,-0.25922707
2050566863000.0,-0.7765576233887259,9.555771834799607,1.125086043747149,0.61208695,0.28160888,0.2489276,47.75059,-89.10477,-0.22721536
2050571821000.0,-0.7456147680058651,9.625393447214076,0.9549003351026392,0.5375614,0.2574797,0.26908615,47.770702,-89.20104,-0.2195245
2050576816000.0,-0.7710865331529093,9.635426723234897,0.926632873646422,0.4728097,0.23365596,0.2828306,47.803112,-89.27143,-0.20963433
2050581853000.0,-0.8171631552097429,9.62390733718061,0.9496711806654462,0.41325033,0.183565,0.27488935,47.8491,-89.320244,-0.20015053
2050586883000.0,-0.853365329892044,9.627468401705524,0.9538736006531796,0.35643986,0.17012598,0.28221974,47.88002,-89.39539,-0.17239766
2050591811000.0,-0.8576467841603919,9.678846031751792,0.898214650458133,0.312763,0.18448131,0.2669481,47.916218,-89.45266,-0.15389802
2050597189000.0,-0.8623611979781803,9.741250949454509,0.8409646062135923,0.2828306,0.1777618,0.27152961,47.97703,-89.498955,-0.1421688
2050601799000.0,-0.8667800797717946,9.851722994294866,0.8232890605825243,0.2666427,0.14844026,0.25625798,48.039173,-89.53231,-0.14062859
2050607273000.0,-0.8830504579926222,9.988036301029815,0.8155999250968337,0.26816985,0.09254608,0.23732115,48.110268,-89.57574,-0.14341192
2050611918000.0,-0.9787743695358132,10.141878543959422,0.9079051423424532,0.2724459,-0.019547688,0.21563543,48.204605,-89.61107,-0.15110104
2050617421000.0,-1.0921798991853673,10.324137717875807,1.0172604944420536,0.30451632,-0.12705997,0.20952678,48.31497,-89.656624,-0.16389573
2050621861000.0,-1.1155395769938978,10.402603762445134,1.1265630642757736,0.34238997,-0.16401732,0.21044308,48.43513,-89.69577,-0.18054269
2050626813000.0,-1.0596924573279092,10.407680344395674,1.2737963460229098,0.35643986,-0.23426682,0.22968534,48.59296,-89.729675,-0.19340056
2050631877000.0,-1.002986382604219,10.432352362896529,1.4078431120411892,0.3817908,-0.29535335,0.258396,48.77644,-89.729904,-0.2294574
2050636867000.0,-0.9474278833848198,10.472036993356584,1.526897044859658,0.39675698,-0.34697145,0.29352075,48.974003,-89.72441,-0.25750923
2050641797000.0,-0.895239135826424,10.515006952621944,1.6173841217508345,0.38087448,-0.3827071,0.33841935,49.197826,-89.71808,-0.2739445
2050646803000.0,-0.8591036210250889,10.582116029180574,1.5399508911489177,0.34605515,-0.39828414,0.38545597,49.42669,-89.71708,-0.28015667
2050651789000.0,-0.8248628697357886,10.658779350680543,1.435677542033627,0.28924468,-0.3717115,0.42730024,49.664154,-89.72647,-0.27094263
2050656799000.0,-0.7949848449159327,10.761218050974112,1.2606778542834267,0.26511553,-0.3313944,0.47433686,49.89803,-89.74859,-0.24845572
2050661921000.0,-0.7631676585021243,10.87119450578006,1.0793073816223693,0.24098633,-0.3005457,0.49938235,50.125107,-89.77778,-0.21938108
2050666841000.0,-0.7119576579092975,11.06206824157692,0.8651563242169746,0.22876903,-0.28008172,0.51251596,50.339848,-89.81362,-0.18254735
2050671973000.0,-0.6595044879277033,11.26613185312143,0.6389183886942973,0.22052236,-0.2779437,0.514654,50.536434,-89.86419,-0.1352925
2050676799000.0,-0.6306994489373636,11.56378381240262,0.3652705934808351,0.21624629,-0.28680122,0.51251596,50.7268,-90.088486,-0.08797798
2050681871000.0,-0.6147184942504946,11.878159670369808,0.0875641703728504,0.24862215,-0.31215215,0.4896085,50.90532,-90.08204,-0.03358746
2050687050000.0,-0.7354874068802313,12.21404828275757,-0.101137254133313,0.2947425,-0.4288274,0.43249258,51.109,-90.140305,0.007711283
2050691875000.0,-0.8480014063856338,12.526977912950844,-0.2769403769837163,0.310625,-0.55955255,0.37659842,51.30768,-90.253426,0.0534155
2050696865000.0,-0.9029484093735356,12.975058246103698,-0.4556743531037995,0.3359759,-0.6423248,0.3549127,51.521656,-90.37717,0.09024049
2050701817000.0,-0.8884558721503515,13.559589460935111,-0.629584557655088,0.31490102,-0.72326446,0.321926,51.767483,-90.482285,0.10581506
2050706823000.0,-0.7675456910357883,14.0546936495087,-0.7075510251960696,0.2284636,-0.7684685,0.28771752,52.02211,-90.59886,0.09785959
2050711918000.0,-0.5344191319174254,14.459366539168846,-0.6855579683133508,0.096516706,-0.7687739,0.24801129,52.281017,-90.689735,0.07820569
2050716801000.0,-0.2877211782419834,14.754788582317389,-0.6623351584612233,-0.054061573,-0.7516697,0.22602014,52.534695,-90.76856,0.06624431
2050721858000.0,0.0298194827025918,14.814327102653415,-0.6325657117836287,-0.1423316,-0.70952,0.14110987,52.77529,-90.82125,0.024930196
2050726846000.0,0.4097661236947417,14.780096427640762,-0.57124828495114,-0.2846632,-0.68783426,0.053145275,53.00556,-90.81899,0.012806603
2050731822000.0,0.9234881938917326,14.558346046998604,-0.44558964330076,-0.41050145,-0.63804877,-0.06841691,53.210922,-90.79427,-0.03335181
2050736886000.0,1.4462953810857764,14.33267403583062,-0.3177087427144408,-0.48655418,-0.602924,-0.17837265,53.399265,-90.75179,-0.065371744
2050741874000.0,1.965160060540642,14.360652921907263,-0.3111140841223953,-0.5186246,-0.56107974,-0.23854288,53.568485,-90.6906,-0.11754252
2050746861000.0,2.485162564191853,14.468239700065702,-0.3424935482128778,-0.5366451,-0.52870387,-0.33750305,53.727654,-90.63096,-0.21092524
2050751818000.0,2.9969146876789714,14.643627923492742,-0.3830153816889062,-0.5488624,-0.48502702,-0.41386122,53.84951,-90.54752,-0.22946252
2050756844000.0,3.512608918087075,14.86396982930749,-0.429896682927827,-0.56107974,-0.5112942,-0.46120325,53.981514,-90.478264,-0.26859987
2050761844000.0,3.903127982866829,14.922184157384986,-0.4816424327709443,-0.5742133,-0.5342017,-0.44990227,54.070827,-90.39013,-0.24086906
2050767058000.0,4.212642991079903,14.854477905569007,-0.5396764848174334,-0.5849035,-0.52015173,-0.41050145,54.157536,-90.30872,-0.22020924
2050771827000.0,4.324267705315704,14.648949904389278,-0.4920780069778737,-0.605062,-0.48991394,-0.3585779,54.22438,-90.185234,-0.124997675
2050776793000.0,4.27721411832164,14.29818584304731,-0.3466394108526713,-0.6420194,-0.43585235,-0.28710666,54.28169,-90.052734,-0.017031077
2050781801000.0,4.175014236449461,13.904575383478706,-0.2089738932476141,-0.698219,-0.36010507,-0.23426682,54.314903,-89.860664,0.1357194
2050786841000.0,3.922410470826065,13.399368265982554,-0.0950546020582863,-0.8051204,-0.24312437,-0.19181168,54.322693,-89.669846,0.3002138
2050791774000.0,3.668696150278164,12.956373735744087,0.0287970175368567,-0.93279123,-0.058948494,-0.16279559,54.304466,-89.45067,0.46738473
2050796830000.0,3.394509913202861,12.61484410013908,0.1827261559815219,-1.094976,0.16401732,-0.13316862,54.243717,-89.19998,0.641433
2050802618000.0,3.0922324277777777,12.365302763888888,0.4558293920454545,-1.2492194,0.3912592,-0.11789699,54.153194,-88.93499,0.7876377
2050806793000.0,2.8864138487179485,12.334235589743589,0.7548488041958041,-1.3869696,0.49357912,-0.1160644,54.037895,-88.63731,0.93390244
2050811811000.0,2.6342981579095364,12.348514325459949,1.0843473270747972,-1.5357152,0.655153,-0.12797627,53.86856,-88.30104,1.0470613
2050816891000.0,2.3646056636538924,12.520491936129186,1.3266796931067728,-1.5986344,0.7556403,-0.15607607,53.69224,-87.95424,1.151818
2050821806000.0,2.1036728665541897,12.686883659837711,1.5611410275648752,-1.7040086,0.78038037,-0.20158553,53.52709,-87.53814,1.2083228
2050826789000.0,1.8400074993468865,12.917436040382668,1.8949427002483672,-1.758681,0.7284568,-0.25503623,53.36129,-87.121315,1.2515268
2050831775000.0,1.5764625189035049,13.167804239628367,2.2595133237972584,-1.8173242,0.61758476,-0.31123585,53.212055,-86.68353,1.2788678
2050836945000.0,1.0655882161482768,13.143068163046626,2.96608117677382,-1.894904,0.45265114,-0.36987892,53.13379,-86.20885,1.2475713
2050841884000.0,0.4217733221353412,12.933028832416255,3.856463633227146,-1.9734001,0.25473082,-0.45875978,53.10432,-85.72633,1.1933458
2050846795000.0,0.0106559602356669,12.680159555995644,4.348726806317457,-2.0888536,0.055283304,-0.52595496,53.164627,-85.17386,1.0918428
2050851794000.0,-0.1931861723814239,12.381507049707892,4.481460923556788,-2.2174408,-0.077579886,-0.61575216,53.27033,-84.60341,0.96282536
2050856787000.0,-0.3348040081631488,12.093505440768208,4.528906184065412,-2.3811526,-0.11881329,-0.70157874,53.50494,-83.87639,0.7275201
2050861890000.0,-0.4137921749372504,11.810077407396845,4.487089044590227,-2.5360072,-0.08857546,-0.7877107,53.766018,-83.1164,0.47271588
2050866839000.0,-0.4711086563640917,11.55973236839996,4.358090947039375,-2.713158,-0.025350908,-0.86284715,54.060966,-82.28364,0.17667337
2050872686000.0,-0.5047699484260094,11.307272136058511,4.049528922512774,-2.8903089,0.043676864,-0.93034774,54.357193,-81.41145,-0.1367183
2050876805000.0,-0.5482531024069425,11.19280147658323,3.812997742551818,-3.061351,0.11301007,-0.98868537,54.639076,-80.49099,-0.47451064
2050881799000.0,-0.6271465400200817,11.137919411604388,3.500854081761457,-3.1945198,0.19639318,-1.0369438,54.911243,-79.5403,-0.82497364
2050886865000.0,-0.7071774080513519,11.082246095388369,3.1842101519328696,-3.2910366,0.28160888,-1.065349,55.15806,-78.58937,-1.1810676
2050891812000.0,-0.8245684925711328,11.061212,2.815136140538024,-3.3567045,0.34880406,-1.0641272,55.40022,-77.623795,-1.5381843
2050896848000.0,-0.9692798413967924,11.061212,2.4009623178375583,-3.3701437,0.37232238,-1.0369438,55.64359,-76.66239,-1.8902425
2050901788000.0,-1.077740050972901,11.109583383385162,2.0648351906263884,-3.3310483,0.3371976,-0.97524637,55.85213,-75.766884,-2.235051
2050906821000.0,-1.1719561116925812,11.18238636561528,1.7564918330075523,-3.2195654,0.28252518,-0.9080512,56.068665,-74.90736,-2.5624435
2050911844000.0,-1.4058906260603206,11.162061272855796,1.376880330772856,-3.1477885,0.13836098,-0.8756753,56.27276,-74.10265,-2.8755848
2050916865000.0,-1.8273721534024503,11.017035768897266,0.9010141329688972,-2.9620855,0.026572637,-0.86284715,56.487614,-73.380424,-3.165967
2050921807000.0,-2.174670761471198,10.860656931217886,0.4608021273956549,-2.765998,-0.042455133,-0.9059132,56.68028,-72.72451,-3.4539447
2050926795000.0,-2.368451436383305,10.6711826274227,0.0818530701523483,-2.545781,-0.042455133,-0.9639453,56.890038,-72.140724,-3.732488
2050931933000.0,-2.487234360928384,10.42867526228122,-0.2341827742411431,-2.362216,-0.007330383,-0.9807441,56.982014,-71.605385,-4.049809
2050936876000.0,-1.9268774580451509,9.800274393083622,0.0820186621543925,-2.2602015,0.008246681,-0.99265605,57.087463,-71.11475,-4.3735595
2050942355000.0,-1.3057575974549758,9.10373213891942,0.4325077720089626,-2.1905627,-0.050701816,-1.0106765,57.130096,-70.68465,-4.7213187
2050946811000.0,-0.6841335418468326,8.725943188465175,0.816358657500788,-2.1536055,-0.1872302,-1.0207558,57.192673,-70.27972,-5.058774
2050951767000.0,0.0388505027670973,8.356971878033407,1.270093473573905,-2.1316142,-0.3359759,-1.0091494,57.276722,-69.89609,-5.3827596
2050956800000.0,0.7074269808173405,8.13650396354603,1.4922185908816366,-2.115121,-0.528093,-0.98654735,57.484497,-69.471664,-5.6133833
2050961798000.0,1.3555729133901608,7.95465047978568,1.655420794836824,-2.140472,-0.72051555,-0.945314,57.73133,-69.05229,-5.815926
2050966816000.0,1.8587163878246105,7.844963947423092,1.720558642668797,-2.180789,-0.872621,-0.88697636,58.07982,-68.59979,-5.9112954
2050972056000.0,2.33487846413304,7.754743833959249,1.755644242349181,-2.1908681,-0.98929626,-0.7901542,58.459553,-68.163666,-5.968357
2050976798000.0,2.595632042082948,7.746416444588344,1.7314921031760715,-2.2321017,-1.0445796,-0.69027776,58.803226,-67.6724,-5.9380183
2050981812000.0,2.8251357552035152,7.757521457354302,1.6907737230342277,-2.2531765,-1.0604621,-0.57787853,59.15337,-67.201546,-5.8708177
2050986872000.0,2.993991615329621,7.777510967429259,1.6662469307871763,-2.2693644,-1.0479393,-0.47067168,59.47154,-66.72041,-5.725177
2050991922000.0,2.862966423803432,7.839383956592414,1.72084078275888,-2.2565362,-1.0259482,-0.38515055,59.778355,-66.25607,-5.5563436
2050996888000.0,2.734120661205599,7.90022777128236,1.774526538975015,-2.2611177,-1.0479393,-0.3640757,60.05482,-65.797745,-5.34474
2051001858000.0,2.319137676065922,8.001317160556955,1.8333927417007552,-2.238821,-1.1166617,-0.44715336,60.33673,-65.35713,-5.1381054
2051006858000.0,1.6335733077525172,8.140689800582127,1.8974289673143487,-2.1609359,-1.1365148,-0.514654,60.60408,-64.94112,-4.9282827
2051012298000.0,0.8677461069046226,8.313816212990053,1.9861367129315388,-2.1184807,-1.0067059,-0.766025,60.852333,-64.489586,-4.8273683
2051016822000.0,-0.0521460637381927,8.762897806235895,2.330190864766363,-2.1135938,-0.91354895,-0.8374963,61.098915,-64.06511,-4.6938405
2051021844000.0,-1.073299574120204,9.26141411067458,2.712118351617488,-2.157576,-0.72295904,-0.9761627,61.27904,-63.597485,-4.7994065
2051026854000.0,-1.5955850087279628,9.438595458138984,2.789780025314254,-2.2531765,-0.57879484,-1.1032226,61.456932,-63.12376,-4.924433
2051031830000.0,-1.7538170093604235,9.38208408554036,2.6466177633805046,-2.3283129,-0.44104472,-1.2284501,61.60848,-62.64592,-5.1039395
2051036897000.0,-1.9069403653369088,9.312553892725443,2.508429843211532,-2.3518312,-0.27275133,-1.3118331,61.728165,-62.079556,-5.447906
2051041907000.0,-1.9270458665102248,9.047161193261816,2.4963665844954743,-2.3487768,-0.17348573,-1.3646729,61.850475,-61.50318,-5.8149266
2051046778000.0,-1.946593550385518,8.789131684461951,2.4846380149932954,-2.3215933,-0.16401732,-1.4144585,61.954594,-60.927074,-6.2087746
2051051859000.0,-1.717524449108971,8.384898068719194,2.535814570258588,-2.2782218,-0.22449298,-1.4419475,62.061504,-60.362343,-6.604304
2051056849000.0,-1.3623830045802685,7.917415782073254,2.6191640686281943,-2.2290473,-0.33505958,-1.4724907,62.19187,-59.81108,-6.997235
2051062027000.0,-0.9970777533838,7.451180097771049,2.7016228991757085,-2.1520782,-0.48655418,-1.4645494,62.352734,-59.246998,-7.3648524
2051066899000.0,-0.7027413871158212,7.302049607940113,2.7173208282193624,-2.0335703,-0.64904433,-1.4492778,62.551693,-58.714325,-7.711735
2051071777000.0,-0.4080425376381529,7.152735459870469,2.733038089687947,-1.9126191,-0.8344419,-1.3994923,62.80223,-58.136795,-7.9681873
2051076857000.0,-0.1643012976474531,6.974232374798928,2.705171893029491,-1.78617,-1.0021244,-1.3417655,63.08987,-57.60528,-8.189646
2051081876000.0,0.0410745129968163,6.78496460650134,2.6528212337131367,-1.706452,-1.1108584,-1.2724323,63.402054,-57.10813,-8.370604
2051086791000.0,0.2180623935116731,6.602477993132296,2.590248672548638,-1.6432275,-1.1496484,-1.217149,63.70759,-56.615726,-8.478439
2051092039000.0,0.330509752889105,6.41669537274319,2.4875793632879377,-1.5873333,-1.135293,-1.1636983,64.01662,-56.158764,-8.55879
2051096806000.0,0.4292362331973807,6.24664650028999,2.4072536614780167,-1.5506815,-1.0864239,-1.0940597,64.298584,-55.702305,-8.588425
2051101828000.0,0.5192170185594014,6.062185809494855,2.375760412909261,-1.5005904,-1.0571023,-1.0283916,64.57299,-55.278954,-8.604828
2051106961000.0,0.6093089167992409,5.875805819878232,2.353614550296513,-1.46852,-1.0033462,-0.9502009,64.79814,-54.856445,-8.596123
2051111845000.0,0.6758793622044754,5.720474770301258,2.4349783138768086,-1.4013249,-0.95203346,-0.91690874,65.01267,-54.469036,-8.587276
2051116836000.0,0.7439082510287025,5.561740685854353,2.5181246169131017,-1.3228287,-0.94989544,-0.8695667,65.20279,-54.082275,-8.546297
2051121799000.0,0.9689717835591776,5.189284192021226,2.57370798949114,-1.2425,-0.96486163,-0.82619524,65.37939,-53.726463,-8.50481
2051127662000.0,1.3999443962664644,4.524203206026723,2.610952623377239,-1.1542299,-0.9468411,-0.75594574,65.53439,-53.408882,-8.452974
2051131793000.0,1.596421653832495,4.206318468896123,2.5575544211009174,-1.0690142,-0.89675015,-0.6658431,65.678085,-53.073215,-8.376752
2051136860000.0,1.7065223103876888,4.0004780044983725,2.394796802752293,-0.9828822,-0.84757555,-0.6081163,65.809944,-52.7736,-8.297121
2051141856000.0,1.7265007749100258,3.807845736843188,2.3593666491208225,-0.86559606,-0.7742717,-0.58459806,65.99635,-52.488125,-8.168586
2051146798000.0,1.61456688874036,3.632644747804628,2.5102341956915164,-0.7690793,-0.63438356,-0.5354234,66.13829,-52.23114,-8.041912
2051151807000.0,1.4877826515200516,3.5407237994501943,2.641769339683053,-0.66645396,-0.45814893,-0.45081854,66.23479,-52.01014,-7.901823
2051156796000.0,1.344848366251617,3.556176226568564,2.746072758845408,-0.54733527,-0.34513888,-0.43860126,66.314995,-51.82305,-7.7814283
2051162255000.0,1.1852317351353483,3.5758010477941755,2.860051335419462,-0.46273044,-0.19639318,-0.43004912,66.35949,-51.615276,-7.6915436
2051166824000.0,1.0056614892194775,3.631053386772946,2.9532897295635703,-0.36651915,-0.074830994,-0.40042216,66.37678,-51.44912,-7.609435
2051171814000.0,0.8095451558598374,3.69139682549128,3.0551193611632863,-0.25686884,0.08552113,-0.34605515,66.34395,-51.280796,-7.5762534
2051176797000.0,0.6332511996817359,3.7780623618264015,3.19901546380651,-0.1685988,0.15607607,-0.364992,66.311325,-51.133713,-7.5581293
2051181790000.0,0.4819315900687161,3.899118053128391,3.397892567757685,-0.10781772,0.20066923,-0.38820487,66.23929,-51.01528,-7.5516067
2051186801000.0,0.3103764211357664,3.9823737747653807,3.602075597622523,-0.029626964,0.33383787,-0.35613444,66.11159,-50.885918,-7.5881763
2051191978000.0,0.062222284519708,3.93067503274244,3.829550278456726,0.053450707,0.46211955,-0.3378085,65.983284,-50.77575,-7.6387267
2051197641000.0,-0.1525452766963055,3.9241212294838537,4.018985561552912,0.15821409,0.50488013,-0.3381139,65.83989,-50.651947,-7.7014127
2051201861000.0,-0.253770387629305,3.971118568065122,4.09851974564809,0.22968534,0.5299256,-0.32253686,65.66938,-50.547848,-7.773774
2051206837000.0,-0.3769443809357496,4.0219558765074135,4.192941001317957,0.27488935,0.62858033,-0.31337386,65.48878,-50.39764,-7.89017
2051211919000.0,-0.5493316564448105,4.017946873410215,4.297174956260297,0.35002577,0.7632761,-0.26328292,65.29004,-50.283623,-8.002226
2051216829000.0,-0.7158844944514003,4.014073554794069,4.397881118945635,0.43310347,0.80878556,-0.27152961,65.092285,-50.144978,-8.127705
2051221877000.0,-0.8461473718063554,3.9590241433994455,4.430707883962466,0.5152648,0.8063421,-0.29535335,64.87764,-50.03494,-8.257186
2051226812000.0,-0.9519793361377692,3.878390305907443,4.425668269119215,0.57360244,0.8594874,-0.28680122,64.64427,-49.94787,-8.395318
2051231853000.0,-1.0592352772766696,3.827209293784331,4.557042823156982,0.63041294,0.9025534,-0.26419923,64.43032,-49.84351,-8.558625
2051236868000.0,-1.1656857927435675,3.785554685419678,4.728289342382191,0.70829827,0.9379836,-0.25228736,64.21544,-49.765594,-8.725374
2051241829000.0,-1.2289625798336996,3.7828203605084583,4.9253904405428655,0.7874053,0.95325524,-0.23090707,64.0033,-49.69009,-8.902331
2051246814000.0,-1.2745904091847462,3.796508790308707,5.135278474615311,0.86620694,0.98349303,-0.19914207,63.784214,-49.640957,-9.07769
2051251794000.0,-1.3601161967829118,3.839351939319965,5.391213932885789,0.9465357,0.97127575,-0.16493362,63.595818,-49.5687,-9.247214
2051256812000.0,-1.473239372598082,3.9021981238012207,5.680306468997385,1.0262536,0.9492846,-0.12736541,63.40401,-49.523575,-9.407429
2051261822000.0,-1.629605059684047,3.979335126381153,5.970450362642681,1.0803152,0.89949906,-0.07696902,63.24049,-49.46335,-9.555143
2051267484000.0,-1.916792133357684,4.103122856926308,6.302200804227924,1.135293,0.8713993,-0.005192355,63.072113,-49.432438,-9.685354
2051271799000.0,-2.140451523387097,4.224874718475073,6.561615060043988,1.185384,0.81092364,0.073303826,62.947605,-49.372684,-9.808249
2051276855000.0,-2.4396554680875573,4.579862260997067,6.916602973240469,1.2092078,0.7706065,0.14172074,62.817764,-49.328766,-9.91266
2051281796000.0,-2.7186538952309984,4.979503390528233,7.316244365292267,1.1881329,0.6994407,0.22388211,62.73314,-49.258682,-10.036484
2051286811000.0,-2.949288588226528,5.591878280783242,7.92861913098195,1.1481212,0.66706485,0.28955013,62.641354,-49.19685,-10.144935
2051291832000.0,-3.180199215052161,6.20498582295082,8.541726548435172,1.0506883,0.65026605,0.37568212,62.564682,-49.115772,-10.267052
2051296855000.0,-3.2772303676588224,7.316516576802158,9.571366661984932,0.8549059,0.64873886,0.441961,62.483078,-49.003998,-10.372227
2051301852000.0,-3.339547805459957,8.549510732964375,10.701982183610829,0.6096435,0.58062744,0.4886922,62.407368,-48.861588,-10.444397
2051306826000.0,-3.5458640481621986,9.689497060950936,11.356646850952622,0.49754974,0.45173484,0.5494733,62.343727,-48.692043,-10.503442
2051311877000.0,-3.835397272584724,10.798694872534142,11.760362354577644,0.32406402,0.26206118,0.5571091,62.3066,-48.450085,-10.536547
2051316788000.0,-4.103005001275663,11.846876391767989,11.832677417181582,0.2742785,0.024740042,0.4810564,62.28584,-48.218155,-10.490006
2051321870000.0,-4.34067667909109,12.846067789615308,11.003251865258122,0.3866777,-0.21838433,0.43157628,62.2938,-48.0081,-10.399819
2051326859000.0,-4.370052736481004,13.580847944891184,10.061778987030616,0.5699373,-0.398895,0.42455134,62.28384,-47.934315,-10.294689
2051331887000.0,-3.847856452157876,13.655447069642198,8.768721420405754,0.7367035,-0.49357912,0.4578435,62.30243,-47.89836,-10.16398
2051337220000.0,-3.2939835833640725,13.734571399852452,7.397226590888971,0.86406887,-0.602924,0.43371433,62.2537,-48.139675,-10.012465
2051341877000.0,-2.589957892414541,13.76984412846025,6.825697991557482,1.0064005,-0.61178154,0.43401974,62.19687,-48.42491,-9.855412
2051346911000.0,-1.6733524339178407,13.78409216845631,6.649975636321545,1.1322387,-0.4578435,0.54061574,62.115925,-48.736034,-9.6960945
2051351722000.0,-1.2025893797030631,13.571414257000564,6.632959964132682,1.2217305,-0.2171626,0.743423,61.872475,-49.32011,-9.447507
2051356708000.0,-1.0993898619808309,13.136181247603831,6.758594186102236,1.2461652,-0.09773844,0.88422745,61.626293,-49.902622,-9.2023535
2051361767000.0,-1.0202260247368422,12.594338444078948,6.683080025197368,1.2198979,-0.04520403,0.9275989,61.271408,-50.53318,-8.860167
2051366725000.0,-0.9837816803508772,11.901895574561404,6.282191856403508,1.2140946,-0.03604105,0.90194255,60.8979,-51.159046,-8.524391
2051371717000.0,-1.0215417880188864,11.189851401141055,5.878118782825103,1.244638,0.04886922,0.8921687,60.50479,-51.70613,-8.212801
2051376718000.0,-1.1204760899075348,10.4643335152469,5.472959565335432,1.3158038,0.14569137,0.8582657,60.122158,-52.243492,-7.9226513
2051381699000.0,-1.045738304721889,9.877654074429772,5.0634406535814325,1.4404203,0.19822577,0.8176431,59.747196,-52.772892,-7.6688004
2051386731000.0,-0.8046893958783514,9.414839951980792,4.644015499839936,1.5989398,0.25350907,0.75716746,59.363148,-53.315777,-7.4470363
2051391694000.0,-0.5529326335712152,9.054697547028963,4.370461062645566,1.7718146,0.30451632,0.7312057,58.999928,-53.868706,-7.26838
2051396690000.0,-0.2862499675773862,8.783253186324275,4.227595303433861,1.8481728,0.3915646,0.7302894,58.62434,-54.425423,-7.112318
2051401762000.0,-0.0446730651516195,8.656371133356306,4.132919966574776,2.0024164,0.45051312,0.729984,58.235233,-55.05704,-6.950326
2051406765000.0,0.1658327068547553,8.672881291953825,4.087516707184701,2.123673,0.5015204,0.7305948,57.8296,-55.68921,-6.798245
2051411781000.0,0.3604507377172061,8.739720417163543,4.028758037968484,2.1975877,0.5122105,0.7528914,57.396667,-56.33902,-6.617348
2051416775000.0,0.4877574113798978,9.009610172274275,3.916728346358603,2.2290473,0.49510628,0.7724391,56.960484,-56.99836,-6.4360175
2051421735000.0,0.5605575939867737,9.283659228908832,3.806577653830893,2.2333233,0.48441613,0.80573124,56.504,-57.685818,-6.223898
2051426763000.0,0.5150666392961738,9.57480156693434,3.697399324572508,2.2153027,0.44776422,0.84482664,56.0559,-58.363922,-5.994844
2051431735000.0,0.4536833636394948,9.83664486567164,3.5611098009184845,2.1856759,0.41263947,0.8863655,55.59035,-59.072388,-5.734555
2051436822000.0,0.3214792421354764,9.994272842605156,3.3017863173155204,2.158187,0.40011674,0.9315695,55.124317,-59.764076,-5.4589086
2051441823000.0,0.18944686160096,10.091989136298642,3.071543367020733,2.1242838,0.40683624,0.9621128,54.66005,-60.478146,-5.173468
2051446814000.0,0.0527560660012256,10.05293459953018,2.9006798387498725,2.0992384,0.38453966,0.9798279,54.204723,-61.172497,-4.872972
2051451758000.0,-0.0449496954625996,9.98839016785194,2.735039467826236,2.0723603,0.35613444,0.98837996,53.77551,-61.903442,-4.575926
2051456878000.0,-0.065956142978665,9.866552724616572,2.571189246251392,2.0463986,0.3662137,1.001819,53.343098,-62.611847,-4.275174
2051462247000.0,-0.0838394395373232,9.73625401283132,2.404340086316381,2.000889,0.39095375,1.0125091,52.939053,-63.320328,-3.9913375
2051466980000.0,-0.0583676632218788,9.59615951793575,2.3066982564203427,1.9575176,0.43035457,1.0363328,52.52927,-64.006874,-3.703954
2051471777000.0,-0.0325514555343261,9.454170654209983,2.2077361059848277,1.8845193,0.46883908,1.0525209,52.130455,-64.684875,-3.4253578
2051476807000.0,-0.0555017916088328,9.292605269352098,2.186395962339238,1.8240436,0.49205196,1.0525209,51.728443,-65.33904,-3.1478877
2051481773000.0,-0.0862764748054679,9.131038148426756,2.178702297565316,1.7531832,0.5039638,1.0531317,51.32138,-65.95525,-2.869703
2051487098000.0,-0.2108445255176728,9.060109638515277,2.223318024564696,1.6811012,0.52656585,1.0393872,50.916504,-66.553444,-2.5995996
2051491897000.0,-0.4360637420832031,9.122404071004066,2.3287398106349704,1.6059648,0.5299256,1.0204504,50.517693,-67.116585,-2.3302712
2051496839000.0,-0.6047411038337723,9.233837225538972,2.413748687776802,1.5567901,0.5467244,1.010982,50.122864,-67.647064,-2.081249
2051501823000.0,-0.7071776919520047,9.396804933665008,2.474279321588138,1.5454891,0.5519168,0.98715824,49.737,-68.15391,-1.840243
2051506837000.0,-0.7803938802566548,9.540488691407266,2.5055609595855373,1.5314392,0.5519168,0.945314,49.38587,-68.627106,-1.644662
2051511918000.0,-0.8141473073354721,9.658625355761728,2.4971226138298794,1.5225816,0.5345071,0.9101892,49.04258,-69.087425,-1.4522947
2051516860000.0,-0.85318373845033,9.767105797291505,2.4774600149481443,1.5066991,0.52564955,0.86101454,48.721592,-69.53657,-1.2936058
2051522745000.0,-0.9497972593640182,9.844396674552154,2.361523799940002,1.4969252,0.55924714,0.7583892,48.405018,-69.97316,-1.1607162
2051526771000.0,-1.0158917428302048,9.897272302734208,2.2822104266820946,1.4758505,0.59437186,0.7254025,48.103046,-70.4099,-1.0248253
2051531854000.0,-1.109900917060442,9.922795669892778,2.224123665774741,1.4789047,0.6533204,0.6646214,47.80023,-70.83888,-0.928019
2051536829000.0,-1.2048375500426984,9.936357843723314,2.178915790264731,1.4902058,0.68508536,0.6020077,47.500423,-71.25435,-0.8395643
2051541857000.0,-1.318013249549724,9.896245388302509,2.1071701761595816,1.5018122,0.691194,0.54244834,47.215797,-71.693886,-0.78271437
2051546861000.0,-1.4386659548465188,9.831278669991285,2.0236413168199863,1.529912,0.6881397,0.4877759,46.931984,-72.131386,-0.74058545
2051551823000.0,-1.5402829282403576,9.690035400595928,1.9385273700629035,1.5552629,0.6957755,0.44012842,46.664867,-72.57942,-0.73204535
2051556924000.0,-1.633279114848535,9.49595674755835,1.8495745344644927,1.5830573,0.68691796,0.37995818,46.41005,-73.02594,-0.7360568
2051561909000.0,-1.7078942644211852,9.236587625796805,1.7345574322420714,1.5824465,0.6918049,0.34116822,46.166916,-73.47967,-0.7705282
2051566858000.0,-1.7228137838042024,8.725593541669946,1.518224245400173,1.5851953,0.7367035,0.31337386,45.91995,-73.93201,-0.816066
2051571776000.0,-1.7376398489336586,8.217800269142991,1.30324614621075,1.575116,0.766025,0.27550024,45.69761,-74.38418,-0.88924766
2051576819000.0,-1.6972671912796822,7.958755029662047,1.1978964176918714,1.5656476,0.7852673,0.2501493,45.467354,-74.827705,-0.96420336
2051581895000.0,-1.6263527273847151,7.840564325066861,1.1545597848691145,1.5231925,0.7874053,0.22632557,45.237083,-75.249016,-1.0447506
2051586859000.0,-1.5440633295815869,7.752059143779166,1.1234345061140554,1.4724907,0.7846564,0.19975294,45.012657,-75.683815,-1.1403959
2051592657000.0,-1.3859562766669304,7.778410212259748,1.1410019462469352,1.4156802,0.75686204,0.19761491,44.795055,-76.09637,-1.2294017
2051596777000.0,-1.2736070082970814,7.797135014284584,1.153485191046429,1.3652838,0.7464773,0.20463985,44.57279,-76.49932,-1.3087351
2051601830000.0,-1.0853856421324717,7.899579099305331,1.138365156187399,1.3439035,0.6948592,0.22479841,44.369637,-76.88691,-1.3757545
2051606886000.0,-0.8702710568012924,8.044292356042003,1.1070757857189013,1.2892311,0.6383542,0.26450464,44.16984,-77.24415,-1.4301559
2051611860000.0,-0.6456737294488188,8.19599857769801,1.0962405579666512,1.2458596,0.5497787,0.32375857,43.986923,-77.603745,-1.4344555
2051616892000.0,-0.3629442718110236,8.389445260112707,1.1706430325073336,1.1985176,0.42577308,0.36896262,43.828953,-77.94037,-1.422661
2051621818000.0,-0.0861705618897638,8.578816952794504,1.2434782053188205,1.16492,0.30726522,0.4279111,43.677433,-78.29276,-1.3313578
2051626800000.0,0.0894094882260205,8.680771586292732,1.2667138741121806,1.1270463,0.15760323,0.48472157,43.56703,-78.62375,-1.218362
2051631860000.0,0.1939502050199137,8.72097952522403,1.2546514924327912,1.10139,0.03573562,0.5891795,43.47595,-78.943504,-1.0708925
2051636843000.0,0.2736568909312977,8.759985640458014,1.2239539370687025,1.1047498,-0.087964594,0.66950834,43.41033,-79.25852,-0.83231336
2051641879000.0,0.2515673611145038,8.796801299236641,1.1098247028854962,1.1349876,-0.22021692,0.69913524,43.37595,-79.562614,-0.57805383
2051646869000.0,0.229679602221374,8.83328067519084,0.996737951778626,1.1270463,-0.3036,0.73853606,43.356613,-79.871574,-0.29004174
2051651797000.0,0.1040654199839314,8.859162074297958,0.8828681212755375,1.1475104,-0.37507126,0.75533485,43.3669,-80.1811,-0.0023530002
2051656859000.0,-0.1073688431869308,8.877708926237663,0.7641681720292295,1.1786644,-0.4071417,0.7360926,43.385242,-80.47529,0.2796034
2051662385000.0,-0.3492004019656141,8.904477719623078,0.6271113882327658,1.2183707,-0.3717115,0.6948592,43.406147,-80.79973,0.54456717
2051666889000.0,-0.7021727763613821,9.018569869730534,0.4096233769383369,1.2492194,-0.2751948,0.6627888,43.4147,-81.11317,0.79750144
2051671895000.0,-1.0944862102479749,9.145378329641265,0.1678949167829393,1.2660183,-0.19272798,0.61544675,43.44381,-81.45925,0.9787248
2051676796000.0,-1.3589855992553868,9.207277140367554,0.0237493260519645,1.3038919,-0.11178834,0.5412266,43.445896,-81.80757,1.1349767
2051681826000.0,-1.5230673151140686,9.21490900190114,-0.0411201900760456,1.3341297,-0.03848451,0.43676865,43.427517,-82.14799,1.262917
2051687101000.0,-1.6923307043904874,9.221055471062698,-0.104405196576584,1.3814718,0.055283304,0.31887165,43.42032,-82.561516,1.2831072
2051691920000.0,-1.803620272043905,9.198029979710627,-0.0890549104157658,1.3949108,0.092240654,0.19761491,43.41129,-82.969574,1.2719197
2051696869000.0,-1.9179120484117744,9.174383340013303,-0.0732905264751372,1.4156802,0.1301143,0.14569137,43.39477,-83.409836,1.2073749
2051701791000.0,-1.5809199273058974,9.203477151506153,0.0604041700466694,1.4660766,0.1740966,0.0720821,43.3694,-83.86054,1.1031352
2051706828000.0,-0.9301009323886298,9.268968622995333,0.27734382789563,1.4605788,0.2134974,0.021991149,43.33391,-84.29342,0.99267775
2051711847000.0,-0.3700653971536086,9.308004170108068,0.5280494514087225,1.4065173,0.33292156,0.02565634,43.276283,-84.72162,0.848926
2051716887000.0,-0.0813196879293708,9.266088867136242,0.8866530376688537,1.3494014,0.45051312,0.077579886,43.206566,-85.1372,0.7084248
2051721863000.0,0.1654917252022122,9.23729656757691,1.191377992347045,1.314582,0.48258355,0.10262536,43.08127,-85.4916,0.69548404
2051726793000.0,0.2340355788835119,9.266672926028344,1.2664497761009332,1.2614367,0.43004912,0.12705997,42.94513,-85.812004,0.70036453
2051731833000.0,0.304108808610439,9.296704740753544,1.3431965895126166,1.1982121,0.37720928,0.13683382,42.800167,-86.06404,0.7473686
2051736801000.0,0.3231897755703743,9.319387243887258,1.3670616271361251,1.1184943,0.33383787,0.15577064,42.667072,-86.28521,0.80632526
2051741830000.0,0.2075707109234462,9.32366929407842,1.2514426054147771,1.039998,0.31031954,0.14721853,42.543964,-86.481125,0.8617241
2051747036000.0,0.0903123353126981,9.330785860335196,1.1371601250188736,1.0076222,0.31642818,0.1255328,42.43385,-86.66314,0.92423964
2051751796000.0,0.0146001821011626,9.37208351396648,1.1027455334440586,0.97585726,0.34330627,0.106901415,42.324654,-86.81601,0.9849925
2051756839000.0,-0.0656133449252604,9.415836469273742,1.0662848642609088,0.9578367,0.35918877,0.095294975,42.236656,-86.99773,1.0194387
2051761824000.0,-0.1040710904001373,9.441181884509705,1.017520554611025,0.92271197,0.36957347,0.124311075,42.1422,-87.155396,1.0608658
2051766832000.0,-0.0752436353783273,9.437063593594369,0.9475109851107676,0.8680395,0.35521814,0.1423316,42.050827,-87.29693,1.0969783
2051772010000.0,-0.0556765263974203,9.422901682285367,0.8773750197551391,0.829555,0.35277468,0.1591304,41.967957,-87.449104,1.118856
2051776822000.0,-0.1439058982571543,9.306810000302296,0.8355821742533253,0.7834347,0.37140608,0.1695151,41.883125,-87.57561,1.1450976
2051781928000.0,-0.2379607207417397,9.188708986802812,0.7991269215374242,0.75655663,0.39095375,0.18753563,41.806713,-87.70532,1.1873989
2051786849000.0,-0.3332961198111935,9.129692065696943,0.8490645194268375,0.72265357,0.38820487,0.20372356,41.731213,-87.81019,1.232572
2051792342000.0,-0.4336391121268464,9.074154493957236,0.9024555343600869,0.70402217,0.3753767,0.23732115,41.670647,-87.91828,1.2734501
2051796801000.0,-0.4601051724666873,9.122675654477844,0.9245105608459868,0.6426302,0.3707952,0.23976462,41.608498,-88.000725,1.3103834
2051801983000.0,-0.4935629857499041,9.182148398542386,0.9526442938665132,0.6197228,0.3622431,0.24953845,41.568012,-88.0843,1.337107
2051806803000.0,-0.5537642680667434,9.270679614499423,1.0057630789067893,0.55955255,0.3680463,0.28893927,41.524376,-88.13235,1.3733104
2051811870000.0,-0.6170505538550057,9.363747596087457,1.0616039261680092,0.51007247,0.3371976,0.3203988,41.51032,-88.18158,1.4036709
2051816825000.0,-0.7151255326887184,9.45366481968063,1.0939595378681044,0.47952923,0.32375857,0.34788775,41.489143,-88.20801,1.4438599
2051821811000.0,-0.8587120701316882,9.54278776016176,1.0989107951057653,0.4560109,0.31673363,0.36041048,41.474552,-88.21731,1.4882641
2051826808000.0,-0.9512653048278374,9.6622551002004,1.0656286959646566,0.44348818,0.2910773,0.35216382,41.49027,-88.23358,1.5151654
2051831860000.0,-0.995337101931135,9.81209904008016,0.9951137883858626,0.41447207,0.27091873,0.35888332,41.505737,-88.23363,1.549284
2051836886000.0,-1.052506236627548,9.926706208359068,0.9317580164710728,0.40653083,0.24953845,0.38148534,41.550148,-88.25093,1.5635813
2051841894000.0,-1.136439883570105,9.971141510809142,0.882385317850525,0.3921755,0.21991149,0.38759398,41.601784,-88.263374,1.5750587
2051847682000.0,-1.2167421408948276,9.963655731754226,0.8629605486992611,0.39553526,0.19608775,0.3857614,41.66256,-88.28521,1.5824401
2051851828000.0,-1.26095308890576,9.911406647029052,0.8790372669865372,0.3753767,0.1386664,0.3885103,41.740017,-88.29689,1.5929523
2051856778000.0,-1.2946402690293923,9.834720007371704,0.8941855980587846,0.37598756,0.08002335,0.38423425,41.832897,-88.33063,1.584502
2051861863000.0,-1.2992426722048958,9.733466945279272,0.9033904044097912,0.36682457,0.019242255,0.38759398,41.940895,-88.35511,1.579406
2051866789000.0,-1.2931532465420748,9.653705543573857,0.90979666,0.36560285,-0.032986723,0.40011674,42.0702,-88.38589,1.5656126
2051871840000.0,-1.259312808534879,9.619865458924648,0.90979666,0.35613444,-0.080634214,0.41813725,42.213127,-88.41003,1.5545932
2051876767000.0,-1.226806691812307,9.581625336319576,0.9174423512880012,0.355829,-0.14172074,0.43982297,42.377773,-88.43707,1.5402479
2051881850000.0,-1.1946352732559846,9.528006367601703,0.9460391495344396,0.3585779,-0.16646078,0.4654793,42.542747,-88.454796,1.5319273
2051889498000.0,-1.144889545931457,9.459665304805666,0.9898729077733104,0.37934732,-0.21930063,0.5183192,42.734043,-88.45321,1.5414059
2051891889000.0,-1.1229690703427149,9.496929975971664,1.007409311133448,0.37507126,-0.22907446,0.5183192,42.916767,-88.4566,1.5420041
2051896824000.0,-1.0777254287574192,9.573843883208884,1.0436042716446488,0.36132678,-0.2489276,0.54458636,43.114407,-88.43226,1.5677342
2051901792000.0,-1.0288648663886288,9.669954977104435,1.0195309611371182,0.33322698,-0.27122417,0.5714644,43.312008,-91.59264,1.5918641
2051906861000.0,-0.9751510907524044,9.789777784407184,0.924498924759554,0.3115413,-0.28680122,0.5888741,43.509785,-91.62177,1.6188216
2051911847000.0,-0.923971866303746,9.918839291751246,0.8173139240524082,0.28344148,-0.29138273,0.5934556,43.70873,-91.66263,1.6576756
2051916805000.0,-0.8845424312142461,10.124749084886512,0.6157856707805869,0.2782491,-0.28405234,0.59620446,43.905064,-91.70557,1.6983651
2051922254000.0,-0.839472289054643,10.355003251676166,0.3878269598818303,0.27275133,-0.28405234,0.57757306,44.09609,-91.75646,1.7455864
2051926826000.0,-0.7624115585819645,10.637558752514249,0.0502276635727454,0.3109304,-0.27366763,0.53969944,44.27838,-91.80169,1.7853249
2051931772000.0,-0.6790470850653705,10.943227936054308,-0.3149880231168288,0.36163223,-0.2706133,0.49877146,44.452965,-91.86168,1.8332385
2051936851000.0,-0.7555108578987151,11.372790542328042,-0.735036239739229,0.4437936,-0.31429017,0.44165558,44.634125,-91.91069,1.8633171
2051941890000.0,-0.9561279973922904,11.888011628968254,-1.1864247321853745,0.5561928,-0.42546764,0.36835176,44.82987,-91.9517,1.8750819
2051946915000.0,-0.9969739498119728,12.488247075515805,-1.5339934850797845,0.6432411,-0.552833,0.35521814,45.018246,-92.054756,1.9169275
2051951799000.0,-0.8591123004451672,13.168047853643664,-1.7574243482975913,0.65118235,-0.59986967,0.4083634,45.21056,-92.16969,1.9553111
2051956836000.0,-0.6139500089026068,13.73488844340664,-1.749035369185701,0.56382865,-0.6224717,0.4633413,45.418327,-92.301674,1.9747409
2051961892000.0,-0.256255416620022,14.15836590082364,-1.4817923043644392,0.3811799,-0.59528816,0.4908302,45.621426,-92.43608,1.9999696
2051966842000.0,0.1373286283081127,14.542397356618276,-1.2375246325064049,0.14721853,-0.5027421,0.48838675,45.794655,-92.5951,2.055843
2051971861000.0,0.8269176127480785,14.72710855764304,-1.1061743379590094,-0.03023783,-0.42943826,0.4642576,45.96232,-92.731026,2.110717
2051976769000.0,1.5012556752368915,14.90773469325363,-0.9777289811870196,-0.17287487,-0.41416663,0.3921755,46.11621,-92.83776,2.1999896
2051981860000.0,1.8087498670384248,14.929573783741397,-1.0670308543434694,-0.26511553,-0.40530908,0.2947425,46.247242,-92.90558,2.271358
2051986839000.0,1.999863816920798,14.90464581310447,-1.2165983094144812,-0.29352075,-0.41172317,0.23151793,46.375122,-92.94781,2.3285024
2051991943000.0,2.2822257995359867,14.924862432150958,-1.3232643028975046,-0.31337386,-0.3915646,0.119729586,46.458157,-93.02556,2.4423156
2051996866000.0,2.6371136407506706,14.988061914209114,-1.3816019544235925,-0.28619036,-0.38056904,0.009773844,46.54368,-93.089005,2.5320992
2052001794000.0,2.964977663220376,15.113817537880422,-1.3478615821929634,-0.24984388,-0.37598756,-0.080634214,46.61083,-93.17188,2.6257331
2052006827000.0,3.277086924253544,15.294147331534642,-1.236889454406792,-0.21594086,-0.41172317,-0.12156218,46.684788,-93.24015,2.6970048
2052011822000.0,3.586839707655227,15.473115604791712,-1.126755184926973,-0.19730948,-0.4981606,-0.07147124,46.757248,-93.35751,2.8123474
2052016819000.0,3.78466523014012,15.500390958821846,-0.9960618536116672,-0.18081611,-0.5326745,-0.06291912,46.82315,-93.45479,2.8992248
2052021871000.0,3.950688656848728,15.481944007720903,-0.8577088824478124,-0.19914207,-0.51343226,-0.086132,46.896816,-93.54832,2.9858487
