timestamp,acc_x,acc_y,acc_z,gyro_x,gyro_y,gyro_z,ori_azimuth,ori_pitch,ori_roll
9406962515000.0,-2.4094646744135435,9.520318812679164,-1.4748282,0.18509217,7.678576,-8.407644,216.0077,-93.59735,3.199462
9406967504000.0,-2.4152013617493884,9.518884637725316,-1.4748282,0.18509217,8.657183,3.3102787,215.8394,-96.79548,6.589421
9406972482000.0,-2.420925400546309,9.517453624913076,-1.4748282,-8.21125,0.7510588,0.036957346,215.72932,-86.99364,2.950188
9406977492000.0,-2.4266862350928275,9.516013413143426,-1.4748282,-1.1872166,0.754724,0.0421497,213.222,-93.91343,3.667413
9406982504000.0,-2.432449369373696,9.51457262643894,-1.4748282,-1.1969905,0.75228053,0.03145956,212.94276,-86.52283,3.3519523
9406987573000.0,-2.4382780460835374,9.513115454091562,-1.4748282,-1.1866057,0.74067414,0.033292156,212.66551,-86.72731,3.0478547
9406992491000.0,-2.44393309284996,9.51170168932447,-1.4748282,-1.1713341,0.7324274,0.03604105,212.38824,-86.89467,2.7435155
9406997485000.0,-2.44967552952168,9.510266077033524,-1.4748282,-1.1621711,0.7296785,0.032375857,212.11302,-87.020134,2.44043
9407002582000.0,-2.45553640251242,9.508800855598414,-1.4748282,-1.1511755,0.7593055,0.029932396,211.83116,-87.10105,2.140873
9407007580000.0,-2.461283438652839,9.507364093437792,-1.4748282,-1.1774428,0.7846564,0.040011674,211.55157,-87.12668,1.8465247
9407012713000.0,-2.4671857068618768,9.505888523175594,-1.4748282,-1.2260065,0.80909103,0.060170226,211.26411,-87.1005,1.5567607
9407017599000.0,-2.4728039578787016,9.504483957365911,-1.4748282,-1.5723672,0.7733554,0.05589417,210.98734,-86.947464,1.2657456
9407023689000.0,-2.4798066489741704,9.502733280783644,-1.4748282,-1.2449434,0.7687739,0.060170226,210.69485,-86.913765,0.9850343
9407028660000.0,-2.485522638700866,9.50130428024334,-1.4748282,-1.2421945,0.7663304,0.058948494,210.4121,-86.66874,0.7032777
9407032578000.0,-2.490027818292335,9.500177982895336,-1.4748282,-1.2443326,0.7498371,0.0571159,210.13513,-86.48476,0.42554948
9407037703000.0,-2.495920887563974,9.498704712372492,-1.4748282,-1.2452488,0.7452556,0.07696902,209.85565,-86.280785,0.15608366
9407042615000.0,-2.5015690351273467,9.497292672409912,-1.4748282,-1.2412782,0.7415904,0.076358154,209.58151,-86.062065,-0.116882525
9407047657000.0,-2.507366665423464,9.495843261682852,-1.4748282,-1.2641857,0.7171558,0.09437868,209.31445,-85.82394,-0.37583554
9407052586000.0,-2.513034360728812,9.494426334774149,-1.4748282,-1.2428054,0.691194,0.07971791,209.05013,-85.59003,-0.6415568
9407057577000.0,-2.5187733477990064,9.49299158488546,-1.4748282,-1.1960741,0.63591075,0.08124508,208.80098,-85.35191,-0.8938511
9407062782000.0,-2.5247584064446413,9.491495316969088,-1.4748282,-1.0876455,0.56505036,0.07788532,208.56462,-85.13157,-1.1480352
9407067622000.0,-2.5303237635714178,9.490103974660684,-1.4748282,-0.95417154,0.50488013,0.06505715,208.34164,-84.92669,-1.4005543
9407072602000.0,-2.536050102102688,9.488672386913606,-1.4748282,-0.81397796,0.44806966,0.06047566,208.13828,-84.75004,-1.6468728
9407077586000.0,-2.541781040102658,9.487239649296852,-1.4748282,-0.69058317,0.37995818,0.04734206,207.95627,-84.598854,-1.8939848
9407082573000.0,-2.5475154277041527,9.485806049277842,-1.4748282,-0.53969944,0.12003502,-0.0033597588,207.84685,-84.48263,-2.143065
9407087680000.0,-2.553387799366642,9.48433795316854,-1.4748282,-0.044898596,0.02565634,-0.016798794,207.70946,-84.48389,-2.383585
9407093003000.0,-2.559508542338921,9.482807764096716,-1.4748282,0.05955936,0.04153884,-0.020158553,207.61574,-84.40909,-2.627346
9407097595000.0,-2.564788732406309,9.481487713708246,-1.4748282,0.016798794,0.037873644,-0.009468411,207.55482,-84.41054,-2.8628824
9407102587000.0,-2.570528869343679,9.48005267635214,-1.4748282,-0.0018325958,0.03023783,-0.004276057,207.49117,-84.42783,-3.096021
9407107576000.0,-2.576265556679524,9.47861850139829,-1.4748282,0.01863139,0.018936822,-0.0036651916,207.42984,-84.43081,-3.322268
9407112693000.0,-2.582149427013763,9.4771475306148,-1.4748282,0.020463986,0.011301007,-0.005192355,207.3699,-84.41269,-3.5427225
9407117621000.0,-2.5878159724519354,9.475730891173514,-1.4748282,0.01985312,0.009162978,0.0061086523,207.31166,-84.389145,-3.7544684
9407122595000.0,-2.593535411780156,9.47430102823095,-1.4748282,0.00580322,0.016493361,0.010079277,207.25339,-84.350494,-3.9641237
9407127587000.0,-2.599275548717525,9.472865990874846,-1.4748282,0.015882496,0.02076942,0.009468411,207.19676,-84.30783,-4.167263
9407132787000.0,-2.605254858027285,9.471371160295568,-1.4748282,0.013133603,0.027794369,0.0012217305,207.13762,-84.249985,-4.367294
9407137820000.0,-2.611042139518828,9.46992433677528,-1.4748282,0.01740966,0.040011674,0.008246681,207.0758,-84.19036,-4.559033
9407142639000.0,-2.61658334943493,9.468539031282676,-1.4748282,0.009468411,0.038789943,0.009773844,207.04742,-84.14615,-4.735007
9407147594000.0,-2.622280941286827,9.467114630221076,-1.4748282,0.0070249503,0.055283304,-0.00030543262,207.0108,-84.094444,-4.908951
9407157574000.0,-2.6337566156928665,9.46424570537854,-1.4748282,0.0009162979,0.086132,-0.0036651916,206.97049,-84.03562,-5.0769424
9407162621000.0,-2.6395599953248583,9.462794857314384,-1.4748282,-0.0027488936,0.089186326,-0.010079277,206.93388,-83.9672,-5.244745
9407167810000.0,-2.645526656095694,9.461303188876716,-1.4748282,0.004886922,0.11362094,-0.014049901,206.8826,-83.89346,-5.409928
9407172598000.0,-2.651032220129373,9.459926794874104,-1.4748282,0.0015271631,0.12858713,-0.01160644,206.83347,-83.81274,-5.57137
9407177589000.0,-2.656771207199568,9.458492044985418,-1.4748282,0.0009162979,0.13683382,-0.014049901,206.77972,-83.72658,-5.7320104
9407182576000.0,-2.6625055948010625,9.457058444966409,-1.4748282,-0.00030543262,0.14935656,-0.004886922,206.72066,-83.63974,-5.885382
9407187714000.0,-2.6684136123459754,9.455581437367114,-1.4748282,0.0015271631,0.13988814,-0.009773844,206.66618,-83.54544,-6.039896
9407192656000.0,-2.674096255924597,9.45416077338196,-1.4748282,0.0061086523,0.14019357,-0.017104227,206.60568,-83.45014,-6.1894593
9407197842000.0,-2.680059467093908,9.452669967346552,-1.4748282,-0.0015271631,0.13622294,-0.016493361,206.54955,-83.35233,-6.334746
9407202585000.0,-2.685513287104714,9.4513065093778,-1.4748282,-0.0009162979,0.12797627,-0.014966198,206.49504,-83.25196,-6.478617
9407207582000.0,-2.6912591733779583,9.449870034684595,-1.4748282,0.004581489,0.11636983,-0.01740966,206.44308,-83.14884,-6.6202483
9407212749000.0,-2.697200537070945,9.44838469053015,-1.4748282,0.0021380284,0.11484267,-0.013133603,206.3909,-83.04627,-6.756483
9407217616000.0,-2.7027969406114454,9.44698558660143,-1.4748282,0.014966198,0.10629055,-0.01160644,206.3445,-82.942764,-6.891035
9407222808000.0,-2.708767050983805,9.445493055761506,-1.4748282,0.013439035,0.113926366,-0.013744468,206.2942,-82.83771,-7.0226083
9407228629000.0,-2.7154604278092123,9.443819707914972,-1.4748282,0.023823744,0.09865474,-0.010995574,206.25327,-82.7354,-7.149263
9407232610000.0,-2.7200380490327034,9.442675300119568,-1.4748282,0.028405234,0.106595986,-0.009162978,206.20384,-82.63155,-7.274204
9407237839000.0,-2.726050704490537,9.441172132985136,-1.4748282,0.023518313,0.10995574,-0.0106901415,206.16046,-82.527534,-7.3964534
9407242618000.0,-2.731545919719641,9.439798326189296,-1.4748282,0.03604105,0.13103059,-0.01038471,206.11002,-82.42547,-7.5151167
9407247685000.0,-2.7373722966951326,9.43834172877676,-1.4748282,0.025961773,0.13041973,-0.011301007,206.06526,-82.32187,-7.631864
9407252585000.0,-2.7430066458524065,9.43693313842321,-1.4748282,0.02443461,0.13255776,-0.010995574,206.01402,-82.21976,-7.745727
9407257590000.0,-2.7487617310630506,9.435494363990657,-1.4748282,0.024129177,0.1459968,-0.0125227375,205.96014,-82.117096,-7.8579235
9407262825000.0,-2.7547812857239338,9.43398947205171,-1.4748282,0.020463986,0.15974127,-0.010079277,205.90598,-82.01621,-7.966464
9407267668000.0,-2.7603500924522355,9.432597267341048,-1.4748282,0.0027488936,0.15485434,-0.017104227,205.85378,-81.91275,-8.075761
9407272842000.0,-2.7662995052154464,9.431109910914667,-1.4748282,0.006414085,0.16157386,-0.011911872,205.79471,-81.81463,-8.178617
9407278491000.0,-2.772795104886761,9.429486007464218,-1.4748282,-0.004886922,0.16065755,-0.009773844,205.73975,-81.71429,-8.282067
9407282661000.0,-2.7775900510063183,9.428287268326605,-1.4748282,-0.02443461,0.1563815,-0.018325957,205.68427,-81.61351,-8.384911
9407287740000.0,-2.783430226387909,9.426827221305038,-1.4748282,-0.022907447,0.14508049,-0.009773844,205.63155,-81.51951,-8.480124
9407292748000.0,-2.789188761200078,9.425387584470226,-1.4748282,-0.032986723,0.14080444,-0.010995574,205.57845,-81.42151,-8.578493
9407297629000.0,-2.794801262881028,9.42398445599764,-1.4748282,-0.03970624,0.118202426,-0.021685716,205.5343,-98.67537,-8.67512
9407302670000.0,-2.80059774330997,9.422535332737995,-1.4748282,-0.03604105,0.11148291,-0.010995574,205.48717,-98.76507,-8.764012
9407307662000.0,-2.8063378802473395,9.421100295381892,-1.4748282,-0.032986723,0.094989546,-0.019547688,205.44965,-98.8618,-8.859509
9407312694000.0,-2.8121240118717075,9.41965375932902,-1.4748282,-0.043066,0.09682214,-0.014966198,205.40904,-98.95016,-8.946287
9407317812000.0,-2.818009032073121,9.41818250107811,-1.4748282,-0.03940081,0.074830994,-0.02107485,205.38031,-99.0426,-9.03672
9407322625000.0,-2.823543342786174,9.416798920390022,-1.4748282,-0.033292156,0.07147124,-0.02321288,205.34584,-99.131035,-9.12285
9407327659000.0,-2.829331774144892,9.415351809402312,-1.4748282,-0.026267206,0.06352998,-0.011911872,205.31923,-99.215866,-9.205086
9407332694000.0,-2.834622427943146,9.41393667383004,-1.4747799552885672,-0.028099801,0.06872234,-0.01985312,205.28986,-99.30521,-9.291601
9407337711000.0,-2.8329415529156585,9.412976184560105,-1.474059587082442,-0.02076942,0.061086524,-0.01863139,205.26668,-99.38746,-9.370583
9407342684000.0,-2.831275419467045,9.412024118955282,-1.4733455366361472,-0.015577064,0.06719518,-0.012217305,205.24661,-99.50075,-9.4802265
9407348681000.0,-2.829266209273734,9.410876011689624,-1.472484454688343,-0.02321288,0.06811147,-0.021991149,205.23029,-99.616,-9.591778
9407352662000.0,-2.8279324314215457,9.410113861443737,-1.4719128410091358,-0.024129177,0.073303826,-0.02443461,205.21104,-99.72542,-9.697033
9407357606000.0,-2.826276014013553,9.409167347800013,-1.471202954540911,-0.018020526,0.070554934,-0.028099801,205.19386,-99.83581,-9.80314
9407362720000.0,-2.824562640505367,9.408188288177438,-1.470468658546069,-0.008552114,0.07696902,-0.021685716,205.1726,-99.94195,-9.904723
9407367675000.0,-2.8229025377026566,9.407239668617436,-1.4697571926378863,-0.018020526,0.07727446,-0.026267206,205.15392,-100.049805,-10.008282
9407372651000.0,-2.8212353991463925,9.40628702867181,-1.4690427114352398,-0.023823744,0.081855945,-0.02443461,205.13228,-100.15226,-10.105946
9407377721000.0,-2.81953676721708,9.405316392714353,-1.4683147332002278,-0.029626964,0.09407325,-0.018020526,205.1084,-100.252396,-10.201423
9407382698000.0,-2.8178692936249323,9.404363561321793,-1.4676001084121304,-0.034208454,0.09590584,-0.009162978,205.08632,-100.34916,-10.293628
9407387672000.0,-2.816202825140435,9.403411304270035,-1.466885914380385,-0.046120327,0.09407325,-0.014049901,205.06183,-100.44567,-10.385908
9407392751000.0,-2.8145011778881712,9.402438945290166,-1.466156643876317,-0.0421497,0.10354166,-0.009773844,205.03377,-100.53554,-10.471082
9407397697000.0,-2.812844090408412,9.401492048752576,-1.4654464702371908,-0.04184427,0.11148291,-0.0106901415,205.00673,-100.62595,-10.557305
9407402669000.0,-2.811178291995682,9.400540174594688,-1.4647325633763468,-0.04886922,0.1142318,-0.013439035,204.9786,-100.71376,-10.641019
9407407653000.0,-2.80950847315235,9.399586003073589,-1.4640169334900943,-0.045814894,0.11789699,-0.01038471,204.94812,-100.79877,-10.721537
9407417774000.0,-2.806117574975511,9.39764836865042,-1.462563705143634,-0.03390302,0.099571034,-0.0027488936,204.92343,-100.88161,-10.799946
9407422539000.0,-2.804521128990664,9.396736124007957,-1.4618795204710833,-0.037873644,0.098043874,0.0061086523,204.89299,-100.961105,-10.875345
9407427472000.0,-2.80286839697739,9.395791716280511,-1.4611712134428163,-0.033292156,0.096516706,0.00580322,204.86806,-101.040146,-10.949709
9407432512000.0,-2.8011798161245824,9.394826823731083,-1.4604475427713253,-0.04062254,0.09590584,0.0076358155,204.84354,-101.113945,-11.019421
9407437591000.0,-2.7994781688723185,9.393854464751216,-1.459718272267257,-0.029321533,0.0842994,0.0030543262,204.82278,-101.189,-11.089671
9407442530000.0,-2.797823426643744,9.392908908342164,-1.459009103726286,-0.024740042,0.0852157,0.002443461,204.79875,-101.26042,-11.156742
9407447507000.0,-2.796155953051596,9.391956076949604,-1.4582944789381884,-0.016187929,0.08277224,0.0076358155,204.77924,-101.33061,-11.222135
9407452503000.0,-2.7944821137776623,9.39099960806529,-1.4575771260265278,-0.018936822,0.079107046,0.0067195175,204.75986,-101.400986,-11.288036
9407457489000.0,-2.7928116248625634,9.39004505365032,-1.456861208969374,-0.022602014,0.09315695,0.008246681,204.73624,-101.46807,-11.350259
9407462638000.0,-2.791086525098455,9.389059293385042,-1.4561218874837574,-0.0125227375,0.105374254,0.0067195175,204.7143,-101.53535,-11.412309
9407467740000.0,-2.7893771720208704,9.388082531125685,-1.4553893145143235,-0.020463986,0.11148291,0.0106901415,204.69026,-101.59841,-11.471003
9407472666000.0,-2.787726785258781,9.387139463526776,-1.4546820125842113,-0.0106901415,0.12736541,0.006414085,204.65994,-101.66409,-11.531032
9407477657000.0,-2.7860546211642645,9.386183951877136,-1.453965377599804,-0.015577064,0.14202617,0.0106901415,204.62854,-101.724014,-11.586236
9407482605000.0,-2.7843968636127383,9.385236672445677,-1.4532549167897768,-0.02443461,0.14538592,0.007330383,204.596,-101.7863,-11.643615
9407488054000.0,-2.7825712530835816,9.384193478100071,-1.4524725196689523,-0.02107485,0.16462818,0.006414085,204.5549,-101.84582,-11.697661
9407492702000.0,-2.781014006297103,9.383303632748936,-1.4518051344941327,-0.021685716,0.17654006,0.008857546,204.51532,-101.9036,-11.75064
9407497657000.0,-2.7793539034943926,9.382355013188931,-1.4510936685859506,-0.035124753,0.19333886,0.008246681,204.46906,-101.96094,-11.803449
9407502652000.0,-2.777680399256342,9.381398735751551,-1.4503764592597406,-0.034208454,0.20066923,0.011301007,204.42258,-102.016075,-11.853465
9407507599000.0,-2.776022976740699,9.380451647767028,-1.4496661420351638,-0.045814894,0.21533,0.00580322,204.36943,-102.071556,-11.904895
9407512779000.0,-2.7742874908642023,9.379459952646782,-1.4489223694005755,-0.034208454,0.23273966,0.0030543262,204.31389,-102.12553,-11.953626
9407517675000.0,-2.772647155178618,9.37852262845591,-1.4482193750339845,-0.0421497,0.24373524,-0.00030543262,204.25642,-102.178764,-12.003112
9407522795000.0,-2.770931771455131,9.37754242015173,-1.447484217526438,-0.04917465,0.25137106,0.0030543262,204.19548,-102.23049,-12.050414
9407527645000.0,-2.7693068474201867,9.37661390251984,-1.4467878280905784,-0.049480084,0.2593123,-0.0012217305,204.13173,-102.284294,-12.099858
9407532786000.0,-2.768114030506041,9.375309047732982,-1.4456006712166527,-0.04153884,0.26145032,-0.0067195175,204.06812,-102.33665,-12.147838
9407537741000.0,-2.7742639893079315,9.369632147485744,-1.4382680265098498,-0.047647487,0.2782491,-0.009162978,203.99852,-102.387726,-12.195095
9407542631000.0,-2.7803332725654983,9.364029717171112,-1.4310315718950632,-0.05100725,0.2782491,-0.008857546,203.96149,-102.44373,-12.246234
9407547659000.0,-2.7865738362094747,9.3582691814611,-1.4235908983156875,-0.047647487,0.29046643,-0.010079277,203.91641,-102.499794,-12.297169
9407552647000.0,-2.792764753364637,9.352554473401922,-1.4162094186390917,-0.04550946,0.30604348,-0.02107485,203.8707,-102.55723,-12.34979
9407557673000.0,-2.7990028346841727,9.34679622907445,-1.4087717047548551,-0.042455133,0.31031954,-0.021991149,203.82533,-102.61133,-12.3988905
9407562681000.0,-2.8052185750837424,9.341058607189854,-1.4013606281268691,-0.047036625,0.3277292,-0.023518313,203.77199,-102.66733,-12.449989
9407567755000.0,-2.8115162321898555,9.33524536968138,-1.3938518815592975,-0.06047566,0.33505958,-0.024740042,203.72089,-102.72212,-12.500346
9407572659000.0,-2.817602891718507,9.329626899688956,-1.3865947090785382,-0.05131268,0.35277468,-0.03176499,203.66217,-102.77889,-12.551518
9407577654000.0,-2.823802497009212,9.323904171790884,-1.3792028704689556,-0.06261369,0.3643811,-0.036957346,203.60373,-102.832695,-12.601596
9407582650000.0,-2.830003343462137,9.318180298201538,-1.3718095520118037,-0.059253927,0.36987892,-0.040317107,203.5425,-102.88821,-12.652087
9407587656000.0,-2.836216601537265,9.312444967699484,-1.3644014350789568,-0.057726767,0.3747658,-0.04886922,203.47859,-102.94493,-12.704502
9407592615000.0,-2.842371524988037,9.306763484687163,-1.357062870981876,-0.07422013,0.38362336,-0.059253927,203.41255,-103.001305,-12.757377
9407597701000.0,-2.8486840760407945,9.300936498883438,-1.34953636624347,-0.08002335,0.38515055,-0.05375614,203.34802,-103.055244,-12.807243
9407603556000.0,-2.85595108084101,9.294228476492403,-1.3408718587241295,-0.080634214,0.3817908,-0.058643065,203.28276,-103.113365,-12.862051
9407607659000.0,-2.861043569431152,9.28952770520796,-1.3348000441465286,-0.08582657,0.3866777,-0.07422013,203.21526,-103.171394,-12.91733
9407612816000.0,-2.867444243001555,9.283619375324,-1.3271684702306894,-0.09468412,0.38515055,-0.06719518,203.15152,-103.22323,-12.966758
9407617941000.0,-2.873805199380907,9.277747707560712,-1.319584251437074,-0.10903945,0.37323865,-0.06078109,203.08983,-103.27797,-13.019926
9407622637000.0,-2.879633697167724,9.272367541352631,-1.3126348872507676,-0.10934488,0.37568212,-0.057726767,203.02504,-103.33102,-13.07098
9407627956000.0,-2.8862354390178253,9.266273609482791,-1.3047635780286715,-0.11178834,0.37659842,-0.06047566,202.9648,-103.38209,-13.1212
9407632652000.0,-2.8920639368046417,9.260893443274714,-1.2978142138423656,-0.108123146,0.37048978,-0.064446285,202.9065,-103.43213,-13.170153
9407638149000.0,-2.898886605529968,9.254595578358655,-1.289679491752901,-0.1255328,0.37140608,-0.06505715,202.84647,-103.479866,-13.218037
9407642673000.0,-2.904501623414882,9.249412471049167,-1.2829846613485465,-0.1337795,0.37690386,-0.058337633,202.78745,-103.52651,-13.264157
9407647659000.0,-2.910690058245604,9.243700054372532,-1.2756061413670894,-0.12980886,0.364992,-0.055588737,202.73375,-103.57336,-13.311028
9407652658000.0,-2.9168946281851897,9.237972743709374,-1.268208383367229,-0.13133603,0.3735441,-0.04520403,202.67314,-103.6147,-13.352737
9407657604000.0,-2.9230334165270966,9.232306154683574,-1.2608890572885514,-0.1337795,0.35705075,-0.04184427,202.62386,-103.65671,-13.395463
9407663102000.0,-2.929857326414643,9.226007144076243,-1.2527528553515173,-0.12797627,0.33475417,-0.03481932,202.57448,-103.69452,-13.433519
9407667657000.0,-2.9355108203283886,9.22078852033736,-1.2460121496725087,-0.12614368,0.31673363,-0.042760566,202.529,-103.73465,-13.4744625
9407673806000.0,-2.94314272682139,9.213743664712684,-1.2369125669677394,-0.11209377,0.27275133,-0.03268129,202.49849,-103.76816,-13.508317
9407677664000.0,-2.947931130667544,9.209323587789608,-1.2312033150446624,-0.09254608,0.2556471,-0.028405234,202.4655,-103.805305,-13.545345
9407682640000.0,-2.9541071538760617,9.20362262802568,-1.2238395935389002,-0.08582657,0.20555615,-0.02321288,202.45549,-103.8388,-13.579631
9407688136000.0,-2.9609285814391675,9.197325908800892,-1.2157063512970052,-0.063224554,0.16462818,-0.025045475,202.44794,-103.87437,-13.61418
9407692656000.0,-2.9665386346752007,9.19214738425649,-1.2090174402829286,-0.032070424,0.11759156,-0.015577064,202.45712,-103.90547,-13.644116
9407697670000.0,-2.972761822048092,9.186402888224269,-1.201597484569526,-0.023518313,0.07666359,-0.022296581,202.47615,-103.94091,-13.678961
9407702661000.0,-2.9789564626899154,9.18068474309128,-1.1942115653502214,-0.004276057,0.035430185,-0.0106901415,202.50922,-103.97006,-13.705765
9407707645000.0,-2.985142415196196,9.174974617797185,-1.186836005063903,0.0067195175,-0.009773844,-0.0067195175,202.55489,-104.00244,-13.736489
9407713168000.0,-2.9919973541392517,9.168646964908085,-1.178662806937632,0.03023783,-0.03176499,-0.003970624,202.60544,-104.032845,-13.763707
9407717636000.0,-2.9975428669398254,9.163528016309764,-1.1720508479971687,0.023518313,-0.050701816,0.0009162979,202.6678,-104.05963,-13.788958
9407722646000.0,-3.003761089663836,9.157788103042629,-1.164636811674044,0.03604105,-0.058643065,-0.0061086523,202.73253,-104.09052,-13.816179
9407727648000.0,-3.0099693830900827,9.152057355305658,-1.157234614131475,0.04917465,-0.055588737,-0.014966198,202.79881,-104.119415,-13.841858
9407732553000.0,-3.0160572837809547,9.146437739621964,-1.1499759618031464,0.050396383,-0.048563786,-0.024740042,202.86534,-104.14973,-13.869047
9407737765000.0,-3.000927593509678,9.137967023123412,-1.2083410609967593,0.0571159,-0.043066,-0.022602014,202.93065,-104.17933,-13.894489
9407742653000.0,-2.9845270412805465,9.129766982482264,-1.2698433780327585,0.04337143,-0.027183503,-0.018325957,202.98994,-104.209045,-13.9209795
9407747685000.0,-2.975123946839753,9.123434012768676,-1.3124465145350075,0.038789943,-0.005497787,-0.02443461,203.06062,-104.27705,-13.990242
9407752647000.0,-2.970067490380932,9.118377503511386,-1.342784936497127,0.043066,0.024740042,-0.029932396,203.12279,-104.34173,-14.056043
9407757586000.0,-2.965944877785853,9.111389576065893,-1.3589252264777132,0.029321533,0.057421334,-0.041233405,203.20116,-104.41695,-14.12882
9407762641000.0,-2.962035783914729,9.103571143410852,-1.370652589728682,0.023823744,0.09010262,-0.038179077,203.26942,-104.48843,-14.196755
9407767671000.0,-2.9508150562988438,9.104981203084296,-1.381866181233719,0.005497787,0.12308934,-0.051618114,203.34871,-104.574265,-14.277873
9407772673000.0,-2.9208662262894656,9.129938561425444,-1.391849124570178,-0.0030543262,0.16310102,-0.05497787,203.41513,-104.65454,-14.352652
9407777607000.0,-2.893454174464908,9.15416832553509,-1.394886369785963,-0.018325957,0.20311269,-0.053450707,203.49744,-104.745804,-14.437333
9407782655000.0,-2.8693906172722747,9.178231882727724,-1.38526094690891,-0.027794369,0.23609942,-0.058948494,203.56837,-104.83748,-14.52227
9407787612000.0,-2.8428172631731887,9.203223636284385,-1.3758969154300658,-0.04062254,0.27458394,-0.054061573,203.653,-104.92922,-14.605193
9407792615000.0,-2.810330812824487,9.231069179000386,-1.366615148624564,-0.051618114,0.29535335,-0.049785517,203.7313,-105.0198,-14.68735
9407797586000.0,-2.7807377529489354,9.258530561993592,-1.3537936529489354,-0.0571159,0.31612277,-0.061086524,203.82614,-105.11554,-14.773788
9407802587000.0,-2.758176241360468,9.285604470133784,-1.3312321413604673,-0.056505036,0.33383787,-0.044898596,203.91414,-105.19966,-14.84857
9407807610000.0,-2.737022881480499,9.30995190607588,-1.310078767949058,-0.06352998,0.3399465,-0.0421497,204.0367,-105.29634,-14.934845
9407812590000.0,-2.724369004059432,9.318388000530645,-1.2974248024409658,-0.070249505,0.34238997,-0.03145956,204.15234,-105.38367,-15.011508
9407817694000.0,-2.71140005017246,9.32703415034934,-1.2844557582736358,-0.062002823,0.33383787,-0.030543262,204.31006,-105.48093,-15.097079
9407822615000.0,-2.706471877030121,9.32781,-1.2644699244583406,-0.071776666,0.3118467,-0.02076942,204.46675,-105.5683,-15.174578
9407827568000.0,-2.702294151964065,9.32781,-1.2435813427514533,-0.05467244,0.28771752,-0.0125227375,204.62213,-105.65526,-15.249827
9407832588000.0,-2.688412322572614,9.3033154533195,-1.2200991282157676,-0.04642576,0.2687807,0.002443461,204.82108,-105.7501,-15.332487
9407838613000.0,-2.664470322572614,9.255431078319502,-1.1901716282157675,-0.040011674,0.23854288,0.008246681,205.02425,-105.843025,-15.413115
9407842635000.0,-2.66879783041088,9.24474936863426,-1.1810786032407408,-0.016187929,0.21930063,0.007330383,205.25162,-105.94959,-15.503683
9407847626000.0,-2.6780181348765435,9.235528919753088,-1.1718583469135802,-0.015882496,0.19456059,0.020158553,205.48268,-106.04624,-15.586251
9407852585000.0,-2.6787490952474693,9.223770487251594,-1.165613595247469,-0.0012217305,0.17165314,0.03604105,205.71623,-106.14842,-15.670842
9407857572000.0,-2.6742721548368955,9.210339993250845,-1.1611366548368955,0.01038471,0.12583824,0.047036625,205.9575,-106.24531,-15.751437
9407862672000.0,-2.6475912432945496,9.16437037844458,-1.15392602865891,0.025961773,0.10140363,0.06627888,206.183,-106.34447,-15.830143
9407867647000.0,-2.5989644010818536,9.08656732935293,-1.1442006602163708,0.032375857,0.08460484,0.080634214,206.41423,-106.43955,-15.905563
9407872650000.0,-2.5602328535299006,9.015571030315614,-1.1476041232350498,0.033292156,0.05589417,0.09682214,206.6519,-106.53399,-15.978497
9407877657000.0,-2.530362917171927,8.950853268064785,-1.1625390914140366,0.047647487,0.029626964,0.110872045,206.88902,-106.62438,-16.046366
9407882710000.0,-2.510315099604333,8.897633998681112,-1.1739605002637776,0.046731193,0.005497787,0.12461651,207.11676,-106.702805,-16.102379
9407887712000.0,-2.496776761328309,8.852506204427696,-1.1829860591144608,0.057726767,-0.020158553,0.14172074,207.34839,-106.776764,-16.152601
9407892650000.0,-2.501933293730666,8.825030462569602,-1.197094974984533,0.03970624,-0.03726278,0.15851954,207.57214,-106.84213,-16.194832
9407897592000.0,-2.526334482429367,8.81526978325428,-1.2166159259434937,0.047647487,-0.049785517,0.16554448,207.79785,-106.90704,-16.234312
9407902587000.0,-2.558270965512063,8.843840129742718,-1.241144182510762,0.032375857,-0.069027774,0.17623462,208.02322,-106.96276,-16.267096
9407907592000.0,-2.596658799429372,8.906220497647412,-1.2699349326859546,0.027794369,-0.07727446,0.19303341,208.24506,-107.015205,-16.295183
9407912704000.0,-2.6708222593644546,9.047868840269969,-1.3246182473284591,0.020158553,-0.09712757,0.20861048,208.45569,-107.06684,-16.322647
9407917743000.0,-2.7726027616001123,9.251429703037122,-1.3992573011951632,0.021685716,-0.095294975,0.21930063,208.65892,-107.114655,-16.34557
9407922585000.0,-2.8704041491422947,9.447032341957255,-1.4709783368813274,0.0143553335,-0.10354166,0.23273966,208.86812,-107.160126,-16.367176
9407928578000.0,-2.99236544131319,9.629187198721674,-1.5516318418361417,0.019242255,-0.10445796,0.23518312,209.0708,-107.205795,-16.38774
9407932611000.0,-3.0746540296726708,9.737658729227194,-1.6039972965039706,0.01282817,-0.11301007,0.24770586,209.27513,-107.242485,-16.40121
9407937645000.0,-3.177272660284305,9.852307144956969,-1.645732675176482,0.007941248,-0.11453723,0.25809056,209.46635,-107.29485,-16.424562
9407942599000.0,-3.2782064939367563,9.953240643264676,-1.6732601191954355,0.014660766,-0.13255776,0.2519819,209.6614,-107.34725,-16.448475
9407947596000.0,-3.3946489780864195,10.02568481563786,-1.7047671709465022,0.026267206,-0.16249016,0.25686884,209.86354,-107.411285,-16.481518
9407952606000.0,-3.522990024382716,10.075046716872428,-1.7393205018106996,0.04184427,-0.19608775,0.26328292,210.06812,-107.47526,-16.514557
9407957581000.0,-3.660045564231738,10.093954,-1.7525556,0.04642576,-0.23426682,0.2510656,210.2794,-107.55583,-16.565836
9407963638000.0,-3.8342567846347606,10.093954,-1.7525556,0.06627888,-0.30695978,0.23182335,210.50668,-107.63655,-16.616867
9407967808000.0,-3.931760677758319,10.057361127385011,-1.7551693805143331,0.095294975,-0.32620203,0.21991149,210.72673,-107.7416,-16.690472
9407972663000.0,-4.034616956217163,9.997361668909578,-1.759455062512674,0.109650314,-0.3753767,0.2003638,210.9713,-107.8503,-16.771284
9407977653000.0,-4.144459137796108,9.928166949132828,-1.7601503994077834,0.13072516,-0.41783184,0.16462818,211.21364,-107.99319,-16.886995
9407982654000.0,-4.260951869077834,9.847128642343485,-1.7550855118443316,0.16829337,-0.45142943,0.11148291,211.46082,-108.14356,-17.009672
9407987706000.0,-4.367996090702742,9.757794025240605,-1.748114135100781,0.20769419,-0.47647488,0.057726767,211.7005,-108.32682,-17.16527
9407992628000.0,-4.462150232613038,9.663640106773196,-1.7395546635917922,0.2275473,-0.48747048,0.003970624,211.93816,-108.51939,-17.330685
9407998659000.0,-4.572724803107166,9.553065696892835,-1.7384484938490803,0.2510656,-0.5018258,-0.059253927,212.16475,-108.73885,-17.525879
9408002589000.0,-4.640345557704502,9.485444942295498,-1.74640385719721,0.27488935,-0.49693888,-0.12156218,212.38174,-108.967255,-17.72938
9408007563000.0,-4.712540019871106,9.396964774924324,-1.7507460981935357,0.29016098,-0.4810564,-0.17348573,212.57727,-109.22279,-17.962526
9408013104000.0,-4.76953792406015,9.293331680792893,-1.7455644705399862,0.29352075,-0.45478916,-0.23518312,212.76111,-109.49094,-18.208544
9408017588000.0,-4.807419141367448,9.19442379316276,-1.727640670457966,0.2938262,-0.42577308,-0.2874121,212.92644,-109.77489,-18.472494
9408022822000.0,-4.836158464065075,9.050727179674622,-1.6809392335626747,0.30207285,-0.38912117,-0.32711834,213.07616,-110.065025,-18.741838
9408028625000.0,-4.868022103655128,8.89140898172436,-1.6291607776392174,0.28985557,-0.37782016,-0.35185838,213.21687,-110.365295,-19.026762
9408032595000.0,-4.859084282293391,8.81201477387326,-1.6081400035335347,0.28588495,-0.3494149,-0.37323865,213.3371,-110.66875,-19.312527
9408037667000.0,-4.830714704721114,8.72690609052857,-1.589226918903923,0.28160888,-0.3200934,-0.38453966,213.45024,-110.966736,-19.594511
9408042700000.0,-4.80179418600123,8.645257918323427,-1.5955128606066815,0.27488935,-0.2779437,-0.3885103,213.53838,-111.27401,-19.88964
9408047610000.0,-4.772881139270343,8.56815662810002,-1.624425806702193,0.2687807,-0.22693644,-0.3979787,213.61197,-111.57769,-20.180851
9408052655000.0,-4.743738233432304,8.511688718527317,-1.6216991057007126,0.26847526,-0.16615535,-0.40591997,213.66888,-111.87115,-20.46214
9408057612000.0,-4.715548141399446,8.474102059976248,-1.593508964608076,0.267559,-0.08827003,-0.39706242,213.70381,-112.15492,-20.732063
9408062675000.0,-4.6844469273955776,8.450991293611795,-1.573066991769042,0.24923302,-0.030543262,-0.37232238,213.72359,-112.43269,-20.993006
9408068740000.0,-4.644804916782692,8.43909847932023,-1.5572102785899535,0.23182335,0.07880162,-0.31520647,213.7049,-112.69268,-21.230919
9408072575000.0,-4.619738616584766,8.431578455773955,-1.547183816093366,0.20708331,0.1151481,-0.2938262,213.69476,-112.94177,-21.464115
9408077591000.0,-4.575236093184979,8.42191602364395,-1.5276805554937414,0.19914207,0.18600847,-0.25350907,213.64418,-113.16468,-21.66475
9408082586000.0,-4.522961279455593,8.41241182783628,-1.503919222392211,0.16920967,0.28038713,-0.21746802,213.57628,-113.37308,-21.853249
9408088557000.0,-4.409599113479742,8.40491769727376,-1.4834241123059448,0.1423316,0.36774087,-0.20341812,213.49487,-113.56319,-22.022444
9408092604000.0,-4.314210128227944,8.401248810583112,-1.4724176820901174,0.11575896,0.48075095,-0.21135938,213.37848,-113.7423,-22.178793
9408097632000.0,-4.174552273201615,8.418872804497326,-1.4252255820325292,0.081855945,0.6020077,-0.23182335,213.24393,-113.91053,-22.324112
9408102602000.0,-4.013489118087545,8.460437216679402,-1.3420963236546228,0.0571159,0.7324274,-0.24923302,213.0737,-114.07443,-22.462185
9408107583000.0,-3.862816554183267,8.546757651654252,-1.2592199216178763,0.030848695,0.84788096,-0.25411993,212.89142,-114.219505,-22.579887
9408117695000.0,-3.5517234941545537,8.783090596465543,-1.0854558942643522,-0.03726278,1.0088439,-0.23396139,212.65869,-114.35233,-22.68481
9408122661000.0,-3.357769802886124,8.922339043605563,-0.9859924914723414,-0.06688975,1.0485502,-0.20952678,212.4493,-114.46334,-22.769032
9408127641000.0,-3.198248641336761,9.044188205861182,-0.8848605009614395,-0.10170906,1.0586295,-0.19517145,212.21664,-114.52303,-22.807983
9408132651000.0,-3.084774588380463,9.14286125059126,-0.7812537267197943,-0.13072516,1.0424415,-0.16829337,211.98622,-114.569405,-22.835697
9408137615000.0,-3.0093958873820537,9.221156137789084,-0.7004153912802961,-0.14477506,0.9987647,-0.1591304,211.76457,-114.57684,-22.82822
9408142941000.0,-2.9716485891026827,9.282496039454209,-0.6390760020148012,-0.15790866,0.91538155,-0.14538592,211.5655,-114.57344,-22.815578
9408147604000.0,-2.946611304321239,9.331936999796168,-0.5957258046962903,-0.17562376,0.80878556,-0.12950343,211.39317,-114.540726,-22.782341
9408152646000.0,-2.936769075723604,9.376227413880962,-0.5711200841826335,-0.1826487,0.68539083,-0.112399206,211.25496,-114.504906,-22.75108
9408157553000.0,-2.944731222470817,9.406005785214008,-0.5902349965856031,-0.1600467,0.5571091,-0.087964594,211.15604,-114.453415,-22.711016
9408163253000.0,-2.992521952042801,9.411315435019455,-0.7070571065077821,-0.15454891,0.42058071,-0.06963864,211.0993,-114.39809,-22.675447
9408167660000.0,-3.036642361027043,9.419700637996682,-0.8003416435712194,-0.13103059,0.30818152,-0.046731193,211.074,-114.33852,-22.635447
9408172674000.0,-3.102272992385044,9.438452596602556,-0.9128511434833544,-0.10170906,0.20891592,-0.007941248,211.08833,-114.27253,-22.592592
9408177615000.0,-3.159179051594569,9.447637021471424,-1.030560570382065,-0.074830994,0.13255776,0.0067195175,211.1229,-114.22072,-22.558847
9408182647000.0,-3.1934159962740765,9.428616474581622,-1.1713127365329965,-0.049480084,0.0711658,0.027488936,211.18475,-114.16112,-22.517172
9408187675000.0,-3.2276257255762557,9.409611047363436,-1.311953017019261,-0.01160644,0.049785517,0.051923547,211.26176,-114.11982,-22.484457
9408192687000.0,-3.280438990866353,9.377668922095364,-1.474075761047683,0.0143553335,0.05955936,0.065973446,211.347,-114.07802,-22.450718
9408197837000.0,-3.341953747174518,9.33981348220282,-1.6491558982442671,0.040011674,0.10170906,0.081855945,211.42859,-114.03388,-22.409693
9408202653000.0,-3.3833781867488444,9.309022289368258,-1.792347343174114,0.048258353,0.15699236,0.08552113,211.50014,-114.01117,-22.376333
9408207909000.0,-3.419572239137134,9.277998661633282,-1.9371238766718029,0.057421334,0.22815818,0.10140363,211.55426,-113.984,-22.332922
9408212678000.0,-3.4598921430243537,9.248372128752123,-2.032473417311686,0.06505715,0.31887165,0.11636983,211.57806,-113.98205,-22.298439
9408217617000.0,-3.504539882499528,9.217118524636586,-2.117304215555975,0.067500606,0.40683624,0.12797627,211.5817,-113.977,-22.257534
9408222696000.0,-3.55297295336725,9.198526216176598,-2.181097361455549,0.07391469,0.4908302,0.12644911,211.55084,-113.98747,-22.217531
9408228622000.0,-3.611697329223075,9.18873863283608,-2.234927945641114,0.08368854,0.5552765,0.13775012,211.50223,-113.991776,-22.167736
9408232594000.0,-3.640352200568932,9.172500994310678,-2.274113631169359,0.10567969,0.58062744,0.13591751,211.43518,-114.0181,-22.129921
9408237686000.0,-3.645306489464594,9.122958105354058,-2.3335652013816928,0.122783914,0.6218608,0.1337795,211.34747,-114.04145,-22.085281
9408242602000.0,-3.6452698202694265,9.079072836024622,-2.389022506762424,0.15790866,0.64812803,0.1301143,211.24927,-114.08337,-22.050417
9408247602000.0,-3.632454047229905,9.044897619680611,-2.440285554313498,0.19517145,0.64843345,0.13500121,211.15077,-114.12481,-22.012794
9408253812000.0,-3.6033260171063146,9.013863413749,-2.480572045291767,0.25778514,0.62858033,0.13713925,211.04268,-114.177086,-21.974812
9408257588000.0,-3.557075601119105,9.019644828936851,-2.4545562504396483,0.31337386,0.61483586,0.1414153,210.93744,-114.2302,-21.934345
9408263622000.0,-3.48316802430056,9.02888345691447,-2.41298334097522,0.39461896,0.54153204,0.16584991,210.83861,-114.2862,-21.883158
9408267820000.0,-3.426500890108813,9.038989509753948,-2.32317232410548,0.47708577,0.50335294,0.1731803,210.73735,-114.351974,-21.834461
9408272838000.0,-3.3558366673855504,9.053122157533576,-2.181843780276443,0.48930305,0.4361578,0.1966986,210.67381,-114.40793,-21.779884
9408277610000.0,-3.2819336779759705,9.077013982809612,-2.018852021404806,0.50915617,0.39767328,0.23243423,210.6183,-114.45292,-21.705534
9408282654000.0,-3.197109028327172,9.112729418669131,-1.8179514593345656,0.4868596,0.40775254,0.25228736,210.57259,-114.491844,-21.630424
9408287630000.0,-3.125941103761937,9.153049752676765,-1.5924833935371854,0.44440445,0.4801401,0.2556471,210.51462,-114.50458,-21.536076
9408292645000.0,-3.079613571881933,9.204010028069836,-1.3098858457412943,0.37873647,0.6056729,0.2434298,210.44112,-114.51059,-21.43792
9408297589000.0,-3.040211238022248,9.25830056897609,-1.0200058543557853,0.31581733,0.76083267,0.22021692,210.33046,-114.48588,-21.322437
9408302593000.0,-3.0192239790225104,9.325460323727777,-0.6926043772812474,0.22602014,0.8979719,0.2144137,210.19138,-114.448456,-21.201141
9408307991000.0,-2.9975405,9.3967052003062,-0.3444986912018372,0.13194689,0.9737192,0.20922135,210.01833,-114.37766,-21.075172
9408312646000.0,-2.9975405,9.434623039891129,-0.1435339949060134,0.043676864,0.95722586,0.20280726,209.83505,-114.29867,-20.951485
9408317639000.0,-2.9975405,9.475294097473844,0.072022767415157,-0.03970624,0.82986045,0.204029,209.65997,-114.1747,-20.830763
9408323755000.0,-2.9808225494641385,9.507333863252269,0.0905365505394682,-0.103847094,0.657291,0.22449298,209.50677,-114.04034,-20.713587
9408327602000.0,-2.965636255317395,9.52252007811212,0.0335879066564303,-0.13347405,0.56016344,0.25350907,209.37169,-113.89956,-20.600023
9408332586000.0,-2.9563086745480973,9.511375186211282,-0.1922225040122627,-0.14049901,0.3744604,0.27000242,209.30853,-113.73446,-20.50444
9408338680000.0,-2.951007464701608,9.479567816422929,-0.5580062640683986,-0.1337795,0.18325958,0.3210097,209.28064,-113.55508,-20.399698
9408342684000.0,-2.982416847971289,9.452741940783572,-0.8477846701824345,-0.119729586,0.14874569,0.33628133,209.25627,-113.38468,-20.296915
9408347619000.0,-3.0483786257102983,9.41504977748978,-1.2435546970491478,-0.12186762,0.13164146,0.35888332,209.28676,-113.20239,-20.190237
9408352593000.0,-3.124005369792884,9.364050530961231,-1.623875499479554,-0.113926366,0.15668693,0.3707952,209.30989,-113.05045,-20.077663
9408357574000.0,-3.2101374672331384,9.298184411046202,-1.9836044304832716,-0.09743301,0.20525073,0.38240165,209.33177,-112.89735,-19.960957
9408362776000.0,-3.2895844044053613,9.247559225902842,-2.2521080657986854,-0.08002335,0.2846632,0.39614612,209.32039,-112.78608,-19.843115
9408367692000.0,-3.357914747852813,9.211384046870998,-2.43700183508068,-0.06811147,0.36896262,0.4092797,209.29424,-112.67637,-19.721851
9408372620000.0,-3.432355030938145,9.17776483215567,-2.5991729042395915,-0.048258353,0.473726,0.41080686,209.22696,-112.61773,-19.609705
9408377585000.0,-3.525395536319165,9.151920277312753,-2.692213301674095,-0.027183503,0.56291234,0.4120286,209.1427,-112.5596,-19.492565
9408382578000.0,-3.625150620367025,9.145319829704288,-2.7250217427688503,-0.013744468,0.627664,0.41905355,209.02507,-112.536385,-19.383017
9408388707000.0,-3.7590966314538368,9.173225224398593,-2.6524677165636588,-0.004276057,0.6649268,0.42546764,208.89424,-112.51636,-19.271896
9408393770000.0,-3.892011298133053,9.284709855990885,-2.501147380077132,0.006414085,0.6795876,0.42730024,208.74069,-112.51689,-19.170319
9408397606000.0,-4.007930114225611,9.429608712332367,-2.324049087956876,0.008552114,0.6792821,0.42394048,208.58629,-112.51781,-19.069073
9408402827000.0,-4.160715201807784,9.624697866445306,-2.090748997288323,0.018020526,0.66981375,0.40622538,208.42224,-112.53108,-18.988716
9408407576000.0,-4.227832386921232,9.77151651724774,-1.990073219618152,0.032070424,0.65209866,0.39736784,208.26624,-112.54419,-18.909082
9408413489000.0,-4.311880997162869,9.95449647380087,-1.864938541422112,0.031154128,0.6435465,0.39828414,208.10245,-112.55031,-18.85621
9408417655000.0,-4.386163890859119,10.088913226527175,-1.7835810934568668,0.03573562,0.6411031,0.38606682,207.9447,-112.56452,-18.811424
9408422574000.0,-4.473873337352602,10.247625662115436,-1.6875183746520082,0.050701816,0.6411031,0.37843102,207.78754,-112.56638,-18.770248
9408428631000.0,-4.610050814692654,10.451816866566716,-1.5784127667166417,0.043982297,0.6429357,0.35918877,207.63231,-112.571365,-18.736885
9408432586000.0,-4.7084799136431785,10.58810328085957,-1.510269559570215,0.043982297,0.63163465,0.34238997,207.48395,-112.5809,-18.706799
9408439670000.0,-4.839880962560163,10.79712194844502,-1.43472424198445,0.051923547,0.5681047,0.30085114,207.34398,-112.58972,-18.69887
9408442798000.0,-4.889789557524991,10.883075647815623,-1.409769958978156,0.040317107,0.53878313,0.28619036,207.20076,-112.59312,-18.6873
9408447593000.0,-4.985828016274202,11.037601188801675,-1.377882519204605,0.040317107,0.46975538,0.25992316,207.07596,-112.607895,-18.706987
9408452586000.0,-5.110938069283098,11.227768385766614,-1.3528605608581894,0.035430185,0.37843102,0.23182335,206.9675,-112.62394,-18.73435
9408457579000.0,-5.237010518725391,11.43503649070598,-1.3904689011903673,0.035124753,0.28710666,0.19486602,206.87431,-112.64683,-18.781271
9408463445000.0,-5.386186105393279,11.697380060159327,-1.5036367228367364,0.036957346,0.21319197,0.15607607,206.80226,-112.67622,-18.84006
9408467746000.0,-5.49785408907008,11.937939112085871,-1.574867281019713,0.04550946,0.1600467,0.11881329,206.73949,-112.71,-18.915926
9408472612000.0,-5.627714867685004,12.284234186912997,-1.6373927945918052,0.055588737,0.13072516,0.08368854,206.68971,-112.75267,-19.002916
9408477607000.0,-5.744135718186332,12.666880146284958,-1.680683641502565,0.055283304,0.15057829,0.054367006,206.63277,-112.80916,-19.100367
9408482582000.0,-5.834804702134702,13.08868819278504,-1.692510030713222,0.06688975,0.23732115,0.022907447,206.56253,-112.8767,-19.202623
9408488022000.0,-5.933687443516674,13.55819666132525,-1.7017151905067127,0.05955936,0.35979962,-0.0009162979,206.46346,-112.94381,-19.301403
9408492643000.0,-6.014184743178865,14.068013639670854,-1.659549856344738,0.04734206,0.52320606,-0.021380283,206.32584,-113.01697,-19.396671
9408497585000.0,-6.100273826695539,14.613245300996102,-1.614455486851451,0.028405234,0.68661255,-0.034513887,206.15396,-113.066154,-19.470068
9408502592000.0,-6.111799105952918,15.186697097772164,-1.4778281698114908,-0.008857546,0.82894415,-0.025045475,205.94252,-113.10919,-19.531502
9408507594000.0,-6.085875193136105,15.769986602417244,-1.29636037405069,-0.089186326,0.93615097,-0.00030543262,205.69637,-113.14147,-19.582369
9408512690000.0,-5.845121623085737,16.244400014321176,-0.8043731738208898,-0.1740966,0.95722586,0.043066,205.43584,-113.12707,-19.597944
9408517648000.0,-5.3691248899751765,16.57079820966202,0.0206878712621729,-0.2883284,0.8958339,0.08399397,205.17339,-113.09218,-19.605515
9408522591000.0,-4.944401019853556,16.576279843096234,0.7177315842887029,-0.42455134,0.83169305,0.12308934,204.92126,-112.97947,-19.56501
9408527587000.0,-4.604075903786611,16.010738914225943,1.1981907376778245,-0.5907067,0.6600399,0.13713925,204.72296,-112.84712,-19.532206
9408532609000.0,-4.313267601965146,15.437302844642195,1.5928001135706342,-0.68508536,0.46089783,0.11759156,204.58347,-112.585815,-19.433912
9408538352000.0,-4.053258334297367,14.774534665925104,1.9190861991101225,-0.88422745,0.1826487,0.06169739,204.51729,-112.30439,-19.359997
9408542664000.0,-3.890302948500517,14.30041126163392,2.1006284349534643,-1.212262,0.111177474,0.033292156,204.45381,-111.97137,-19.275429
9408547607000.0,-3.77199835196484,13.806795375560151,2.174058906497759,-1.3136657,-0.028099801,-0.013744468,204.48871,-111.67762,-19.231934
9408552946000.0,-3.648059427855692,13.273248747654511,2.250373606963923,-1.5021176,-0.12583824,-0.06688975,204.52847,-111.344284,-19.199131
9408557600000.0,-3.630815815436696,12.799048955991877,2.246062703859174,-1.6850718,-0.16493362,-0.12217305,204.58977,-111.03489,-19.183577
9408562657000.0,-3.612079041048457,12.283787171196442,2.2413785102621144,-1.8658879,-0.16249016,-0.16737708,204.66145,-110.74704,-19.190086
9408567724000.0,-3.622140703742752,11.927572233526622,2.190339950448076,-2.0280726,-0.15210545,-0.19639318,204.74086,-110.47996,-19.207281
9408572570000.0,-3.634372958039009,11.601378785626428,2.1373335151642947,-2.1676552,-0.13316862,-0.22082779,204.81525,-110.23922,-19.233698
9408577590000.0,-3.691694137553816,11.277570077201563,2.061049780410959,-2.2617285,-0.118202426,-0.23396139,204.87793,-110.047386,-19.283377
9408582586000.0,-3.7759625788062623,10.963903892074365,1.972099764520548,-2.324953,-0.0852157,-0.24862215,204.9284,-109.88879,-19.337389
9408587700000.0,-3.9065122775210086,10.61846518382353,1.888481948109244,-2.3793201,-0.036651913,-0.2761111,204.95682,-109.787384,-19.41406
9408592786000.0,-4.067311642246899,10.257884523459383,1.810518544207683,-2.4190264,0.01038471,-0.30818152,204.97482,-109.72416,-19.4941
9408597599000.0,-4.218651098770695,9.965420693615544,1.7205877200257758,-2.443461,0.052534413,-0.36713,204.96349,-109.736084,-19.612545
9408602599000.0,-4.375305604570239,9.69483603018737,1.6161514158719144,-2.4550674,0.08246681,-0.44501534,204.94048,-109.7946,-19.743944
9408607585000.0,-4.46733112413124,9.55785283965426,1.4639785171899806,-2.447737,0.080634214,-0.5149594,204.89899,-109.9392,-19.928503
9408613746000.0,-4.519370870823778,9.516221259657788,1.229799494055389,-2.420248,0.07269296,-0.5742133,204.84937,-69.869225,-20.130568
9408617815000.0,-4.547608495215504,9.510035497224184,0.9985621429433732,-2.3564126,0.07360926,-0.63529986,204.77676,-69.59938,-20.385195
9408622645000.0,-4.570953576471182,9.538049204703745,0.5970264625759564,-2.2708917,0.07880162,-0.6728681,204.70451,-69.29964,-20.648153
9408628212000.0,-4.581381039574908,9.632504015987962,0.0973910751641117,-2.2116377,0.12797627,-0.72021013,204.58986,-68.96283,-20.934278
9408632585000.0,-4.569565220718518,9.782171822533622,-0.3397960403216402,-2.0173824,0.13530666,-0.73639804,204.485,-68.61936,-21.21982
9408637675000.0,-4.545800683951965,10.009469518777292,-0.912153180349345,-1.9398025,0.13103059,-0.7632761,204.31947,-68.25957,-21.522905
9408642640000.0,-4.483509627729258,10.438585724017466,-1.7184764074235803,-1.7321084,0.15454891,-0.7626653,204.14117,-67.913704,-21.820839
9408648538000.0,-4.409513122270742,10.948339475982532,-2.676320192576419,-1.5262468,0.23976462,-0.7489208,203.86696,-67.60004,-22.109846
9408652594000.0,-4.346216350416975,11.21343903388578,-3.142671646669481,-1.3387111,0.36132678,-0.7293731,203.57378,-67.29992,-22.395124
9408657584000.0,-4.255412098859917,11.450539097223688,-3.5159780610049616,-1.1872166,0.5235115,-0.7098254,203.2418,-67.01528,-22.675407
9408662676000.0,-4.1886376595336205,11.559206,-3.724806545027159,-1.0543534,0.6728681,-0.70005155,202.81694,-66.834915,-22.887917
9408667835000.0,-4.142367884322907,11.559206,-3.794211087057501,-0.9080512,0.8402451,-0.66828656,202.34045,-66.6741,-23.087439
9408672639000.0,-4.213108081374921,11.460536532401182,-3.748199327023393,-0.8054258,1.0024298,-0.6627888,201.83327,-66.55238,-23.252333
9408677582000.0,-4.437982372349198,11.227176159989243,-3.5530253906964235,-0.73761976,1.2012665,-0.6969972,201.26929,-66.43052,-23.418049
9408682562000.0,-4.697268068942548,10.963370136552872,-3.2297840646960863,-0.7189884,1.5036448,-0.80481493,200.6278,-66.302505,-23.58776
9408688849000.0,-5.223661605089508,10.455776680370525,-2.0516653725749374,-0.81214535,1.9165897,-0.98440933,199.89842,-66.140854,-23.785439
9408692686000.0,-5.428804670026525,10.216928588859416,-1.3146643809018568,-1.0571023,2.2910502,-1.1988231,199.09085,-65.882164,-24.069181
9408697645000.0,-5.424305678817734,10.072960682266013,-0.3203866190886697,-1.4440855,2.5030203,-1.3771957,198.21292,-65.581215,-24.38775
9408702581000.0,-5.399398065934505,9.945543283246806,0.6307373538138977,-1.8704693,2.535396,-1.5311338,197.26689,-65.13493,-24.840752
9408707572000.0,-5.251461357747604,9.912138564097445,1.3608761055511185,-2.2883012,2.399784,-1.6450601,196.31891,-64.65107,-25.326406
9408712635000.0,-5.094270479787789,9.903228149504262,2.065590110036528,-2.6288586,2.1493294,-1.7244726,195.49321,-64.11532,-25.850586
9408718315000.0,-4.8719169059488605,10.05461758766742,2.623840151435032,-2.8512135,1.7925841,-1.7705929,194.75269,-63.552567,-26.393269
9408722778000.0,-4.69720493411028,10.173570239519917,3.0624792244564274,-2.9611692,1.5653422,-1.7687603,194.14497,-62.983616,-26.921482
9408727578000.0,-4.469174770850202,10.435724720647771,3.718282429897228,-2.9739974,1.0005972,-1.7284433,193.7661,-62.40082,-27.441275
9408732598000.0,-4.224629637246964,10.7301771902834,4.431954823336447,-2.9123,0.28527406,-1.6468927,193.51407,-61.821354,-27.937033
9408737665000.0,-3.9728572145533,10.973019011277827,4.714152793831519,-2.7198775,-0.50579643,-1.5332718,193.54247,-61.292484,-28.342844
9408742647000.0,-3.724870677140335,11.206968298323035,4.952781262047662,-2.4514022,-1.2977833,-1.3933836,193.8034,-60.78846,-28.690712
9408747598000.0,-3.495599795313296,11.349089508507388,4.616342733907286,-2.1310034,-1.9792033,-1.2428054,194.36708,-60.36183,-28.9039
9408752561000.0,-3.2679995986754964,11.479838643708607,4.204725318278146,-1.7693712,-2.4349089,-1.1026118,195.10577,-59.97635,-29.045523
9408757574000.0,-3.068368786164552,11.395956880065492,3.5316305925092104,-1.4272866,-2.600148,-1.0064005,195.99626,-59.68089,-29.062296
9408762654000.0,-2.869227629226361,11.28842057879656,2.8226882501432664,-1.1435398,-2.516154,-0.92271197,196.93433,-59.43319,-29.019915
9408767841000.0,-2.668053772435897,11.074164887920674,1.9804603992568108,-0.9398162,-2.2605069,-0.8741482,197.81259,-59.281044,-28.906996
9408772600000.0,-2.485457653846154,10.782011193509616,1.0994335264663462,-0.79198676,-1.8832976,-0.84574294,198.60579,-59.162437,-28.780653
9408777591000.0,-2.334474090439004,10.427239670536093,0.2451424096158717,-0.7199047,-1.4272866,-0.8518516,199.15816,-59.134552,-28.644794
9408782582000.0,-2.2285480685943435,10.018667646264248,-0.5316481925200507,-0.6835582,-0.96852684,-0.88270026,199.57869,-59.11865,-28.530342
9408787605000.0,-2.1409317957266496,9.652093854129102,-1.154964443346556,-0.72387534,-0.49449542,-0.93676186,199.65762,-59.171574,-28.455574
9408792639000.0,-2.06704391282005,9.317425437612696,-1.6634866699603317,-0.8127562,-0.07971791,-1.0067059,199.61392,-59.209457,-28.4199
9408797664000.0,-1.971459069249592,8.992633193311582,-2.07359737687602,-0.9111055,0.2770274,-1.0558805,199.33157,-59.26259,-28.438612
9408802641000.0,-1.8402476293433927,8.686473606647635,-2.316581489141517,-1.01312,0.54183745,-1.1059716,198.9628,-59.283672,-28.495817
9408807617000.0,-1.7162184609109854,8.416203120273892,-2.292888216641858,-1.106277,0.69913524,-1.16492,198.57968,-59.252457,-28.608522
9408812657000.0,-1.6012625478416196,8.195870545102709,-1.8713832687406968,-1.2205088,0.75991637,-1.2205088,198.15169,-59.195946,-28.74121
9408817641000.0,-1.5061045053806297,7.887860933439617,-1.4538920732164209,-1.3206906,0.74097955,-1.2757921,197.72116,-59.110813,-28.896706
9408822597000.0,-1.4398951404145075,7.443312622279793,-1.037718985492228,-1.412015,0.6453791,-1.3078625,197.30122,-59.00809,-29.05703
9408827597000.0,-1.425955460862866,7.114903611248074,-0.6980444898613252,-1.4495832,0.48930305,-1.3765849,196.93625,-58.868763,-29.220968
9408832582000.0,-1.499515395916795,6.986173705701079,-0.4920767254776579,-1.5204436,0.27030787,-1.4471397,196.62903,-58.710575,-29.383265
9408839185000.0,-1.603258291870653,6.816443447195375,-0.2242232376027459,-1.5738943,-0.09285152,-1.5613716,196.42473,-58.491436,-29.569534
9408842662000.0,-1.699505583949056,6.732226995962424,-0.1159450230223105,-1.5906931,-0.21410827,-1.5971072,196.2167,-58.27439,-29.752365
9408847596000.0,-1.836084283723241,6.612720533384518,0.0377060298220576,-1.5897768,-0.43218717,-1.677436,196.16708,-57.984795,-29.966114
9408852582000.0,-1.994204567818182,6.500225605757575,0.1461768983090909,-1.5815301,-0.61941737,-1.758681,196.15082,-57.688583,-30.18162
9408857567000.0,-2.167805984333333,6.394135993888889,0.2185108042333333,-1.5851953,-0.743423,-1.8264871,196.18907,-57.378284,-30.40278
9408862695000.0,-2.3104974494052186,6.310489286933998,0.240654013232924,-1.5909985,-0.8142834,-1.8863518,196.27277,-57.01815,-30.655128
9408867776000.0,-2.4271987191864928,6.245136727935533,0.2266498628089025,-1.5867225,-0.82344633,-1.9391917,196.37798,-56.64888,-30.915491
9408872656000.0,-2.543063885245901,6.19365404810052,0.2443707348905467,-1.572978,-0.7635816,-1.971873,196.50743,-56.23046,-31.211555
9408877652000.0,-2.6651792295081966,6.151382993619318,0.2913381715961519,-1.5622878,-0.6728681,-1.9905044,196.62761,-55.80978,-31.513775
9408882596000.0,-2.7606427635915494,6.135853155633803,0.389701842471831,-1.5448782,-0.5714644,-2.0030272,196.73894,-55.35842,-31.84967
9408888786000.0,-2.8441363357243463,6.153744995674044,0.5865081036287727,-1.5305228,-0.4896085,-2.0011945,196.82248,-54.915222,-32.185295
9408892702000.0,-2.858725103767567,6.148406483793481,0.6960619360590053,-1.4932601,-0.4266894,-1.9758437,196.88725,-54.45936,-32.534836
9408897593000.0,-2.849387890810326,6.129731814133359,0.8221144231047544,-1.4230106,-0.36987892,-1.9361374,196.92154,-54.021343,-32.879288
9408902585000.0,-2.8553647693578705,6.070945864074404,0.9326447558761256,-1.3359623,-0.34116822,-1.8915442,196.95097,-53.59834,-33.201294
9408907589000.0,-2.87907225288414,5.966633085089542,1.022733262590284,-1.2104294,-0.36560285,-1.8680259,196.9746,-53.19959,-33.513348
9408912628000.0,-2.8860382165202605,5.878102582601304,1.0890223559459715,-1.044885,-0.42455134,-1.8310685,197.01138,-52.832443,-33.796547
9408917643000.0,-2.872428794020969,5.810055470104846,1.1253141492774157,-0.8793405,-0.4615087,-1.7870862,197.04381,-52.494003,-34.066547
9408922595000.0,-2.8699282192551667,5.749080701862083,1.1314437720482915,-0.79412484,-0.5571091,-1.7611245,197.15807,-52.149143,-34.31967
9408927629000.0,-2.8896579557806423,5.699756360548394,1.077186996603233,-0.64812803,-0.64873886,-1.7006488,197.27156,-51.857185,-34.54361
9408932567000.0,-2.922545646457232,5.652158921100019,1.0092500229594832,-0.5164866,-0.7583892,-1.6377298,197.46068,-51.566605,-34.74988
9408938806000.0,-2.9927154681933845,5.593683652417303,0.892300096183206,-0.40653083,-0.9224065,-1.5378532,197.6824,-51.322906,-34.911667
9408942614000.0,-3.0416791376613865,5.551655730922077,0.7935473061551139,-0.28405234,-0.9718866,-1.505172,197.91206,-51.087345,-35.07938
9408947808000.0,-3.119109212251625,5.483335202765314,0.6113590979031224,-0.24648413,-1.0680978,-1.4349225,198.19028,-50.89743,-35.186253
9408952570000.0,-3.184976201125968,5.417043174997486,0.4439355770785161,-0.20891592,-1.1227703,-1.3671165,198.48886,-50.710453,-35.297386
9408957580000.0,-3.2235644833216046,5.3253959355283005,0.2654644180959082,-0.17592919,-1.1572843,-1.3023647,198.79744,-50.55158,-35.378613
9408962651000.0,-3.257435623252776,5.235536744603201,0.1023681501298171,-0.15363261,-1.1548407,-1.2428054,199.13269,-50.37091,-35.488262
9408967660000.0,-3.265268770084912,5.1611216452155455,0.0279532020591116,-0.1337795,-1.1511755,-1.1866057,199.46425,-50.216625,-35.57299
9408973987000.0,-3.275163024428478,5.067125970664598,-0.0660422813594056,-0.113926366,-1.1374311,-1.128879,199.80417,-50.051285,-35.67602
9408977595000.0,-3.183985263205301,4.999424194254064,0.0382883850139766,-0.087964594,-1.1258247,-1.073901,200.13036,-49.909252,-35.75978
9408982596000.0,-3.055065758401491,4.905213876508955,0.1870417035976809,-0.05467244,-1.1102476,-1.022283,200.43762,-49.790375,-35.826103
9408988675000.0,-2.9405678577218795,4.852596742050308,0.3736300065638348,0.0061086523,-1.103528,-0.947452,200.74585,-49.678658,-35.892754
9408992721000.0,-2.870685852672046,4.826850778595159,0.4986821116136687,0.069027774,-1.1071932,-0.87781334,201.04082,-49.588474,-35.94337
9408997647000.0,-2.7865238371867167,4.769543989066416,0.6240615665726816,0.1469131,-1.1142182,-0.8072584,201.36365,-49.535324,-35.941185
9409002591000.0,-2.7024687640037595,4.700322154981203,0.7377831179511278,0.2452624,-1.1316279,-0.7275405,201.6753,-49.517075,-35.91367
9409007577000.0,-2.6521071134327,4.630793936971736,0.7694110732709262,0.34483343,-1.1194105,-0.6404922,202.00479,-49.542156,-35.8275
9409013817000.0,-2.6032264706989,4.543894890529855,0.774842306207398,0.45081854,-1.0852021,-0.5564982,202.31654,-49.602993,-35.72036
9409017839000.0,-2.592404882548169,4.477452208564511,0.7495327390900838,0.56413406,-1.0213667,-0.47342056,202.63362,-49.70586,-35.564312
9409022596000.0,-2.5878092644809847,4.394730171592857,0.7081716966105115,0.6588182,-0.98837996,-0.42638394,202.93733,-49.83332,-35.396965
9409028624000.0,-2.577800932252214,4.301888768910701,0.5784133891923611,0.70646566,-0.88331115,-0.27916542,203.20294,-50.00052,-35.202026
9409032582000.0,-2.5697126433372453,4.245272013336178,0.4651796246772645,0.8689558,-0.8472701,-0.23243423,203.48216,-50.18095,-35.019333
9409038877000.0,-2.5072056138328533,4.21488936075114,0.1711414650088314,0.93034774,-0.73884153,-0.027488936,203.68994,-50.405396,-34.799488
9409043750000.0,-2.446468654178674,4.206212639286046,-0.0848219994143347,1.0861185,-0.63713247,0.12217305,203.88715,-50.659748,-34.586052
9409047588000.0,-2.397197775268705,4.253110718835438,-0.2957617380674111,1.1991285,-0.57848936,0.19883664,204.06577,-50.926426,-34.375336
9409052587000.0,-2.3322526639987475,4.343034450203485,-0.5755248288323073,1.2495248,-0.44104472,0.36560285,204.15897,-51.26382,-34.119312
9409057580000.0,-2.259386345988539,4.485289724603629,-1.0060202244794652,1.3625349,-0.31642818,0.5488624,204.23132,-51.649174,-33.86269
9409063777000.0,-2.163024771633238,4.700686553982808,-1.6522104166762177,1.4694363,-0.18753563,0.743423,204.24306,-52.08187,-33.57218
9409067682000.0,-2.170525730713944,4.859527980114998,-2.0730285134547195,1.6148223,-0.039095376,0.93309665,204.1951,-52.600235,-33.24237
9409072661000.0,-2.216220878965022,5.074295367752756,-2.6168012070723528,1.767844,0.16462818,1.1481212,204.0748,-53.182697,-32.87001
9409077588000.0,-2.476928690151918,5.183823060501434,-3.020252023998725,1.9608774,0.42424592,1.325883,203.86115,-53.881115,-32.45165
9409082577000.0,-3.004813863231701,5.168595559757782,-3.263891346881972,2.150551,0.74097955,1.4523321,203.56664,-54.628304,-32.008648
9409087688000.0,-3.7778256657100737,5.093261258958231,-3.343580880648649,2.3038783,1.0913107,1.4926492,203.1595,-55.448025,-31.557169
9409092725000.0,-4.71177744355774,4.97473938661425,-3.296172092108108,2.468812,1.5323554,1.4291192,202.64868,-56.275906,-31.122969
9409097646000.0,-5.868055462315125,4.95817218353382,-1.9316631953855252,2.629164,2.165212,1.248914,201.92583,-56.984245,-30.85124
9409102591000.0,-7.231527606073753,5.023544137635575,0.5291237563991324,2.7568347,3.010344,0.95081174,201.03343,-57.62593,-30.652504
9409107578000.0,-8.260277426490848,6.114875058846684,3.8860048565636687,2.7058277,3.7986655,0.5143485,199.89604,-57.93878,-30.764837
9409113294000.0,-9.041368657744538,8.544338180279471,8.73954460472348,2.0097466,3.9978075,0.064751714,198.71631,-58.094185,-30.94704
9409117596000.0,-9.44386279363022,10.480228528006666,9.106588960911028,0.73945236,4.076915,-0.12339478,197.66254,-57.765686,-31.40399
9409122662000.0,-9.735831087121564,12.865382798629756,6.312679079400056,0.36285394,3.7864482,-0.35216382,196.70668,-57.326622,-31.964365
9409127592000.0,-9.497556317543111,14.877290378273363,3.628295642910368,0.5589417,2.807842,-0.34055737,196.12463,-56.8813,-32.372257
9409132578000.0,-8.094640603896105,16.22429299025974,0.9902044759740264,1.6533068,1.5152513,0.08032878,195.75166,-56.547207,-32.681953
9409137651000.0,-7.328160165207461,17.2662305146555,-0.8423744068138561,2.809064,0.5708536,0.80970186,195.66211,-56.635612,-32.62646
9409142810000.0,-7.422196539779216,17.89157220917396,-1.580560438161401,3.5628715,0.14355333,1.5302174,195.79924,-56.882633,-32.42494
9409148073000.0,-8.255442058029015,18.0206661835918,-1.3904239212606302,3.9235876,0.31764993,1.9123137,195.84181,-57.649506,-31.82241
9409152584000.0,-9.906544783391697,17.484706578489245,-0.0289124570185093,3.707952,0.92271197,1.724778,195.89838,-58.419693,-31.199574
9409157552000.0,-11.232482316926587,16.6958813366299,1.1815666989045264,2.8533516,1.3530666,1.1991285,195.90572,-59.19836,-30.551342
9409162663000.0,-11.534096054963864,15.455913660517307,1.8034122512742488,1.7705929,1.3347405,0.65484756,195.8958,-59.850327,-29.991102
9409167819000.0,-11.83836536298973,14.20502864035755,2.4307328672042603,1.0079277,1.07665,0.28893927,195.81885,-60.07066,-29.815538
9409172622000.0,-11.40543632599259,12.965602152143992,3.011549419184754,0.6301075,0.78038037,0.14019357,195.77258,-60.173393,-29.735022
9409177561000.0,-10.694311052991,11.66354187046056,3.607492349010058,0.5122105,0.50854534,0.19364429,195.80609,-60.217834,-29.69802
9409182584000.0,-9.690327118618075,10.937620383095796,4.525778060220097,0.4831944,0.21746802,0.39064834,195.9592,-60.087463,-29.816103
9409187651000.0,-8.609157707604187,10.351074911555116,5.528157723723616,0.47525316,-0.11728613,0.66767573,196.20178,-60.000786,-29.884039
9409192848000.0,-6.633126661506946,10.039378717647647,6.017199546137704,0.5534439,-0.5360342,0.9960158,196.61037,-59.968544,-29.88203
9409197677000.0,-4.303938737473768,9.91460091895673,6.165084594803637,0.74097955,-1.0253373,1.3322971,197.12341,-60.021492,-29.787918
9409202595000.0,-2.813889880749625,9.73643947736132,5.422011928095952,1.0354166,-1.4920384,1.6349808,197.71426,-60.232307,-29.523485
9409207584000.0,-1.8922219210194904,9.521542977211393,4.070550619010495,1.3854424,-1.6832392,1.9077321,198.3453,-60.53251,-29.169203
9409212651000.0,-1.1509841940116936,9.212596689692568,3.0572338552433043,1.7266107,-1.919644,2.0253236,199.07834,-61.13586,-28.521458
9409218121000.0,-0.493947014324783,8.812446123396832,2.2272921730479065,1.890017,-1.9990565,2.2476788,199.79482,-61.844604,-27.771803
9409222750000.0,-0.0321572816852831,8.511407253184402,1.7974426117577895,2.2449298,-1.9764545,2.2919664,200.54147,-62.6722,-26.948917
9409228543000.0,0.4461988816362924,8.174383329757005,1.5473927560258671,2.295937,-1.7938058,2.2953262,201.24521,-63.536694,-26.085745
9409232687000.0,0.6926763731700288,8.003540011527377,1.4274547607348704,2.2348504,-1.7095064,2.2745566,201.95364,-64.48069,-25.17141
9409237665000.0,0.8911244945981428,7.869969257124559,1.343495960975024,2.1542163,-1.5079209,2.1862867,202.5657,-65.39725,-24.292955
9409243194000.0,1.1073795927198504,7.729317044429324,1.245804272682429,1.9123137,-1.3313808,2.042428,203.14267,-66.31557,-23.410822
9409247715000.0,1.2141668969637691,7.74404639937064,1.0911467379061064,1.6197093,-1.1667526,1.856114,203.66231,-67.181435,-22.57876
9409252646000.0,1.3306385176730735,7.760111528593298,0.9224636359414866,1.3255776,-0.9914343,1.641395,204.11261,-68.00901,-21.781387
9409257629000.0,1.4349076538544965,7.911486197632174,0.8015653181834613,1.0680978,-0.7901542,1.4315627,204.50684,-68.76805,-21.045406
9409262659000.0,1.5306843998102124,8.159634803868052,0.714495586326254,0.8573494,-0.5766568,1.2324207,204.84639,-69.45397,-20.376175
9409267667000.0,1.5631647255170404,8.45268340033013,0.6218080792970191,0.6817256,-0.33414328,1.0607675,205.11203,-70.1014,-19.745558
9409272685000.0,1.4931729072822604,8.821307366152054,0.5191533297232741,0.5717699,-0.09621128,0.9398162,205.31717,-70.69691,-19.164362
9409277605000.0,1.3871249263157894,9.17054852631579,0.3684550489473684,0.4972443,0.15118915,0.87017757,205.44861,-71.28074,-18.595362
9409282646000.0,1.1947089002043945,9.50110933224323,0.1020328771762902,0.4709771,0.4279111,0.82711154,205.50298,-71.83054,-18.060776
9409287642000.0,0.9637225093767706,9.771009721813032,-0.1661671017705382,0.48502702,0.698219,0.8054258,205.48734,-72.368385,-17.541414
9409292700000.0,0.6572592446175638,9.94025068838527,-0.4451858925637393,0.52564955,0.9242391,0.8035932,205.40704,-72.89203,-17.036549
9409297651000.0,0.2649707243602203,10.05767914739229,-0.7078088908001297,0.5873469,1.0961977,0.81153446,205.28098,-73.39012,-16.560698
9409302658000.0,-0.4184912634920635,10.026612472222222,-0.940807292063492,0.66981375,1.2092078,0.8164214,205.11397,-73.87639,-16.094433
9409307556000.0,-1.0870746101068998,9.996222103741497,-1.1687334293488825,0.72601336,1.2483032,0.81183994,204.94217,-74.30265,-15.685756
9409312713000.0,-1.5526497302169422,9.907606882231406,-1.2809127739152892,0.7538077,1.2751812,0.8072584,204.7532,-74.715355,-15.282971
9409317747000.0,-1.9344754666322317,9.80384997107438,-1.3514675168388428,0.8045095,1.2724323,0.79320854,204.57397,-104.89176,-14.890896
9409322811000.0,-2.319591885235859,9.69966049846845,-1.4240146418215234,0.8374963,1.246776,0.7602218,204.4205,-104.6623,-14.651244
9409327643000.0,-2.6881298178476616,9.60043922176843,-1.4948872642434143,0.88239485,1.2241739,0.729984,204.2784,-104.450264,-14.417059
9409332644000.0,-2.9067837037622835,9.490960097987832,-1.4795659599251287,0.883922,1.215011,0.68233645,204.11703,-104.3292,-14.26185
9409337709000.0,-2.956720147889565,9.37292782189986,-1.370613614768367,0.8738427,1.1814134,0.6414085,203.97868,-104.22604,-14.11349
9409342862000.0,-3.017810381830558,9.277191422243169,-1.2367831290606346,0.84788096,1.0940597,0.6218608,203.82484,-104.18402,-14.016939
9409347673000.0,-3.090185576531574,9.224116252591894,-1.0775577712535345,0.79290307,0.92057395,0.6053675,203.71346,-104.15814,-13.931796
9409352629000.0,-3.235682850315831,9.216628758191868,-0.9593536881365968,0.7110472,0.6936375,0.571159,203.63142,-104.14948,-13.866155
9409357594000.0,-3.4703297205783654,9.268251135313855,-0.8983454910876432,0.62858033,0.43157628,0.5323691,203.61507,-104.14679,-13.80918
9409362639000.0,-3.791315032763839,9.337973558234893,-0.9338672179830128,0.54733527,0.19150625,0.48563787,203.65321,-104.16445,-13.783387
9409368075000.0,-4.2639826360831785,9.439622990237234,-1.1219178445963096,0.46639562,0.006414085,0.43493605,203.75069,-104.18762,-13.771564
9409372610000.0,-4.7509433172963735,9.492259745585722,-1.2803592734194038,0.3912592,-0.08857546,0.35979962,203.86113,-104.24557,-13.806646
9409377618000.0,-5.442989966090753,9.496812775393964,-1.4579238228023543,0.29932398,-0.06505715,0.2434298,203.98503,-104.31888,-13.866126
9409382570000.0,-6.147364160219015,9.47078080348432,-1.6450446353509207,0.20280726,0.05589417,0.1160644,204.05026,-104.45573,-13.990514
9409387659000.0,-6.933356334574415,9.349485286411149,-1.8730794069885517,0.051618114,0.2968805,-0.029626964,204.06674,-104.61507,-14.146745
9409392603000.0,-7.642618063673162,9.213400893344629,-2.0420631040760613,-0.086132,0.589485,-0.16249016,203.9656,-104.886955,-14.417298
9409397662000.0,-8.199032152480466,9.017287613009508,-2.0511846387084627,-0.23304509,0.87781334,-0.2874121,203.78954,-105.180374,-14.717378
9409403490000.0,-8.74395597192295,8.792053817335946,-2.0381057608390467,-0.3539964,1.1120802,-0.38912117,203.4881,-105.599236,-15.144414
9409407641000.0,-8.932144802644466,8.633066654995103,-1.9797022546767875,-0.4541783,1.2046263,-0.47433686,203.13983,-106.03331,-15.592463
9409412633000.0,-9.158461025954947,8.44186841013712,-1.909466094049951,-0.4810564,1.3570372,-0.5021312,202.66681,-106.55758,-16.131176
9409417708000.0,-9.197834670586024,8.205563299219264,-1.7964498272128682,-0.5131268,1.4648548,-0.5458081,202.176,-107.09627,-16.68893
9409422630000.0,-9.149061914683474,7.957263654595052,-1.6678660380302888,-0.49754974,1.5176947,-0.5564982,201.6554,-107.6277,-17.23461
9409428619000.0,-8.8130602925117,7.620374406630265,-1.4044588439937598,-0.44990227,1.563815,-0.50762904,201.0814,-108.19317,-17.815218
9409432646000.0,-8.474631830278211,7.379714117375195,-1.1838536377405096,-0.310625,1.5726726,-0.473726,200.5017,-108.76411,-18.393595
9409437641000.0,-8.054852796541862,7.081204520943838,-0.9102199140665628,-0.25473082,1.5989398,-0.3943135,199.88907,-109.29903,-18.938578
9409442687000.0,-7.623464463747518,6.9240313,-0.5509450856244121,-0.1469131,1.6181821,-0.28221974,199.27774,-109.81801,-19.45629
9409447631000.0,-7.19298543923085,6.9240313,-0.1105701250809907,-0.023823744,1.6194037,-0.16646078,198.66687,-110.310036,-19.942501
9409452640000.0,-6.738150813442325,6.948386439771925,0.4731680843011403,0.08552113,1.5454891,-0.035124753,198.09738,-110.69162,-20.323853
9409457606000.0,-6.2725975598546775,6.991582019810274,1.1594991234009486,0.21685717,1.3933836,0.05100725,197.5566,-111.05788,-20.68377
9409462670000.0,-5.796840067022798,7.044912973967375,1.8639546094820183,0.3323107,1.1154399,0.09621128,197.09525,-111.34011,-20.967218
9409467740000.0,-5.319771928989793,7.105125644290756,2.5726090593532387,0.44104472,0.72173727,0.10170906,196.72205,-111.61474,-21.242186
9409473451000.0,-4.782019754567356,7.168761110208793,3.255135621441478,0.54428095,0.22204952,0.07666359,196.46504,-111.82084,-21.460562
9409477660000.0,-4.385486915478819,7.213269827564746,3.692131053764304,0.63132924,-0.35338554,0.0580322,196.3563,-112.02757,-21.68388
9409482641000.0,-3.933146725354206,7.247031549271773,3.969152298543545,0.72265357,-0.94714653,0.04795292,196.42735,-112.178635,-21.864882
9409487653000.0,-3.495625394530862,7.261298542712772,3.997686285425542,0.80970186,-1.4761559,0.049480084,196.65837,-112.333725,-22.053776
9409492751000.0,-3.138699935890411,7.275723229589041,3.8441302476712327,0.8530733,-1.9437732,0.063224554,197.08476,-112.42375,-22.188942
9409497670000.0,-2.8851816549021527,7.289551587847358,3.507642394706458,0.89827734,-2.3448062,0.070249505,197.65637,-112.51676,-22.326536
9409502644000.0,-2.6957076681932564,7.344905806441872,3.086980403241067,0.93554014,-2.5158484,0.0693332,198.32318,-112.54255,-22.392698
9409507647000.0,-2.594432545998993,7.455825866633115,2.556491742274786,0.9850202,-2.8017335,0.07086037,199.14946,-112.564674,-22.454437
9409512659000.0,-2.558622202347629,7.581696081580135,2.0891858077426635,1.0143417,-3.0332513,0.08002335,200.00848,-112.538994,-22.457489
9409517714000.0,-2.605976635981941,7.727402025372461,1.6994227523250562,1.0528263,-3.2033772,0.080634214,200.93275,-112.51296,-22.45629
9409522668000.0,-2.6523849177276144,7.870196732701279,1.317447247569601,1.0830641,-3.2968397,0.082161374,201.87238,-112.446304,-22.405117
9409527652000.0,-2.725653068101567,8.116833182622496,0.8407091438405078,1.10139,-3.2971451,0.09193522,202.82616,-112.37257,-22.344173
9409532554000.0,-2.804811324538782,8.38690284844277,0.3471340716226939,1.1081096,-3.1957414,0.115453534,203.76721,-112.289734,-22.27125
9409537666000.0,-2.919080487661575,8.647778074030553,-0.1915473864864865,1.0955868,-3.0155363,0.14813483,204.60019,-112.16718,-22.152594
9409542782000.0,-3.0438228155111635,8.902060106933021,-0.7384944527027026,1.0858129,-2.7977629,0.17012598,205.37679,-112.036995,-22.025002
9409547670000.0,-3.2628478542666146,9.252076517892254,-1.564506731458907,1.0852021,-2.5234842,0.19547687,205.94612,-111.84774,-21.832895
9409552615000.0,-3.5189088214313804,9.643151541486434,-2.5049487468442786,1.1093313,-2.20278,0.2180789,206.42564,-111.65444,-21.634867
9409557590000.0,-3.6499540107882336,9.800097220207943,-3.103338917541989,1.1349876,-1.8417587,0.23304509,206.78214,-111.461296,-21.429735
9409562696000.0,-3.723826346485382,9.847897057584644,-3.550918680858437,1.1539245,-1.4382823,0.28252518,207.02673,-111.258804,-21.209614
9409567805000.0,-3.884988588162252,9.747719039114235,-3.85073443464404,1.1655309,-0.9569204,0.3286455,207.20303,-111.10899,-21.024506
9409572669000.0,-4.135634574917218,9.48743313182947,-3.971237316763245,1.1417072,-0.49541172,0.34666604,207.26492,-110.96508,-20.832752
9409577641000.0,-4.280639368335456,9.283069467522289,-4.0318356,1.1142182,-0.09193522,0.30909783,207.23503,-110.8666,-20.66265
9409582639000.0,-4.31815477646713,9.137697052904867,-4.0318356,1.0494665,0.24984388,0.28099802,207.09055,-110.77465,-20.48151
9409587665000.0,-4.327906269871152,8.985216280611064,-3.9989422734356914,0.9621128,0.5555819,0.2779437,206.84254,-110.76537,-20.363712
9409592763000.0,-4.305305070982177,8.82324061546177,-3.927371561175835,0.86620694,0.86193085,0.2770274,206.49886,-110.77287,-20.24576
9409597563000.0,-4.284025009258545,8.670733123755884,-3.859984464501196,0.75900006,1.1252137,0.27000242,206.09099,-110.80905,-20.144186
9409602662000.0,-4.230972888132296,8.54360395276697,-3.4736595752161694,0.64934975,1.2229522,0.23365596,205.65047,-110.85698,-20.046623
9409607942000.0,-4.163738099241801,8.431506636064675,-3.025448538120033,0.5665775,1.4086553,0.21105394,205.11545,-110.90612,-19.936201
9409612710000.0,-4.02608815620718,8.477389979446423,-2.6792382957522607,0.47525316,1.4450017,0.19914207,204.61562,-110.96915,-19.847673
9409617651000.0,-3.883443783611949,8.52493813373527,-2.320466314305289,0.44409904,1.5280794,0.17989981,204.06145,-111.033005,-19.766844
9409622830000.0,-3.7892527145341615,8.677030497781722,-1.9571559853061224,0.39736784,1.6600263,0.16768251,203.49327,-111.09172,-19.684341
9409628627000.0,-3.695657449068323,8.86914678127773,-1.5532186591836732,0.37782016,1.9318613,0.15424347,202.86913,-111.15846,-19.598906
9409632610000.0,-3.72732037518444,9.040175199195172,-1.1470219255533198,0.37232238,2.0250182,0.15607607,202.28375,-111.18263,-19.49429
9409637628000.0,-3.814804543930248,9.275001444668009,-0.5714684317907445,0.36713,2.1676552,0.15271631,201.61739,-111.212776,-19.384459
9409642873000.0,-3.951828768908512,9.537370081117157,0.1788715988705206,0.3585779,2.2226331,0.15882497,200.98883,-111.208336,-19.263908
9409647666000.0,-4.1167900586918575,9.79188138320156,0.9942512566895988,0.31520647,2.1487186,0.15118915,200.37566,-111.20741,-19.153643
9409652645000.0,-4.289461489654823,10.06212664551068,1.8162855760906973,0.24801129,1.9150625,0.1432479,199.83328,-111.189384,-19.07859
9409658488000.0,-4.493374855592671,10.38498980514222,2.756553686800284,0.16126843,1.5329664,0.1459968,199.37292,-111.16683,-19.019825
9409663547000.0,-4.683135310433387,10.583635752808988,3.162844111556982,0.05681047,1.0567969,0.16187929,198.99467,-111.12617,-19.014692
9409667786000.0,-4.84604099899679,10.726178081460674,3.3827667315810594,-0.06414085,0.5381723,0.20250183,198.75104,-111.06926,-19.02446
9409672618000.0,-5.0300628696038725,10.768854636965326,3.2465828977575817,-0.15943582,0.069027774,0.22907446,198.62607,-110.98936,-19.08419
9409677587000.0,-5.218098655309691,10.726546716487208,2.828203405867826,-0.25381452,-0.3182608,0.25961772,198.63708,-110.89095,-19.149246
9409682574000.0,-5.4222307405208525,10.648530178473866,2.276582024221453,-0.29871312,-0.5870415,0.27580565,198.74713,-110.80283,-19.248842
9409688535000.0,-5.68214401901293,10.518573647787289,1.4812474593425604,-0.31978795,-0.7467828,0.2761111,198.94263,-110.713875,-19.350492
9409692834000.0,-5.998404271966527,10.43265099507206,0.7142455114551371,-0.32895094,-0.8011498,0.26053402,199.17914,-110.67846,-19.480526
9409697606000.0,-6.521060067782427,10.34766591241283,-0.3948048699860529,-0.30818152,-0.79351395,0.2434298,199.44264,-110.65304,-19.608349
9409702615000.0,-6.960356107044039,10.275913,-1.3311762,-0.31398472,-0.7049385,0.23945917,199.68091,-110.70036,-19.767504
9409707589000.0,-6.950294958918576,10.275913,-1.3311762,-0.3036,-0.5335908,0.22876903,199.88365,-110.76035,-19.924019
9409712642000.0,-7.14534384670404,10.40546564063406,-1.4123244901797796,-0.27397305,-0.29626966,0.22907446,199.98593,-110.948616,-20.14835
9409717630000.0,-7.800979950318964,10.8256272605838,-1.675502429982602,-0.24556783,-0.017715093,0.22907446,200.01459,-111.132965,-20.360048
9409722699000.0,-8.320580287162493,11.212695908568088,-1.7977698347499758,-0.19456059,0.32284227,0.20952678,199.93779,-111.31505,-20.555399
9409728482000.0,-8.401557507066967,11.51500887113754,-1.4306754344770445,-0.13408493,0.86345804,0.17287487,199.71207,-111.49854,-20.73536
9409732587000.0,-8.398419616535593,11.695573200241984,-1.1266392172454125,-0.024129177,1.0241156,0.16340645,199.45808,-111.756004,-20.976519
9409737644000.0,-8.120086578745715,11.76393600846945,-0.5553244535894335,0.013439035,1.2470814,0.14477506,199.02483,-112.015465,-21.20446
9409742964000.0,-7.822235122549742,11.79471502579219,-0.0151819066879554,0.043982297,1.2947289,0.13988814,198.59637,-112.255135,-21.41834
9409747601000.0,-7.5495279243920415,11.71472079587325,0.2975224368034062,0.04734206,1.1661417,0.15149458,198.16339,-112.48774,-21.624264
9409752561000.0,-7.257824732056005,11.629154399410464,0.632008859860804,0.030848695,0.8881981,0.15118915,197.77402,-112.6632,-21.793346
9409757597000.0,-7.023345118776557,11.613460536296031,0.8042610104992918,-0.01038471,0.5329799,0.1441642,197.45709,-112.83117,-21.963652
9409762667000.0,-6.808426535118626,11.622057453788951,0.92031706273017,-0.06261369,0.14844026,0.10445796,197.23997,-113.00185,-22.148884
9409767752000.0,-6.595974394550148,11.748406372693374,0.9073692576058896,-0.1328632,-0.19425514,0.06658431,197.13057,-113.11495,-22.300682
9409772631000.0,-6.394938322688594,11.97624666947127,0.7778127049144278,-0.18692477,-0.46486846,0.027794369,197.11739,-113.235344,-22.46984
9409777629000.0,-6.140557571760307,12.241161070550037,0.6281897157788054,-0.21624629,-0.6041457,0.0012217305,197.1757,-113.32187,-22.61412
9409782648000.0,-5.814221332460888,12.553308992423498,0.4531979027964184,-0.2510656,-0.6239988,-0.021380283,197.27763,-113.41402,-22.768124
9409787659000.0,-5.504275565283363,12.806121214778848,0.3682453249328579,-0.29352075,-0.52503866,-0.026267206,197.38156,-113.46395,-22.87117
9409792799000.0,-5.212982667627646,12.966705561945224,0.4317322605219634,-0.3576616,-0.38240165,-0.029626964,197.47437,-113.51668,-22.975845
9409798534000.0,-4.887970066838632,13.145878953190197,0.502568364724983,-0.441961,-0.23640485,-0.0421497,197.54305,-113.509735,-23.011148
9409802662000.0,-4.621903706487434,13.1481129672706,0.8201463130742256,-0.55771995,-0.18142697,-0.052839845,197.59369,-113.49983,-23.044529
9409807553000.0,-4.302518262068965,13.134425218390804,1.2307848110344828,-0.63499445,-0.1337795,-0.06352998,197.5998,-113.493355,-23.077517
9409812656000.0,-3.987081009940786,12.886659760811051,2.1196662756504576,-0.81581056,-0.1731803,-0.09407325,197.63052,-113.42234,-23.055506
9409817820000.0,-3.676491938058496,12.522827096895748,3.242223322842275,-1.0064005,-0.30848694,-0.14508049,197.67471,-113.3613,-23.044388
9409822822000.0,-3.5173582119661444,12.236300691312383,3.824646192236599,-1.2189816,-0.48349985,-0.18387043,197.78384,-113.258125,-23.00546
9409828761000.0,-3.50075836318708,11.976236162661738,3.902112268761552,-1.4391985,-0.7473936,-0.26267207,197.9586,-113.18217,-22.996017
9409832643000.0,-3.5279448210360407,11.803239809814016,3.7968492216139538,-1.7281377,-0.8042041,-0.28527406,198.18675,-113.08216,-22.975815
9409837650000.0,-3.608560309425239,11.57650904465693,3.474387531112745,-1.8167132,-0.8762862,-0.33475417,198.4984,-113.0316,-22.984722
9409842699000.0,-3.690104733492537,11.378323340497513,3.080118466965174,-1.9575176,-0.8491027,-0.38423425,198.79509,-113.01383,-23.005047
9409847658000.0,-3.770438461074627,11.212930081691542,2.626469393681592,-2.0680842,-0.7791586,-0.42943826,199.09871,-66.96645,-23.032656
9409852587000.0,-3.852445669491021,11.041954325925191,2.1648392218672488,-2.146275,-0.6719518,-0.47158796,199.35892,-66.89057,-23.087397
9409857581000.0,-3.9378586772894137,10.86163817432285,1.6855769979363031,-2.2018638,-0.5491679,-0.5119051,199.59007,-66.779175,-23.149855
9409862614000.0,-4.006297445454545,10.707450696969698,1.231925666060606,-2.2366831,-0.4297437,-0.5513059,199.75124,-66.62358,-23.238365
9409868289000.0,-4.060537254246054,10.569385804028308,0.7585592214044637,-2.2611177,-0.31948254,-0.5907067,199.87439,-66.439186,-23.336521
9409872575000.0,-4.099313356291594,10.434826360243678,0.3923745141988328,-2.2635612,-0.20525073,-0.59773165,199.9028,-66.23245,-23.456396
9409877658000.0,-4.139185476205591,10.19060894921675,-0.0661551770676769,-2.2595906,-0.07422013,-0.59315014,199.88878,-66.00811,-23.585354
9409882554000.0,-4.183540644089397,9.961821569091772,-0.4413027130917736,-2.2629502,0.06994407,-0.6065892,199.76257,-65.7753,-23.739151
9409887657000.0,-4.243960794988112,9.73873262857822,-0.6736871405782217,-2.2635612,0.19303341,-0.63163465,199.60161,-65.537025,-23.898191
9409892644000.0,-4.316763085632748,9.531789016855436,-0.8850505120663515,-2.2339342,0.29840767,-0.67103547,199.35262,-65.292816,-24.082481
9409897655000.0,-4.440877104905021,9.3648766422902,-1.0391232772585393,-2.1853704,0.35124752,-0.7150178,199.08559,-65.040146,-24.278091
9409902984000.0,-4.573738829128383,9.189797370002482,-1.20073471254863,-2.1493294,0.52748215,-0.7706065,198.74387,-64.760574,-24.510592
9409907645000.0,-4.7104483781723365,9.093731231686116,-1.289411153853158,-2.0302107,0.5864306,-0.7877107,198.42555,-64.48852,-24.742945
9409912613000.0,-4.856162396548299,8.991337630494165,-1.3839283305107193,-1.9883664,0.729984,-0.8249735,198.02303,-64.16893,-25.029922
9409917770000.0,-5.110064450319651,8.875356159825813,-1.4166656063281755,-1.9022343,0.87964594,-0.8512407,197.6037,-63.860737,-25.319664
9409922597000.0,-5.422728958880756,8.759713440378023,-1.3995332671175762,-1.7996091,1.0280862,-0.87995136,197.14516,-63.547874,-25.623817
9409927585000.0,-5.828079440218533,8.628268531204034,-1.299863877316663,-1.6667458,1.1982121,-0.9147707,196.64978,-63.2031,-25.967236
9409932577000.0,-6.365523782643412,8.477583348602648,-1.06881308042656,-1.5628988,1.3860532,-0.9492846,196.10605,-62.85878,-26.321548
9409937698000.0,-6.934341279337598,8.41335235844938,-0.5078958705984191,-1.45783,1.6035212,-1.0042624,195.49326,-62.451584,-26.749788
9409942835000.0,-7.523138535190063,8.44297720737674,0.3919642130410238,-1.3918564,1.815797,-1.0714576,194.82727,-62.039997,-27.19253
9409947595000.0,-8.068724468197214,8.470427914188935,1.225784341155439,-1.3732251,1.9660698,-1.1548407,194.10042,-61.52499,-27.73945
9409952649000.0,-8.196230651544589,8.611548475616864,1.950573303555469,-1.3903292,2.0253236,-1.2321151,193.34154,-61.001186,-28.299713
9409957596000.0,-8.228446703516612,8.772630177190598,2.627116930736351,-1.4501941,1.9886718,-1.3023647,192.57281,-60.461216,-28.874939
9409963751000.0,-8.04445789804887,9.063220039615244,3.2135861711615608,-1.5494597,1.8640553,-1.3610078,191.85803,-59.76645,-29.566978
9409967709000.0,-7.892395854029905,9.26366614364515,3.552270549516776,-1.6850718,1.640784,-1.402852,191.19475,-59.063915,-30.258228
9409972856000.0,-7.567004020454783,9.651408296814418,3.791214225861888,-1.8332067,1.3741413,-1.4019357,190.65303,-58.355896,-30.91888
9409977651000.0,-7.186856943015823,10.089298620349997,3.892265974263858,-1.9651535,1.0622946,-1.3567317,190.20439,-57.653862,-31.558657
9409982606000.0,-6.755181300027393,10.523054633765522,3.7575517990138794,-2.0442605,0.7443393,-1.2712106,189.91388,-57.008884,-32.10632
9409988600000.0,-6.210079814216582,11.036707924306064,3.453552888203068,-2.08977,0.42424592,-1.1505647,189.72745,-56.388214,-32.609417
9409992807000.0,-5.799457425482022,11.358965862949454,3.067173253152684,-2.0803015,0.13775012,-0.9999864,189.66866,-55.896225,-32.95994
9409997597000.0,-5.311803725117248,11.698411372068788,2.503024975091193,-2.0097466,0.026572637,-0.91538155,189.65337,-55.42366,-33.282326
9410002584000.0,-4.877028971097068,11.88622908111468,1.9696931257432924,-1.9645426,-0.13225232,-0.7440339,189.73373,-55.14388,-33.395184
9410007584000.0,-4.500028556718118,11.940794760178182,1.4786003048585932,-1.8472565,-0.22479841,-0.61269784,189.81944,-54.88606,-33.492107
9410013805000.0,-4.1409480884656285,11.825117297640915,1.1565547976409165,-1.6930131,-0.3454443,-0.48258355,189.9263,-54.79873,-33.429825
9410017707000.0,-3.945849069341584,11.702277108817558,1.0337146088175575,-1.4465289,-0.3820962,-0.47952923,190.03036,-54.72564,-33.370625
9410022596000.0,-3.6940953620540538,11.499202965405406,1.0151932915135136,-1.3836098,-0.47067168,-0.48838675,190.17354,-54.7409,-33.217564
9410027595000.0,-3.4310014147927927,11.253361152612614,1.1014535585315317,-1.2574661,-0.6047566,-0.5345071,190.34343,-54.769142,-33.07477
9410032586000.0,-3.16795310626194,10.976349996179156,1.1808338601570794,-1.1557571,-0.7556403,-0.59437186,190.54138,-54.81791,-32.90748
9410037670000.0,-2.899241475228189,10.63012592697941,1.2480117274464022,-1.1120802,-0.9239337,-0.657291,190.78972,-54.856197,-32.748417
9410042889000.0,-2.6464092846000797,10.278301877337844,1.1667240289136491,-1.1120802,-1.042747,-0.7244862,191.08896,-54.891914,-32.57711
9410047627000.0,-2.4387644077994426,9.962320358635097,0.9500511976044568,-1.1817188,-1.1081096,-0.80939645,191.4261,-54.901928,-32.42255
9410053299000.0,-2.2081540619988207,9.564525460200471,0.6375691182665094,-1.271516,-1.0968086,-0.8686504,191.79465,-54.896984,-32.26137
9410057581000.0,-2.046959611114387,9.250196110554246,0.3635384381485849,-1.3613132,-1.0173961,-0.9306532,192.16101,-54.86206,-32.124783
9410062636000.0,-1.8952373919228345,8.895242622644911,0.1098954308158298,-1.450805,-0.9114109,-1.001819,192.50851,-54.804836,-32.006035
9410067792000.0,-1.7973092742991077,8.556945252411431,-0.0458992654286486,-1.5265522,-0.81214535,-1.0800097,192.83101,-54.723198,-31.910814
9410072627000.0,-1.7284637824308062,8.232584527677497,-0.1535285483574007,-1.5647314,-0.7110472,-1.1759156,193.1293,-54.60551,-31.855253
9410077595000.0,-1.75231934921781,7.869979812876053,-0.1058173799097473,-1.5964963,-0.6249151,-1.2907583,193.40334,-54.45852,-31.830664
9410082618000.0,-1.792315838169,7.522800769436998,-0.0220777225796842,-1.6194037,-0.569021,-1.4052955,193.67628,-54.25944,-31.857704
9410088564000.0,-1.9167088031972992,7.206164313672922,0.2493250474113791,-1.6493362,-0.5653558,-1.5015068,193.94221,-54.036724,-31.909538
9410092634000.0,-2.013988305418719,6.998588865123153,0.4312582343251231,-1.6627752,-0.5558874,-1.5732834,194.19951,-53.751717,-32.019264
9410097612000.0,-2.183076006896552,6.782532237793103,0.6379209980137931,-1.6536123,-0.5342017,-1.6022996,194.45122,-53.459885,-32.139175
9410102615000.0,-2.345937705332303,6.57338813863129,0.8321764718873433,-1.6526959,-0.4908302,-1.6462818,194.71156,-53.09812,-32.311554
9410107580000.0,-2.468423180989181,6.410074469517431,0.9505790770393268,-1.6282613,-0.4569272,-1.6713274,194.96269,-52.74686,-32.481483
9410112719000.0,-2.595201198995363,6.241037421063026,1.0731311390486002,-1.5717562,-0.41050145,-1.6789632,195.20221,-52.34508,-32.696587
9410117791000.0,-2.6762857726749845,6.066258664950004,1.1281192348553226,-1.4822645,-0.3539964,-1.6655241,195.42113,-51.9597,-32.910572
9410123445000.0,-2.757739044757101,5.869812358640828,1.176032944916379,-1.368949,-0.28863382,-1.6175711,195.61243,-51.60157,-33.116615
9410127592000.0,-2.918266158226821,5.649169746317711,1.2227721537127207,-1.196685,-0.21563543,-1.5968018,195.79045,-51.219734,-33.356968
9410132575000.0,-3.169990960965713,5.339354526719416,1.2857033796713329,-1.1334605,-0.16523905,-1.5885551,195.94466,-50.856495,-33.586426
9410138397000.0,-3.3182987214063906,5.199025325813883,1.31560850387659,-1.0207558,-0.16676621,-1.5946637,196.10394,-50.488693,-33.84125
9410142803000.0,-3.369019491796053,5.186345199419012,1.319835227386557,-0.93645644,-0.20372356,-1.6065756,196.25299,-50.13495,-34.09095
9410147604000.0,-3.4116529361203063,5.2105647871654215,1.262575169639648,-0.86345804,-0.2657264,-1.6022996,196.4125,-49.723175,-34.39741
9410152620000.0,-3.448000030644093,5.260542042135628,1.1626205648160408,-0.81245077,-0.3680463,-1.5989398,196.59294,-49.326027,-34.691845
9410157596000.0,-3.5052070721022397,5.297692483742817,1.052175514701803,-0.77366084,-0.4886922,-1.5619824,196.82097,-48.928123,-34.975784
9410163435000.0,-3.5993841145234797,5.325391521993264,0.9081400993065188,-0.72021013,-0.58184916,-1.5128077,197.0647,-48.552734,-35.23976
9410167862000.0,-3.67793871071358,5.288369007995652,0.8063343602490611,-0.6771441,-0.6618725,-1.4480561,197.36053,-48.185005,-35.488144
9410172621000.0,-3.768027737774264,5.202784568689464,0.7027319932397708,-0.63316184,-0.745561,-1.3988814,197.67651,-47.842304,-35.709297
9410177593000.0,-3.854111194755661,5.113176045172825,0.6395856817818832,-0.5888741,-0.80848014,-1.3405437,198.00723,-47.512997,-35.92035
9410182584000.0,-3.93007116106476,5.022973386889154,0.6348381987594359,-0.54825157,-0.8399397,-1.2932017,198.34306,-47.20714,-36.108677
9410187652000.0,-3.9890161421989903,4.924608386187649,0.6631821901470719,-0.50854534,-0.8689558,-1.2608259,198.68817,-46.892544,-36.311646
9410192601000.0,-4.022609096553557,4.81963012978648,0.734567465885532,-0.47342056,-0.8720101,-1.2443326,199.02449,-46.598476,-36.499733
9410197588000.0,-4.040450715059862,4.723646910228943,0.8240579792606595,-0.45234573,-0.8744536,-1.2098186,199.37048,-46.294918,-36.69248
9410202585000.0,-3.975115963390045,4.678414824018064,1.0049853952352443,-0.40103304,-0.88300574,-1.17897,199.71162,-46.01124,-36.87489
9410207576000.0,-3.8810205305367935,4.656659924777817,1.1818623736935656,-0.35735616,-0.8875872,-1.1438452,200.06538,-45.712048,-37.061123
9410213764000.0,-3.6598176787771055,4.7145942223604695,1.3872649274795592,-0.32253686,-0.93554014,-1.0638218,200.41777,-45.44495,-37.2155
9410217931000.0,-3.50915612798857,4.7500963,1.5219725497459913,-0.269697,-0.95356065,-1.0268645,200.79665,-45.18409,-37.348274
9410222640000.0,-3.3194314973170345,4.7500963,1.6329435848229876,-0.25045475,-0.98654735,-0.9462303,201.16864,-44.960773,-37.436264
9410227559000.0,-3.1212460103190987,4.7500963,1.7488634237577392,-0.20219639,-1.0381655,-0.86926126,201.58936,-44.79245,-37.442265
9410232590000.0,-2.9037411936312854,4.730546764916201,1.820877340223464,-0.13316862,-1.1102476,-0.77763146,202.00227,-44.65943,-37.413677
9410238677000.0,-2.621498282150838,4.681697002988827,1.8480160653631283,-0.034208454,-1.171945,-0.677755,202.40494,-44.564327,-37.355457
9410242682000.0,-2.4350240237679355,4.610494718402994,1.840097072800998,0.0421497,-1.1994339,-0.5928447,202.84694,-44.529663,-37.20431
9410247613000.0,-2.204259632324808,4.463198242701186,1.7909982475670618,0.13194689,-1.2186762,-0.49754974,203.27582,-44.542786,-37.018692
9410252591000.0,-2.006017653467153,4.281732646259124,1.7379107643248175,0.22113322,-1.1954633,-0.40011674,203.71869,-44.614925,-36.76242
9410257582000.0,-1.8558014053933496,4.053985433069748,1.679762527838605,0.3051272,-1.1496484,-0.31429017,204.13455,-44.72279,-36.488934
9410262948000.0,-1.7581668887213322,3.690467478762174,1.4692259162739554,0.38362336,-1.0506883,-0.23335053,204.53789,-44.869614,-36.18785
9410267638000.0,-1.7334727052466228,3.2600828066760914,1.144673569588439,0.44532076,-0.9275989,-0.16126843,204.89662,-45.046665,-35.88206
9410272611000.0,-1.7072884463085138,2.80372822793748,0.8005373606189129,0.48349985,-0.80664754,-0.0870483,205.23752,-45.232944,-35.569923
9410277587000.0,-1.7046716,2.7581203,0.6199651228083067,0.5296202,-0.6762278,-0.015271631,205.51894,-45.446823,-35.26423
9410282689000.0,-1.7117027079637297,2.753793464764439,0.4553598934466785,0.5983425,-0.5448918,0.06963864,205.74353,-45.69016,-34.959232
9410288816000.0,-1.9372503440567712,2.614994933412182,0.3165613198225901,0.66859204,-0.40408736,0.16157386,205.89034,-45.874424,-34.784164
9410293085000.0,-2.0877513637395166,2.539528208850518,0.2052573772076961,0.74372846,-0.27305678,0.26939157,205.98376,-46.092213,-34.618214
9410297607000.0,-2.186029125259004,2.6548977472224964,-0.0468465098371978,0.82986045,-0.19639318,0.32467487,206.04538,-46.3318,-34.45466
9410302986000.0,-2.3007655251741923,2.7952818600126688,-0.3441575591783549,0.87964594,-0.048258353,0.50518554,205.98724,-46.584103,-34.32828
9410307623000.0,-2.353005142240521,2.9841479903447654,-0.5450789747823727,0.9737192,0.118507855,0.5674938,205.91342,-46.84115,-34.23016
9410312627000.0,-2.40937931601665,3.1879621193466656,-0.7619025166591259,1.0778717,0.31215215,0.70249504,205.72392,-47.177517,-34.115448
9410317866000.0,-2.499675880720739,3.4326571967636257,-0.8178657450292862,1.1710287,0.4999932,0.84940815,205.47887,-47.54166,-34.00161
9410322669000.0,-2.5910040221483173,3.665543904953837,-0.8224321473324729,1.2663237,0.70738196,0.98837996,205.15532,-47.948765,-33.881054
9410327651000.0,-2.897661722510736,3.8580126438629785,-0.74474137612304,1.3338243,0.9309586,1.1215485,204.73726,-48.43167,-33.74065
9410332608000.0,-3.2722054245880354,4.033431779676421,-0.6404380762089283,1.3888022,1.1808025,1.2220359,204.24184,-48.94653,-33.59747
9410338868000.0,-4.224336642355432,4.2211758362263065,-0.5034011189031078,1.4239268,1.4556919,1.2574661,203.67365,-49.4967,-33.4489
9410342670000.0,-4.879475786587126,4.329781852044645,-0.4193190895795247,1.45783,1.7980819,1.2321151,203.01477,-50.055088,-33.32064
9410347664000.0,-5.959141323900338,4.610502404244848,0.1341469858012919,1.5045611,2.2247713,1.1404854,202.2483,-50.55338,-33.284805
9410352617000.0,-7.136113374653952,4.955812431405722,0.8977198395878192,1.582141,2.7409523,0.9969321,201.36917,-51.0291,-33.30547
9410357583000.0,-8.193023880624999,5.899552448750001,3.2550788175000003,1.6966782,3.2195654,0.8026769,200.34293,-51.318127,-33.551163
9410362717000.0,-9.233439523660714,7.1287356455357145,6.367546148214285,1.7287487,3.49476,0.59498274,199.24649,-51.55155,-33.849728
9410367632000.0,-10.30445398079256,8.775166441568945,7.401067059320663,1.428203,3.5509596,0.42302418,198.1265,-51.48476,-34.357647
9410372622000.0,-11.473556197735544,10.958778738374445,6.328584801940962,1.1151345,3.4394767,0.32498032,196.99983,-51.38322,-34.88014
9410378374000.0,-12.1142374652165,13.300775086804844,4.800356261276421,1.2486086,2.9437597,0.35033122,196.47527,-51.038074,-35.311745
9410382579000.0,-12.176217422121896,14.912255260722349,3.51530416241535,1.743104,2.6068676,0.59559363,195.92088,-50.76232,-35.689213
9410387687000.0,-12.634997409583292,16.309651482677857,2.561160706372597,2.2073615,1.9956968,0.9578367,195.38928,-50.773727,-35.88626
9410392686000.0,-13.396541176539476,17.22070081633649,2.121988433482971,2.3261747,1.6126842,1.1136073,194.9018,-50.822426,-36.042686
9410397602000.0,-14.35355245413783,17.74712838834194,2.247255333648504,2.363743,1.5522085,1.2449434,194.30936,-51.315598,-35.89525
9410402594000.0,-15.537204362510966,17.905569767813628,2.941602340725217,2.140472,1.8164078,1.0619892,193.77377,-51.72764,-35.78394
9410407579000.0,-15.978776745366195,17.496504574591725,3.6246291591223327,1.738828,2.0228803,0.7360926,193.2165,-52.139133,-35.668842
9410412730000.0,-15.444996951708246,16.315269988177537,4.316565760474902,1.3197744,1.7956384,0.50762904,192.74867,-52.48226,-35.564228
9410417629000.0,-14.618165338509884,15.058639257764824,4.657836601511978,1.0735956,1.1969905,0.42943826,192.36934,-52.614845,-35.600643
9410422603000.0,-13.39464084821022,13.62251602231533,4.623126426632662,1.0558805,0.5012149,0.45356745,192.12497,-52.69623,-35.643482
9410427574000.0,-12.170799001133036,12.21489734604853,4.520404489415541,1.1795808,-0.051923547,0.52015173,192.11731,-52.682106,-35.702644
9410432588000.0,-10.933054919743178,10.881942654895669,4.2030344330658105,1.3240504,-0.38912117,0.5858198,192.27104,-52.68252,-35.720413
9410437626000.0,-9.724226189312503,9.558441282576752,3.9081585237491296,1.4373659,-0.4804455,0.6658431,192.5753,-52.703335,-35.689
9410442640000.0,-8.74759933910757,8.344156028226742,3.770762360637229,1.4996742,-0.44776422,0.7855727,192.9357,-52.765198,-35.61254
9410448487000.0,-7.608720760498028,6.9281357086845565,3.610539910354961,1.5066991,-0.3894266,0.9285152,193.32318,-52.878387,-35.48236
9410452589000.0,-6.682711224697645,6.588843,3.572149,1.5262468,-0.37568212,1.0922271,193.69551,-53.036392,-35.312298
9410457572000.0,-5.477783127943985,6.588843,3.572149,1.5610662,-0.42394048,1.2644911,194.05014,-53.23698,-35.100895
9410463236000.0,-3.947102708052253,6.339857173718073,3.3963943463248194,1.609019,-0.5525276,1.4236214,194.49117,-53.46694,-34.832745
9410467734000.0,-2.6747131335542997,6.054304331643595,3.194827688438292,1.6780468,-0.70066243,1.5555683,194.93098,-53.738834,-34.523273
9410472592000.0,-1.940699584834808,6.075990140819642,3.00019975658061,1.7379116,-0.82711154,1.6557503,195.38127,-54.163692,-34.06584
9410477585000.0,-1.5867553789673223,6.30475905244629,2.814594829662394,1.7589865,-0.904386,1.7153096,195.84998,-54.611103,-33.58295
9410482553000.0,-1.2818130556570175,6.575927469389822,2.569923030610178,1.7327193,-0.92057395,1.7406605,196.22205,-55.237026,-32.962044
9410488251000.0,-1.019308787624272,6.967381175424086,2.178469324575913,1.6893479,-0.91751957,1.7455474,196.61073,-55.86853,-32.33212
9410492905000.0,-0.8098589098002474,7.296678658546931,1.870478821212657,1.6181821,-0.850019,1.7217237,196.97023,-56.563477,-31.65294
9410497606000.0,-0.6506912684479406,7.730410269948736,1.6834568449089624,1.5451837,-0.7247916,1.6985108,197.31053,-57.25057,-30.981153
9410502560000.0,-0.482957489409581,8.187484595174121,1.4863696569471452,1.5183055,-0.57910025,1.6514742,197.63733,-57.991833,-30.273556
9410507586000.0,-0.338708206849839,8.670388145128824,1.3601523434279388,1.4737124,-0.43585235,1.5891659,197.93098,-58.708572,-29.589792
9410512626000.0,-0.2026897967049114,9.161026261070852,1.2581385535728662,1.4202617,-0.32986724,1.5070046,198.19862,-59.39747,-28.937082
9410517639000.0,-0.2106450394397759,9.586884220354808,1.204102389729225,1.3469579,-0.24556783,1.3949108,198.43617,-60.12332,-28.266106
9410522649000.0,-0.2599240169187675,9.99455554528478,1.1637832101774044,1.2635747,-0.17165314,1.2776246,198.65503,-60.811794,-27.631763
9410527590000.0,-0.3990852801363297,10.419683653637236,1.091731486601342,1.1753048,-0.07696902,1.151481,198.84645,-61.51358,-26.994131
9410532587000.0,-0.5927695110661413,10.86311857258494,0.9999863217808074,1.0784826,0.030848695,1.0345002,199.02281,-62.168884,-26.398619
9410538246000.0,-0.8971399289379476,11.230514235083533,0.7548477953818616,0.9975429,0.19058995,0.95142263,199.15599,-62.813633,-25.819462
9410542733000.0,-1.1578041533910104,11.491178771877486,0.5283690672732697,0.915687,0.3659083,0.8924741,199.26202,-63.41482,-25.279747
9410547619000.0,-1.511894892366488,11.629838940242209,0.264427853164582,0.86590147,0.5739079,0.8371908,199.31375,-63.99061,-24.774158
9410552591000.0,-1.8947503920289857,11.724371101449275,-0.009715601884058,0.8219192,0.7626653,0.8072584,199.3272,-64.53948,-24.292862
9410557579000.0,-2.2577553509847963,11.694139170093298,-0.244083656231859,0.7984009,0.93767816,0.7874053,199.3068,-65.04742,-23.863155
9410562769000.0,-2.6270117457671045,11.61255941802004,-0.4716486483016586,0.7800749,1.07665,0.77549344,199.25165,-65.53369,-23.453466
9410567634000.0,-2.9946255466862723,11.499740588488605,-0.6774497094464867,0.7593055,1.1753048,0.7644979,199.12752,-65.9787,-23.097597
9410572610000.0,-3.4000440622203554,11.334569896334418,-0.8776563648146203,0.74128497,1.2315043,0.7641924,198.98718,-66.40933,-22.751705
9410577584000.0,-3.727421944619992,11.116280577860389,-1.0314213206732756,0.7254025,1.278541,0.76083267,198.76167,-66.79401,-22.462343
9410582570000.0,-3.9788930994527054,10.845086250722842,-1.139899154502272,0.700357,1.2928963,0.7641924,198.54166,-67.166374,-22.176147
9410588059000.0,-4.070920458348677,10.50551306870821,-1.1507723207578255,0.6872234,1.3118331,0.8002335,198.25461,-67.49879,-21.935522
9410592659000.0,-4.045305648774106,10.198134194786316,-1.099542567874794,0.6249151,1.3057245,0.8188649,197.98279,-67.81152,-21.701382
9410597607000.0,-4.022173795990825,9.845672169043585,-1.0556942177620423,0.59040123,1.2742649,0.86376345,197.68375,-68.098145,-21.490244
9410602586000.0,-4.003151999960108,9.46999130018949,-1.0224060250523588,0.5012149,1.2165382,0.88117313,197.40541,-68.36615,-21.283577
9410607612000.0,-3.9865900402273375,9.1457834743281,-1.0286925900587611,0.4156938,1.1548407,0.89552844,197.13109,-68.62219,-21.080212
9410612640000.0,-3.9726745743569984,8.876751327906753,-1.0750775247278683,0.32589662,1.0833695,0.8961393,196.88676,-68.86688,-20.87778
9410617607000.0,-3.982736486017074,8.638764576390933,-1.1033259697380042,0.2519819,0.9761627,0.88331115,196.66289,-69.08697,-20.691393
9410622680000.0,-4.025641690903739,8.433772267589049,-1.1080932257874596,0.19181168,0.84971356,0.86529064,196.47441,-69.29626,-20.5086
9410627556000.0,-4.090645066312732,8.25138144959431,-1.0964892208053691,0.15577064,0.68019843,0.8268061,196.3169,-69.4831,-20.34385
9410632614000.0,-4.197393540719223,8.086406797145147,-1.0576716167785236,0.13683382,0.48349985,0.7877107,196.21202,-69.65792,-20.185995
9410637619000.0,-4.319480473765288,7.976547362748576,-1.0342951,0.13744467,0.2770274,0.7318166,196.14774,-69.79925,-20.059027
9410642715000.0,-4.469841020119503,7.949209137820932,-1.0342951,0.14905111,0.07147124,0.68233645,196.14645,-69.92724,-19.941988
9410647657000.0,-4.640718588549902,7.951361349641894,-1.0480416636870988,0.15424347,-0.11453723,0.6197228,196.1858,-70.01187,-19.864864
9410652656000.0,-4.885634947539764,8.03596864580039,-1.1014779559668868,0.14874569,-0.27672195,0.573297,196.2811,-70.08483,-19.797123
9410657623000.0,-5.19221205303157,8.09851430413966,-1.163260653303366,0.14813483,-0.42638394,0.52412236,196.40916,-70.11827,-19.767082
9410662651000.0,-6.073106142138825,7.9676388175412916,-1.3042037559167885,0.1328632,-0.5311473,0.46273044,196.57166,-70.13355,-19.753296
9410667695000.0,-6.836684276617534,7.839482601761103,-1.4358281385911178,0.12614368,-0.5662721,0.39095375,196.73601,-70.10269,-19.786453
9410672599000.0,-7.110884480522588,7.727105526722818,-1.5257297986217455,0.12156218,-0.5122105,0.32803464,196.90213,-70.05697,-19.833918
9410677627000.0,-7.372599939766787,7.610376052392441,-1.608430821190189,0.13897185,-0.46639562,0.26725355,197.01796,-69.87221,-20.021507
9410682647000.0,-7.454755560193004,7.479893394571773,-1.6035981376357056,0.15943582,-0.33658674,0.21624629,197.08781,-69.67473,-20.223051
9410688612000.0,-7.509652291918071,7.315840641105842,-1.5816089765008576,0.17928895,-0.19700404,0.19394971,197.10345,-69.42886,-20.475313
9410692622000.0,-7.4631549035616995,7.187972661285441,-1.535111547684391,0.24709499,-0.08155051,0.17073683,197.08328,-69.17308,-20.739809
9410697663000.0,-7.395498288239316,7.039781163692308,-1.464174203213675,0.33414328,0.021380283,0.15699236,197.00597,-68.899796,-21.023264
9410703433000.0,-7.249087891743589,6.964214580615384,-1.289426153128205,0.44135013,0.10293079,0.15515977,196.89702,-68.62808,-21.306843
9410707581000.0,-7.143834802547008,6.909890458153846,-1.163801385059829,0.5684101,0.18417588,0.17195857,196.74792,-68.36147,-21.586412
9410712667000.0,-6.945307016262588,6.898848058224544,-0.8782192622491607,0.70341134,0.24281894,0.20616703,196.5789,-68.103325,-21.857958
9410717674000.0,-6.730680822034689,6.903319387663186,-0.5607513376976874,0.80848014,0.2929099,0.24373524,196.38654,-67.85391,-22.120089
9410722661000.0,-6.440247336374002,6.91453289152068,-0.1540161477194983,0.8961393,0.33200526,0.28405234,196.1774,-67.635666,-22.34851
9410727622000.0,-6.110278611744583,6.929307538384991,0.2990749238084379,0.95722586,0.34972036,0.28405234,195.96007,-67.41798,-22.574274
9410732643000.0,-5.793463961842105,6.964270561403509,0.7774434679824561,0.99112886,0.33383787,0.27916542,195.74492,-67.24646,-22.750246
9410737794000.0,-5.475546980558539,7.008425678481919,1.2763966137128535,1.0057896,0.23426682,0.24495697,195.5523,-67.06734,-22.931906
9410742647000.0,-5.126487541670159,7.065635311871333,1.7379425530595136,0.9950995,0.05222898,0.2049453,195.40227,-66.93558,-23.064304
9410747602000.0,-4.718780806915339,7.140216005238893,2.2003416578373844,0.9584476,-0.21991149,0.1704314,195.31328,-113.20331,-23.203304
9410752591000.0,-4.313819315343915,7.210626279365079,2.4816598285714284,0.9104946,-0.5326745,0.14660765,195.31091,-66.701065,-23.298935
9410757574000.0,-3.9136413357991415,7.277322518089248,2.619816525606469,0.8582657,-0.86529064,0.13103059,195.39906,-66.59994,-23.39991
9410762704000.0,-3.529484679468242,7.320801583259477,2.5719219908911866,0.8268061,-1.1731668,0.12736541,195.60983,-66.53473,-23.46455
9410767702000.0,-3.17597739450517,7.344368715903496,2.3833846836533725,0.80909103,-1.4541647,0.14263703,195.9142,-66.47338,-23.524319
9410773403000.0,-2.851428598940449,7.380911573864417,2.0424341565780435,0.79504114,-1.6829338,0.16493362,196.32901,-66.47498,-23.519411
9410777592000.0,-2.650704689100363,7.412397664475621,1.731508888501913,0.78954333,-1.7733418,0.1777618,196.78421,-66.48099,-23.508192
9410782583000.0,-2.4821447381846946,7.484654245600158,1.341190492505438,0.8078693,-1.9138408,0.18692477,197.33304,-66.55828,-23.424423
9410787685000.0,-2.3855245412299784,7.595767774767649,0.9208922826379276,0.8378017,-2.0018053,0.20555615,197.88687,-66.64464,-23.330173
9410792639000.0,-2.3468294337733675,7.706346500239213,0.5492863342964472,0.8594874,-2.05098,0.23396139,198.45499,-66.798645,-23.169495
9410797601000.0,-2.367880236289537,7.820020745902365,0.2166834206627093,0.8949176,-2.042428,0.25411993,199.02332,-66.95869,-23.002869
9410802631000.0,-2.39511884500253,7.932179658748284,-0.0966055281945508,0.92149025,-1.9706513,0.2687807,199.53938,-67.184494,-22.773508
9410807686000.0,-2.444099811288574,8.033640270911325,-0.3240174979669004,0.9388999,-1.8664987,0.28924468,200.03429,-67.418816,-22.53673
9410812646000.0,-2.492160264855099,8.133194105991183,-0.5471556522835875,0.9611965,-1.7336355,0.29749137,200.48447,-67.66616,-22.292435
9410817689000.0,-2.6309899944868533,8.287982901187448,-0.8949562672603902,0.96852684,-1.5894713,0.31429017,200.89351,-67.9205,-22.042091
9410822643000.0,-2.872432762406937,8.502599042455943,-1.3778417564131562,0.9795224,-1.4205672,0.33108896,201.24992,-68.17548,-21.79244
9410828658000.0,-3.065374917116016,8.682305242970209,-1.791612818042597,0.9975429,-1.271516,0.3494149,201.56282,-68.432236,-21.544168
9410832606000.0,-3.109166597496944,8.733395274242326,-1.9205549400682067,0.9975429,-1.1074986,0.36743546,201.81844,-68.68907,-21.295216
9410837726000.0,-3.165958239733608,8.79965184975227,-2.087774713313172,1.0009027,-0.92271197,0.4083634,202.05508,-68.907326,-21.085938
9410843585000.0,-3.322497732657621,8.823924231923383,-2.2764200022984835,1.0009027,-0.72173727,0.44348818,202.23628,-69.12254,-20.876135
9410847607000.0,-3.546903794253791,8.77473963367917,-2.4024562896249004,1.0164797,-0.5338962,0.45753807,202.36592,-110.66386,-20.663702
9410852561000.0,-3.8233104648523546,8.71415770933759,-2.557698399872306,1.0253373,-0.37598756,0.45478916,202.45268,-110.46608,-20.461277
9410857581000.0,-4.015189011216892,8.670363951267792,-2.6461289143651614,1.0238101,-0.24740042,0.45814893,202.4941,-110.27224,-20.255814
9410863947000.0,-4.21057450643793,8.624390618248656,-2.720835055471769,0.9960158,-0.14080444,0.46089783,202.49788,-110.088974,-20.053783
9410867836000.0,-4.307614870184096,8.584664967546024,-2.7523641115961284,0.9437868,-0.0290161,0.47708577,202.45177,-109.97898,-19.91644
9410872602000.0,-4.420228014898463,8.532689878724616,-2.7870143064907955,0.883922,0.09407325,0.47342056,202.3738,-109.88172,-19.784523
9410877590000.0,-4.536058476218787,8.483912707491083,-2.78571193686088,0.8378017,0.15210545,0.46761733,202.27574,-109.82076,-19.681885
9410882578000.0,-4.649659286563614,8.441312558065794,-2.7431116391597303,0.80909103,0.25259277,0.45998153,202.13216,-109.76751,-19.579947
9410887796000.0,-4.736472264326714,8.424745692857815,-2.663714778488755,0.7678576,0.34605515,0.43279803,201.97276,-109.754036,-19.513016
9410892679000.0,-4.784877236096735,8.437946839936012,-2.5537036878705184,0.73548174,0.41355577,0.4034765,201.7956,-109.748184,-19.44814
9410897597000.0,-4.813756681275829,8.468696386563527,-2.4381767010914484,0.6957755,0.4615087,0.37415496,201.59557,-109.77798,-19.41673
9410902582000.0,-4.803638932573911,8.53446119847409,-2.311705396969376,0.677755,0.48166725,0.35705075,201.38824,-109.815765,-19.389282
9410907588000.0,-4.770012744709866,8.611195620615065,-2.185037689419731,0.6627888,0.514654,0.33078352,201.17441,-109.877174,-19.38722
9410913216000.0,-4.69904727979874,8.712574780588733,-2.0431067595974794,0.675617,0.5534439,0.312763,200.9574,-109.943535,-19.38646
9410917627000.0,-4.65164423208514,8.802625371698857,-1.922246698383918,0.6960809,0.6261369,0.3032946,200.73561,-110.012634,-19.389437
9410922618000.0,-4.613963510001971,8.925087337307843,-1.7668142300551832,0.72601336,0.7293731,0.29352075,200.49739,-110.089195,-19.394987
9410927620000.0,-4.590636182162677,9.041887986047248,-1.588754616109085,0.7519751,0.8732319,0.301462,200.249,-110.1536,-19.386297
9410932585000.0,-4.60194476278738,9.143665369113682,-1.3588133192960203,0.7724391,1.0372492,0.2996294,199.9687,-110.225815,-19.37886
9410937694000.0,-4.613581326415094,9.248394603773583,-1.1222030301886794,0.78984874,1.2168436,0.3005457,199.66951,-110.284584,-19.357744
9410942826000.0,-4.663565332950912,9.358123730487115,-0.688589004311642,0.7840455,1.3918564,0.30176744,199.3298,-110.34416,-19.331886
9410947574000.0,-4.719153098833929,9.4607473257476,-0.2396120029010721,0.75502944,1.4853189,0.30787608,198.96933,-110.40233,-19.30126
9410952589000.0,-4.802458446180076,9.548054759284858,0.3749817116717353,0.70157874,1.5183055,0.3036,198.60583,-110.44669,-19.274931
9410957576000.0,-4.8992890181550095,9.622878142843977,1.0660006949497742,0.61666846,1.4321736,0.30176744,198.26025,-110.483734,-19.24871
9410963467000.0,-5.028007858161333,9.752084425266728,1.912673246983747,0.5036584,1.2547172,0.29229903,197.95572,-110.5102,-19.251608
9410967631000.0,-5.127414275750324,9.86739554581713,2.5289921641240403,0.35521814,0.95233893,0.2950479,197.72194,-110.52369,-19.261513
9410972624000.0,-5.245719617587457,9.964677214163824,3.0167349066766214,0.18692477,0.77304995,0.28710666,197.46179,-110.53874,-19.312756
9410977580000.0,-5.362148881026024,10.01529861006826,3.219220596011092,0.03359759,0.41599923,0.29077184,197.35037,-110.54027,-19.377695
9410982576000.0,-5.43992813289933,10.01273944674026,3.029511865826965,-0.03390302,0.074830994,0.2828306,197.23938,-110.55106,-19.481796
9410988397000.0,-5.497783677441268,9.965403112086046,2.482512567223323,-0.13316862,-0.17440203,0.27397305,197.21269,-110.54961,-19.591583
9410992900000.0,-5.561973330869715,9.8958584352011,1.6263764139223098,-0.19853121,-0.344528,0.2574797,197.25133,-110.56615,-19.727985
9410997624000.0,-5.643621637985562,9.798658359573738,0.4094306551048468,-0.23579398,-0.42088616,0.23823744,197.33943,-110.587135,-19.867622
9411002630000.0,-5.736579530467446,9.71679759891486,-0.7671717817612688,-0.258396,-0.42913285,0.23243423,197.46814,-110.631386,-20.010056
9411007581000.0,-5.865208721473289,9.756376153276294,-1.2866366012207846,-0.2751948,-0.39920044,0.2180789,197.60555,-110.6867,-20.15664
9411012663000.0,-5.999315835973104,9.816208551830409,-1.7610252164269704,-0.28038713,-0.3408628,0.2134974,197.73665,-110.7833,-20.293732
9411017642000.0,-6.137359494434068,9.936439684348152,-2.037112300859171,-0.28313604,-0.24617869,0.20372356,197.83862,-110.882454,-20.429712
9411022613000.0,-6.276763564375124,10.062472191833896,-2.2978778905225514,-0.2770274,-0.14966199,0.19822577,197.88705,-110.99446,-20.560076
9411027600000.0,-6.433336438942976,10.252258109874829,-2.4022599720445066,-0.27030787,-0.036651913,0.19242255,197.89719,-111.10613,-20.687023
9411032642000.0,-6.587908719774766,10.445348064325252,-2.493784703111281,-0.23304509,0.09101892,0.19181168,197.84789,-111.23004,-20.812948
9411037695000.0,-6.698750504094292,10.653175957816376,-2.419890389205956,-0.20005837,0.23426682,0.17165314,197.75748,-111.358,-20.940187
9411042824000.0,-6.809558455092282,10.86440705450894,-2.3412917382805776,-0.14538592,0.4129449,0.15821409,197.60603,-111.49376,-21.066957
9411047646000.0,-6.8316390372860285,11.076380920244812,-2.093988987147365,-0.10354166,0.59803706,0.13103059,197.40903,-111.6367,-21.196976
9411052596000.0,-6.854305748579899,11.29398163268624,-1.8401215839724587,-0.045814894,0.73731434,0.092240654,197.16283,-111.792076,-21.333904
9411057590000.0,-6.789197732892375,11.539125758858548,-1.5029406293867522,-0.02321288,0.8026769,0.052839845,196.88588,-111.95179,-21.472929
9411062681000.0,-6.7108793147973165,11.792508720589623,-1.1482042424359822,0.005497787,0.77671516,0.022602014,196.5984,-112.119545,-21.615936
9411072574000.0,-6.431024909900167,12.47810112312812,-0.5989089660565725,-0.015882496,0.57543504,-0.0106901415,196.34596,-112.28345,-21.765696
9411077600000.0,-6.250313946213477,12.893340064400714,-0.4831918747644603,-0.026267206,0.37995818,-0.03176499,196.1051,-112.45029,-21.917582
9411082556000.0,-6.066350053428742,13.313154933810376,-0.3982855074180083,-0.061086524,0.17562376,-0.026572637,195.93823,-112.57953,-22.049543
9411087725000.0,-5.870696247732426,13.647907984693877,-0.4373028225170068,-0.10293079,0.00061086525,-0.0061086523,195.83855,-112.66307,-22.145702
9411092654000.0,-5.6833784138322,13.946724418367348,-0.4997420756462585,-0.16065755,-0.122478485,-0.0021380284,195.78677,-112.74483,-22.246086
9411098671000.0,-5.458080543102629,14.25798347004652,-0.508704540059812,-0.20616703,-0.17745635,0.015577064,195.78189,-112.7575,-22.281038
9411102602000.0,-5.311540976644831,14.450987247507832,-0.5015562667957847,-0.29718593,-0.15424347,0.022296581,195.78973,-112.76675,-22.317818
9411107583000.0,-5.150247584437086,14.625348055071452,-0.3365935462129662,-0.32406402,-0.112399206,0.03726278,195.81854,-112.72082,-22.294481
9411113526000.0,-4.976665739238411,14.77909133147438,-0.0191869943577901,-0.3903429,-0.024740042,0.044898596,195.82487,-112.67076,-22.270754
9411117653000.0,-4.884664113344051,14.836274623794212,0.3279671536655948,-0.4654793,0.043676864,0.03573562,195.83781,-112.581436,-22.20598
9411122603000.0,-4.827503600381833,14.81245772266881,0.9805507518368168,-0.5742133,0.07147124,0.013439035,195.8358,-112.493385,-22.144857
9411127565000.0,-4.803709287242674,14.734942930940068,1.6657147248250683,-0.72143185,0.01282817,-0.018020526,195.85257,-112.37489,-22.063095
9411132606000.0,-4.852666440472569,14.539114573623364,2.429446775296623,-0.9025534,-0.1301143,-0.056199603,195.88588,-112.26534,-21.994526
9411137623000.0,-4.919532393932222,14.302189775132526,3.052725858822416,-1.1218541,-0.32345316,-0.090713486,195.97388,-112.15791,-21.944178
9411142713000.0,-5.021047876230594,13.983800012258614,3.431102216073457,-1.3451253,-0.5158757,-0.14813483,196.10202,-112.07083,-21.914492
9411147595000.0,-5.107238827815777,13.656366995987232,3.679405644870041,-1.5525141,-0.6899723,-0.1957823,196.29378,-112.0122,-21.91946
9411152584000.0,-5.159527551755586,13.251130067943455,3.566113712995896,-1.7229455,-0.8032878,-0.2519819,196.52217,-111.98384,-21.941551
9411157782000.0,-5.207081228473924,12.791743159870494,3.405893907752888,-1.8515326,-0.8368854,-0.30024028,196.77788,-112.01686,-22.008286
9411162751000.0,-5.173768318515926,11.92977775638782,2.7729531405670285,-1.9141463,-0.8359691,-0.3436117,197.05486,-67.91547,-22.083988
9411167662000.0,-5.140844249124957,11.077873530889043,2.147400291372069,-1.9428569,-0.788627,-0.38545597,197.30518,-67.78505,-22.195734
9411172611000.0,-5.140543539750987,10.514176201639842,1.7987325152140905,-1.9550742,-0.7583892,-0.4111123,197.55743,-67.62721,-22.30886
9411177566000.0,-5.1501507425549145,10.038637142524546,1.5345438926814454,-1.9517145,-0.675617,-0.46211955,197.7761,-67.43266,-22.435898
9411182586000.0,-5.191489881053919,9.656975898540592,1.3312137929389145,-1.9303342,-0.589485,-0.505491,197.91977,-67.18738,-22.60627
9411187610000.0,-5.241945759826968,9.30378470322468,1.1462089772786856,-1.9162843,-0.5357288,-0.55833083,198.04393,-66.915504,-22.79084
9411192639000.0,-5.306504291811847,9.001063902221254,0.9539893120862368,-1.9162843,-0.4804455,-0.6056729,198.10483,-66.60736,-23.00974
9411197649000.0,-5.384868459930313,8.750298236933798,0.7554665891986063,-1.9080375,-0.453262,-0.6606508,198.15428,-66.2789,-23.243435
9411202585000.0,-5.457693027479092,8.626452706491438,0.5772171493508562,-1.9071213,-0.41508293,-0.6918049,198.1434,-65.92051,-23.509787
9411207575000.0,-5.529061354838709,8.56460035483871,0.405933034516129,-1.919644,-0.35827246,-0.7305948,198.11519,-65.543495,-23.792503
9411213549000.0,-5.5777738061132,8.550254123999615,0.2208935568165075,-1.9462167,-0.27214047,-0.75961095,198.0454,-65.14485,-24.09855
9411217627000.0,-5.600367994407483,8.557785703596569,0.1003907160669173,-1.9950858,-0.1695151,-0.79137594,197.94992,-64.733406,-24.416128
9411222603000.0,-5.633188172115385,8.606672189903847,-0.0331735046225961,-2.0485365,-0.038179077,-0.8258898,197.81519,-64.30572,-24.7501
9411228653000.0,-5.677757358653846,8.701380867788462,-0.1835938268197115,-2.0995438,0.10567969,-0.8552113,197.64223,-63.869343,-25.093428
9411232581000.0,-5.693261025190011,8.833455288816504,-0.2759180958631921,-2.1352794,0.27122417,-0.90469146,197.42474,-63.419483,-25.453255
9411238311000.0,-5.704094124390485,9.08803334626394,-0.4059153880752146,-2.1508565,0.40683624,-0.9462303,197.17062,-62.964176,-25.82175
9411242629000.0,-5.701015227606753,9.226421396226415,-0.4546177759086395,-2.140472,0.5403103,-0.9584476,196.86719,-62.51294,-26.192171
9411247606000.0,-5.686815505580934,9.335286228301886,-0.4640842523167825,-2.117259,0.6603453,-0.9443977,196.52538,-62.06102,-26.570278
9411252586000.0,-5.707415230149058,9.42524291553389,-0.44494757487766,-2.060143,0.72509706,-0.92057395,196.19319,-61.627903,-26.930008
9411257576000.0,-5.770135418205681,9.492443016780726,-0.3911874658123184,-1.9663752,0.7510588,-0.9077458,195.83505,-61.205013,-27.29051
9411262641000.0,-5.849003785520607,9.523122104663775,-0.3099166938286334,-1.8622227,0.7620544,-0.9245446,195.47978,-60.799683,-27.636375
9411267747000.0,-5.960379102765726,9.4753898654013,-0.1720231385271149,-1.7705929,0.7507534,-0.9728029,195.1248,-60.400707,-27.985592
9411272636000.0,-6.016516936084302,9.475133360843015,0.0064945691628914,-1.7003434,0.7626653,-1.0082331,194.77713,-60.00365,-28.333227
9411277589000.0,-6.0211883848138665,9.521847848138664,0.2353957227595036,-1.6875153,0.7620544,-1.063211,194.44096,-59.596287,-28.695747
9411282583000.0,-5.973322964183618,9.58108849578523,0.4396512428037383,-1.6612481,0.7275405,-1.105666,194.12166,-59.172283,-29.072483
9411288490000.0,-5.838558120230896,9.669203681326737,0.6417987198130841,-1.647809,0.68783426,-1.1090258,193.80496,-58.750027,-29.4493
9411292660000.0,-5.7146744622797705,9.750043015495647,0.7709807014009764,-1.6417004,0.61391956,-1.1136073,193.53542,-58.318768,-29.819353
9411297603000.0,-5.49863325533857,9.890720994852474,0.8915618865209085,-1.6224581,0.5705481,-1.0873401,193.26666,-57.9037,-30.176903
9411302562000.0,-5.303885153233539,10.00511782550631,1.0559476611975345,-1.6105462,0.54092115,-1.0516045,193.05104,-57.511765,-30.493166
9411307606000.0,-5.143197752861756,10.076009195039624,1.2969784656589376,-1.6245961,0.5119051,-0.9999864,192.84557,-57.136055,-30.791702
9411312913000.0,-4.982416870570745,10.125826389072438,1.5640704373502932,-1.6551393,0.4392121,-0.9651671,192.69366,-56.8059,-31.029888
9411317949000.0,-4.842992879127777,10.13379343507888,1.8389352092012885,-1.6826283,0.27885997,-0.95264435,192.577,-56.486176,-31.25074
9411322574000.0,-4.714947612959445,10.141110271413233,2.0913676098785827,-1.6985108,0.046731193,-0.9447031,192.54054,-56.19731,-31.40906
9411327588000.0,-4.437810766091245,10.177688817509248,2.30917364377312,-1.7165314,-0.23701571,-0.9230174,192.56886,-55.914627,-31.545362
9411332961000.0,-4.127000884154155,10.21755906894903,2.5245266858563644,-1.7037032,-0.5510005,-0.8735373,192.67604,-55.64548,-31.652672
9411337749000.0,-3.877057073539256,10.195634177297505,2.432442049344937,-1.6811012,-0.90041536,-0.83108217,192.91905,-55.395283,-31.69052
9411342675000.0,-3.619909368633452,10.173077365209906,2.337703344362628,-1.5922203,-1.2293663,-0.77304995,193.29323,-55.201656,-31.633455
9411347659000.0,-3.3547398390162413,10.103542201392113,2.0551169442598605,-1.4798211,-1.4993688,-0.7141015,193.74475,-55.02555,-31.540985
9411352558000.0,-3.093486239814385,10.02952069837587,1.7546754370301625,-1.3509285,-1.6401732,-0.6765333,194.24242,-54.872856,-31.42114
9411357585000.0,-2.882581378146496,9.924740854712772,1.3725937579652352,-1.2541064,-1.6685784,-0.63407815,194.79375,-54.78141,-31.226702
9411362776000.0,-2.6884975699386504,9.804593668711655,0.947457598834356,-1.1585059,-1.5916094,-0.62949663,195.33914,-54.707455,-31.029198
9411367690000.0,-2.540657374981612,9.646573564148364,0.5225311955458654,-1.0977248,-1.5015068,-0.6414085,195.89267,-54.682053,-30.792364
9411372607000.0,-2.416959924976358,9.458553725333614,0.0821681371303982,-1.0821478,-1.2791518,-0.6560693,196.36595,-54.665382,-30.574184
9411377585000.0,-2.349189860409661,9.207375569550596,-0.2609745556557628,-1.0922271,-0.98471475,-0.69027776,196.80084,-54.66215,-30.37177
