timestamp,acc_x,acc_y,acc_z,gyro_x,gyro_y,gyro_z,ori_azimuth,ori_pitch,ori_roll
4769379559000.0,-1.4460887180249276,9.4044024544583,-0.2872769540747837,-1.1676689,0.73914695,0.03268129,47.426983,-81.65452,6.6919813
4769384715000.0,-1.450822944372003,9.41860493576223,-0.3014796331160109,-1.1676689,0.7467828,0.036957346,47.426517,-81.6521,6.691499
4769389681000.0,-1.4553827131927128,9.432284051773737,-0.3151589395781394,-1.1872166,0.7593055,0.03268129,47.244366,-81.61253,6.515781
4769394535000.0,-1.459839643892617,9.445654657718126,-0.3285297316778518,-1.1884383,0.7473936,0.03023783,47.06769,-81.56563,6.3437033
4769399510000.0,-1.464407676490891,9.459358564717167,-0.3422338294726745,-1.1673635,0.7651087,0.028405234,46.879986,-81.51181,6.1709747
4769404427000.0,-1.4689224536337484,9.47290270757431,-0.3557781609012459,-1.1847731,0.7693848,0.032070424,46.700523,-81.441986,6.0013304
4769409432000.0,-1.4735180321572383,9.486689251198472,-0.3695648964717157,-1.1976013,0.76083267,0.03970624,46.520813,-81.36994,5.833841
4769414414000.0,-1.478092492138063,9.500412440076706,-0.3832882764141894,-1.1994339,0.74128497,0.035124753,46.344673,-81.29239,5.665666
4769419426000.0,-1.4826944980441032,9.514218265580062,-0.3970942941323102,-1.1749994,0.7134906,0.030543262,46.174583,-81.211365,5.501753
4769425058000.0,-1.4878657864046017,9.529731914669227,-0.4126081592138059,-1.1426234,0.7110472,0.027794369,46.004463,-81.12804,5.3384476
4769429400000.0,-1.491852599980824,9.54169218887824,-0.4245685999424732,-1.1322387,0.79168135,0.05497787,45.819206,-81.0374,5.1819825
4769434395000.0,-1.4964389965292422,9.555451186960694,-0.4383277895877273,-1.2592987,0.77091193,0.055588737,45.666267,-80.92361,5.022512
4769439405000.0,-1.5010391660402682,9.569251503355709,-0.452128298120805,-1.2437216,0.7593055,0.06291912,45.488346,-80.83785,4.8712654
4769444396000.0,-1.5056218897986575,9.58299948322148,-0.4658764693959728,-1.2449434,0.76174897,0.071776666,45.314186,-80.715546,4.722366
4769449415000.0,-1.510230323087248,9.59682459060403,-0.4797017692617447,-1.2458596,0.7449502,0.0693332,45.15092,-80.59621,4.575155
4769454514000.0,-1.514912212176414,9.610870062320233,-0.4937474365292423,-1.2455542,0.7244862,0.087659165,44.98883,-80.47188,4.4380217
4769459445000.0,-1.5194398440843715,9.624452768935765,-0.5073303322531157,-1.2476922,0.7076874,0.093462385,44.8331,-80.34832,4.2988434
4769464446000.0,-1.524031749817833,9.638228294343245,-0.5211060494534994,-1.2599095,0.6640105,0.09896017,44.692078,-80.21994,4.168367
4769469535000.0,-1.528704456931927,9.65224622051774,-0.5351241707957812,-1.1982121,0.59498274,0.09743301,44.565083,-80.11083,4.041033
4769474455000.0,-1.5332219886673055,9.665798627037391,-0.5486767660019174,-1.1004738,0.5216789,0.09468412,44.453426,-80.008545,3.9186296
4769479465000.0,-1.5378221581783316,9.679598943432408,-0.5624772745349951,-0.97066486,0.4868596,0.08582657,44.35255,-79.93297,3.7970476
4769484426000.0,-1.5423773360115052,9.69326428667306,-0.5761428080345157,-0.89980453,0.42332962,0.08674286,44.281845,-79.86785,3.6837494
4769489463000.0,-1.5470022968552253,9.707138976030684,-0.5900176905656758,-0.7724391,0.36468655,0.07666359,44.22198,-79.85502,3.5680401
4769494431000.0,-1.551563902070949,9.720823601150528,-0.6037025062128475,-0.6612616,0.22937989,0.055588737,44.20358,-79.858246,3.457778
4769499430000.0,-1.556153971409396,9.734593617449663,-0.6174727142281878,-0.3885103,0.016187929,0.0076358155,44.22664,-79.94272,3.34529
4769504465000.0,-1.5607770958581015,9.748462797698943,-0.6313420875743049,0.018020526,0.011911872,0.004581489,44.228416,-80.090614,3.2377584
4769509463000.0,-1.5653662469990413,9.762230059443912,-0.6451095409971237,0.021685716,0.027488936,0.010995574,44.286694,-80.20483,3.1300738
4769514450000.0,-1.5699452979674018,9.775967021093,-0.6588466939022052,-0.027183503,0.027794369,0.017715093,44.350456,-80.41092,3.0242069
4769520343000.0,-1.5753562358772772,9.79219960882071,-0.6750795076318312,-0.024740042,0.019547688,0.013133603,44.412262,-80.62821,2.9182987
4769524497000.0,-1.5791704283221475,9.803642026845637,-0.686522084966443,-0.02687807,0.021380283,0.006414085,44.47071,-80.8267,2.8148422
4769529457000.0,-1.5833386325927192,9.797153534438555,-0.7116888281490343,-0.020158553,0.023518313,0.01740966,44.507153,-81.03679,2.6863801
4769534448000.0,-1.587423217176551,9.784899951290376,-0.7402809202358571,-0.02565634,0.009468411,0.009773844,44.548897,-81.2414,2.5530336
4769539481000.0,-1.5897499,9.775598367279168,-0.7681756357316802,-0.020463986,0.015577064,0.0076358155,44.567154,-81.461784,2.405724
4769544496000.0,-1.5897499,9.770281934359089,-0.7947572785145007,-0.01985312,0.015271631,0.0027488936,44.591854,-81.676544,2.2578115
4769549442000.0,-1.5897499,9.759498416296296,-0.7897105634548147,-0.007330383,0.012217305,-0.00061086525,44.600807,-81.91273,2.0915728
4769554517000.0,-1.5897499,9.745097947160492,-0.765709417331358,-0.014049901,0.0106901415,-0.004886922,44.60971,-82.13998,1.9251474
4769559563000.0,-1.5857822957412828,9.739613,-0.7486324914825658,-0.013133603,0.0061086523,0.008246681,44.609703,-82.38761,1.7469771
4769564514000.0,-1.5794721098482831,9.739613,-0.7360121196965663,-0.006414085,0.008857546,0.002443461,44.60884,-82.63162,1.5635781
4769569556000.0,-1.5730459419483631,9.739613,-0.7231597838967261,-0.01282817,0.008552114,0.004581489,44.59605,-82.87017,1.3728044
4769574571000.0,-1.5649299121664275,9.739613,-0.7097609182496413,-0.002443461,0.016187929,0.0027488936,44.580326,-83.110374,1.1803571
4769584569000.0,-1.5476493751915852,9.741509494064614,-0.6819434899924869,0.0030543262,0.01740966,0.004276057,44.566105,-83.34132,0.9912499
4769589583000.0,-1.5404339993989482,9.745116861758076,-0.6675128137490609,-0.0070249503,0.016798794,0.0009162979,44.542683,-83.55137,0.8065696
4769595663000.0,-1.5343031534301452,9.748786203805707,-0.653639879068603,-0.0036651916,0.018936822,0.003970624,44.5148,-83.75286,0.6293394
4769599558000.0,-1.5529820286930396,9.745050748622932,-0.6760544825738608,-0.013133603,0.0125227375,0.0030543262,44.489357,-83.94251,0.45130944
4769604505000.0,-1.5767058787381072,9.740306384877316,-0.7045230431747622,-0.013744468,0.0061086523,0.0036651916,44.46095,-84.12474,0.2770353
4769609574000.0,-1.5690147158713137,9.74333215067024,-0.7012447772475425,-0.005497787,0.0036651916,0.004581489,44.432827,-84.30079,0.10367719
4769614497000.0,-1.556374880375335,9.747545077211797,-0.6928182202502234,-0.0033597588,0.0036651916,0.010079277,44.405243,-84.4685,-0.06699563
4769619569000.0,-1.5595408742910817,9.762685957151804,-0.6949288828607211,0.00030543262,-0.0021380284,0.0061086523,44.37619,-84.63946,-0.24751826
4769626437000.0,-1.577191861606584,9.792104269344303,-0.7066962077377226,-0.005192355,0.010079277,0.008857546,44.341137,-84.80067,-0.42385802
4769629478000.0,-1.5768445780487803,9.793744582317071,-0.7070194390243902,-0.008552114,0.0061086523,0.009773844,44.312042,-84.95383,-0.59755
4769634571000.0,-1.5678322642276423,9.784732550813008,-0.7025132821138211,-0.019242255,0.004276057,0.003970624,44.278442,-85.09445,-0.77146584
4769639527000.0,-1.5621009724116806,9.77792,-0.7023513172350418,-0.009162978,0.013744468,-0.0012217305,44.22321,-85.24844,-0.97988456
4769644580000.0,-1.5670419128241782,9.77792,-0.7171741384725342,-0.0125227375,0.014049901,0.010995574,44.16993,-85.38288,-1.1830163
4769649539000.0,-1.5725014435955225,9.776967408308918,-0.7211692974156713,-0.019547688,0.014049901,0.0009162979,44.090797,-85.51722,-1.4324638
4769654518000.0,-1.5796658771016452,9.77338511674555,-0.6960937801442416,-0.009773844,0.0106901415,0.00061086525,44.01066,-85.63581,-1.6733711
4769659546000.0,-1.5869008181879647,9.769767570655848,-0.670771486342123,-0.012217305,0.006414085,0.0076358155,43.888165,-85.74079,-1.984681
4769664563000.0,-1.5897499,9.76415805769784,-0.6607997,-0.014660766,0.0030543262,0.010995574,43.76409,-85.81028,-2.293784
4769669547000.0,-1.5897499,9.757290177410072,-0.6607997,0.0015271631,-0.009162978,0.013439035,43.641376,-85.84614,-2.59763
4769674399000.0,-1.5897499,9.75060419122302,-0.6607997,-0.0018325958,-0.013744468,0.0061086523,43.43847,-85.80407,-3.035328
4769679380000.0,-1.6199191540177555,9.749189,-0.6607997,-0.0009162979,-0.014660766,0.0067195175,43.233894,-85.69865,-3.464148
4769684654000.0,-1.6547166829549902,9.74753227847358,-0.6607997,-0.0070249503,-0.016493361,0.004276057,43.027096,-85.526726,-3.8900592
4769689395000.0,-1.6325035207142855,9.729761878571429,-0.6607997,-0.00580322,-0.01863139,0.005497787,42.66076,-85.13386,-4.5653615
4769694659000.0,-1.6089035,9.71130253951059,-0.6605894346358449,-0.008246681,-0.02321288,0.004276057,42.129982,-84.41697,-5.495785
4769699372000.0,-1.6089035,9.720033828997002,-0.6562238810619982,0.0027488936,-0.02565634,0.006414085,41.587303,-83.59145,-6.402327
4769704431000.0,-1.6089035,9.729406117032594,-0.6515378349066642,-0.0027488936,-0.02565634,-0.0018325958,41.05154,-97.27231,-7.2617197
4769709394000.0,-1.6045021135401134,9.721233043244856,-0.629215940125261,0.004276057,-0.01985312,0.014966198,40.504066,-98.16337,-8.092994
4769714363000.0,-1.5997713133412863,9.711771245253008,-0.6055619094919973,0.0070249503,-0.01985312,0.007941248,39.947525,-99.08173,-8.913482
4769719401000.0,-1.57335746332806,9.715210304034011,-0.581697753699822,0.0012217305,-0.022602014,0.0036651916,39.37752,-100.01636,-9.719784
4769724372000.0,-1.5451157053984574,9.719917370179948,-0.5581628948071979,0.003970624,-0.024740042,0.01282817,38.797165,-100.95166,-10.504375
4769729386000.0,-1.5342422383870968,9.728082841218638,-0.5630784820071685,0.009162978,-0.018020526,0.0021380284,38.21695,-101.86565,-11.257493
4769734362000.0,-1.5257019777419354,9.736623191039428,-0.5716186534767025,0.00580322,-0.018020526,0.005192355,37.63023,-102.76674,-11.9858675
4769739431000.0,-1.5191868610312016,9.75018886966143,-0.5675577220624032,0.0015271631,-0.016493361,0.0027488936,37.057465,-103.61694,-12.662909
4769744389000.0,-1.513933290064173,9.765949363133435,-0.557050580128347,-0.0036651916,-0.021991149,0.009162978,36.47843,-104.45484,-13.320431
4769749378000.0,-1.525013481358579,9.77626183115362,-0.5831701426390786,-0.0036651916,-0.03176499,0.0106901415,35.89481,-105.2758,-13.956028
4769754405000.0,-1.539109589713059,9.785659367558072,-0.6160608478908842,0.005497787,-0.030543262,0.015271631,35.301575,-106.084854,-14.573117
4769759393000.0,-1.5457460893778452,9.795257016691956,-0.6341328480424886,0.0061086523,-0.025961773,0.0009162979,34.71153,-106.87963,-15.172764
4769764384000.0,-1.5505814267273643,9.804927489428426,-0.6486390469064239,-0.0036651916,-0.03023783,0.0015271631,34.116592,-107.65871,-15.752141
4769769397000.0,-1.5402828071865875,9.810370029010077,-0.6735426079400961,-0.0030543262,-0.02687807,0.0015271631,33.489166,-108.46238,-16.34142
4769774383000.0,-1.526790269464067,9.81486761985495,-0.7005275894602996,0.00061086525,-0.028710667,-0.00061086525,32.856388,-109.25393,-16.915668
4769779382000.0,-1.51333062558444,9.8193542567795,-0.7399556343108286,-0.00061086525,-0.02321288,0.009468411,32.18885,-110.06255,-17.493391
4769784380000.0,-1.4999030457078737,9.823830210211334,-0.7847142619412755,-0.002443461,-0.03634648,0.008246681,31.518673,-110.8621,-18.059086
4769789416000.0,-1.4730731876651983,9.810869254625551,-0.7805561486872247,0.0027488936,-0.024129177,0.0070249503,30.842712,-111.63145,-18.589453
4769794398000.0,-1.436291158480176,9.784596337444931,-0.738519448277533,0.002443461,-0.017104227,-0.0030543262,30.163902,-112.39003,-19.10783
4769799396000.0,-1.437223417975266,9.808757389703768,-0.4228888608973253,0.0015271631,-0.021685716,0.0033597588,29.4342,-113.18292,-19.637386
4769804405000.0,-1.4510198011312434,9.850146587192024,-0.0135944526804716,0.0061086523,-0.027488936,0.003970624,28.693935,-113.96661,-20.1534
4769809409000.0,-1.4390371595093312,9.854128695533657,-0.3712965799370937,0.0027488936,-0.026572637,-0.00061086525,27.971312,-114.69798,-20.627989
4769814389000.0,-1.4140358156217236,9.839128129377228,-1.1163356409771443,-0.0033597588,-0.02321288,0.0021380284,27.243145,-115.4152,-21.084745
4769819397000.0,-1.4145491859660635,9.825242865191711,-1.0523768328452237,-0.0106901415,-0.027794369,0.004581489,26.634943,-115.969284,-21.461403
4769825230000.0,-1.4250229944782975,9.809531988375364,-0.6648496581869316,-0.0027488936,-0.026572637,0.004276057,26.019491,-116.515274,-21.825714
4769829378000.0,-1.4448818288640972,9.809639655780932,-0.4383030685874239,-0.004886922,-0.018936822,0.007941248,25.199635,-117.27791,-22.269041
4769834372000.0,-1.4739851489249494,9.814490318864095,-0.1860736653273834,-0.01282817,-0.014049901,0.009162978,24.372667,-118.02719,-22.69519
4769839423000.0,-1.4715638178241215,9.813016629032258,-0.5131078879334292,-0.015271631,-0.01160644,0.0027488936,23.651058,-118.62877,-23.051268
4769849373000.0,-1.4623981043150684,9.80013010890411,-1.047348488321918,-0.013744468,-0.0018325958,0.01038471,22.921879,-119.21523,-23.388584
4769854419000.0,-1.4860401942759296,9.790673549412915,-0.6217896593688846,-0.0106901415,-0.0033597588,0.003970624,22.265438,-119.70979,-23.689987
4769859409000.0,-1.5056162570006453,9.772953928749194,-0.4846575785003226,-0.015271631,-0.010079277,0.004886922,21.429628,-120.37283,-24.037058
4769864395000.0,-1.5232215385196792,9.7509473268504,-0.4934602192598396,-0.0125227375,-0.003970624,0.0030543262,20.583548,-121.02676,-24.369396
4769869405000.0,-1.538341439699793,9.74364781935818,-0.5100987978002071,-0.0061086523,-0.005497787,0.019242255,19.850658,-121.54354,-24.650219
4769874408000.0,-1.5507412578071085,9.751914077035886,-0.534898369276225,-0.004276057,-0.005192355,0.016798794,19.10871,-122.05476,-24.923286
4769879393000.0,-1.5631502204035577,9.758233308774724,-0.565575727479092,-0.0033597588,-0.005192355,0.008857546,18.350954,-122.56792,-25.191301
4769884405000.0,-1.575893860812425,9.75504733213859,-0.626108052688172,-0.004276057,-0.0030543262,0.007941248,17.589176,-123.0697,-25.445099
4769889473000.0,-1.5887798882649675,9.75182575799814,-0.6873167167264038,-0.0070249503,-0.0143553335,0.0076358155,16.833994,-123.560455,-25.686104
4769894394000.0,-1.5993267,9.749837193765869,-0.747784994499606,0.0009162979,-0.0067195175,0.011301007,16.069117,-124.04243,-25.911793
4769899395000.0,-1.5993267,9.754030747482709,-0.814880522821119,-0.004276057,-0.017104227,0.0018325958,15.307488,-124.51477,-26.13219
4769904393000.0,-1.5993267,9.75822178557044,-0.8819358018754926,-0.0015271631,-0.012217305,0.009773844,14.484721,-125.026764,-26.353815
4769909424000.0,-1.5993267,9.744179641524736,-0.9003674343714518,-0.0015271631,-0.007941248,0.004581489,13.659178,-125.530975,-26.568947
4769914662000.0,-1.5966541674943566,9.731817632524455,-0.916923417069225,-0.010079277,-0.009773844,0.0030543262,12.832694,-126.02028,-26.76774
4769919442000.0,-1.5837373774266366,9.740428556151242,-0.9513682085665914,0.0009162979,-0.014660766,0.0036651916,11.993155,-126.51503,-26.952488
4769924564000.0,-1.5705963,9.748671351351351,-0.9864111,-0.0036651916,-0.011301007,-0.00061086525,11.144053,-126.99892,-27.126503
4769929423000.0,-1.5705963,9.738959942919754,-0.9864111,-0.01038471,-0.013133603,0.004581489,10.297168,-127.47081,-27.285889
4769934401000.0,-1.5696921133063404,9.73048810278826,-0.983246444211834,0.0012217305,-0.01160644,0.0036651916,9.471548,-127.91464,-27.419079
4769939408000.0,-1.5608670396705622,9.734900731756694,-0.952358663448974,0.002443461,-0.013744468,0.0030543262,8.646212,-128.3437,-27.539639
4769944383000.0,-1.5520983675439404,9.739285159381614,-0.9216682881153953,-0.0012217305,-0.017104227,-0.0009162979,7.84359,-128.74306,-27.641592
4769949408000.0,-1.5384599849859182,9.748267842089929,-0.91937345,-0.004276057,-0.014966198,0.0076358155,7.03992,-129.1308,-27.729248
4769954425000.0,-1.5244616438671457,9.757599744682915,-0.91937345,0.0015271631,-0.018020526,-0.0009162979,6.233687,-129.51454,-27.81263
4769959421000.0,-1.518556768556957,9.771232554672755,-0.8902854082033965,-0.0067195175,-0.018936822,0.0030543262,5.4363146,-129.87463,-27.877262
4769964383000.0,-1.5138373245605323,9.785391182341842,-0.8572492755884398,-0.0021380284,-0.021685716,0.0027488936,4.637025,-130.23177,-27.93544
4769974385000.0,-1.5131354,9.760760286388749,-0.7899514098121547,0.0030543262,-0.024740042,0.0018325958,3.8763504,-130.54482,-27.96969
4769979375000.0,-1.509443294969061,9.758766,-0.7446849876728544,-0.00030543262,-0.025961773,-0.0036651916,3.113638,-130.85002,-27.996353
4769984388000.0,-1.5051379861716438,9.758766,-0.6973265594323379,-0.004581489,-0.02443461,-0.00061086525,2.3723242,-131.12723,-28.007774
4769989395000.0,-1.5069621564729638,9.755362372447834,-0.6391105867848328,-0.007941248,-0.031154128,0.0033597588,1.6393812,-131.39249,-28.014204
4769994376000.0,-1.5123135184653351,9.750010898698676,-0.5748941869979807,0.007330383,-0.02565634,0.008552114,0.9020803,-131.65245,-28.009508
4769999375000.0,-1.5412131150855672,9.745178238896033,-0.5128873078840637,0.012217305,-0.025961773,0.0030543262,0.17689353,-131.89597,-27.999884
4770004425000.0,-1.5747021233949947,9.74039450163221,-0.4506934781284004,0.0036651916,-0.02076942,0.0009162979,359.4492,-132.13095,-27.978893
4770009495000.0,-1.5681418730097665,9.735602507250666,-0.420481046641018,0.004581489,-0.020158553,-0.0015271631,358.73727,-132.34964,-27.953714
4770019422000.0,-1.5447269214546402,9.743467416840458,-0.3691439637851929,0.006414085,-0.02443461,0.004276057,358.02548,-132.5587,-27.919802
4770025547000.0,-1.534532585992353,9.763855874869655,-0.3334639546611053,0.01740966,-0.027183503,0.005192355,357.31247,-132.7716,-27.886482
4770029396000.0,-1.527485715772586,9.768343,-0.340021297697784,0.009773844,-0.024129177,0.0012217305,356.61877,-132.96135,-27.8402
4770034417000.0,-1.517842656953775,9.768343,-0.3689504842234031,0.009773844,-0.032986723,0.0030543262,355.92978,-133.14694,-27.788025
4770039412000.0,-1.5158852170654626,9.7710928744921,-0.3968213568126411,0.009773844,-0.037873644,0.0143553335,355.2527,-133.31323,-27.723068
4770044394000.0,-1.5212702754853271,9.77647804537246,-0.4237466714040632,0.0125227375,-0.03848451,0.008857546,354.57343,-133.47675,-27.656149
4770049398000.0,-1.5398070100194552,9.767662921206226,-0.4548890018968872,0.008857546,-0.04062254,0.004886922,353.8991,-133.62814,-27.578344
4770054483000.0,-1.5634928707684823,9.753451137645914,-0.4880491624270428,0.004886922,-0.03726278,0.0027488936,353.22226,-133.7746,-27.494665
4770059455000.0,-1.5737689313887555,9.742843935992312,-0.5202023862854397,0.007941248,-0.029626964,0.005192355,352.50623,-133.9417,-27.408932
4770064440000.0,-1.578357143594426,9.733667799038924,-0.5523198956799615,0.015577064,-0.029932396,0.015882496,351.79297,-134.10059,-27.316051
4770069492000.0,-1.577173103337064,9.739035864686134,-0.610031581269712,0.0143553335,-0.0290161,0.0125227375,351.05612,-134.27194,-27.222294
4770074487000.0,-1.5723062688676366,9.753636164818394,-0.6830341491301252,0.0143553335,-0.032986723,0.0076358155,350.32333,-134.43575,-27.120787
4770079479000.0,-1.559578909498001,9.783555006397156,-0.758261856597068,0.010995574,-0.0290161,0.008246681,349.55106,-134.61668,-27.015135
4770084473000.0,-1.5425814278276322,9.821799151577077,-0.8347503688138606,0.008857546,-0.027183503,0.006414085,348.781,-134.79047,-26.905245
4770089457000.0,-1.5219584947716016,9.853221576774905,-0.9037933330764998,0.013133603,-0.017715093,0.004886922,347.99094,-134.96991,-26.782701
4770094461000.0,-1.4955840824435884,9.874321547275729,-0.9618170952779308,0.010995574,-0.022296581,0.004581489,347.20645,-135.13841,-26.65564
4770099443000.0,-1.4642936058812734,9.89080665795027,-0.9763554029406368,0.0070249503,-0.02321288,0.0030543262,346.34592,-135.35194,-26.51134
4770104497000.0,-1.428766522387375,9.904129111386364,-0.9585918611936874,0.007330383,-0.021991149,0.0021380284,345.49142,-135.5542,-26.359888
4770109474000.0,-1.40398576308183,9.923409310076746,-0.9233729130349844,0.0033597588,-0.02565634,0.004886922,344.61975,-135.75871,-26.194529
4770114476000.0,-1.394436694308781,9.952056765673277,-0.8613035970796372,0.008857546,-0.022907447,-0.0018325958,343.75024,-135.95514,-26.023005
4770119475000.0,-1.3722701032051905,9.98945992800426,-0.7817788231819502,-0.005192355,-0.026572637,0.004581489,342.91696,-136.11005,-25.837137
4770124663000.0,-1.3289700213227462,10.0423820995933,-0.6711229980865692,-0.0009162979,-0.028405234,0.0012217305,342.08444,-136.26239,-25.64809
4770129455000.0,-1.2717974776508356,10.086476054999528,-0.5595555323727693,-0.002443461,-0.022602014,0.005497787,341.26694,-136.38281,-25.451153
4770134472000.0,-1.1765294273250877,10.12276865687848,-0.4234583487508261,-0.0009162979,-0.016187929,-0.009468411,340.45016,-136.49838,-25.253891
4770139507000.0,-1.0717152263521288,10.163261957710011,-0.2735827706233218,-0.00030543262,-0.007941248,-0.0018325958,339.69617,-136.54959,-25.04102
4770149496000.0,-0.8028515482597615,10.289931995514324,0.1442017713397899,-0.01160644,-0.0070249503,0.0036651916,338.94232,-136.59277,-24.827662
4770154533000.0,-0.7143317241472118,10.476807827913142,0.5277875950355796,-0.012217305,-0.013744468,0.0125227375,338.2812,-136.55087,-24.602129
4770159599000.0,-0.636551156095817,10.660188168037182,0.8567698340364677,-0.027794369,-0.04642576,0.029932396,337.7559,-136.3829,-24.368277
4770164507000.0,-0.6096635282659993,10.818152770968895,0.9307108807579548,-0.06291912,-0.06352998,0.04428773,337.2281,-136.20715,-24.129827
4770169551000.0,-0.5820308479942795,10.98049455116196,1.0067008236396138,-0.1160644,-0.062308256,0.048258353,336.825,-135.89584,-23.89216
4770174528000.0,-0.5964745438388164,11.13626378976056,1.0744107686392836,-0.15790866,-0.03848451,0.06078109,336.42212,-135.57623,-23.64751
4770179554000.0,-0.6808033782752579,11.286182315553823,1.1306300079034457,-0.23426682,-0.025350908,0.06658431,336.0176,-135.23743,-23.40432
4770184519000.0,-0.8154869711211313,11.372770764500922,1.1886694458393112,-0.32589662,-0.034208454,0.0852157,335.6364,-134.83241,-23.146824
4770189571000.0,-1.0633965530846483,11.328146662840746,1.2531259350789097,-0.41691554,-0.07666359,0.09010262,335.2547,-134.41328,-22.894257
4770194514000.0,-1.3396223360073367,11.256692766869389,1.2861091057631049,-0.5009095,-0.1432479,0.09285152,334.8763,-133.96565,-22.650845
4770199528000.0,-1.6780065426489044,11.136172353895164,1.2675674702577469,-0.56505036,-0.23273966,0.08368854,334.5081,-133.50595,-22.419954
4770204564000.0,-2.0040082107109374,10.991400657070312,1.18750834059375,-0.6246097,-0.3203988,0.048563786,334.0993,-133.08463,-22.24231
4770209554000.0,-2.2952179443828125,10.793527469960935,0.96723430278125,-0.6637051,-0.39736784,0.02687807,333.70663,-132.65543,-22.075375
4770214550000.0,-2.586777830039062,10.595416359179689,0.7466954064062501,-0.7012733,-0.4382958,-0.0015271631,333.1854,-132.34433,-21.970835
4770219581000.0,-2.708962169988601,10.44501806619443,0.5293084517602996,-0.7330383,-0.45845437,-0.025045475,332.67294,-132.02782,-21.875273
4770224564000.0,-2.771129456432177,10.312911968856865,0.3156081109737827,-0.77213365,-0.46853364,-0.057421334,332.15933,-131.70656,-21.788853
4770229538000.0,-2.792935862182292,10.17316180318406,0.07348311969649,-0.8051204,-0.4905248,-0.08368854,331.3443,-131.63678,-21.731234
4770234519000.0,-2.712995797355926,10.013281951773576,-0.2418364211339726,-0.8188649,-0.48533243,-0.1133155,330.52573,-131.55626,-21.670822
4770240152000.0,-2.5788816331153974,9.825450203334425,-0.5292069961621445,-0.8371908,-0.46517387,-0.14263703,329.6938,-131.51407,-21.614397
4770244566000.0,-2.3577791929061784,9.659623385202137,-0.5706637247444699,-0.8417723,-0.4605924,-0.17928895,328.86465,-131.4656,-21.560751
4770249526000.0,-2.0983199848464045,9.504582446027117,-0.544921467257594,-0.84971356,-0.4804455,-0.20708331,328.12018,-131.39482,-21.501158
4770254596000.0,-1.8066768269607,9.421255904067271,-0.3449376186390939,-0.86590147,-0.54305923,-0.23609942,327.38144,-131.3184,-21.451336
4770259883000.0,-1.5048580793583266,9.335981405034122,-0.1350624268421519,-0.88789266,-0.63255095,-0.25350907,326.5694,-131.27869,-21.36868
4770264528000.0,-1.2959007185943454,9.30049777124878,0.0817801373872197,-0.93309665,-0.68019843,-0.26297748,325.7647,-131.22238,-21.289312
4770269536000.0,-1.0706136437383675,9.262241143047062,0.3155686329008242,-0.9407325,-0.77274454,-0.26297748,325.16364,-131.03381,-21.225285
4770274522000.0,-1.0217779677187948,9.202555298421808,0.4154987581922525,-0.9492846,-0.86498517,-0.2519819,324.57455,-130.831,-21.164972
4770279492000.0,-1.044540662792922,9.134267355810616,0.461024096049737,-0.95081174,-0.93401295,-0.25534168,323.99994,-130.62769,-21.1157
4770284501000.0,-1.1633991602997624,8.949321926704442,0.37961685712484,-0.9459248,-0.9300423,-0.25900686,323.60406,-130.2926,-21.06871
4770289534000.0,-1.3440062632334129,8.689424191098519,0.21662996429172,-0.93615097,-0.8594874,-0.26939157,323.20422,-129.96217,-21.020998
4770294514000.0,-1.455380759030237,8.386559487514756,-0.1261394191664396,-0.92179567,-0.7476991,-0.29810223,322.7841,-129.64426,-20.978148
4770299516000.0,-1.4771291716153636,8.021185029692182,-0.7133482349278124,-0.89461213,-0.6062838,-0.30818152,322.33762,-129.33192,-20.913805
4770304512000.0,-1.4878227325294286,7.73806,-1.1601583993205091,-0.86559606,-0.45540005,-0.29932398,321.67624,-129.17328,-20.831808
4770309537000.0,-1.460189416422624,7.73806,-1.123313929754043,-0.818254,-0.33964106,-0.30024028,320.98663,-129.0236,-20.73407
4770314528000.0,-1.442408733078425,7.7642871136511555,-1.085868272510576,-0.7467828,-0.2846632,-0.29016098,320.16037,-129.03429,-20.596458
4770319553000.0,-1.4854740296127562,7.9561229886104785,-1.042803016856492,-0.66798115,-0.27091873,-0.29077184,319.3223,-129.04987,-20.447649
4770324561000.0,-1.5283936326065732,8.14730986657989,-0.9998834546046208,-0.5897904,-0.31306845,-0.30390546,318.46292,-129.08063,-20.289246
4770329516000.0,-1.518868023797693,8.425803563797693,-0.9720373873868676,-0.5012149,-0.33933565,-0.31703907,317.60727,-129.1215,-20.124678
4770334488000.0,-1.485067864862467,8.746904764862467,-0.9509123211401952,-0.41538838,-0.3323107,-0.30390546,316.76743,-129.16731,-19.956861
4770339531000.0,-1.3937288952401845,9.0871463634569,-0.8647694637574029,-0.33108896,-0.29810223,-0.29810223,315.9187,-129.20778,-19.789371
4770344517000.0,-1.226148440008774,9.443254926518977,-0.6919521117810923,-0.24465153,-0.28313604,-0.29535335,315.08694,-129.25604,-19.620152
4770349508000.0,-1.0771173107994627,9.689680319617064,-0.5240004269692643,-0.1423316,-0.28008172,-0.28069258,314.22214,-129.28963,-19.413912
4770354537000.0,-0.9396047368491772,9.86359300503863,-0.358176428562311,-0.06780604,-0.2950479,-0.27885997,313.3714,-129.32562,-19.210428
4770359480000.0,-0.8069022434236293,10.00475599343179,-0.2117758891248368,-0.008552114,-0.29138273,-0.2687807,312.6956,-129.22978,-19.010231
4770364643000.0,-0.67780289441906,10.037030851746083,-0.1230200831034595,0.032070424,-0.26358834,-0.26633725,312.02255,-129.14232,-18.810204
4770370988000.0,-0.5200035994997221,10.073725164396889,-0.0113574867670928,0.055588737,-0.22937989,-0.24801129,311.46814,-128.95035,-18.607445
4770374551000.0,-0.4409731962571799,10.06108021141375,0.080317765149898,0.1142318,-0.19975294,-0.24740042,310.90778,-128.7771,-18.405054
4770379518000.0,-0.330800865944043,10.043452515239949,0.2081176462253103,0.1160644,-0.13683382,-0.23060162,310.4001,-128.53369,-18.182829
4770384571000.0,-0.1871977561340674,9.90492486090988,0.31577746040085,0.13072516,-0.064751714,-0.22143865,309.88293,-128.30844,-17.957047
4770389539000.0,-0.0263540261450787,9.6935307745581,0.4076881764135999,0.14721853,-0.004276057,-0.19364429,309.36053,-128.07843,-17.716047
4770394582000.0,0.0295156220302231,9.573510693893368,0.4154140405471171,0.16768251,0.023823744,-0.18020524,308.88226,-127.8064,-17.47643
4770399565000.0,-0.0037679368350123,9.532830739228146,0.3525450888584935,0.19975294,0.056199603,-0.15149458,308.39578,-127.53578,-17.218048
4770404562000.0,-0.0371450076055486,9.492036492095474,0.289499503550837,0.20616703,0.10354166,-0.13530666,307.94977,-127.241425,-16.954514
4770409580000.0,-0.3144384857172619,9.564579678571429,0.1295149088630952,0.22204952,0.14996742,-0.112399206,307.50186,-126.95317,-16.679638
4770414590000.0,-0.5945007302430505,9.63706535016737,-0.0266132368188036,0.21991149,0.23151793,-0.110872045,307.00793,-126.69121,-16.397799
4770419573000.0,-0.8167506889899578,9.668319152597876,-0.1099569599266482,0.21105394,0.33536503,-0.11911872,306.49982,-126.42958,-16.104969
4770424568000.0,-1.0395358673846602,9.699648220055304,-0.193501390374909,0.1957823,0.38331795,-0.121256754,305.88852,-126.23766,-15.8178425
4770429508000.0,-1.2511036825097337,9.763879115803135,-0.2924171781002296,0.21868975,0.42577308,-0.14110987,305.2528,-126.05365,-15.5256
4770434710000.0,-1.455013046391135,9.903134012478786,-0.4316723707866626,0.24220806,0.4896085,-0.16126843,304.60376,-125.8633,-15.227415
4770439495000.0,-1.6158334345482896,10.01832591959848,-0.5245767792086541,0.24862215,0.5326745,-0.18784106,303.81473,-125.76364,-14.944409
4770444513000.0,-1.7282351674398206,10.111993948835396,-0.5479938158600526,0.25625798,0.5516113,-0.20677789,303.02585,-125.66349,-14.663098
4770449533000.0,-1.8100165,10.167205601123596,-0.5600548858988764,0.24617869,0.5522222,-0.22113322,302.1,-125.62987,-14.375303
4770454622000.0,-1.8100165,10.11910581961737,-0.5415548873155177,0.22937989,0.5516113,-0.23090707,301.18948,-125.58395,-14.094375
4770459571000.0,-1.8100165,10.072329278317644,-0.5235638295460067,0.19425514,0.5534439,-0.24862215,300.24765,-125.54011,-13.827144
4770464557000.0,-1.8079862990785835,9.98662021107016,-0.537449570413321,0.17654006,0.50976706,-0.24281894,299.34314,-125.47984,-13.570053
4770469575000.0,-1.8048234464788733,9.879083288732394,-0.5690781294366197,0.17195857,0.45631635,-0.23915374,298.45972,-125.40238,-13.325166
4770474529000.0,-1.8017009331709888,9.772917901474266,-0.6003032951204422,0.16065755,0.43768495,-0.24251351,297.60992,-125.30474,-13.094687
4770479556000.0,-1.763467293174388,9.702306634558648,-0.6498880130452117,0.12705997,0.43951756,-0.24556783,296.78748,-125.188446,-12.873966
4770484561000.0,-1.7023149811578024,9.656442300773463,-0.7110402691890598,0.09773844,0.45845437,-0.24465153,295.98306,-125.059975,-12.6588
4770489561000.0,-1.6391346934197206,9.622239883782145,-0.7632941464871431,0.07544186,0.47555858,-0.2415972,295.1792,-124.94385,-12.452403
4770494535000.0,-1.5571549858068434,9.694574875480866,-0.7343601498076534,0.04917465,0.46883908,-0.23182335,294.39517,-124.808304,-12.250571
4770499564000.0,-1.474952862339515,9.793423903887303,-0.6629983356232169,0.007941248,0.44501534,-0.21074851,293.6607,-124.651764,-12.057947
4770504596000.0,-1.3976143961483594,10.076998818295293,-0.289195484332204,-0.032986723,0.3924809,-0.1777618,292.9521,-124.47911,-11.87092
4770509486000.0,-1.3224583747503569,10.352571419935806,0.0740588763222183,-0.087964594,0.31948254,-0.13347405,292.29968,-124.255325,-11.687387
4770514561000.0,-1.4000773992828863,10.384546242474045,0.2880288821894375,-0.13713925,0.25167647,-0.087659165,291.67374,-124.01518,-11.507884
4770519638000.0,-1.501773080802271,10.377282116232166,0.4768923492380668,-0.18448131,0.20005837,-0.0421497,291.07712,-123.75383,-11.331537
4770524483000.0,-1.613532621579533,10.350944961168976,0.6477374736373749,-0.22815818,0.14721853,0.025961773,290.57648,-123.35152,-11.159802
4770529599000.0,-1.7968487466073415,10.236991480331682,0.7864631914126807,-0.26542094,0.13897185,0.07452556,290.0846,-122.938934,-10.987089
4770534475000.0,-1.975543083653941,10.124063012232416,0.9248331201913782,-0.3231477,0.15882497,0.12217305,289.59796,-122.482956,-10.826712
4770539597000.0,-2.178778910032554,9.988572798165135,1.0941962616809708,-0.37659842,0.20311269,0.15271631,289.1142,-122.01909,-10.66049
4770544639000.0,-2.376968688527412,9.847409884327394,1.2643099593854894,-0.43249258,0.24465153,0.18051068,288.60248,-121.55105,-10.507607
4770549564000.0,-2.563699476460969,9.680975911954556,1.4429220210947586,-0.5128214,0.2452624,0.20280726,288.09634,-121.06296,-10.352576
4770554483000.0,-2.750202775109734,9.514744701781565,1.6213164843532146,-0.59620446,0.23701571,0.19547687,287.54175,-120.5764,-10.2198105
4770559516000.0,-2.9452114421426594,9.4104636177909,1.7006453823475132,-0.66156703,0.23396139,0.17989981,286.99146,-120.07425,-10.087492
4770566302000.0,-3.2077401286465705,9.288723157191988,1.7747956501921909,-0.6933321,0.22296582,0.118202426,286.44138,-119.56732,-9.975626
4770569568000.0,-3.318474938943961,9.27923173700182,1.6956993476835929,-0.75808376,0.22999077,0.08827003,285.85532,-119.04649,-9.893931
4770574550000.0,-3.487391296844022,9.264753397936476,1.5750447919279789,-0.7669413,0.26267207,0.025961773,285.20807,-118.57106,-9.849852
4770579548000.0,-3.6292858118636793,9.293581123014851,1.4673002445188428,-0.7498371,0.31581733,-0.027183503,284.55817,-118.08827,-9.810527
4770584506000.0,-3.759719219366469,9.338417846252897,1.3653991927890807,-0.6921103,0.35796702,-0.064751714,283.90396,-117.619965,-9.783089
4770589570000.0,-3.95770403668682,9.381565365175332,1.2190268231656591,-0.61453044,0.410196,-0.092240654,283.3144,-117.17059,-9.798411
4770594608000.0,-4.253298015711406,9.420459090689238,1.0089994342144295,-0.53878313,0.47647488,-0.1337795,282.70764,-116.74469,-9.821228
4770599586000.0,-4.545371621821846,9.45888961185006,0.8014733639089077,-0.45906523,0.5491679,-0.15974127,282.14908,-116.34869,-9.872876
4770604574000.0,-4.697349868700918,9.44938069495695,0.8561569199290378,-0.38240165,0.66431594,-0.1908954,281.55902,-115.98086,-9.923912
4770609852000.0,-4.84560793487558,9.43503336408364,0.9374596334345728,-0.35094208,0.8142834,-0.23151793,280.9398,-115.629395,-9.972063
4770614513000.0,-4.855764382849261,9.451662234301477,1.0930767612850885,-0.30115658,0.93279123,-0.28160888,280.37372,-115.34718,-10.084641
4770619596000.0,-4.843916489656012,9.475358020687976,1.2786932116785656,-0.24190263,0.99204516,-0.312763,279.78357,-115.082054,-10.19196
4770626412000.0,-4.792195318322671,9.45330719002399,1.544057094682127,-0.204029,0.9633345,-0.36254853,279.18692,-114.83095,-10.333615
4770629503000.0,-4.7537282188124745,9.42075807017193,1.6712944452219112,-0.15668693,0.9275989,-0.37873647,278.58014,-114.60089,-10.467576
4770634534000.0,-4.644063302905801,9.35987370005322,1.8032439161468865,-0.15302174,0.8784242,-0.4092797,277.95914,-114.347595,-10.615897
4770639605000.0,-4.437298095220862,9.28233624789782,1.7825673521979777,-0.16187929,0.86162543,-0.4279111,277.34305,-114.107925,-10.763999
4770644517000.0,-4.1764181106996645,9.217570983903984,1.711591304037961,-0.16920967,0.8698721,-0.4147775,276.6894,-113.85273,-10.897182
4770649529000.0,-3.8370134727391134,9.16398110187942,1.577615806233718,-0.17104226,0.8897252,-0.40530908,276.04053,-113.60349,-11.035188
4770654489000.0,-3.5101426458450047,9.11645247525677,1.4522080990662931,-0.17012598,0.89461213,-0.3662137,275.3703,-113.35121,-11.123512
4770659559000.0,-3.1978308036414567,9.081191280112044,1.3413878086834734,-0.16615535,0.88025683,-0.35185838,274.70535,-113.10357,-11.215679
4770664533000.0,-2.947587412457372,9.059659,1.264695625777332,-0.15027285,0.8445212,-0.301462,274.00284,-112.86051,-11.221167
4770669554000.0,-2.78842896445336,9.059659,1.240580724674022,-0.12980886,0.7892379,-0.23701571,273.32245,-112.615364,-11.224999
4770674515000.0,-2.7062560939083458,9.05628706818182,1.2190875771982117,-0.10323623,0.7415904,-0.16982053,272.601,-112.37503,-11.157302
4770679512000.0,-2.7463732628818924,9.047371965909091,1.2012577450074515,-0.10445796,0.67256266,-0.087964594,271.9222,-112.120445,-11.081821
4770684474000.0,-2.8319894096150047,9.044713963869691,1.152800840266535,-0.093767814,0.6230826,-0.009468411,271.30762,-111.85255,-10.987795
4770689524000.0,-3.080248905172754,9.06381123928924,0.9952514587265548,-0.09193522,0.5564982,0.029932396,270.73032,-111.577324,-10.896711
4770694490000.0,-3.3356657673963954,9.083683798900315,0.8403162666938193,-0.04734206,0.48808134,0.054367006,270.16656,-111.31504,-10.79748
4770699520000.0,-3.6397716492821504,9.108208442012016,0.6833584483453823,0.011301007,0.45020768,0.07086037,269.62454,-111.05396,-10.699894
4770705492000.0,-3.9531364249011856,9.13145767193676,0.6158128408026755,0.064446285,0.4465425,0.07696902,269.14798,-110.835594,-10.6518545
4770709523000.0,-4.108656149110672,9.14026054743083,0.7097115479933109,0.12858713,0.45173484,0.07238753,268.68494,-110.63511,-10.608646
4770714519000.0,-4.301406469664031,9.15117078458498,0.8260891071906353,0.17867808,0.4529566,0.06169739,268.28766,-110.478455,-10.621165
4770719529000.0,-4.338786719418535,9.152518169180391,0.993657834203215,0.22815818,0.44409904,0.04153884,267.8931,-110.34068,-10.639371
4770724546000.0,-4.276809345822584,9.147750575511012,1.1938927359992062,0.2733622,0.42302418,0.015577064,267.50287,-110.21755,-10.664258
4770729525000.0,-4.155335446756551,9.121658286949884,1.411608165428644,0.28955013,0.4111123,-0.0106901415,267.12305,-110.09456,-10.734031
4770734521000.0,-3.993050217349275,9.08108702196218,1.6428645453150177,0.2855795,0.4166101,-0.03390302,266.7446,-109.98263,-10.810152
4770739493000.0,-3.818749574805379,9.034439238904056,1.854230929097159,0.26542094,0.41263947,-0.0421497,266.33105,-109.84475,-10.875263
4770744516000.0,-3.599894656475584,8.966351206854716,2.004997663026994,0.25167647,0.40225476,-0.055588737,265.919,-109.71364,-10.948169
4770749515000.0,-3.3980840634903946,8.900716936920578,2.1517592988817738,0.21563543,0.4120286,-0.05467244,265.42386,-109.52795,-10.971855
4770754576000.0,-3.240584418140113,8.840496696263022,2.290729628251935,0.18936823,0.4334089,-0.05467244,264.9341,-109.34576,-11.001413
4770759567000.0,-3.1041465356591518,8.781913902713029,2.414653030233091,0.172264,0.45845437,-0.05131268,264.4335,-109.131676,-11.010699
4770764505000.0,-3.057163418593809,8.727702700878869,2.476092316836072,0.16554448,0.4792238,-0.043676864,263.9356,-108.916855,-11.020689
4770769559000.0,-3.009076607405426,8.672218007871608,2.538974891662209,0.15332718,0.5036584,-0.04184427,263.46625,-108.671295,-11.02739
4770775245000.0,-3.0722614595578124,8.616245427271766,2.566584,0.14966199,0.47067168,-0.00061086525,263.01593,-108.42343,-11.026899
4770779519000.0,-3.1761808781762406,8.57727575267111,2.566584,0.13988814,0.44012842,0.0061086523,262.56085,-108.18254,-11.036515
4770784555000.0,-3.294047422623434,8.526478018422992,2.481546643220339,0.118507855,0.42302418,0.007941248,262.12985,-107.92649,-11.042171
4770789541000.0,-3.408408056558585,8.47369604605748,2.3539906080508475,0.116980694,0.41050145,0.00061086525,261.71024,-107.67962,-11.053333
4770794511000.0,-3.528440019187539,8.411816646428887,2.231329767351093,0.14294247,0.37751472,0.01038471,261.29053,-107.44932,-11.075976
4770799568000.0,-3.657026384299496,8.33895046366935,2.1113158653686166,0.19303341,0.34116822,0.020158553,260.87915,-107.23175,-11.104329
4770804515000.0,-3.794527676719626,8.266758790186916,2.0166642533831776,0.226631,0.29657507,0.035124753,260.44742,-107.05435,-11.138679
4770809536000.0,-3.974285154672897,8.190362163551402,1.9986885102803735,0.24923302,0.25167647,0.044593163,260.0318,-106.88919,-11.176592
4770814545000.0,-4.149893983638054,8.114775160551595,1.9805827615122404,0.25411993,0.21777347,0.061086524,259.58533,-106.76271,-11.216447
4770819563000.0,-4.288885845284578,8.045279255645077,1.960726803491375,0.2556471,0.21960606,0.083383106,259.14972,-106.63994,-11.255031
4770826179000.0,-4.447666398213059,8.009988345635739,1.9599675674226804,0.24678956,0.22418754,0.10170906,258.75024,-106.5392,-11.32876
4770829516000.0,-4.506237386536847,8.041714258358152,1.9819316784879724,0.21197024,0.22602014,0.124311075,258.35785,-106.43087,-11.396182
4770834515000.0,-4.59397978109202,8.089241329889271,2.014835062130584,0.1853976,0.22113322,0.14782938,257.99396,-106.34009,-11.487495
4770839544000.0,-4.607203331422632,8.159868438075437,2.060796837006237,0.16829337,0.22021692,0.16218472,257.63278,-106.24485,-11.575182
4770844548000.0,-4.555015886694386,8.250010288981288,2.117728693970894,0.15882497,0.22602014,0.17989981,257.27606,-106.14408,-11.655919
4770849546000.0,-4.476988352461404,8.339149758811535,2.200447894261579,0.13988814,0.21227567,0.19761491,256.91922,-106.042694,-11.747762
4770854619000.0,-4.3732085841829305,8.428778177104574,2.308945074745121,0.11636983,0.19639318,0.20586158,256.5651,-105.941574,-11.837658
4770859549000.0,-4.261662867459092,8.492379018215498,2.357018837936092,0.111177474,0.17440203,0.21074851,256.20035,-105.82725,-11.911881
4770864534000.0,-4.13637930571164,8.529227079345477,2.3385946919419576,0.09468412,0.15668693,0.20738874,255.84283,-105.712166,-11.987948
4770869562000.0,-4.01001506329114,8.566392987341771,2.3200116215189874,0.076052725,0.16432275,0.21013765,255.46646,-105.578224,-12.047139
4770874520000.0,-3.948848437306149,8.593581981346926,2.241631210074829,0.077579886,0.18570304,0.21868975,255.0959,-105.451515,-12.10771
4770879935000.0,-3.8911919303372513,8.622775145578858,2.1401850024429594,0.095294975,0.20005837,0.21074851,254.729,-105.33474,-12.173992
4770884522000.0,-3.8304468288392095,8.656522385034954,2.005195903664439,0.12522738,0.21197024,0.20952678,254.38611,-105.21147,-12.221669
4770890706000.0,-3.748552844173005,8.702018990397173,1.82320929218714,0.16920967,0.20677789,0.20891592,254.04376,-105.10552,-12.264204
4770894494000.0,-3.6119137970228135,8.78881758971197,1.697785682092839,0.2180789,0.19394971,0.20769419,253.70422,-105.01177,-12.308984
4770899531000.0,-3.3314828927067737,8.971522752312165,1.5150806969611557,0.25992316,0.1731803,0.21044308,253.37282,-104.92875,-12.355102
4770904487000.0,-3.0718852919164146,9.14871550206214,1.356931130107231,0.30207285,0.15882497,0.23457226,253.04129,-104.85549,-12.372759
4770909573000.0,-2.9111781333424984,9.313886743194942,1.3346107173128037,0.32895094,0.17287487,0.2556471,252.71216,-104.78994,-12.392181
4770914934000.0,-2.7413082515230984,9.49240867278596,1.3097486632842443,0.35185838,0.17989981,0.27855456,252.417,-104.6991,-12.351442
4770919587000.0,-2.583992311508977,9.739619361912448,1.2603064785253175,0.36743546,0.1853976,0.30879238,252.12354,-104.60762,-12.30518
4770924908000.0,-2.4063787824524088,10.029809116345849,1.2005382758587684,0.38423425,0.19242255,0.32834008,251.85347,-104.50159,-12.237092
4770929531000.0,-2.2886674579176858,10.401776984473042,1.0969522984685738,0.37904188,0.18173242,0.3555236,251.59183,-104.38876,-12.161841
4770934530000.0,-2.1675420118580133,10.809083278847083,0.9809182551794178,0.38515055,0.16035213,0.37140608,251.34895,-104.252846,-12.052396
4770939576000.0,-2.1021058508753265,11.267136015281944,0.8266760081922817,0.3933972,0.13347405,0.398895,251.11533,-104.11115,-11.9363575
4770944847000.0,-2.046110163621247,11.743276979214782,0.6666191990632794,0.398895,0.11148291,0.42913285,250.90866,-103.95478,-11.795324
4770949534000.0,-2.1083085803787527,12.14549302078522,0.5339293241367206,0.41172317,0.10873401,0.46395215,250.7081,-103.79766,-11.64966
4770954486000.0,-2.174023656073903,12.570450101616627,0.3937372480461893,0.4352415,0.058337633,0.4792238,250.53883,-103.63509,-11.48271
4770959597000.0,-2.428154707263801,13.108439488227631,0.2216482386955215,0.44501534,0.028710667,0.5186246,250.36914,-103.46378,-11.303449
4770964545000.0,-2.7035168809538126,13.64492097224727,0.0507337593928464,0.44532076,0.0033597588,0.5589417,250.21582,-103.296234,-11.126229
4770969538000.0,-3.02513834973913,14.121076453913044,-0.0921871695304347,0.42455134,-0.038789943,0.59620446,250.07101,-103.128204,-10.936381
4770974505000.0,-3.351450237768116,14.585266839033816,-0.2300654218714975,0.39461896,-0.016187929,0.6239988,249.91858,-102.95788,-10.7422495
4770979530000.0,-3.685362039945775,15.05495592724808,-0.3866043887311342,0.39461896,0.015577064,0.6420194,249.75984,-102.81096,-10.559135
4770984542000.0,-4.019380925440578,15.523449966109354,-0.5471070053095346,0.40194935,0.013744468,0.6759224,249.6092,-102.65703,-10.370457
4770989564000.0,-4.349531135386645,15.862600405825043,-0.6705863998985183,0.4202753,-0.018936822,0.6750061,249.43509,-102.54652,-10.217072
4770994553000.0,-4.674391434828496,16.109881957783642,-0.7675595785751979,0.44959682,-0.059253927,0.6545421,249.26895,-102.441574,-10.065951
4770999513000.0,-4.664711066487123,16.280463190876958,-0.720541463970712,0.47983465,-0.09468412,0.6096435,249.11095,-102.38466,-9.958585
4771004552000.0,-4.445395694941929,16.406366096111764,-0.5824539454561521,0.4783075,-0.10445796,0.58459806,248.96124,-102.33051,-9.85536
4771009481000.0,-4.207842588381743,16.499696502489627,-0.3727762215311203,0.44165558,-0.0842994,0.5907067,248.82407,-102.30674,-9.7893
4771014567000.0,-3.88447217593361,16.49464374087137,0.0971211281141078,0.3894266,-0.04795292,0.5815437,248.68614,-102.28951,-9.735025
4771019555000.0,-3.655660120906088,16.51577401415762,0.533349940273714,0.32406402,-0.027183503,0.5821546,248.50824,-102.22284,-9.638701
4771026515000.0,-3.6017360510618217,16.623623279983818,1.068096420365401,0.226631,-0.064446285,0.57818395,248.34082,-102.1471,-9.549974
4771029536000.0,-3.578330215573384,16.67043543976269,1.3002040520258882,0.086437434,-0.1151481,0.5665775,248.18967,-101.9932,-9.438906
4771034519000.0,-3.5445127499482934,16.575207469389866,1.5938549856876938,0.04428773,-0.10170906,0.5305365,248.03275,-101.85146,-9.338317
4771039551000.0,-3.5195952434332987,16.146625212512927,1.7184426223371252,-0.0290161,-0.08857546,0.51159966,247.89307,-101.68453,-9.241296
4771044512000.0,-3.483718918812171,15.68785443885313,1.8265167416910475,-0.081855945,-0.071776666,0.49113566,247.75197,-101.46985,-9.150601
4771049523000.0,-3.431068269975132,15.171877574458748,1.9142679208235809,-0.11911872,-0.064446285,0.47555858,247.61136,-101.25753,-9.066113
4771054601000.0,-3.377713651177589,14.649001797688706,2.003192384530427,-0.13622294,-0.06627888,0.473726,247.46465,-101.048805,-8.99156
4771059523000.0,-3.31735484817886,14.028309267660331,2.0642094905006823,-0.16371189,-0.06841691,0.46517387,247.31696,-100.846344,-8.925213
4771064629000.0,-3.2506297130681223,13.330262739267344,2.115536501018159,-0.1957823,-0.092240654,0.4382958,247.17711,-100.65415,-8.867404
4771069566000.0,-3.1917577394073304,12.822410527943852,2.164796537977645,-0.21471913,-0.12370021,0.40653083,247.04573,-100.47148,-8.822316
4771074574000.0,-3.133578370132571,12.352818859977472,2.214664605978685,-0.24953845,-0.16707164,0.36835176,246.92477,-100.2986,-8.789596
4771079528000.0,-3.083406650840152,11.927825802146565,2.293565603237442,-0.28130344,-0.22724187,0.33017266,246.8103,-100.14408,-8.772321
4771084506000.0,-3.0414664643705462,11.54617081472684,2.406803914014252,-0.33078352,-0.29901853,0.2910773,246.7112,-100.00118,-8.769105
4771089503000.0,-3.011708096165069,11.184013420591914,2.5445363311796583,-0.39064834,-0.3924809,0.24220806,246.63524,-99.874306,-8.784275
4771094529000.0,-3.036787815214673,10.91315255960817,2.790317734993748,-0.4596761,-0.4999932,0.18875736,246.5827,-99.76209,-8.814759
4771099524000.0,-3.0722693497810347,10.70378375708285,3.052847797390294,-0.537256,-0.6178902,0.12675454,246.56082,-99.661285,-8.863986
4771104544000.0,-3.1367196173652694,10.656520203592814,3.3665055988023957,-0.6246097,-0.74281216,0.069027774,246.56964,-99.579605,-8.929433
4771109582000.0,-3.208775005984032,10.629152016626884,3.695076381348259,-0.70524395,-0.84879726,0.0030543262,246.60878,-99.52491,-9.026568
4771114518000.0,-3.442231798213845,11.045483241254423,4.3215189343155815,-0.7974846,-0.9999864,-0.057421334,246.6942,-99.49746,-9.139685
4771119556000.0,-3.680512859651,11.470417744834966,4.960906612972261,-0.89369583,-1.1585059,-0.1142318,246.8114,-99.50227,-9.279453
4771124567000.0,-3.893656028571429,11.742533,5.3548032857142855,-1.0112875,-1.3197744,-0.17592919,246.97034,-99.55074,-9.435829
4771129533000.0,-4.089681516796253,11.916282756721312,5.590924839437939,-1.1682798,-1.4908166,-0.23823744,247.17496,-99.644615,-9.605302
4771134514000.0,-4.262773343961257,12.033491219410951,5.712958310338012,-1.3393221,-1.6594155,-0.30543262,247.42677,-99.8169,-9.816331
4771139531000.0,-4.409981336835343,12.085726182496542,5.7034608189365485,-1.5479325,-1.8374827,-0.3747658,247.72993,-79.93836,-10.0366125
4771144510000.0,-4.513205639622641,12.111046226415096,5.580748566037736,-1.7763962,-1.9172006,-0.44593164,248.04466,-79.587326,-10.288283
4771149528000.0,-4.562663366089193,12.102803537392797,5.312852522572898,-2.0030272,-2.008525,-0.4746423,248.41281,-79.161316,-10.53391
4771154554000.0,-4.600139277720844,12.086909667759786,4.987441407788481,-2.1120665,-2.01555,-0.5109888,248.76433,-78.63851,-10.806167
4771159560000.0,-4.546095716540274,12.013214042426728,4.230832577290428,-2.339003,-1.9275852,-0.5589417,249.11139,-78.0276,-11.076484
4771164532000.0,-4.481536281114143,11.934465918227158,3.4827783594052883,-2.5326474,-1.7208074,-0.59589905,249.38472,-77.38426,-11.343483
4771169568000.0,-4.359001638938553,11.825546246824128,2.743031045431448,-2.690556,-1.4321736,-0.6301075,249.6027,-76.676414,-11.617237
4771174808000.0,-4.225833553059222,11.715466107280273,1.9953476987476424,-2.8032606,-1.1221595,-0.6783658,249.65672,-75.99725,-11.886982
4771179580000.0,-4.0499959195020745,11.64651025726141,1.5264475946058091,-2.8472428,-0.8127562,-0.7199047,249.62115,-75.286476,-12.169353
4771184602000.0,-3.864946339509619,11.57394188366654,1.032982313172388,-2.8362474,-0.5421429,-0.75777835,249.40103,-74.65415,-12.444276
4771189549000.0,-3.5918623245787398,11.547859435510714,0.542332737930102,-2.7864618,-0.30573806,-0.77946407,249.10295,-74.01295,-12.736862
4771194562000.0,-3.172399419221968,11.592801757437073,0.0379784996338672,-2.6890287,-0.118202426,-0.7678576,248.7436,-73.381035,-13.039721
4771199534000.0,-2.7109968575067427,11.552582555888522,-0.3624320528378783,-2.5668557,0.032986723,-0.75625116,248.4529,-72.823425,-13.311549
4771204436000.0,-2.204542499280791,11.41659037189092,-0.6437955906263111,-2.4382687,0.100792766,-0.74067414,248.13205,-72.29169,-13.582995
4771209464000.0,-1.7010853674382875,11.199004553518384,-0.8438085849165216,-2.2727242,0.11453723,-0.7348709,247.81165,-71.88682,-13.78978
4771214530000.0,-1.2140856451602993,10.880963740653488,-0.9332575194284544,-2.1038198,0.021380283,-0.7483099,247.5058,-71.50905,-13.994346
4771219449000.0,-0.6420752101012659,10.454651141518989,-0.9986233590632912,-1.9422461,-0.12950343,-0.8008443,247.1791,-71.24971,-14.131924
4771225875000.0,0.2355918285316455,9.743169302025317,-1.0557496314177215,-1.7736472,-0.22907446,-0.8268061,246.8713,-71.02777,-14.263048
4771229438000.0,0.6879600699873897,9.393812782261454,-1.0578346257040772,-1.6798794,-0.27947086,-0.8491027,246.56976,-70.87655,-14.334173
4771234402000.0,1.0776262452711225,9.223958014712064,-0.8530101056956705,-1.5980235,-0.33841935,-0.8414669,246.30965,-70.75602,-14.397657
4771239387000.0,1.408742393990032,9.034774722661975,-0.6722968977250073,-1.5268577,-0.4083634,-0.8054258,246.27693,-70.66987,-14.369823
4771244403000.0,1.5073236806508354,8.771891814423922,-0.5877986156024626,-1.488984,-0.6218608,-0.7858781,246.30246,-70.59475,-14.330513
4771249409000.0,1.534307730564166,8.516734530068197,-0.5155405225294482,-1.4382823,-0.8949176,-0.7583892,246.443,-70.545494,-14.222089
4771254450000.0,1.1901156417389958,8.297249452572846,-0.5055639522473652,-1.387275,-1.2330315,-0.75808376,246.66104,-70.505394,-14.096221
4771259426000.0,0.8154409794100707,8.11050819163976,-0.4633640031425081,-1.3023647,-1.5482379,-0.75869465,246.96799,-70.476906,-13.934412
4771264411000.0,0.3238304547438694,8.023018157169037,-0.3133811316528493,-1.2049317,-1.8594738,-0.78801614,247.36763,-70.45891,-13.756565
4771269767000.0,-0.2028845873350582,7.928778317917206,-0.1517298237742561,-1.1172725,-2.201253,-0.84513205,247.80841,-70.42394,-13.603765
4771274423000.0,-0.4528479204269081,7.813410809508409,0.0597776146216041,-1.0482447,-2.4785857,-0.88514376,248.31325,-70.407555,-13.436773
4771279419000.0,-0.707198106043675,7.683955871867008,0.3066801500983671,-1.0616838,-2.5809057,-0.8750645,248.71097,-70.3645,-13.311614
4771284779000.0,-0.8132344493055282,7.476932383375959,0.8116150853728115,-1.1374311,-2.5350907,-0.84513205,249.13849,-70.32328,-13.184955
4771289531000.0,-0.9051292709837544,7.303114710424187,1.2555945993231048,-1.2370021,-2.4352143,-0.79473567,249.59145,-70.22208,-13.077854
4771294411000.0,-0.9726163853519856,7.248281524142599,1.664735164666065,-1.3371841,-2.4288,-0.7696902,250.04697,-70.1107,-12.967266
4771299408000.0,-1.0417215309458483,7.192133689747292,2.0836850427436824,-1.389413,-2.4581218,-0.7443393,250.49309,-69.91812,-12.863208
4771304466000.0,-1.1344022670449585,7.154447401353121,2.2920505335661283,-1.4624114,-2.4587326,-0.70829827,250.91382,-69.71086,-12.7530155
4771309457000.0,-1.2303734675250984,7.121065911532082,2.4547843215539067,-1.5460999,-2.4553728,-0.68936145,251.32864,-69.49592,-12.64012
4771314444000.0,-1.3568230877434375,7.094909311494495,2.572601180461473,-1.6249015,-2.4330764,-0.6560693,251.74945,-69.20156,-12.523212
4771319496000.0,-1.5104493386325148,7.074425718691787,2.6545352308425065,-1.704314,-2.4452937,-0.6236934,252.16267,-68.895676,-12.400474
4771324465000.0,-1.665106841752079,7.070744454457551,2.503945221736608,-1.7831156,-2.4694228,-0.59803706,252.58533,-68.53477,-12.28154
4771329443000.0,-1.821836057493715,7.075354230709727,2.236583590098627,-1.8387043,-2.4346035,-0.57879484,252.97678,-68.16998,-12.161364
4771334445000.0,-1.941387945814168,7.106079632423592,1.924314645732393,-1.8799378,-2.3335052,-0.5546656,253.36682,-67.76397,-12.0540085
4771339476000.0,-2.034962231646734,7.155329486609425,1.5795671577839108,-1.9126191,-2.2809708,-0.5314528,253.74265,-67.35551,-11.942183
4771344484000.0,-2.053231482993652,7.196066548780488,1.3353645699298364,-1.9104811,-2.1762075,-0.5345071,254.09485,-66.96368,-11.860341
4771349449000.0,-2.0294014736384898,7.231811521341463,1.148696038899098,-1.9065105,-2.0888536,-0.5161811,254.41885,-66.577965,-11.77146
4771354496000.0,-1.986047292857143,7.255799326190476,0.99074345,-1.9037615,-2.0271564,-0.50701815,254.76529,-66.22366,-11.692098
4771359478000.0,-1.8852738591589864,7.242057548675115,0.9311954923387096,-1.8762726,-1.9798143,-0.49663344,255.07779,-65.88664,-11.615705
4771364475000.0,-1.7538859523642016,7.208470631405432,0.915666953673102,-1.8445076,-1.9498819,-0.51007247,255.4208,-65.582695,-11.527654
4771369522000.0,-1.4612872421302356,7.070079323314791,1.133138938465314,-1.7956384,-1.9428569,-0.50976706,255.74393,-65.300545,-11.437008
4771374484000.0,-1.1736163881217276,6.934018758475131,1.3469483279123036,-1.7373008,-1.9608774,-0.51007247,256.08508,-65.05024,-11.321248
4771379484000.0,-1.0506781948253778,6.780869903458287,1.5310239461617283,-1.6728544,-1.9984456,-0.5174029,256.4203,-64.81975,-11.208093
4771384485000.0,-0.9934234279139272,6.621374386790197,1.7027882895995217,-1.6145169,-2.0463986,-0.52015173,256.75317,-64.60974,-11.092914
4771389508000.0,-0.975115224505214,6.436569864843583,1.8836289120770373,-1.5457945,-2.1062634,-0.5186246,257.11414,-64.401665,-10.92377
4771394515000.0,-1.021035615982124,6.212070220536284,2.0775149443072998,-1.4724907,-2.1627684,-0.49877146,257.47437,-64.217636,-10.750015
4771399478000.0,-1.087547177026109,6.02456887927788,2.263584222313889,-1.4037683,-2.2119431,-0.47678033,257.87427,-64.00478,-10.556828
4771404534000.0,-1.1768402199068233,5.8694810970008735,2.446869890255265,-1.3289373,-2.2412646,-0.4615087,258.2697,-63.8202,-10.361322
4771409522000.0,-1.2690066976119956,5.762803711440207,2.6180811990744166,-1.2660183,-2.2479842,-0.44012842,258.68164,-63.594116,-10.1721
4771414522000.0,-1.3665121122732322,5.714051027249167,2.777635623361718,-1.1924089,-2.2696698,-0.43401974,259.09174,-63.39696,-9.982684
4771419548000.0,-1.430328508645533,5.676569603458214,2.8983881913544667,-1.153619,-2.2879958,-0.43096542,259.5141,-63.144314,-9.81423
4771426205000.0,-1.4016213951729106,5.665086758069164,2.9270953048270894,-1.1145236,-2.3069327,-0.42455134,259.9271,-62.91932,-9.644687
4771429705000.0,-1.3760590404609252,5.653806877698839,2.9348050626494544,-1.0821478,-2.2910502,-0.43401974,260.35974,-62.644707,-9.500898
4771434531000.0,-1.251925640183677,5.593742202391267,2.8827490302287297,-1.0451905,-2.2907448,-0.44440445,260.78583,-62.390408,-9.354531
4771439533000.0,-1.1232652033443076,5.531487020897592,2.828794559824987,-0.9999864,-2.2867742,-0.46089783,261.2404,-62.13576,-9.198975
4771444546000.0,-0.9628286012972012,5.47111604579298,2.7607869321190583,-0.97402465,-2.2418754,-0.4700608,261.66962,-61.893776,-9.052775
4771449546000.0,-0.7926498807285651,5.411553540239893,2.6884610769435806,-0.91996306,-2.165212,-0.47983465,262.07773,-61.677853,-8.91889
4771454611000.0,-0.5758512275051335,5.36172964936345,2.588913752587269,-0.8533788,-2.0647244,-0.47647488,262.497,-61.482903,-8.765664
4771459545000.0,-0.3235820129979466,5.322919028254621,2.467630510965092,-0.79259765,-1.956296,-0.4636467,262.88144,-61.30825,-8.627411
4771464527000.0,-0.0943779526353456,5.310024527523786,2.3149377010524543,-0.72418076,-1.8399261,-0.44226643,263.27277,-61.169094,-8.467033
4771471607000.0,0.2024812850509387,5.32144218248716,2.063749053414162,-0.6704246,-1.627345,-0.3998113,263.59552,-61.051285,-8.329941
4771474614000.0,0.377881372182435,5.330920657444402,1.975991595326046,-0.6026186,-1.5497651,-0.37293324,263.97296,-60.979885,-8.144111
4771479531000.0,0.8304910831794196,5.361981993271767,1.896119304287599,-0.58032197,-1.3979651,-0.33444872,264.26035,-60.9191,-7.988593
4771484744000.0,1.282301083459264,5.396085231767411,1.8211726540078843,-0.5354234,-1.2272283,-0.28099802,264.60562,-60.913754,-7.7849064
4771489539000.0,1.4557863178958608,5.437570881816688,1.836258316294349,-0.4700608,-1.0485502,-0.23090707,264.89807,-60.9254,-7.5991173
4771494519000.0,1.635964934682983,5.480657125246386,1.851926011432326,-0.3930918,-0.8381071,-0.16646078,265.20822,-60.984806,-7.347773
4771499518000.0,1.7870670189071989,5.520260642671292,1.937721090633131,-0.33261612,-0.6432411,-0.11453723,265.46725,-61.060535,-7.1124053
4771504577000.0,1.921531026730269,5.55807853243712,2.067983144830876,-0.2507602,-0.46303585,-0.06780604,265.66467,-61.167206,-6.891992
4771509539000.0,2.006382767975078,5.573784768992731,2.252878711412253,-0.16035213,-0.2678644,-0.020158553,265.82584,-61.304554,-6.6513686
4771514517000.0,1.9915312694081,5.5440818752440295,2.5598098368743507,-0.08307768,-0.10567969,0.015577064,265.94214,-61.460865,-6.424698
4771519556000.0,1.925951589592267,5.512049749444,2.840786830605422,0.005192355,0.030848695,0.050396383,266.02078,-61.624855,-6.186602
4771524530000.0,1.7840054726215568,5.477428771756668,3.072747561864961,0.09773844,0.14019357,0.077579886,266.05923,-61.80921,-5.9619794
4771529701000.0,1.6364374447052836,5.441436597325387,3.313895318467912,0.1957823,0.25503623,0.11484267,266.049,-61.9496,-5.7534065
4771534509000.0,1.3788139239842356,5.418647403866003,3.5355644107722624,0.27091873,0.33505958,0.14446963,266.01578,-62.105705,-5.5520287
4771539538000.0,1.044388632879797,5.400570279478277,3.7660467321385,0.35277468,0.38331795,0.16707164,265.95624,-62.287563,-5.3561697
4771544670000.0,0.7265988703671233,5.410465348821917,3.9324362384657534,0.40439278,0.45081854,0.17898351,265.85565,-62.38775,-5.2100425
4771549548000.0,0.4450250161260274,5.444595578849315,4.0305603045479454,0.4972443,0.53878313,0.18997909,265.73438,-62.51874,-5.0695186
4771554579000.0,0.130362846336274,5.59511642760768,4.354017677218475,0.60048056,0.59864795,0.1863139,265.5965,-62.578075,-5.0000014
4771559567000.0,-0.2315619297093928,5.981830812994291,5.132404007472756,0.713796,0.70249504,0.18325958,265.42444,-62.66319,-4.94618
4771564494000.0,-0.5324947878076172,6.356834932421875,5.971372833007813,0.8436049,0.77457714,0.15332718,265.26572,-62.724422,-4.949361
4771569543000.0,-0.7497068750507813,6.729872802812499,6.94410508671875,0.9611965,0.816116,0.124005646,265.09097,-62.810665,-4.962549
4771574668000.0,-0.9208922121742432,7.235755023593053,7.778595568378096,1.0390818,0.8011498,0.08155051,264.93942,-62.749508,-5.04871
4771579578000.0,-1.0012185167580905,7.936378892625985,8.318566958716902,1.0677924,0.7480045,0.024129177,264.79456,-62.708458,-5.1414175
4771584525000.0,-1.0652980610169491,8.747033305084745,8.787450762711865,1.0436633,0.68783426,-0.03390302,264.64767,-62.49441,-5.263576
4771589576000.0,-1.075116881031158,9.920383219527048,9.018192725464326,0.9764681,0.70402217,-0.055588737,264.4978,-62.288807,-5.3861856
4771594626000.0,-1.007666541465058,11.170763616472549,9.463015055241264,0.89980453,0.8017606,-0.055588737,264.35297,-62.046066,-5.506162
4771599530000.0,-0.749790692872712,12.577358924292843,10.428096144093178,0.7892379,0.8888089,0.0070249503,264.20148,-61.796185,-5.6094365
4771604528000.0,-0.4869718732836938,14.010915887687188,11.411675932445924,0.6374379,0.84879726,0.12034045,264.07758,-61.612484,-5.6705227
4771609541000.0,-0.6400352422470433,15.469106069645203,11.255696694261935,0.43249258,0.61575216,0.22266038,263.97568,-61.401943,-5.6996813
4771615080000.0,-0.8098837404855117,16.849924016491986,10.765818187808264,0.22296582,0.39584067,0.27000242,263.87405,-61.16579,-5.707952
4771619558000.0,-0.5454882988918002,16.69789633061036,9.761115596717016,0.20097467,0.2779437,0.2660318,263.79156,-60.94892,-5.6233535
4771626478000.0,-0.13690936726418,16.462962970561037,8.208515790921702,0.44776422,0.17165314,0.3100141,263.81512,-60.94726,-5.485719
4771629524000.0,0.4109243586955283,15.988384529763602,7.966075470521218,0.90224797,0.007330383,0.35246924,263.88135,-61.004597,-5.3348956
4771634548000.0,1.5529037223564035,14.9651713050413,7.851877608563561,1.2956452,-0.1151481,0.37751472,263.95798,-61.11943,-5.1780334
4771639577000.0,2.2521946637986536,13.682597345332162,7.765203909394205,1.4300356,-0.2782491,0.38423425,264.113,-61.475845,-4.9628754
4771644525000.0,2.09040452441713,11.92601776519364,7.732845987708516,1.3900238,-0.26053402,0.37720928,264.2516,-61.878857,-4.7638392
4771649478000.0,1.6354601706914509,10.14024224663088,7.078337647031488,1.2238685,-0.015271631,0.33933565,264.29333,-62.252926,-4.4832115
4771654535000.0,0.3782458875570869,8.242779997708517,4.726881268135567,1.153619,0.42455134,0.27672195,264.28455,-62.627834,-4.2470665
4771659561000.0,-0.8712615253425202,6.356949413748898,2.389839591186605,1.2281445,0.95203346,0.23548855,264.14667,-62.857994,-4.0954165
4771664547000.0,-1.0554099868874487,5.763293916708821,0.8785562398988302,1.3698653,1.5131133,0.17012598,263.90125,-63.07764,-4.029165
4771669554000.0,-0.96066001526399,5.505574065444199,-0.4252035570660766,1.6157386,2.1615467,0.12217305,263.50513,-63.34074,-4.0476966
4771674482000.0,-0.7514676870113153,5.374948975314024,-1.321490984926814,1.922393,2.8139508,0.13439035,263.07608,-63.82857,-4.318014
4771679746000.0,-0.1548722770663345,5.631380257116163,-1.033659858424167,2.240043,3.368311,0.2302962,262.51196,-64.37997,-4.6355634
4771684501000.0,0.2954814694582808,5.962643052156216,-0.623744400348871,2.482251,3.6700783,0.35643986,261.90387,-65.189865,-4.964945
4771689524000.0,0.5891698978777012,6.5173878159608485,0.1174692717995928,2.6108382,3.7226129,0.4972443,261.22235,-66.04739,-5.281921
4771694547000.0,0.7830459003508214,7.103432832359712,0.6944374806651321,2.638327,3.6932912,0.6310238,260.37988,-66.96903,-5.514501
4771699555000.0,0.7031051508183189,7.77341260421462,0.8200586630446861,2.575408,3.676187,0.7626653,259.51733,-67.89665,-5.697105
4771704537000.0,0.6235794291388206,8.439914046583063,0.945027658774506,2.477364,3.7076466,0.8561276,258.61487,-68.754654,-5.79928
4771709515000.0,0.4300219896585366,9.338788158536586,1.0782083,2.3503041,3.722002,0.9483683,257.72192,-69.58188,-5.8456283
4771714495000.0,0.197375651464335,10.31765837942936,1.2142844509433963,2.2409592,3.7015378,1.0421361,256.83536,-70.37967,-5.8503814
4771719550000.0,-0.210627860088063,11.3050458588164,1.4519820065239346,2.1209242,3.6499197,1.1191051,255.99832,-71.13365,-5.8159046
4771724525000.0,-0.7399055414554636,12.27218043263987,1.759925362411634,2.0201313,3.523776,1.1566733,255.20126,-71.84941,-5.747524
4771729507000.0,-1.3814182830716082,13.007780804412688,2.049946458495603,1.9416351,3.3948836,1.1392636,254.50406,-72.51637,-5.681572
4771734510000.0,-2.103721222801508,13.583365819566582,2.328334103863065,1.8619173,3.3194418,1.0665708,253.84842,-73.13374,-5.6086984
4771739611000.0,-2.870900401472393,14.162366150306749,2.587897083404908,1.8289305,3.1627548,1.0177015,253.32457,-73.681274,-5.565043
4771744541000.0,-4.082621207607362,14.601675526584868,2.4672078100920247,1.7767016,3.0622675,0.8872818,252.8349,-74.17039,-5.557291
4771749572000.0,-5.293550922986167,14.943683366965011,2.339865713262816,1.7754798,2.9907963,0.72692966,252.28036,-74.647835,-5.6421347
4771754568000.0,-6.257083436289666,14.291595609438568,2.1744105104963385,1.8060231,2.9914072,0.56688297,251.75703,-75.08994,-5.751059
4771759532000.0,-7.124929428191599,13.651270372918525,2.0250617966285205,1.8466456,2.987742,0.38881573,251.14204,-75.55609,-6.01315
4771764585000.0,-7.360371388734324,13.054375442129787,1.9819527433015829,1.8820758,2.9956832,0.2171626,250.54291,-75.98553,-6.302259
4771769549000.0,-7.591666439621736,12.467993800246694,1.9396029826218049,1.9205604,3.040887,0.06658431,249.87619,-76.36814,-6.7303815
4771774518000.0,-7.6682694048460895,11.819576236896838,1.9528270864808648,1.9306396,3.0567696,-0.04520403,249.22879,-76.69686,-7.1752343
4771779547000.0,-7.127351189891847,10.918045355657238,2.1882267526622297,1.9205604,3.0460796,-0.1255328,248.58823,-76.97254,-7.6350794
4771784494000.0,-6.604083046316243,10.13323060663507,2.4018909048255064,1.8713857,2.973692,-0.16798794,247.93033,-77.16105,-8.145253
4771789554000.0,-6.092563555005027,9.604312723538705,2.5723973534826943,1.7938058,2.8038714,-0.1881465,247.31085,-77.28704,-8.649069
4771794530000.0,-5.589535691612811,9.084175295418644,2.740073260304466,1.709201,2.5891523,-0.15454891,246.69852,-77.35627,-9.084974
4771799519000.0,-4.985370679865772,8.510921059731544,2.882072498322148,1.5732834,2.3536637,-0.09590584,246.1466,-77.37066,-9.499082
4771804536000.0,-4.274946539072987,7.881112575020974,2.9979572540373325,1.4202617,2.0824397,-0.029321533,245.67056,-77.34976,-9.880128
4771809529000.0,-3.70752315553224,7.400385343552079,2.983697775753529,1.2990049,1.783421,0.049480084,245.25888,-77.32547,-10.1508255
4771814517000.0,-3.2382157760206027,7.022205545879436,2.878901009061427,1.1927143,1.5564847,0.13164146,244.90778,-77.28244,-10.388641
4771819578000.0,-2.7673687172748056,6.766884109108368,2.680478602871513,1.1221595,1.4511104,0.24251351,244.6101,-77.27854,-10.507752
4771824560000.0,-2.309232152537723,6.644714261316873,2.39250706611797,1.0571023,1.3487904,0.35216382,244.37857,-77.27332,-10.593768
4771829509000.0,-1.9234907624238733,6.577598094600081,2.1726889802070644,1.0118983,1.2675453,0.4465425,244.18814,-77.32271,-10.589517
4771834519000.0,-1.6945981418392204,6.636038941128705,2.1045081281973204,0.9746355,1.112691,0.48930305,244.04967,-77.373184,-10.56345
4771839549000.0,-1.6301832713054758,6.75437036024275,1.9557270946261465,0.960891,1.0070114,0.559858,243.95584,-77.51639,-10.428869
4771844540000.0,-1.8914704681552856,6.989085996562586,1.6501539173167794,0.9114109,0.9101892,0.6093381,243.90457,-77.64858,-10.287028
4771849585000.0,-2.1557975902289224,7.220730721831379,1.3774933675041876,0.8918633,0.8384125,0.6600399,243.86241,-77.834656,-10.07983
4771854641000.0,-2.4216452790433647,7.428001832346919,1.2648460544946958,0.8765916,0.7516697,0.6747007,243.85214,-78.01004,-9.872489
4771859843000.0,-2.6702015081299484,7.641450881038283,1.1577570448779693,0.88514376,0.66675943,0.64965516,243.76569,-78.21653,-9.712225
4771864530000.0,-2.6518819988653988,7.835637755758714,1.1467653393192392,0.8979719,0.6056729,0.60903263,243.70154,-78.41571,-9.554569
4771869552000.0,-2.63225311567219,8.04370399959187,1.134988009403314,0.9221011,0.5488624,0.5674938,243.60667,-78.61032,-9.445067
4771874536000.0,-2.55568734835898,8.196094769934358,1.195448907866136,0.9443977,0.5439755,0.54519725,243.5192,-78.79649,-9.343595
4771879550000.0,-2.436843462530937,8.309771694501237,1.3091257245238352,0.93279123,0.6084218,0.5222898,243.43297,-78.96626,-9.25633
4771884523000.0,-2.273983807169253,8.312907224685883,1.457884833000739,0.89827734,0.66553766,0.4841107,243.32639,-79.14266,-9.166963
4771889549000.0,-2.091661663858093,8.272884960088692,1.6224193753880265,0.8924741,0.6658431,0.43554693,243.22293,-79.30826,-9.089179
4771894502000.0,-1.9323333851981936,8.259584645258405,1.7498142686904163,0.8943067,0.6273586,0.36896262,243.09796,-79.46016,-9.012489
4771899522000.0,-1.7876001271282824,8.267625545074427,1.8503235013380164,0.91690874,0.6038403,0.3313944,242.97415,-79.604195,-8.94401
4771904498000.0,-1.6373217294068936,8.264425307111066,1.9329864392298932,0.91629785,0.5693264,0.32895094,242.82616,-79.74632,-8.857321
4771909546000.0,-1.4471694581306285,8.199372936549013,1.922978430452334,0.9053023,0.5140431,0.32284227,242.69775,-79.87495,-8.784173
4771914541000.0,-1.286372926688929,8.119607276051033,1.8973976027399608,0.8906415,0.41538838,0.30879238,242.55368,-80.01051,-8.697624
4771919554000.0,-1.2164914749036733,7.988066138881754,1.819294813785427,0.88361657,0.27122417,0.2782491,242.44537,-80.134705,-8.618742
4771924817000.0,-1.1431250115592089,7.849965000856238,1.7372970124154468,0.8717047,0.14446963,0.26511553,242.32117,-80.28141,-8.520598
4771929556000.0,-1.2678906578903082,7.5671726869884495,1.3453614947418344,0.86162543,0.09743301,0.23701571,242.22227,-80.41099,-8.43754
4771934569000.0,-1.4111119873632676,7.2586958357683775,0.9120251051541344,0.8885035,0.08002335,0.22052236,242.15564,-80.53916,-8.355941
4771939559000.0,-1.581702592509218,6.98489042179313,0.5993830381020765,0.88453287,0.19333886,0.19883664,242.0503,-80.66838,-8.280856
4771944594000.0,-1.8249977399961188,6.793061611876577,0.5853467713254416,0.86742866,0.33628133,0.19211712,241.94556,-80.79462,-8.208918
4771949513000.0,-2.0668472947427987,6.63789372377572,0.5861724955041152,0.8405506,0.45081854,0.18753563,241.82756,-80.93552,-8.167598
4771954537000.0,-2.329196594825103,6.59829369776749,0.6406223697427984,0.8078693,0.5448918,0.1695151,241.68051,-81.0614,-8.134604
4771959514000.0,-2.585419573979538,6.581943957905285,0.7221635719122456,0.7892379,0.61666846,0.14477506,241.49234,-81.14385,-8.145712
4771964518000.0,-2.8330933483071403,6.627435284432022,0.8788551154203144,0.766025,0.6924158,0.124005646,241.28207,-81.211464,-8.161676
4771969542000.0,-3.048851528652224,6.701111899779525,1.0046687292082055,0.7357872,0.7281514,0.10048734,241.04298,-81.230156,-8.218401
4771974572000.0,-3.2104693535180213,6.82117069972201,1.0785511455233896,0.7174612,0.6948592,0.07788532,240.80756,-81.23648,-8.279678
4771979528000.0,-3.35480103514207,6.94707646860211,1.1564374234913997,0.7089091,0.6236934,0.048563786,240.54715,-81.19536,-8.37368
4771984521000.0,-3.463858062377649,7.092486028043334,1.2473183744179417,0.700357,0.54244834,0.01863139,240.30417,-81.14241,-8.472473
4771989505000.0,-3.5712176602649004,7.248648346809151,1.325938076700783,0.6844745,0.4202753,-0.00580322,240.0777,-81.05493,-8.597861
4771994554000.0,-3.6731060344370863,7.457276867007827,1.350197189283564,0.66737026,0.29352075,-0.025045475,239.87979,-80.95795,-8.727313
4771999515000.0,-3.7584722012895777,7.658923042883265,1.3956673166009046,0.6395759,0.21746802,-0.04734206,239.68176,-80.840485,-8.867707
4772004592000.0,-3.781868225098643,7.850769539101145,1.5360429708593974,0.6065892,0.17348573,-0.046731193,239.51321,-80.722466,-9.003682
4772009542000.0,-3.8031694782290937,8.02991198791286,1.6681660310751931,0.54428095,0.15454891,-0.04520403,239.34836,-80.58635,-9.152347
4772014551000.0,-3.813282659789178,8.151270589037244,1.765926856556571,0.49266282,0.16401732,-0.04153884,239.18938,-80.45071,-9.297477
4772019566000.0,-3.823407955361912,8.272774558819394,1.8638047842445535,0.4428773,0.20799962,-0.03726278,238.9946,-80.31043,-9.439114
4772024526000.0,-3.821314850110213,8.40356055841293,1.949298877149155,0.3885103,0.20555615,-0.036957346,238.8128,-80.16792,-9.578249
4772029531000.0,-3.786096608376194,8.564557439382806,2.004641663335782,0.36010507,0.19792034,-0.040011674,238.62222,-80.02541,-9.715682
4772034475000.0,-3.7304622582585543,8.736777827038754,2.006637040913125,0.34055737,0.17867808,-0.021991149,238.4245,-79.88097,-9.846689
4772039532000.0,-3.634949236663051,8.93735537185682,1.9111239694507445,0.3155119,0.14172074,-0.021380283,238.23703,-79.7297,-9.981704
4772044484000.0,-3.5336586605763958,9.120556462488564,1.7855986969075937,0.29077184,0.12583824,-0.014966198,238.0423,-79.589935,-10.102592
4772049588000.0,-3.41291207642269,9.28155193915828,1.588826468398902,0.27152961,0.13041973,-0.004276057,237.85487,-79.450905,-10.220805
4772054588000.0,-3.275881462215517,9.439130234396552,1.3727180984224137,0.2611449,0.14813483,0.013133603,237.66765,-79.33803,-10.31891
4772059517000.0,-3.043930243189655,9.593764437068966,1.0390340190517242,0.26419923,0.18906279,0.030543262,237.47516,-79.22825,-10.4136305
4772064566000.0,-2.8063320072672413,9.752163319051723,0.6972261641637931,0.28191432,0.226631,0.060170226,237.27975,-79.17151,-10.466504
4772070137000.0,-2.5954875066977285,9.861816840419335,0.637230385798874,0.28924468,0.26358834,0.09560041,237.0763,-79.12021,-10.513527
4772074572000.0,-2.4346982218986604,9.940149995631916,0.6331075965395069,0.29993483,0.31764993,0.14110987,236.86069,-79.080765,-10.550392
4772079514000.0,-2.282613771752977,10.13909612129604,0.8112862700858487,0.3145956,0.34697145,0.19639318,236.66437,-79.12731,-10.5208845
4772084478000.0,-2.137797308427952,10.371680118711344,1.0438701621083726,0.34238997,0.3436117,0.24465153,236.46704,-79.18328,-10.482499
4772089527000.0,-2.003663795330081,10.639380403265957,1.2943774826247136,0.37843102,0.29077184,0.29657507,236.26979,-79.283806,-10.402269
4772094574000.0,-1.878533121796276,10.928143380065718,1.5542643627601314,0.39950588,0.20922135,0.3436117,236.08798,-79.39285,-10.312439
4772099519000.0,-1.8953259129396864,11.182639386729027,1.7201869219331578,0.41691554,0.08979719,0.38362336,235.93088,-79.521996,-10.193725
4772104529000.0,-2.0075265300107183,11.421066180064308,1.8277125153269025,0.43249258,-0.062308256,0.4251622,235.81221,-79.661064,-10.06428
4772109523000.0,-2.2668855002286965,11.527909626827086,1.9129826008948991,0.46273044,-0.19792034,0.45081854,235.71297,-79.81204,-9.915573
4772114734000.0,-2.668822982340658,11.522947337178085,1.9824532569851847,0.49021935,-0.28527406,0.44257188,235.64798,-79.96085,-9.768931
4772119554000.0,-3.033385399203867,11.457912016586103,2.006284270780021,0.50976706,-0.3203988,0.42546764,235.58899,-80.090904,-9.640853
4772124545000.0,-3.404859412851862,11.3401270655862,1.9972239335987112,0.5384777,-0.3200934,0.42210788,235.54787,-80.22096,-9.51492
4772129511000.0,-3.709041016547777,11.242231735733244,1.996920688852024,0.58246,-0.28802297,0.41874814,235.48366,-80.29011,-9.4501
4772134511000.0,-3.923518164855673,11.170739532680823,2.0088360836761776,0.61117065,-0.20372356,0.41050145,235.40686,-80.355896,-9.390326
4772139803000.0,-4.143879199247017,11.099227737825151,2.023910023097985,0.6762278,-0.10903945,0.4016439,235.29672,-80.37293,-9.384385
4772144577000.0,-4.246710533669079,11.09475672296108,2.0730902529043616,0.7492262,-0.004276057,0.39828414,235.16257,-80.390686,-9.380559
4772149947000.0,-4.3518732381650285,11.093657856743478,2.127165951202982,0.8051204,0.08460484,0.39584067,234.99702,-80.36711,-9.420889
4772154663000.0,-4.237087819764486,11.170181788630972,2.1501230109115554,0.8573494,0.16890424,0.3747658,234.80743,-80.34121,-9.467288
4772159484000.0,-4.11974674637411,11.248409497627922,2.173591201084378,0.88208944,0.23457226,0.35979962,234.59363,-80.29993,-9.5279
4772164542000.0,-3.782537805024424,11.516103811584088,2.173420605722261,0.904386,0.30665436,0.35338554,234.35959,-80.257706,-9.590959
4772169580000.0,-3.3027518908234472,11.907507719120726,2.1565860214933705,0.9053023,0.3408628,0.35308012,234.12383,-80.21307,-9.6547165
4772174555000.0,-2.933333726861042,12.257566773883376,2.1250085320719605,0.91874135,0.33964106,0.35888332,233.88162,-80.1842,-9.703585
4772179528000.0,-2.790536129652605,12.528390122208435,2.060995759346567,0.9092729,0.3390302,0.3594942,233.6364,-80.15216,-9.75269
4772184479000.0,-2.7592560371479395,12.798804845241625,2.027599906018381,0.883922,0.35246924,0.3930918,233.41296,-80.21137,-9.710811
4772189578000.0,-2.9233327768060087,13.078700590374543,2.046903040003953,0.8509353,0.3555236,0.43799037,233.19972,-80.27067,-9.666098
4772194517000.0,-3.1407667796901317,13.329509027618728,2.04442079535197,0.77213365,0.3109304,0.5002986,233.0111,-80.368195,-9.580299
4772199537000.0,-3.471093972819131,13.546488509599191,2.0023202922869654,0.6627888,0.23151793,0.54367006,232.83847,-80.4677,-9.489231
4772204552000.0,-3.801092154799596,13.763251876557764,1.9602617219939371,0.5354234,0.10751228,0.5564982,232.68394,-80.55621,-9.405521
4772209663000.0,-4.337457083492496,14.00055979809004,1.8586191223738064,0.38148534,-0.09254608,0.56505036,232.58008,-80.64935,-9.312794
4772214555000.0,-5.138853650099696,14.25130367572673,1.6767070041242524,0.22540927,-0.36346483,0.56505036,232.53708,-80.73739,-9.220976
4772219533000.0,-5.739798573678291,14.427789073981137,1.3156752428952152,0.09010262,-0.6215554,0.5369505,232.53448,-80.76945,-9.180498
4772227211000.0,-6.30605582384702,14.567762927057194,0.4631082626892793,-0.02443461,-0.7858781,0.5213735,232.58334,-80.79927,-9.136537
4772229553000.0,-6.409113424039141,14.576278088066177,0.2323899730162413,-0.09285152,-0.84513205,0.48808134,232.65448,-80.736336,-9.181798
4772234513000.0,-6.365987392363564,14.466066818016746,-0.1461610246635731,-0.11178834,-0.9233228,0.41783184,232.77545,-80.65725,-9.23821
4772239551000.0,-6.11284287545619,14.297919128883771,-0.3776942752819332,-0.10934488,-0.97158116,0.28588495,232.92139,-80.529236,-9.353051
4772244690000.0,-4.911386535960875,13.873162150747984,0.0753801599827387,-0.12583824,-1.0372492,0.13744467,233.09119,-80.37895,-9.487771
4772249488000.0,-3.7896532187982905,13.476590058688148,0.4983906951841197,-0.16615535,-1.1285735,-0.035124753,233.29747,-80.20968,-9.648095
4772254532000.0,-2.7290313133418977,13.240874447972104,0.9518869576454396,-0.21288654,-1.2308935,-0.172264,233.52168,-80.012245,-9.835185
4772259517000.0,-1.7214805686180952,13.07002864507249,1.4030944392108644,-0.2602286,-1.3344351,-0.28802297,233.7681,-79.776146,-10.058555
4772264509000.0,-0.8284508004105804,13.032028722858271,1.80646097928938,-0.26297748,-1.4022411,-0.38423425,234.01665,-79.644714,-10.168328
4772269546000.0,-0.0171777400947494,13.096777936044216,2.175914012143703,-0.26145032,-1.4333953,-0.44623706,234.2778,-79.492035,-10.29632
4772274678000.0,0.782552676398243,13.161981354612005,2.553112199531479,-0.30665436,-1.434617,-0.45265114,234.55676,-79.427025,-10.322184
4772279520000.0,1.1661479682284042,13.212901400439238,2.91973426090776,-0.37110063,-1.3640621,-0.42455134,234.81729,-79.354454,-10.353578
4772284496000.0,1.5603590735871156,13.265230633821377,3.296502409897511,-0.44837508,-1.317331,-0.41722095,235.17032,-79.3513,-10.292757
4772289534000.0,1.855120752891382,13.31409318317185,3.750127219602244,-0.56505036,-1.3542882,-0.43860126,235.52325,-79.33795,-10.229044
4772295141000.0,1.91536234945436,13.357904983069863,4.440167242508925,-0.7263188,-1.464244,-0.44990227,235.87961,-79.31593,-10.157154
4772299482000.0,1.841567247201835,13.386122176880734,4.9127843586238535,-0.9388999,-1.6111571,-0.4334089,236.2876,-79.30247,-10.0266485
4772304596000.0,1.5270438140825688,13.408588119633029,5.353117118073395,-1.1774428,-1.788308,-0.4111123,236.73323,-79.2565,-9.890799
4772309508000.0,1.0845173027119368,13.389924523311269,5.639665699978647,-1.4541647,-1.9220876,-0.39828414,237.20761,-79.12929,-9.749622
4772314561000.0,-0.1210532903480674,13.155699324435904,5.205660152679906,-1.7235563,-1.9779817,-0.3817908,237.70741,-78.95361,-9.592263
4772319592000.0,-1.3213750108477471,12.92249390675493,4.773544200085415,-1.9914207,-1.9101756,-0.36377025,238.19481,-78.63479,-9.472081
4772324595000.0,-2.413187129236807,12.703023272539502,4.129860525942373,-2.252871,-1.8350391,-0.3652974,238.69339,-78.239746,-9.343153
4772329577000.0,-3.324749272250336,12.50592891087473,3.119751253547454,-2.3677137,-1.5546521,-0.3747658,239.1096,-77.79429,-9.213488
4772334542000.0,-4.031404244132699,12.36488361003473,2.187633342661305,-2.574186,-1.1209377,-0.4025602,239.31807,-77.16042,-9.301569
4772339579000.0,-4.467850903271796,12.298754916834216,1.3455999584536646,-2.7769935,-0.55771995,-0.44318274,239.40189,-76.49327,-9.411175
4772344501000.0,-4.834739026455472,12.22177865973767,0.6449685883313646,-2.9684997,0.05375614,-0.47250426,239.21356,-75.82768,-9.653048
4772349553000.0,-5.001740003121884,12.099311545524277,0.3555002932324921,-3.1465669,0.58246,-0.52473325,238.89041,-75.11477,-9.937355
4772354611000.0,-5.168939318240393,11.97669898343177,0.065688211559868,-3.3105843,0.88514376,-0.6160576,238.51968,-74.388855,-10.293459
4772359506000.0,-4.98011592392638,11.97511359202454,-0.0778923403473926,-3.4162638,0.95722586,-0.72173727,238.07126,-73.63207,-10.684101
4772364532000.0,-4.5740856575153375,12.04432323082822,-0.1424880480370015,-3.4556646,0.84421575,-0.795652,237.59785,-72.851234,-11.097073
4772369617000.0,-3.9362346666840784,12.114998311847051,-0.1751429064176765,-3.4391713,0.61208695,-0.80970186,237.21594,-72.0481,-11.534038
4772374753000.0,-3.0986462680213123,12.186938261700794,-0.1802814872952361,-3.385415,0.31673363,-0.7968737,236.88739,-71.24675,-11.969254
4772379564000.0,-2.2382066130001554,12.110273765326712,-0.3263680159677169,-3.2650747,-0.019242255,-0.7825184,236.64398,-70.52584,-12.329439
4772384547000.0,-1.3049651447741737,11.951030449635264,-0.5559750619719075,-3.0955596,-0.2919936,-0.7519751,236.46284,-69.84311,-12.661352
4772389626000.0,-0.4011042655315315,11.776719705705704,-0.7769950188416989,-2.8900034,-0.47403142,-0.7012733,236.32819,-69.307236,-12.858897
4772394512000.0,-0.2324834491027027,11.431448241441442,-0.7970688951660232,-2.7207937,-0.5919284,-0.6401868,236.24765,-68.81559,-13.027636
4772399529000.0,-0.0593416897855855,11.0769196012012,-0.8176809781621621,-2.5891523,-0.6960809,-0.61086524,236.27203,-68.5036,-13.017976
4772404588000.0,0.0271952841187898,10.846317963110405,-0.8088965376825902,-2.477975,-0.82253003,-0.6197228,236.33234,-68.23292,-12.992746
4772409531000.0,0.0774481031401274,10.670433481953292,-0.7887954293842887,-2.4010057,-1.031446,-0.61575216,236.4393,-67.99533,-12.942222
4772414512000.0,0.0077774302004146,10.445502394739115,-0.8500748112344506,-2.3506095,-1.29198,-0.63621616,236.62793,-67.76649,-12.861778
4772419545000.0,-0.0879898120663441,10.208165966741534,-0.929186879987906,-2.2602015,-1.4767667,-0.7098254,236.85355,-67.5614,-12.78494
4772426189000.0,-0.1340753,10.024121261178276,-0.7887955207061984,-2.0409007,-1.9740111,-0.7703011,237.25763,-67.38948,-12.64558
4772429533000.0,-0.1340753,9.968810820955673,-0.6474461936672423,-1.917506,-2.405282,-0.88331115,237.69797,-67.20271,-12.530104
4772434520000.0,-0.2043129715588622,9.90091387589837,-0.2085890623393056,-1.8118263,-2.6224444,-0.9016371,238.224,-67.0528,-12.386851
4772439525000.0,-0.3692775638404696,9.85239491244053,0.5386035068731652,-1.8408424,-2.6978865,-0.8790351,238.8227,-66.898056,-12.236078
4772444554000.0,-0.5804400609266409,9.713100711527854,1.1835728512961945,-1.9398025,-2.7818804,-0.8454375,239.4982,-66.72131,-12.054389
4772449520000.0,-0.8427589766666667,9.468269333333334,1.69509475,-2.098933,-2.948952,-0.83108217,240.20026,-66.533394,-11.856801
4772454520000.0,-1.0841304713225268,9.246643649144067,2.0606165455840024,-2.2122486,-3.147483,-0.83016586,240.93065,-66.23092,-11.668288
4772459538000.0,-1.2661347604756854,9.090120210574156,2.031495877564005,-2.2708917,-3.2696562,-0.8191703,241.66235,-65.91828,-11.464029
4772464499000.0,-1.44607164339494,8.935374738524466,2.002705994334192,-2.2941043,-3.1447344,-0.74189585,242.37013,-65.48305,-11.290547
4772469545000.0,-1.7238296947775265,8.684322788555807,2.0064069036953245,-2.357329,-2.9388726,-0.6533204,243.06184,-65.03996,-11.106816
4772474614000.0,-2.0578958130844645,8.377713753582203,2.0292881250377075,-2.4010057,-2.7305677,-0.61819565,243.69383,-64.61246,-10.931393
4772479513000.0,-2.5076199483917083,8.054450711043602,2.0507997481236595,-2.42147,-2.5998425,-0.6001751,244.28836,-64.15234,-10.775173
4772484511000.0,-3.0849750468906363,7.699484641350965,2.072183346372409,-2.431549,-2.558609,-0.6123924,244.83109,-63.697445,-10.631503
4772489491000.0,-3.552661290527578,7.442464109292566,2.0427641817346123,-2.4220808,-2.53112,-0.6239988,245.39154,-63.164124,-10.531016
4772494523000.0,-3.7308236550359712,7.447279202338129,1.8742322044364508,-2.4129176,-2.5302038,-0.66248333,245.93542,-62.637314,-10.440543
4772499514000.0,-3.82830148535558,7.45612658141571,1.7117361188073017,-2.4071145,-2.5259278,-0.7153232,246.53365,-61.98468,-10.439781
4772504536000.0,-3.713099783629305,7.475988929478814,1.5607821905674402,-2.4126122,-2.510656,-0.77182823,247.12082,-61.340504,-10.446025
4772510729000.0,-3.553614265743837,7.4944749320164865,1.378572378458667,-2.4132233,-2.5137105,-0.7959574,247.7385,-60.69963,-10.459828
4772514529000.0,-3.3243785786764137,7.460514120133758,1.2965003573061669,-2.3848178,-2.543643,-0.79809546,248.35191,-60.07491,-10.474942
4772519537000.0,-3.022270073193872,7.415757344894626,1.188338072587293,-2.3365595,-2.5540276,-0.79412484,248.98236,-59.49773,-10.454348
4772524694000.0,-2.646712090542,7.312199026646512,1.0540195276182251,-2.3170118,-2.6074784,-0.75625116,249.61528,-58.93719,-10.410747
4772529537000.0,-2.15596643506802,7.091864174260419,0.8787532295616498,-2.228742,-2.6316075,-0.7324274,250.23308,-58.4201,-10.367945
4772534518000.0,-1.692663921225383,6.8810298161925605,0.7655578164113785,-2.1438315,-2.6645942,-0.70066243,250.88193,-57.969265,-10.224394
4772539544000.0,-1.2809431893972547,6.689531717684504,0.7416205291028447,-2.0555615,-2.7094927,-0.68325275,251.52634,-57.55649,-10.071246
4772544557000.0,-0.9566360769217778,6.543437007162048,0.7138172366930222,-1.9572122,-2.7595837,-0.6612616,252.17975,-57.234203,-9.819082
4772549513000.0,-0.7526052912796499,6.459638758693482,0.6810265647961926,-1.861001,-2.860682,-0.6533204,252.84384,-56.947136,-9.553031
4772554545000.0,-0.5454457042434944,6.374555468480848,0.6477330496660783,-1.7559321,-2.896723,-0.64934975,253.49036,-56.737427,-9.2033415
4772559520000.0,-0.1845593766448598,6.065022924906542,0.7287502043925234,-1.6447546,-2.8539624,-0.6365216,254.12646,-56.567688,-8.85238
4772564599000.0,0.2200213174317756,5.696808858149533,0.8378506369719626,-1.527774,-2.8866436,-0.66859204,254.78372,-56.43532,-8.500969
4772569556000.0,0.3505107871178344,5.511456296019108,1.084081971364119,-1.3658947,-2.8976393,-0.7058548,255.41025,-56.39005,-8.098554
4772574632000.0,0.3591116164808917,5.403946131050955,1.4023125500265392,-1.2232577,-2.7919595,-0.6930266,256.00226,-56.381664,-7.7159195
4772579520000.0,0.2970521720022128,5.3271416074127655,1.7172494245361702,-1.1212431,-2.6697865,-0.6627888,256.65125,-56.362335,-7.278642
4772584519000.0,0.1340752955999999,5.28639746,2.05135208,-1.0488557,-2.5680776,-0.6462954,257.2683,-56.381992,-6.8668947
4772589558000.0,-0.0323337758954205,5.249408315264697,2.3728522909873337,-0.9755518,-2.4721715,-0.64996064,257.88904,-56.343716,-6.47783
4772594512000.0,-0.2249429854231893,5.268669222702176,2.4807134530854174,-0.9294315,-2.3918428,-0.63316184,258.47192,-56.32721,-6.1036487
4772599524000.0,-0.4198072079006171,5.288155631276388,2.5898374224910685,-0.88178396,-2.2834144,-0.6105598,259.00293,-56.261192,-5.771516
4772604520000.0,-0.5715889982021797,5.261629944855402,2.6360751407791985,-0.8362745,-2.1426098,-0.593761,259.49313,-56.214287,-5.465698
4772609530000.0,-0.6951103353857376,5.203986655316228,2.6401924725392605,-0.788627,-1.9883664,-0.589485,259.942,-56.187477,-5.1872044
4772614756000.0,-0.6917159754934954,5.170087442408662,2.5864644914466,-0.7296785,-1.813659,-0.57451874,260.3693,-56.123558,-4.96412
4772620506000.0,-0.3485414739549739,5.200115212721041,2.378414938396822,-0.67011917,-1.733941,-0.56138515,260.7724,-56.07895,-4.7575774
4772626147000.0,-0.0118723673151825,5.229573760952715,2.174309281222248,-0.64721173,-1.5601498,-0.5366451,261.1713,-55.981365,-4.6059074
4772629482000.0,0.1871688435771598,5.246989867733895,2.053640540453377,-0.58001655,-1.3744467,-0.5006041,261.53644,-55.919968,-4.4672184
4772634550000.0,0.4896398651071122,5.273456083376178,1.8702674735218507,-0.50946164,-1.2030991,-0.47128254,261.8537,-55.87182,-4.3531528
4772639539000.0,0.7820058664964651,5.299157469707384,1.6989691402003142,-0.43554693,-1.0277808,-0.4538729,262.1598,-55.82801,-4.2480474
4772644603000.0,1.0439198847211313,5.322967767193637,1.5846793741358995,-0.35002577,-0.8564331,-0.43585235,262.41595,-55.812477,-4.165516
4772649565000.0,1.3048883071341464,5.342992283763066,1.4636229967508712,-0.2660318,-0.6908886,-0.43890667,262.72372,-55.9329,-3.9712405
4772654562000.0,1.6050261041463414,5.334655128780487,1.2635311465853658,-0.15149458,-0.5305365,-0.45142943,262.98694,-56.086987,-3.8073819
4772660761000.0,1.9641284526563605,5.319759501436082,1.0335488320960526,-0.04337143,-0.24617869,-0.4437936,263.22314,-56.282246,-3.6454253
4772664506000.0,1.978200930094954,5.240953569002589,1.174273694648042,0.14874569,-0.1704314,-0.453262,263.47305,-56.531834,-3.4872735
4772669554000.0,1.9971696526877505,5.13472864325512,1.3639610394177195,0.21746802,-0.040927973,-0.453262,263.67834,-56.823116,-3.3245454
4772674546000.0,1.948793889006064,5.029685264610247,1.5680436098251165,0.35185838,0.116675265,-0.44073927,263.85602,-57.184586,-3.1804562
4772679520000.0,1.7059929244924863,4.925029751823534,1.8192170153616312,0.48930305,0.26236662,-0.45051312,264.0067,-57.562145,-3.062708
4772684908000.0,1.446389827212463,4.817340325986079,2.1027200659595624,0.61758476,0.40011674,-0.46517387,264.114,-57.904976,-2.973469
4772689542000.0,1.2809066076068942,4.821017689907192,2.5403312492542263,0.7519751,0.52748215,-0.47158796,264.1868,-58.2839,-2.9065478
4772694546000.0,1.102210442111369,4.824988671577726,3.0128833341067285,0.88147855,0.6536258,-0.46944994,264.21777,-58.599876,-2.9061422
4772699504000.0,0.8983846336487715,4.836428693848953,3.589519624167425,1.0036516,0.7324274,-0.4605924,264.22842,-58.946598,-2.9176419
4772704569000.0,0.6688724313284804,4.854083514094631,4.264815334858962,1.1001683,0.8170323,-0.44257188,264.20456,-59.31703,-2.9454367
4772709503000.0,0.4873760800394928,4.972331508210352,4.897685847152359,1.187522,0.8707884,-0.45081854,264.16818,-59.575687,-3.0130787
4772714553000.0,0.3767978853814175,5.273908145084182,5.500839488287259,1.2434162,0.9126327,-0.43768495,264.10864,-59.847626,-3.0801878
4772719539000.0,0.3096740565109642,5.701999272979873,6.134402273655753,1.2647965,1.0082331,-0.43310347,264.02637,-59.954178,-3.1896496
4772724569000.0,0.2952038464929408,6.298895502328026,6.821737495043557,1.2718215,1.0842859,-0.4120286,263.93442,-60.070194,-3.2923143
4772729535000.0,0.2809177504791229,6.88819702816161,7.500327298107539,1.237613,1.087951,-0.3726278,263.84802,-60.076252,-3.3938458
4772734522000.0,0.2840955188580247,7.844470461934156,8.600718251028805,1.1685852,1.024421,-0.30451632,263.75214,-60.07654,-3.481059
4772739577000.0,0.2923964061265432,8.919435454218107,9.837549855967078,1.0552697,0.84421575,-0.22113322,263.67633,-60.056805,-3.5358315
4772744500000.0,0.2183508246229573,9.992039777712147,10.952139198858042,0.84513205,0.57726765,-0.12492194,263.63162,-59.89595,-3.5405335
4772749507000.0,0.0389709485951959,11.115523726619411,11.971772259844457,0.59956425,0.32467487,-0.03604105,263.61444,-59.70342,-3.5032072
4772754580000.0,-0.2328393991762212,11.923817117641391,11.61269729163696,0.3921755,0.25717425,-0.02443461,263.60266,-59.345486,-3.4370015
4772759496000.0,-0.6184029748386164,12.259484382695828,9.376428405963964,0.3381139,0.42424592,-0.019547688,263.578,-58.988777,-3.3552482
4772764487000.0,-0.4961358633222524,12.610129787448374,8.090592811524125,0.5375614,0.6768387,0.03023783,263.5265,-58.624237,-3.283264
4772769584000.0,0.6987422889594037,12.988753657499748,8.82817158444646,0.91904676,0.75625116,0.15607607,263.4626,-58.332226,-3.1965356
4772774541000.0,1.462022368161676,13.097036721431447,9.265615274002954,1.3264939,0.7162395,0.3100141,263.4316,-58.52838,-3.172514
4772779534000.0,1.5069691570431047,12.734251724318517,9.198195023633678,1.4923438,0.52656585,0.45753807,263.4024,-58.76329,-3.1098275
4772784562000.0,1.552231014542769,12.368923671948435,9.13030216986706,1.423316,0.4016439,0.5128214,263.35425,-58.9936,-2.8985615
4772789516000.0,1.2214242869668004,11.76643158484942,8.71871397173399,1.2632693,0.51893,0.49327368,263.2833,-59.236557,-2.689194
4772794536000.0,0.2479545348442802,10.743547117792168,7.715595786925686,1.131017,0.7699956,0.4111123,263.2117,-59.45828,-2.4947312
4772799511000.0,-0.4776269641464101,9.866200730173627,6.626986799887376,1.0940597,1.1047498,0.32803464,263.06616,-59.628223,-2.344305
4772804463000.0,-0.8782080614115438,9.176311142186767,5.416341685068042,1.1365148,1.5424347,0.2874121,262.84122,-59.777603,-2.2613983
4772809437000.0,-1.1739270871574985,8.527948235515582,4.192119385076343,1.2021828,1.7745636,0.23426682,262.6367,-59.944527,-2.3298423
4772814428000.0,-1.1939219873039113,7.993084447814264,2.94243734298264,1.2709051,2.2742512,0.22418754,262.26202,-60.119865,-2.4954755
4772819435000.0,-1.0800594415333895,7.554849753885278,2.0383192381840445,1.4178182,2.795014,0.26083946,261.81534,-60.467434,-2.7603173
4772824428000.0,-0.733265714422153,7.289124523029104,1.7455712348120938,1.5790867,3.2415564,0.32711834,261.26675,-60.83067,-3.0703034
4772829385000.0,-0.399337761397709,7.098688852563965,1.571304692795204,1.7140878,3.5485163,0.4437936,260.65958,-61.345818,-3.4082558
4772834389000.0,-0.0966487509774113,7.149992200513863,1.7816479747564502,1.8219056,3.7681222,0.5439755,259.9653,-61.88896,-3.7675078
4772839392000.0,0.1356652371814295,7.349132495486629,2.005563713152401,1.8493946,3.8640282,0.6270532,259.2926,-62.437035,-4.055633
4772844400000.0,0.2453277197789044,7.806853788020678,2.25349630605428,1.8374827,3.8906007,0.72692966,258.58273,-62.994457,-4.3174667
4772849385000.0,0.3272672627328244,8.315398352671757,2.4438440002671755,1.8090774,3.8783834,0.8167268,257.79138,-63.552704,-4.5343695
4772854443000.0,0.3596218794427481,8.93013647557252,2.531663670057252,1.7788396,3.8402045,0.91354895,257.0022,-64.0976,-4.7097282
4772859403000.0,0.3413553117346534,9.55237752871287,2.677521610356436,1.7427986,3.7665951,1.0241156,256.19537,-64.63625,-4.829077
4772864402000.0,0.1801937782118812,10.234943958415842,2.995104566207921,1.6884315,3.6502252,1.1123856,255.41641,-65.150246,-4.908188
4772869442000.0,-0.0529763591255788,10.865191189049304,3.290570898120403,1.6352862,3.5057557,1.208597,254.64957,-65.688515,-4.9305315
4772874419000.0,-0.4987557103405066,11.310970499591392,3.506968670825388,1.5583172,3.3744197,1.2699889,253.9195,-66.19197,-4.9191794
4772879625000.0,-0.9801849767507128,11.77486300258375,3.691043281691019,1.5076154,3.2409456,1.2718215,253.26602,-66.65651,-4.883442
4772884401000.0,-1.5873736987393086,12.174221961243765,3.3976366746347115,1.4990633,3.1655037,1.2779301,252.6403,-67.09949,-4.8193865
4772889420000.0,-2.225455816758731,12.593900062900929,3.089301716339986,1.5247196,3.1022792,1.2754866,252.04626,-67.522736,-4.802855
4772894407000.0,-2.984504146349302,12.832082096615446,2.8014953483679825,1.5995506,3.0518827,1.2452488,251.4855,-67.94275,-4.7815995
4772899405000.0,-3.77768529066988,13.024368312945668,2.5178729784975395,1.6853772,3.0628784,1.196685,250.94089,-68.35897,-4.762434
4772904539000.0,-4.719726173947111,12.767922697747306,2.317697941410382,1.7299703,3.0699034,1.1343768,250.3237,-68.89686,-4.830186
4772909456000.0,-5.651362829676788,12.41740657512243,2.147051698619001,1.7602082,3.054021,1.0922271,249.72488,-69.437355,-4.8947973
4772914497000.0,-5.927540139039329,12.041146346872983,2.049939967053514,1.7592919,3.0088167,1.0021244,249.08032,-70.03754,-5.067591
4772919495000.0,-6.00083410920374,11.66310291166989,1.976645876047711,1.7739527,2.9538388,0.8970556,248.45709,-70.62834,-5.2404227
4772924523000.0,-6.0077213679061074,11.2499866686747,1.935396288408808,1.7583756,2.888171,0.7965683,247.8027,-71.20129,-5.53327
4772929617000.0,-5.855714196343997,10.753429072289157,1.970864665475696,1.7259997,2.802039,0.69974613,247.18384,-71.74503,-5.8326764
4772934446000.0,-5.649325911073692,10.270368438193342,2.0141354656299524,1.6865989,2.6951375,0.6252206,246.57112,-72.254105,-6.148436
4772939495000.0,-5.32364970796355,9.743540095087162,2.076397097107765,1.6453656,2.5583036,0.5671884,246.00238,-72.725395,-6.463955
4772944480000.0,-5.023093914751482,9.26930663360693,2.155620815488676,1.5974126,2.424524,0.52106804,245.44606,-73.14403,-6.766785
4772949472000.0,-4.761493879730962,8.880539552895577,2.268254190773674,1.5198327,2.284636,0.49388456,244.93765,-73.52049,-7.0592732
4772954571000.0,-4.494286632421341,8.48343952393981,2.383301783036936,1.4288138,2.1142046,0.47036624,244.45953,-73.84585,-7.3122306
4772959512000.0,-4.180614914372704,8.179265084129133,2.420036759211289,1.3332134,1.9456058,0.47708577,244.0252,-74.13506,-7.5473413
4772964506000.0,-3.843156973274696,7.901902398105548,2.4292821756427605,1.2330315,1.820073,0.48563787,243.6332,-74.38307,-7.7731547
4772969577000.0,-3.500225114285714,7.733173746938776,2.354330975510204,1.1523973,1.7455474,0.52595496,243.25194,-74.58605,-7.938537
4772974551000.0,-3.1637138586538462,7.625676978571429,2.2374867766483515,1.0986412,1.6951511,0.5852089,242.90237,-74.76561,-8.085815
4772979522000.0,-3.00044906854928,7.590276913898117,2.223041459717608,1.0687088,1.6151277,0.6258314,242.57564,-74.934265,-8.175487
4772984515000.0,-2.943082834588409,7.599102764820967,2.271582073145072,1.0580186,1.496009,0.64599,242.27682,-75.09338,-8.247001
4772989484000.0,-3.0033570086975447,7.729115328573916,2.245069043174299,1.044885,1.3286319,0.6478226,242.01273,-75.27595,-8.257939
4772994579000.0,-3.2157626615357824,8.017986658018458,2.1218737973532997,1.0262536,1.1218541,0.625526,241.79877,-75.44782,-8.259926
4772999498000.0,-3.405707888706283,8.277073747169055,2.0080094230183385,1.0180069,0.94897914,0.60903263,241.60635,-75.61747,-8.238979
4773004500000.0,-3.51131670518088,8.425886630624312,1.9216022414370173,1.0122037,0.86590147,0.58459806,241.45268,-75.77318,-8.219846
4773009502000.0,-3.593371267959563,8.561098692593356,1.8288025817825455,0.9978484,0.74189585,0.5696318,241.33568,-75.94843,-8.215718
4773015635000.0,-3.532782618217454,8.63380454085001,1.6712722949040644,0.9966267,0.6771441,0.5348125,241.23093,-76.11266,-8.222305
4773019517000.0,-3.49603221340987,8.648852078529856,1.5712643605756198,0.95111716,0.68691796,0.52626044,241.12076,-76.280136,-8.233081
4773024763000.0,-3.4519726725663715,8.56073324778761,1.4350802415929205,0.9388999,0.72051555,0.5235115,241.02606,-76.444725,-8.248739
4773029521000.0,-3.4120116936618032,8.480811517579527,1.3115644127481465,0.91538155,0.7666359,0.5161811,240.9108,-76.61973,-8.2588825
4773034506000.0,-3.3597141086363638,8.35285234249012,1.2236499880731226,0.9245446,0.7974846,0.4896085,240.79393,-76.78987,-8.27521
4773039568000.0,-3.302230496818182,8.204352670158103,1.1517955483300395,0.979217,0.7870999,0.43951756,240.67972,-76.95372,-8.299552
4773044518000.0,-3.14792806873024,8.126044732585417,1.079971764008159,1.0247264,0.73884153,0.39736784,240.55042,-77.13992,-8.320179
4773049539000.0,-2.9468581934727176,8.07700331208567,1.0064095820499743,1.0931433,0.70157874,0.3494149,240.42642,-77.325806,-8.355191
4773054550000.0,-2.792554696624541,8.02096776379943,0.9778704527598858,1.1206323,0.77579886,0.36835176,240.26694,-77.526474,-8.37833
4773059524000.0,-2.6566209745209948,7.962710523848349,0.9662190047696698,1.0687088,0.8713993,0.37018433,240.11765,-77.70505,-8.416983
4773064484000.0,-2.5215877093201438,7.887042177092425,0.9503525063621376,0.9947941,0.904386,0.35888332,239.95657,-77.908516,-8.41997
4773069544000.0,-2.3852963565900493,7.760150371835904,0.922154285976142,0.9288206,0.86498517,0.30879238,239.79413,-78.08819,-8.433271
4773074500000.0,-2.2697709442533585,7.64559713403855,0.8792999227944708,0.8668178,0.81336707,0.24617869,239.6119,-78.263725,-8.42254
4773079557000.0,-2.222626537478097,7.567022925835551,0.7755821556882342,0.8445212,0.75319684,0.18203785,239.4494,-78.4174,-8.423886
4773084502000.0,-2.176526262314232,7.490188941345966,0.6741614797261342,0.8524625,0.72021013,0.13408493,239.27849,-78.56998,-8.413559
4773089535000.0,-2.1350206953175617,7.405020494257386,0.5908655953116718,0.84635377,0.69913524,0.10354166,239.12677,-78.70071,-8.414034
4773094512000.0,-2.130341816982429,7.274012096299205,0.6423332863119663,0.84604836,0.6774496,0.077579886,238.9895,-78.82009,-8.4247
4773099617000.0,-2.1246183878318585,7.14575571109882,0.6880972878318584,0.84116143,0.63438356,0.056505036,238.8515,-78.95819,-8.429712
4773104565000.0,-2.1115138506637168,7.07149648469764,0.6749927506637168,0.84757555,0.61117065,0.018936822,238.71875,-79.0837,-8.445675
4773109485000.0,-2.0984834701327437,6.997657480272862,0.6619623701327434,0.86101454,0.5644395,0.002443461,238.58977,-79.1987,-8.458976
4773114520000.0,-2.128038207216135,6.969566782873892,0.7529519697606253,0.88270026,0.5109888,-0.009468411,238.47339,-79.30408,-8.479572
4773119553000.0,-2.1616763078512107,6.946020077304767,0.8538663243527113,0.9285152,0.4896085,-0.020463986,238.36432,-79.40765,-8.5029335
4773124733000.0,-2.191698759479891,6.932371538282432,0.9731245962957364,0.97341377,0.5030475,-0.032375857,238.24362,-79.51393,-8.524304
4773129568000.0,-2.1776969971575446,7.016382063481504,1.225156488670497,1.0170907,0.5525276,-0.02565634,238.12102,-79.62419,-8.5426855
4773134632000.0,-2.1784975760534198,7.113245966505488,1.4746775243994168,1.0051788,0.6218608,-0.029626964,237.96588,-79.70618,-8.566589
4773139538000.0,-2.3299534662675567,7.293550748330647,1.5756481931844348,0.97005403,0.71593404,-0.046731193,237.79259,-79.78502,-8.593564
4773144538000.0,-2.484311283444624,7.477310207997544,1.6785534813876737,0.92087936,0.81153446,-0.04734206,237.57321,-79.84335,-8.5991
4773149508000.0,-2.7004654277857734,7.645598439247533,1.69028767161801,0.84116143,0.8918633,-0.05131268,237.33603,-79.88309,-8.613285
4773154506000.0,-2.9907645063425163,7.79812837736431,1.5968015921155427,0.77579886,0.91354895,-0.054367006,237.09273,-79.914215,-8.629165
4773159518000.0,-3.2594474226732864,7.925197210864486,1.4429064900992992,0.7150178,0.8524625,-0.06505715,236.83102,-79.89859,-8.674122
4773164522000.0,-3.5067102519957163,8.027834745911214,1.2329663299357478,0.68539083,0.75900006,-0.08277224,236.57709,-79.87301,-8.722478
4773169591000.0,-3.662984100936524,8.149890729637688,1.0728913665008042,0.6609562,0.6603453,-0.08674286,236.33043,-79.81541,-8.817153
4773174590000.0,-3.7128013987513007,8.29028502714975,0.9732567046655948,0.6743952,0.56688297,-0.09040806,236.11244,-79.75339,-8.91351
4773179521000.0,-3.685321918928742,8.445316502439026,0.8777915264256337,0.6969972,0.462425,-0.09437868,235.92242,-79.67792,-9.05107
4773184545000.0,-3.515048059225251,8.633998336585366,0.7857515773256815,0.6951646,0.36163223,-0.0842994,235.75949,-79.60198,-9.181067
4773189488000.0,-3.307190274005959,8.831817105620054,0.7071113364399465,0.6722572,0.2507602,-0.07452556,235.62708,-79.53325,-9.311702
4773194545000.0,-2.973808549183191,9.070657350354464,0.6623287152142197,0.6441574,0.15454891,-0.06078109,235.51997,-79.46576,-9.4337015
4773199529000.0,-2.657709158900256,9.287053520716114,0.5872917427817562,0.6065892,0.074830994,-0.024129177,235.44391,-79.443146,-9.507953
4773204568000.0,-2.365613278363172,9.463957216879797,0.4433008314271099,0.5513059,0.036651913,0.022296581,235.3836,-79.42,-9.572428
4773209872000.0,-2.0633160173913043,9.649674347826087,0.2946603110144927,0.52656585,-0.027794369,0.06566802,235.34991,-79.46696,-9.560149
4773214538000.0,-1.926597483768116,9.800783997584542,0.2370945992012882,0.52320606,-0.035124753,0.08368854,235.3115,-79.51378,-9.542754
4773219604000.0,-1.778158544347826,9.96484775362319,0.1745939785314009,0.5329799,-0.015577064,0.12797627,235.27928,-79.65554,-9.43465
4773224576000.0,-1.6621425203568532,10.15664569144814,0.1521579137082094,0.56199604,0.030543262,0.17012598,235.244,-79.79983,-9.325349
4773229520000.0,-1.5768081982157338,10.37851509831486,0.1692247736811751,0.5946773,0.11148291,0.21013765,235.19504,-79.952965,-9.208261
4773234483000.0,-1.499308764264803,10.607436465152515,0.2176781343705732,0.6246097,0.18081611,0.24678956,235.13516,-80.1588,-9.04534
4773239537000.0,-1.4444580444801207,10.858835140098217,0.3593758088516385,0.6374379,0.23976462,0.27488935,235.0594,-80.368645,-8.87983
4773244519000.0,-1.3839138598795069,11.114337608114468,0.4963901639649816,0.61544675,0.28130344,0.30451632,234.95062,-80.60931,-8.68102
4773249509000.0,-1.2849454795726254,11.415741969406003,0.6178514284382942,0.59223384,0.33169982,0.34300083,234.82904,-80.85317,-8.479665
4773254656000.0,-1.1865138869198313,11.730618808016876,0.7406467784810126,0.5360342,0.37812558,0.37598756,234.67705,-81.0991,-8.260426
4773259509000.0,-1.16565191211958,12.106133788042014,0.8074050281335847,0.47616947,0.4196644,0.43127087,234.5202,-81.34928,-8.03354
4773264492000.0,-1.1442310960409372,12.491707895906275,0.8759515680096956,0.3915646,0.43218717,0.47494772,234.34323,-81.60919,-7.7785625
4773269541000.0,-1.097763268860412,12.686018649427918,1.0337218179075516,0.33841935,0.4071417,0.5177083,234.1759,-81.86897,-7.5205398
4773274534000.0,-1.045241159194508,12.826077440961098,1.2131722670993137,0.3051272,0.3549127,0.56321776,234.02264,-82.12294,-7.261076
4773279536000.0,-1.0724138937789065,12.915251667089873,1.466125063371724,0.30390546,0.29260445,0.61208695,233.87164,-82.38281,-6.992889
4773284507000.0,-1.1501244138296909,12.971375686134037,1.764015315099302,0.3210097,0.22785273,0.6704246,233.74516,-82.64405,-6.720642
4773289535000.0,-1.4117699250641222,12.955611129680928,2.015648114014569,0.3378085,0.16615535,0.70952,233.61353,-82.89692,-6.4476905
4773294549000.0,-1.9438265200574536,12.832449964194112,2.1930002437570537,0.3631594,0.105374254,0.72112644,233.50821,-83.14964,-6.1770926
4773299566000.0,-2.4848693140045497,12.674108390663632,2.2320437390366927,0.37690386,0.070554934,0.70554936,233.39056,-83.35595,-5.932289
4773304651000.0,-3.043565370230442,12.471822353179704,2.106818812075957,0.41233405,0.029321533,0.6933321,233.2983,-83.56223,-5.6925535
4773309533000.0,-3.4651794766837014,12.2521263139259,1.9547933209983568,0.43768495,0.040927973,0.66767573,233.16248,-83.67108,-5.5466933
4773314530000.0,-3.749044600164264,11.994463884285452,1.7582712703413033,0.48838675,0.10995574,0.6575964,233.02722,-83.78384,-5.4062886
4773319594000.0,-3.995598142079477,11.765625921611322,1.5572033427327163,0.56230146,0.22113322,0.6441574,232.85986,-83.83528,-5.349229
4773324565000.0,-4.116536140718563,11.63604978443114,1.35420059251497,0.6426302,0.33628133,0.6411031,232.67593,-83.89311,-5.295413
4773329678000.0,-4.2372246575922565,11.52296131215971,1.1654446457955234,0.7153232,0.42638394,0.64599,232.46878,-83.935036,-5.2865806
4773334519000.0,-4.300329713702359,11.694747623638838,1.2636084040154263,0.788627,0.4642576,0.65179324,232.24829,-83.985306,-5.279886
4773340330000.0,-4.376079245009074,11.90095507168784,1.381441413520871,0.8054258,0.3998113,0.6792821,232.03674,-84.045334,-5.278917
4773344474000.0,-4.609294914636775,12.242077193001364,1.4452487391751094,0.788627,0.30543262,0.7122689,231.82765,-84.1091,-5.275092
4773349514000.0,-5.15033603556801,12.935719641804988,1.4938036725659265,0.6979135,0.1881465,0.7302894,231.64801,-84.16467,-5.2669115
4773354522000.0,-5.687941974779047,13.624958011568586,1.5420503206653733,0.5552765,0.056505036,0.72418076,231.48814,-84.19454,-5.264037
4773359560000.0,-5.97652546771749,14.086008054410428,1.52538300506214,0.36163223,-0.1020145,0.6814202,231.3734,-84.20077,-5.265169
4773364514000.0,-6.101162341315551,14.392806666515105,1.4678583403758716,0.16737708,-0.26542094,0.59742624,231.30086,-84.17649,-5.278738
4773369600000.0,-6.128759786090431,14.659677623479208,1.362311681405484,0.00030543262,-0.42058071,0.49663344,231.24954,-84.03905,-5.3844213
4773374576000.0,-6.098472779734883,14.89331898538224,1.2325108645542038,-0.1151481,-0.52534413,0.36041048,231.2327,-83.85754,-5.5190754
4773379496000.0,-5.917914591260076,15.061744460924904,1.223455929096309,-0.17134771,-0.63346726,0.21685717,231.25223,-83.6401,-5.6827745
4773384524000.0,-5.525669581162495,15.147548123546882,1.378719630479423,-0.20555615,-0.75961095,0.1001819,231.3076,-83.38926,-5.870206
4773389619000.0,-5.114027905135135,15.22048391891892,1.5576546075675677,-0.23915374,-0.9224065,-0.014049901,231.41211,-83.12564,-6.076758
4773394525000.0,-4.570380702804054,15.145087317567569,1.954477412027027,-0.29016098,-1.0952814,-0.122783914,231.55515,-82.83504,-6.3055367
4773399523000.0,-4.01653873027027,15.06827683783784,2.358741655135135,-0.34055737,-1.2034045,-0.23396139,231.72064,-82.561775,-6.5012665
4773404588000.0,-3.324771360060088,14.968318485588208,2.797377098375739,-0.3744604,-1.3869696,-0.27977628,231.95398,-82.28105,-6.697454
4773409561000.0,-2.591452808074359,14.861003750915406,3.2400510442399773,-0.4908302,-1.4932601,-0.3359759,232.19342,-81.959885,-6.9194574
4773414556000.0,-1.78574826817243,14.708257581999051,3.9063609288678354,-0.65209866,-1.5262468,-0.35613444,232.4025,-81.67802,-7.0488005
4773419571000.0,-0.9257546492998578,14.521698156608242,4.739053286849835,-0.8405506,-1.6032158,-0.39400807,232.6496,-81.36139,-7.1901007
4773424576000.0,-0.3999352358779032,14.317483130833155,5.169099381003623,-1.0855075,-1.7342464,-0.46181414,232.93892,-81.034134,-7.2660947
4773429508000.0,-0.2539996416439377,14.096063339654805,5.143937721041977,-1.3594806,-1.8524488,-0.48655418,233.24094,-80.67113,-7.3341994
4773434513000.0,-0.2184076439208842,13.90992797556719,4.955816081636611,-1.636508,-1.9721785,-0.49235737,233.65138,-80.23094,-7.3455477
4773439529000.0,-0.2649824586503781,13.751573818499129,4.648422431840217,-1.8887954,-2.019826,-0.48441613,234.07483,-79.73263,-7.3498535
4773444527000.0,-0.3536668023313702,13.66361414388926,4.37139030661162,-2.0955732,-1.9575176,-0.47678033,234.50775,-79.18796,-7.330939
4773449653000.0,-0.4848058538157974,13.639770821443747,4.115073127618238,-2.300824,-1.820073,-0.46700647,234.92966,-78.584496,-7.3022223
4773454469000.0,-0.6080141394086577,13.617369447878088,3.87425698754174,-2.5017986,-1.6358972,-0.4428773,235.3085,-77.964035,-7.261914
4773459520000.0,-0.8012526660821215,13.557924239948674,3.5403545839178787,-2.6728408,-1.3930782,-0.43493605,235.62639,-77.29963,-7.227342
4773464425000.0,-1.2081082024914456,13.377099568755346,2.9376056100085544,-2.8008173,-1.0497719,-0.44623706,235.85822,-76.599075,-7.202167
4773469410000.0,-1.592106746053068,13.241166511940298,2.4652320607628524,-2.8848112,-0.64476824,-0.47586402,235.96155,-75.91207,-7.204515
4773474441000.0,-1.919704983291874,13.20121511567164,2.273467194195688,-2.9391782,-0.23854288,-0.4990769,235.9635,-75.20706,-7.2297873
4773479433000.0,-2.2447636993117746,13.161573420149251,2.083188876981758,-2.9856038,0.04550946,-0.50518554,235.78539,-74.55314,-7.307061
4773484421000.0,-2.7087692970811177,12.938999214051362,2.05362204839914,-3.0161471,0.19914207,-0.54702985,235.53687,-73.89061,-7.423624
4773489474000.0,-3.097874920722396,12.72410114952036,2.0106850414447925,-3.040887,0.27305678,-0.5919284,235.23692,-73.22634,-7.561369
4773494412000.0,-3.0099231760669536,12.645407574833596,1.8347815521339077,-3.0644054,0.29016098,-0.59528816,234.93805,-72.5473,-7.743242
4773499408000.0,-2.889792565584801,12.543814671531765,1.6281064451415002,-3.080288,0.24404067,-0.5900958,234.68661,-71.80782,-7.9895
4773504420000.0,-2.509828511042945,12.258841605828222,1.1816487331288343,-3.0769281,0.17531833,-0.55863625,234.43507,-71.083115,-8.229044
4773509418000.0,-2.1375922577491835,11.948234443153448,0.7303000760879585,-3.0445523,0.07971791,-0.5183192,234.25116,-70.38437,-8.43408
4773514403000.0,-1.8350316701747649,11.366034407144229,0.2168640223429998,-2.9663615,-0.043066,-0.46883908,234.0885,-69.71592,-8.619706
4773519761000.0,-1.5326401187078875,10.72590170511296,-0.3316410710899722,-2.835331,-0.21471913,-0.41905355,234.00938,-69.14201,-8.726764
4773524428000.0,-1.537068959274673,9.999586650416171,-0.7700874452437574,-2.667954,-0.4804455,-0.3753767,233.98265,-68.61375,-8.802265
4773529732000.0,-1.578774287819397,9.182968265811889,-1.26747930094331,-2.4700336,-0.8213083,-0.39614612,234.07181,-68.17608,-8.814199
4773534400000.0,-2.270693514891473,8.622063369466069,-1.6891815644106605,-2.2702806,-1.1178834,-0.49388456,234.22035,-67.78822,-8.813551
4773539441000.0,-3.017901060664896,8.016338951625608,-2.1445802598131696,-2.1087067,-1.3839152,-0.63041294,234.49304,-67.4395,-8.806724
4773544407000.0,-2.8806821229680466,7.851513143641433,-1.968182684698692,-1.9654589,-1.5885551,-0.73731434,234.83038,-67.14053,-8.793213
4773549405000.0,-2.5316779889341627,7.789924235556509,-1.6397082402852243,-1.853976,-1.9740111,-0.795652,235.29071,-66.87568,-8.755502
4773554510000.0,-2.1575759066106746,7.78180806448117,-1.2586611953616906,-1.7030923,-2.420248,-0.8509353,235.8422,-66.587654,-8.836022
4773559456000.0,-1.7939720990607784,7.777530285920708,-0.8865019959595413,-1.6019942,-2.7015514,-0.91690874,236.45313,-66.31754,-8.909324
4773564471000.0,-1.5463541005485892,7.831456115987461,-0.3253037264968652,-1.5607607,-2.8857274,-0.9062186,237.16298,-66.06812,-8.888406
4773569503000.0,-1.342413174216301,7.906989748589341,0.3054025513526645,-1.5992452,-2.9874365,-0.82924956,237.9171,-65.834724,-8.843213
4773574522000.0,-1.1522608239287473,7.970924919799704,0.9001537902117879,-1.756543,-3.150843,-0.74220127,238.73155,-65.578865,-8.699913
4773579457000.0,-1.0203536861434903,7.986443311278935,1.3424305967624364,-1.9407189,-3.339295,-0.68569624,239.56346,-65.32166,-8.527402
4773584479000.0,-0.8861211337711377,8.002235279264488,1.7925043804498442,-2.08977,-3.4223726,-0.6569856,240.36865,-64.98558,-8.281386
4773589512000.0,-0.7665558423832965,8.064417889619758,2.0375180597267017,-2.205529,-3.4367278,-0.6114761,241.18048,-64.629074,-8.001262
4773594501000.0,-0.6530094882974029,8.141467282379901,2.2118927560855544,-2.2907448,-3.4397821,-0.56077427,241.99011,-64.25674,-7.703077
4773599507000.0,-0.5916171948335944,8.210465350920126,2.3603208902505872,-2.3194554,-3.4352007,-0.54153204,242.75221,-63.83927,-7.355591
4773604543000.0,-0.610500809637823,8.267116160826156,2.4689018023101017,-2.3753495,-3.4941492,-0.50701815,243.50299,-63.410526,-6.9861746
4773609556000.0,-0.6420967506244233,8.310219988003691,2.5129027816671794,-2.4110851,-3.6065483,-0.48624873,244.2537,-62.984734,-6.5634108
4773614550000.0,-0.6960383358576848,8.329835506510817,2.444249951830206,-2.4443772,-3.73819,-0.46273044,244.99802,-62.560722,-6.128492
4773619710000.0,-0.817753802298747,8.318441535653113,2.099593016442802,-2.4868324,-3.8072176,-0.44226643,245.77492,-62.106766,-5.6778455
4773626399000.0,-1.0891669267916704,8.249144388082573,1.1814082834039483,-2.5289822,-3.709479,-0.408058,246.5152,-61.660618,-5.2307396
4773629552000.0,-1.2218118809527996,8.196421622483959,0.833952387624154,-2.5576928,-3.6419785,-0.39706242,247.34201,-61.189194,-4.765134
4773634507000.0,-1.4470440038762415,8.042095823943043,0.5920363872901468,-2.545781,-3.4758232,-0.38423425,248.09308,-60.734394,-4.3236146
4773639536000.0,-1.6756398355981366,7.885465260701415,0.3465075142972663,-2.533869,-3.2614095,-0.3817908,248.91556,-60.320404,-3.906598
4773644546000.0,-1.9128436801405972,7.690677757779386,0.2983928347193218,-2.4938574,-2.968805,-0.38331795,249.66171,-59.93202,-3.5247715
4773649917000.0,-2.1602725764957267,7.479752219729344,0.2698217662393162,-2.4538457,-2.6655104,-0.40591997,250.3418,-59.559868,-3.1830812
4773654588000.0,-2.2518738308226496,7.324428453142806,0.2977004001816239,-2.3790147,-2.3793201,-0.45112398,250.99115,-59.20122,-2.9185333
4773659517000.0,-2.348534627777778,7.160525467592592,0.3271188944444445,-2.3185391,-2.1090124,-0.48930305,251.57968,-58.816025,-2.7383153
4773665419000.0,-2.295269285440279,6.997798784568439,0.4871480292763731,-2.257147,-1.8869628,-0.54092115,252.11086,-58.462856,-2.6077747
4773669680000.0,-2.220557646992153,6.887510136512642,0.6294558671020052,-2.2021692,-1.7513506,-0.5748242,252.59332,-58.135845,-2.5095208
4773674615000.0,-2.037884109811652,6.75424120608848,0.8185086546649146,-2.1303926,-1.6801848,-0.61850107,253.05359,-57.79657,-2.4677298
4773679518000.0,-1.7448004124507226,6.615411998685939,1.0344650265111697,-2.0641136,-1.6820174,-0.6542367,253.49704,-57.481,-2.440534
4773684515000.0,-1.4264168916296227,6.487522097528359,1.1769456799040856,-1.9963076,-1.7253889,-0.67256266,253.94052,-57.151733,-2.4059494
4773689537000.0,-1.0937502929318454,6.367762241676657,1.2700923631098404,-1.9312505,-1.7763962,-0.68294734,254.38513,-56.849724,-2.3751407
4773694545000.0,-0.8193373405318279,6.261863806098195,1.3819056019312188,-1.851838,-1.7996091,-0.6835582,254.84714,-56.550694,-2.2855418
4773699569000.0,-0.6156315489549135,6.172519039552848,1.5177094381044345,-1.8005253,-1.8771889,-0.6759224,255.32878,-56.27199,-2.179426
4773704607000.0,-0.411358105888732,6.082925302718563,1.653891708534502,-1.7250835,-1.9422461,-0.66645396,255.82529,-56.03004,-1.9861298
4773709518000.0,-0.262147517622763,5.95695516788183,1.8076433541331316,-1.6392568,-1.9978348,-0.6563747,256.3299,-55.81537,-1.7823092
4773714529000.0,-0.1258269631046302,5.816090838225547,1.97122799715936,-1.5577064,-2.0344868,-0.65148777,256.83807,-55.63025,-1.572898
4773720239000.0,-0.0656167721020508,5.6625928178785205,2.136593881885977,-1.4648548,-2.0732768,-0.6542367,257.36655,-55.458923,-1.2855989
4773724629000.0,-0.0532405035729565,5.547080808262192,2.256231095800216,-1.4059063,-2.082745,-0.66614854,257.88968,-55.309566,-1.0045265
4773729547000.0,-0.0403231319717474,5.3609908058074645,2.4012614471921867,-1.3206906,-2.0638082,-0.68203104,258.4233,-55.161995,-0.6852225
4773734521000.0,-0.0278619269550052,5.136689125915591,2.554949719602372,-1.251052,-2.0335703,-0.6969972,258.94943,-55.034702,-0.3777617
4773739549000.0,0.0331328780401448,4.963023294143818,2.6731171743300566,-1.169807,-1.9859229,-0.7199047,259.48203,-54.891094,-0.07876917
4773744550000.0,0.2016153179195033,4.908514308649767,2.707804762296948,-1.0845913,-1.9257526,-0.75594574,260.00018,-54.77624,0.19803147
4773749504000.0,0.3523527443985777,4.834819065414968,2.7202110061746594,-1.0048733,-1.8616118,-0.7593055,260.51373,-54.61427,0.470619
4773754602000.0,0.4793735503616338,4.724734274364756,2.6948068202237447,-0.9053023,-1.78617,-0.75900006,261.00635,-54.489983,0.71628845
4773759553000.0,0.5998833884020379,4.622137606530801,2.666872331125521,-0.8051204,-1.6829338,-0.76174897,261.50226,-54.386414,1.0029824
4773764505000.0,0.6840859364211826,4.574544849698935,2.597313665941022,-0.70249504,-1.5873333,-0.7620544,261.9718,-54.318275,1.267954
4773769785000.0,0.7738657129844064,4.523799745484021,2.5231477224486647,-0.6093381,-1.4682146,-0.7480045,262.4297,-54.275814,1.572143
4773774617000.0,0.8296025790744921,4.487749871990218,2.4499221998118887,-0.5006041,-1.3435981,-0.7302894,262.8532,-54.271393,1.8454573
4773779520000.0,0.8605173222009029,4.461251582665538,2.370427101260346,-0.41141775,-1.2260065,-0.7134906,263.2397,-54.29115,2.0898473
4773784523000.0,0.8741099571012079,4.455811743231987,2.319326178883798,-0.30848694,-1.0601566,-0.69913524,263.62827,-54.33706,2.3264196
4773789526000.0,0.8541546341524365,4.490733610485215,2.324315061713869,-0.21135938,-0.9877691,-0.68325275,264.00082,-54.4085,2.5517669
4773794602000.0,0.8509862238482385,4.494221530826558,2.345675296612466,-0.110872045,-0.83077675,-0.65179324,264.3486,-54.50522,2.7588012
